#time,accel_x,accel_y,accel_z
1211.323719,-9400.615463,-1332.370696,2528.115143
1211.324040,-9474.636058,-1258.350101,2145.067394
1211.324361,-9622.677246,-814.226536,2298.286494
1211.324682,-9696.697840,-888.247130,1915.238745
1211.325004,-9548.656652,-1184.329507,1838.629195
1211.325325,-9844.739029,-1332.370696,1685.410096
1211.325646,-10214.842000,-1258.350101,1149.143247
1211.325967,-9844.739029,-1702.473667,1149.143247
1211.326288,-9696.697840,-1850.514855,1149.143247
1211.326609,-9474.636058,-1554.432478,842.705048
1211.326931,-9474.636058,-1332.370696,1149.143247
1211.327252,-9622.677246,-592.164754,766.095498
1211.327573,-9992.780217,-370.102971,919.314598
1211.327894,-9918.759623,-296.082377,612.876398
1211.328215,-9844.739029,-148.041188,995.924147
1211.328536,-9918.759623,-148.041188,1685.410096
1211.328858,-9918.759623,-666.185348,995.924147
1211.329179,-9696.697840,-148.041188,1608.800546
1211.329500,-9548.656652,-1332.370696,1149.143247
1211.329821,-8586.388927,-740.205942,1302.362347
1211.330142,-9696.697840,-1406.391290,1838.629195
1211.330463,-9622.677246,-1850.514855,2374.896044
1211.330784,-9622.677246,-1924.535449,2221.676944
1211.331106,-9474.636058,-1850.514855,4443.353888
1211.331427,-9474.636058,-1702.473667,2911.162892
1211.331748,-9474.636058,-1850.514855,2757.943793
1211.332069,-9474.636058,-1702.473667,3217.601092
1211.332390,-9252.574275,-1776.494261,3524.039291
1211.332711,-9400.615463,-1998.556043,3907.087040
1211.333033,-9400.615463,-2442.679609,4826.401637
1211.333354,-9178.553681,-2886.803174,5669.106685
1211.333675,-9178.553681,-4219.173869,5975.544884
1211.333996,-8290.306550,-4145.153275,7048.078582
1211.334317,-9104.533087,-5107.421000,7048.078582
1211.334638,-8882.471304,-5699.585753,7354.516781
1211.334960,-8734.430116,-5921.647536,7431.126331
1211.335281,-8734.430116,-5403.503377,8580.269578
1211.335602,-8438.347739,-5995.668130,7048.078582
1211.335923,-8734.430116,-6069.688724,7201.297681
1211.336244,-8660.409521,-5403.503377,6665.030833
1211.336565,-8956.491898,-5181.441594,6281.983084
1211.336887,-9252.574275,-4737.318029,5745.716235
1211.337208,-9252.574275,-4589.276840,5515.887586
1211.337529,-9548.656652,-4145.153275,5286.058936
1211.337850,-9696.697840,-4071.132681,5209.449386
1211.338171,-10066.800811,-4441.235652,4826.401637
1211.338492,-9992.780217,-4219.173869,4290.134789
1211.338813,-10140.821405,-4441.235652,4290.134789
1211.339135,-9992.780217,-4367.215058,3983.696590
1211.339456,-9918.759623,-4737.318029,2451.505594
1211.339777,-9622.677246,-4959.379811,2451.505594
1211.340098,-10066.800811,-4663.297435,1608.800546
1211.340419,-9918.759623,-3849.070898,1225.752797
1211.340740,-10214.842000,-3034.844362,766.095498
1211.341062,-10140.821405,-2294.638420,842.705048
1211.341383,-10362.883188,-1776.494261,612.876398
1211.341704,-10658.965565,-1628.453072,1149.143247
1211.342025,-10510.924376,-2146.597232,689.485948
1211.342346,-9400.615463,-3478.967927,536.266849
1211.342667,-10066.800811,-3849.070898,459.657299
1211.342989,-9474.636058,-4367.215058,-229.828649
1211.343310,-9030.512492,-3775.050304,-766.095498
1211.343631,-9104.533087,-2738.761985,-1378.971896
1211.343952,-9400.615463,-1850.514855,-153.219100
1211.344273,-9178.553681,-1332.370696,-306.438199
1211.344594,-9178.553681,-1258.350101,-459.657299
1211.344915,-9326.594869,-1332.370696,-995.924147
1211.345237,-9030.512492,-1480.411884,-612.876398
1211.345558,-9474.636058,-1110.308913,-1225.752797
1211.345879,-9178.553681,0.000000,-1532.190996
1211.346200,-9474.636058,1184.329507,-536.266849
1211.346521,-9844.739029,2294.638420,306.438199
1211.346842,-9474.636058,2590.720797,1685.410096
1211.347164,-10288.862594,2442.679609,3370.820191
1211.347485,-9992.780217,1036.288319,4290.134789
1211.347805,-10066.800811,-962.267725,4136.915689
1211.348126,-8956.491898,-1628.453072,3983.696590
1211.348447,-8660.409521,-1332.370696,4519.963438
1211.348768,-9030.512492,-1036.288319,5209.449386
1211.349088,-8438.347739,-740.205942,5362.668486
1211.349409,-8808.450710,-1258.350101,3830.477490
1211.349730,-8956.491898,-814.226536,3064.381992
1211.350051,-8734.430116,148.041188,2298.286494
1211.350371,-9178.553681,1924.535449,1685.410096
1211.350692,-10436.903782,4367.215058,2374.896044
1211.351013,-10288.862594,5403.503377,2451.505594
1211.351334,-11029.068536,5625.565159,3064.381992
1211.351654,-10881.027347,4367.215058,3677.258390
1211.351975,-11621.233289,2812.782580,4213.525239
1211.352296,-11695.253884,296.082377,4673.182538
1211.352617,-10658.965565,-2664.741391,3677.258390
1211.352937,-8290.306550,-2368.659014,3524.039291
1211.353258,-10066.800811,-3997.112087,3370.820191
1211.353579,-8586.388927,-740.205942,4136.915689
1211.353899,-9030.512492,-3330.926739,2757.943793
1211.354220,-9104.533087,-2738.761985,2068.457845
1211.354541,-8290.306550,-2220.617826,-229.828649
1211.354862,-8808.450710,-444.123565,-1532.190996
1211.355182,-9104.533087,2368.659014,-1532.190996
1211.355503,-9548.656652,4515.256246,-2374.896044
1211.355824,-10510.924376,5921.647536,-1685.410096
1211.356145,-10658.965565,5181.441594,-1838.629195
1211.356465,-11399.171507,3849.070898,-1225.752797
1211.356786,-11843.295072,1480.411884,76.609550
1211.357107,-10807.006753,-740.205942,689.485948
1211.357428,-9844.739029,-3552.988522,536.266849
1211.357748,-9252.574275,-5033.400406,1378.971896
1211.358069,-7994.224174,-6513.812290,1149.143247
1211.358390,-7846.182985,-7254.018232,689.485948
1211.358711,-7994.224174,-7328.038826,0.000000
1211.359031,-7328.038826,-5625.565159,-766.095498
1211.359352,-7698.141797,-2664.741391,-2068.457845
1211.359673,-9030.512492,148.041188,-1455.581446
1211.359993,-9622.677246,2812.782580,-842.705048
1211.360314,-10288.862594,3330.926739,-383.047749
1211.360635,-11029.068536,2516.700203,-919.314598
1211.360956,-11399.171507,1776.494261,-459.657299
1211.361276,-11843.295072,444.123565,76.609550
1211.361597,-10807.006753,0.000000,1225.752797
1211.361918,-10288.862594,-1036.288319,0.000000
1211.362239,-8808.450710,-1850.514855,1302.362347
1211.362559,-8956.491898,-3775.050304,2298.286494
1211.362880,-7920.203579,-5255.462188,2987.772442
1211.363201,-8808.450710,-7105.977043,3524.039291
1211.363522,-8142.265362,-6883.915261,2834.553343
1211.363842,-8216.285956,-4589.276840,1991.848295
1211.364163,-8808.450710,-962.267725,1608.800546
1211.364484,-9918.759623,2294.638420,2068.457845
1211.364804,-10066.800811,3923.091493,2145.067394
1211.365125,-10881.027347,4293.194464,2068.457845
1211.365446,-11399.171507,4145.153275,1685.410096
1211.365767,-11547.212695,2368.659014,1532.190996
1211.366087,-11029.068536,1850.514855,1991.848295
1211.366408,-11029.068536,444.123565,2834.553343
1211.366729,-9622.677246,-222.061783,2834.553343
1211.367050,-9326.594869,-2146.597232,3600.648841
1211.367370,-8956.491898,-3997.112087,4903.011187
1211.367691,-8586.388927,-5107.421000,3140.991542
1211.368012,-8956.491898,-4663.297435,2374.896044
1211.368333,-8438.347739,-1850.514855,1608.800546
1211.368653,-8364.327145,1332.370696,1225.752797
1211.368974,-9104.533087,3256.906145,1378.971896
1211.369295,-9104.533087,3552.988522,76.609550
1211.369616,-9622.677246,2960.823768,0.000000
1211.369936,-10288.862594,2516.700203,-229.828649
1211.370257,-10214.842000,1850.514855,-612.876398
1211.370578,-10510.924376,2738.761985,0.000000
1211.370898,-10510.924376,2960.823768,459.657299
1211.371219,-10362.883188,2072.576638,1225.752797
1211.371540,-9696.697840,370.102971,1225.752797
1211.371861,-9622.677246,-2738.761985,1455.581446
1211.372181,-9178.553681,-4811.338623,612.876398
1211.372502,-8438.347739,-4959.379811,76.609550
1211.372823,-8068.244768,-2960.823768,-689.485948
1211.373144,-7476.080014,148.041188,-1149.143247
1211.373464,-8438.347739,3182.885551,-459.657299
1211.373785,-8808.450710,3849.070898,-229.828649
1211.374106,-9252.574275,3552.988522,-842.705048
1211.374427,-9992.780217,1850.514855,306.438199
1211.374747,-10584.944971,2072.576638,-306.438199
1211.375068,-10732.986159,1702.473667,76.609550
1211.375389,-10881.027347,1184.329507,995.924147
1211.375710,-10214.842000,444.123565,2298.286494
1211.376030,-9770.718434,-592.164754,1838.629195
1211.376351,-9918.759623,-1998.556043,1532.190996
1211.376672,-9548.656652,-2664.741391,1378.971896
1211.376992,-9474.636058,-2664.741391,1225.752797
1211.377313,-8956.491898,-1184.329507,459.657299
1211.377634,-8734.430116,0.000000,383.047749
1211.377955,-9104.533087,962.267725,612.876398
1211.378275,-9474.636058,1110.308913,1072.533697
1211.378596,-9474.636058,296.082377,1302.362347
1211.378917,-10732.986159,0.000000,1378.971896
1211.379238,-10436.903782,666.185348,1302.362347
1211.379558,-10732.986159,518.144159,2451.505594
1211.379879,-10436.903782,370.102971,995.924147
1211.380200,-10066.800811,-740.205942,2681.334243
1211.380521,-9696.697840,-2072.576638,2834.553343
1211.380841,-9474.636058,-2368.659014,2298.286494
1211.381162,-10214.842000,-4145.153275,2068.457845
1211.381483,-9104.533087,-3108.864956,1838.629195
1211.381804,-9104.533087,-2442.679609,766.095498
1211.382124,-9178.553681,-222.061783,612.876398
1211.382445,-8586.388927,370.102971,766.095498
1211.382766,-9252.574275,740.205942,919.314598
1211.383086,-9770.718434,0.000000,2221.676944
1211.383407,-9770.718434,-962.267725,1149.143247
1211.383728,-10140.821405,-1036.288319,1762.019645
1211.384049,-9696.697840,-1110.308913,3753.867940
1211.384369,-9622.677246,-1184.329507,2451.505594
1211.384690,-9770.718434,-1924.535449,2604.724693
1211.385011,-8808.450710,-2516.700203,1838.629195
1211.385332,-8882.471304,-3256.906145,995.924147
1211.385652,-8882.471304,-3330.926739,689.485948
1211.385973,-8512.368333,-2146.597232,-76.609550
1211.386294,-8956.491898,0.000000,-76.609550
1211.386615,-9400.615463,1184.329507,0.000000
1211.386935,-8956.491898,2368.659014,612.876398
1211.387256,-10288.862594,1110.308913,1072.533697
1211.387577,-10658.965565,0.000000,1149.143247
1211.387898,-10436.903782,-1110.308913,1378.971896
1211.388218,-10214.842000,-1332.370696,995.924147
1211.388539,-9918.759623,-518.144159,919.314598
1211.388860,-9548.656652,-518.144159,1685.410096
1211.389180,-9252.574275,-1110.308913,1685.410096
1211.389501,-9178.553681,-2146.597232,1225.752797
1211.389822,-9548.656652,-2886.803174,459.657299
1211.390143,-9326.594869,-3256.906145,-229.828649
1211.390463,-9178.553681,-1776.494261,-689.485948
1211.390784,-9400.615463,222.061783,-919.314598
1211.391105,-9400.615463,2664.741391,612.876398
1211.391426,-9696.697840,3182.885551,-306.438199
1211.391746,-9918.759623,2664.741391,-306.438199
1211.392067,-10510.924376,1332.370696,383.047749
1211.392388,-10807.006753,370.102971,2528.115143
1211.392709,-10584.944971,-148.041188,1225.752797
1211.393029,-10436.903782,-444.123565,1838.629195
1211.393350,-9474.636058,-1110.308913,2145.067394
1211.393671,-9326.594869,-1628.453072,2987.772442
1211.393992,-9474.636058,-2368.659014,3294.210641
1211.394312,-9326.594869,-2960.823768,1685.410096
1211.394633,-8808.450710,-2146.597232,76.609550
1211.394954,-8586.388927,148.041188,153.219100
1211.395274,-8512.368333,2886.803174,766.095498
1211.395595,-9548.656652,3849.070898,919.314598
1211.395916,-9622.677246,3627.009116,1149.143247
1211.396237,-10436.903782,2886.803174,1225.752797
1211.396557,-10955.047942,814.226536,-153.219100
1211.396878,-10510.924376,-148.041188,2068.457845
1211.397199,-10436.903782,-592.164754,2298.286494
1211.397520,-9622.677246,-296.082377,2145.067394
1211.397840,-9178.553681,-592.164754,2374.896044
1211.398161,-8882.471304,-1258.350101,2834.553343
1211.398482,-8660.409521,-2368.659014,2068.457845
1211.398803,-9030.512492,-3182.885551,1378.971896
1211.399123,-8586.388927,-3182.885551,383.047749
1211.399444,-9030.512492,-1628.453072,0.000000
1211.399765,-9326.594869,592.164754,0.000000
1211.400086,-9474.636058,2516.700203,0.000000
1211.400406,-9622.677246,3108.864956,766.095498
1211.400727,-10584.944971,2368.659014,2068.457845
1211.401048,-10955.047942,1258.350101,1149.143247
1211.401368,-10584.944971,74.020594,1072.533697
1211.401689,-10362.883188,-296.082377,1455.581446
1211.402010,-9548.656652,-962.267725,1685.410096
1211.402331,-9252.574275,-1628.453072,1455.581446
1211.402651,-8808.450710,-2664.741391,1762.019645
1211.402972,-8882.471304,-3627.009116,1225.752797
1211.403293,-8956.491898,-3627.009116,306.438199
1211.403614,-9326.594869,-1776.494261,-766.095498
1211.403934,-9104.533087,0.000000,-153.219100
1211.404255,-9474.636058,1554.432478,76.609550
1211.404576,-9622.677246,2442.679609,229.828649
1211.404897,-9844.739029,1776.494261,-229.828649
1211.405217,-10658.965565,1036.288319,459.657299
1211.405538,-10807.006753,222.061783,612.876398
1211.405859,-10807.006753,-222.061783,919.314598
1211.406180,-10140.821405,0.000000,1532.190996
1211.406500,-9992.780217,0.000000,1378.971896
1211.406821,-9178.553681,-1036.288319,2451.505594
1211.407142,-9326.594869,-2886.803174,2298.286494
1211.407462,-9178.553681,-4293.194464,2298.286494
1211.407783,-8438.347739,-4737.318029,689.485948
1211.408104,-8364.327145,-3330.926739,459.657299
1211.408425,-8734.430116,-666.185348,153.219100
1211.408745,-8808.450710,1628.453072,689.485948
1211.409066,-9104.533087,3182.885551,2068.457845
1211.409387,-9474.636058,2590.720797,1225.752797
1211.409708,-10658.965565,1702.473667,1149.143247
1211.410028,-11177.109724,444.123565,1762.019645
1211.410349,-10807.006753,-222.061783,2374.896044
1211.410670,-10807.006753,-888.247130,2528.115143
1211.410991,-9844.739029,-2146.597232,2757.943793
1211.411311,-9326.594869,-2442.679609,2451.505594
1211.411632,-9178.553681,-3404.947333,2374.896044
1211.411953,-8142.265362,-3849.070898,2757.943793
1211.412274,-8734.430116,-3182.885551,919.314598
1211.412594,-8290.306550,-1628.453072,76.609550
1211.412915,-8808.450710,888.247130,0.000000
1211.413236,-9178.553681,2442.679609,1532.190996
1211.413556,-9474.636058,2590.720797,1072.533697
1211.413877,-10066.800811,1850.514855,1225.752797
1211.414198,-10510.924376,962.267725,1072.533697
1211.414519,-10658.965565,814.226536,1532.190996
1211.414839,-10214.842000,592.164754,1685.410096
1211.415160,-10140.821405,592.164754,2374.896044
1211.415481,-9622.677246,518.144159,2604.724693
1211.415802,-9474.636058,-1332.370696,2834.553343
1211.416122,-8586.388927,-2220.617826,2528.115143
1211.416443,-9548.656652,-3775.050304,1915.238745
1211.416764,-9030.512492,-3182.885551,995.924147
1211.417085,-8438.347739,-1702.473667,229.828649
1211.417405,-9104.533087,518.144159,-229.828649
1211.417726,-8660.409521,2590.720797,0.000000
1211.418047,-9474.636058,3478.967927,76.609550
1211.418367,-10658.965565,2516.700203,306.438199
1211.418688,-10584.944971,1480.411884,995.924147
1211.419009,-11103.089130,-370.102971,383.047749
1211.419330,-10288.862594,0.000000,995.924147
1211.419650,-10955.047942,-1332.370696,1838.629195
1211.419971,-9326.594869,-1110.308913,1991.848295
1211.420292,-8438.347739,-1998.556043,2987.772442
1211.420613,-9030.512492,-2738.761985,1149.143247
1211.420933,-8586.388927,-3108.864956,-306.438199
1211.421254,-8808.450710,-2368.659014,-995.924147
1211.421575,-8586.388927,0.000000,-2068.457845
1211.421896,-9252.574275,2368.659014,-612.876398
1211.422216,-9844.739029,3182.885551,383.047749
1211.422537,-9474.636058,2516.700203,0.000000
1211.422858,-10214.842000,1036.288319,76.609550
1211.423179,-10584.944971,0.000000,153.219100
1211.423499,-10436.903782,148.041188,919.314598
1211.423820,-10510.924376,740.205942,919.314598
1211.424141,-9770.718434,666.185348,1532.190996
1211.424461,-9030.512492,1036.288319,1762.019645
1211.424782,-9326.594869,-1480.411884,1915.238745
1211.425103,-9400.615463,-3034.844362,1455.581446
1211.425424,-9326.594869,-4219.173869,919.314598
1211.425744,-8882.471304,-2886.803174,612.876398
1211.426065,-8956.491898,-962.267725,306.438199
1211.426386,-9252.574275,1554.432478,459.657299
1211.426707,-9326.594869,2812.782580,919.314598
1211.427027,-9918.759623,3034.844362,766.095498
1211.427348,-10362.883188,2294.638420,1455.581446
1211.427669,-10436.903782,518.144159,995.924147
1211.427990,-10584.944971,-296.082377,1685.410096
1211.428310,-10510.924376,-666.185348,2145.067394
1211.428631,-9770.718434,-962.267725,3983.696590
1211.428952,-9252.574275,-2220.617826,3140.991542
1211.429273,-9030.512492,-3552.988522,2911.162892
1211.429593,-9030.512492,-4219.173869,2145.067394
1211.429914,-9178.553681,-3701.029710,1302.362347
1211.430235,-8660.409521,-2072.576638,919.314598
1211.430555,-9030.512492,148.041188,306.438199
1211.430876,-9252.574275,2072.576638,612.876398
1211.431197,-9474.636058,2664.741391,689.485948
1211.431518,-10288.862594,2146.597232,1225.752797
1211.431838,-10510.924376,518.144159,842.705048
1211.432159,-10362.883188,-518.144159,842.705048
1211.432480,-10140.821405,-1184.329507,1225.752797
1211.432801,-9474.636058,0.000000,1149.143247
1211.433121,-9474.636058,-740.205942,2298.286494
1211.433442,-9030.512492,-1924.535449,2681.334243
1211.433763,-9178.553681,-3404.947333,2374.896044
1211.434084,-9178.553681,-4589.276840,1378.971896
1211.434404,-8956.491898,-4145.153275,153.219100
1211.434725,-8734.430116,-2516.700203,0.000000
1211.435046,-8734.430116,592.164754,0.000000
1211.435367,-9104.533087,2664.741391,-76.609550
1211.435687,-9474.636058,3923.091493,0.000000
1211.436008,-10288.862594,3108.864956,306.438199
1211.436329,-10807.006753,1776.494261,689.485948
1211.436649,-10881.027347,222.061783,995.924147
1211.436970,-10658.965565,-666.185348,1072.533697
1211.437291,-10140.821405,-814.226536,2145.067394
1211.437612,-9622.677246,-1184.329507,2451.505594
1211.437932,-9252.574275,-1924.535449,2451.505594
1211.438253,-9030.512492,-3034.844362,3217.601092
1211.438574,-9104.533087,-3627.009116,1455.581446
1211.438895,-8808.450710,-2738.761985,229.828649
1211.439215,-8882.471304,-814.226536,153.219100
1211.439536,-9622.677246,1406.391290,306.438199
1211.439857,-9400.615463,2368.659014,612.876398
1211.440178,-9622.677246,2368.659014,76.609550
1211.440498,-10510.924376,1850.514855,229.828649
1211.440819,-10732.986159,444.123565,383.047749
1211.441140,-10288.862594,-370.102971,153.219100
1211.441461,-10140.821405,148.041188,1149.143247
1211.441781,-10140.821405,444.123565,1149.143247
1211.442102,-9548.656652,-222.061783,2068.457845
1211.442423,-9104.533087,-1776.494261,2451.505594
1211.442743,-9400.615463,-3701.029710,1838.629195
1211.443064,-8882.471304,-4441.235652,995.924147
1211.443385,-9178.553681,-3182.885551,459.657299
1211.443706,-9252.574275,-1036.288319,459.657299
1211.444026,-9400.615463,1332.370696,689.485948
1211.444347,-9178.553681,2442.679609,306.438199
1211.444668,-9622.677246,2960.823768,383.047749
1211.444989,-10510.924376,1776.494261,995.924147
1211.445309,-10436.903782,888.247130,0.000000
1211.445630,-10214.842000,1036.288319,919.314598
1211.445951,-10436.903782,592.164754,1378.971896
1211.446272,-9474.636058,148.041188,1762.019645
1211.446592,-9400.615463,-592.164754,1838.629195
1211.446913,-9326.594869,-1924.535449,2145.067394
1211.447234,-9326.594869,-3404.947333,1378.971896
1211.447555,-9178.553681,-3701.029710,1149.143247
1211.447875,-8660.409521,-2516.700203,459.657299
1211.448196,-9548.656652,592.164754,-229.828649
1211.448517,-9104.533087,2072.576638,383.047749
1211.448838,-9548.656652,2738.761985,459.657299
1211.449159,-9918.759623,2368.659014,459.657299
1211.449479,-10584.944971,1702.473667,-459.657299
1211.449800,-10732.986159,518.144159,383.047749
1211.450121,-10436.903782,74.020594,306.438199
1211.450442,-10288.862594,296.082377,995.924147
1211.450762,-9696.697840,148.041188,1685.410096
1211.451083,-9178.553681,-666.185348,1991.848295
1211.451404,-9474.636058,-2146.597232,1915.238745
1211.451725,-9474.636058,-3775.050304,1302.362347
1211.452046,-9104.533087,-4145.153275,919.314598
1211.452366,-9104.533087,-2516.700203,0.000000
1211.452687,-9178.553681,-370.102971,459.657299
1211.453008,-8808.450710,1850.514855,536.266849
1211.453329,-9030.512492,2516.700203,1072.533697
1211.453649,-9548.656652,2590.720797,2298.286494
1211.453970,-10436.903782,814.226536,1225.752797
1211.454291,-10362.883188,-222.061783,1378.971896
1211.454612,-10288.862594,-814.226536,1685.410096
1211.454933,-10140.821405,-592.164754,2374.896044
1211.455253,-9844.739029,-666.185348,3370.820191
1211.455574,-9104.533087,-1406.391290,2834.553343
1211.455895,-9178.553681,-2442.679609,2451.505594
1211.456216,-9178.553681,-3478.967927,1608.800546
1211.456536,-9252.574275,-3182.885551,612.876398
1211.456857,-8956.491898,-1480.411884,-229.828649
1211.457178,-8882.471304,1184.329507,229.828649
1211.457499,-8882.471304,2368.659014,306.438199
1211.457820,-9252.574275,1702.473667,612.876398
1211.458140,-9400.615463,1258.350101,-229.828649
1211.458461,-10362.883188,444.123565,0.000000
1211.458782,-10584.944971,-222.061783,383.047749
1211.459103,-10214.842000,-518.144159,919.314598
1211.459423,-9770.718434,-222.061783,1532.190996
1211.459744,-9992.780217,-888.247130,2221.676944
1211.460065,-9474.636058,-1850.514855,2757.943793
1211.460386,-9622.677246,-3923.091493,2374.896044
1211.460707,-9400.615463,-4737.318029,2145.067394
1211.461027,-9104.533087,-3849.070898,229.828649
1211.461348,-9326.594869,-1406.391290,76.609550
1211.461669,-9178.553681,1258.350101,229.828649
1211.461990,-9030.512492,3849.070898,2221.676944
1211.462311,-9622.677246,3849.070898,153.219100
1211.462631,-10436.903782,3108.864956,612.876398
1211.462952,-11029.068536,1480.411884,995.924147
1211.463273,-10584.944971,74.020594,1455.581446
1211.463594,-10658.965565,-592.164754,2298.286494
1211.463914,-9770.718434,-444.123565,2604.724693
1211.464235,-9474.636058,-1332.370696,2834.553343
1211.464556,-8808.450710,-2368.659014,2528.115143
1211.464877,-9104.533087,-3330.926739,2451.505594
1211.465198,-8808.450710,-3627.009116,0.000000
1211.465518,-8734.430116,-1850.514855,0.000000
1211.465839,-9252.574275,740.205942,-459.657299
1211.466160,-9474.636058,2590.720797,689.485948
1211.466481,-9696.697840,3034.844362,612.876398
1211.466801,-9770.718434,2146.597232,383.047749
1211.467122,-10584.944971,740.205942,-153.219100
1211.467443,-10955.047942,222.061783,536.266849
1211.467764,-10140.821405,74.020594,1225.752797
1211.468085,-9844.739029,370.102971,1378.971896
1211.468405,-9474.636058,296.082377,1532.190996
1211.468726,-8882.471304,-444.123565,1838.629195
1211.469047,-9474.636058,-2368.659014,1225.752797
1211.469368,-9252.574275,-4293.194464,1762.019645
1211.469688,-9178.553681,-4293.194464,766.095498
1211.470009,-8882.471304,-2738.761985,459.657299
1211.470330,-8438.347739,888.247130,1455.581446
1211.470651,-8956.491898,2220.617826,919.314598
1211.470972,-9400.615463,3701.029710,919.314598
1211.471292,-9770.718434,3182.885551,1149.143247
1211.471613,-10807.006753,1924.535449,842.705048
1211.471934,-10584.944971,444.123565,1072.533697
1211.472255,-10658.965565,-592.164754,1532.190996
1211.472575,-10288.862594,-666.185348,2068.457845
1211.472896,-9696.697840,-888.247130,2451.505594
1211.473217,-9178.553681,-1480.411884,2528.115143
1211.473538,-9474.636058,-2590.720797,2604.724693
1211.473859,-9252.574275,-3404.947333,1838.629195
1211.474179,-9252.574275,-2960.823768,1149.143247
1211.474500,-9474.636058,-1776.494261,766.095498
1211.474821,-9104.533087,888.247130,306.438199
1211.475142,-9400.615463,1554.432478,153.219100
1211.475462,-9326.594869,2368.659014,459.657299
1211.475783,-10288.862594,1332.370696,919.314598
1211.476104,-10436.903782,370.102971,459.657299
1211.476425,-10658.965565,0.000000,995.924147
1211.476746,-10658.965565,-444.123565,1608.800546
1211.477066,-9770.718434,74.020594,1838.629195
1211.477387,-9622.677246,0.000000,1915.238745
1211.477708,-9178.553681,-1332.370696,2528.115143
1211.478029,-9104.533087,-2812.782580,2451.505594
1211.478350,-9474.636058,-4515.256246,1608.800546
1211.478670,-8734.430116,-3478.967927,1608.800546
1211.478991,-8882.471304,-1702.473667,153.219100
1211.479312,-9178.553681,1036.288319,612.876398
1211.479633,-9178.553681,2516.700203,383.047749
1211.479953,-9400.615463,3034.844362,536.266849
1211.480274,-10362.883188,2294.638420,459.657299
1211.480595,-10658.965565,1036.288319,612.876398
1211.480916,-10214.842000,0.000000,1302.362347
1211.481237,-10881.027347,-296.082377,2298.286494
1211.481557,-10140.821405,-666.185348,1915.238745
1211.481878,-9474.636058,-1332.370696,2221.676944
1211.482199,-9252.574275,-3034.844362,2604.724693
1211.482520,-8956.491898,-3997.112087,2145.067394
1211.482840,-9252.574275,-3849.070898,1302.362347
1211.483161,-8956.491898,-3330.926739,306.438199
1211.483482,-8808.450710,-518.144159,-306.438199
1211.483803,-9030.512492,1480.411884,-306.438199
1211.484124,-9326.594869,2738.761985,0.000000
1211.484444,-9474.636058,2590.720797,-229.828649
1211.484765,-10436.903782,1480.411884,153.219100
1211.485086,-10807.006753,222.061783,153.219100
1211.485407,-10732.986159,0.000000,689.485948
1211.485727,-11399.171507,222.061783,1838.629195
1211.486048,-10066.800811,222.061783,2298.286494
1211.486369,-9622.677246,0.000000,2451.505594
1211.486690,-9622.677246,-1480.411884,2604.724693
1211.487011,-9844.739029,-2812.782580,2145.067394
1211.487331,-9252.574275,-3923.091493,1378.971896
1211.487652,-9178.553681,-2960.823768,383.047749
1211.487973,-8660.409521,-1110.308913,0.000000
1211.488294,-8512.368333,1258.350101,-229.828649
1211.488614,-9326.594869,2738.761985,459.657299
1211.488935,-9474.636058,3182.885551,612.876398
1211.489256,-10584.944971,2294.638420,383.047749
1211.489577,-10658.965565,814.226536,1072.533697
1211.489898,-10066.800811,370.102971,383.047749
1211.490218,-10584.944971,0.000000,1455.581446
1211.490539,-9622.677246,0.000000,2068.457845
1211.490860,-9252.574275,-888.247130,2451.505594
1211.491181,-8808.450710,-1998.556043,1915.238745
1211.491502,-9104.533087,-3478.967927,1302.362347
1211.491822,-9474.636058,-3627.009116,919.314598
1211.492143,-9104.533087,-2368.659014,459.657299
1211.492464,-8956.491898,74.020594,306.438199
1211.492785,-9178.553681,2072.576638,306.438199
1211.493105,-9474.636058,2516.700203,229.828649
1211.493426,-9844.739029,1924.535449,536.266849
1211.493747,-10732.986159,370.102971,766.095498
1211.494068,-10584.944971,-518.144159,153.219100
1211.494389,-10140.821405,-444.123565,383.047749
1211.494709,-10066.800811,148.041188,1149.143247
1211.495030,-9770.718434,592.164754,1915.238745
1211.495351,-8660.409521,370.102971,3447.429741
1211.495672,-9326.594869,-1998.556043,1685.410096
1211.495992,-9474.636058,-3034.844362,1149.143247
1211.496313,-9252.574275,-2886.803174,536.266849
1211.496634,-9400.615463,-1184.329507,1225.752797
1211.496955,-9252.574275,1258.350101,459.657299
1211.497276,-9104.533087,2886.803174,612.876398
1211.497596,-9548.656652,3330.926739,995.924147
1211.497917,-10214.842000,2220.617826,919.314598
1211.498238,-10436.903782,740.205942,1149.143247
1211.498559,-10732.986159,-148.041188,1302.362347
1211.498879,-10510.924376,-296.082377,1762.019645
1211.499200,-10066.800811,-296.082377,1838.629195
1211.499521,-9474.636058,-888.247130,2528.115143
1211.499842,-8956.491898,-1924.535449,2451.505594
1211.500163,-9030.512492,-3182.885551,2068.457845
1211.500483,-9030.512492,-4293.194464,1072.533697
1211.500804,-8586.388927,-2960.823768,689.485948
1211.501125,-9326.594869,-1036.288319,383.047749
1211.501446,-9030.512492,1628.453072,536.266849
1211.501766,-9104.533087,2590.720797,766.095498
1211.502087,-9696.697840,2072.576638,612.876398
1211.502408,-9770.718434,1184.329507,995.924147
1211.502729,-10732.986159,0.000000,1149.143247
1211.503050,-10658.965565,-962.267725,995.924147
1211.503370,-9844.739029,-444.123565,1302.362347
1211.503691,-10214.842000,-296.082377,3447.429741
1211.504012,-8808.450710,-222.061783,1685.410096
1211.504333,-9400.615463,-1924.535449,1838.629195
1211.504654,-9104.533087,-2664.741391,1072.533697
1211.504974,-9400.615463,-3775.050304,306.438199
1211.505295,-8956.491898,-2442.679609,383.047749
1211.505616,-8956.491898,-370.102971,-306.438199
1211.505937,-9548.656652,1776.494261,76.609550
1211.506257,-9178.553681,3256.906145,76.609550
1211.506578,-9918.759623,2886.803174,536.266849
1211.506899,-10510.924376,1628.453072,919.314598
1211.507220,-10881.027347,74.020594,306.438199
1211.507541,-10732.986159,-592.164754,919.314598
1211.507861,-9844.739029,-1110.308913,1072.533697
1211.508182,-10140.821405,-1036.288319,1838.629195
1211.508503,-9474.636058,-1258.350101,2068.457845
1211.508824,-9326.594869,-2072.576638,1838.629195
1211.509144,-9622.677246,-3256.906145,1455.581446
1211.509465,-9770.718434,-3256.906145,536.266849
1211.509786,-9400.615463,-1776.494261,0.000000
1211.510107,-9918.759623,592.164754,0.000000
1211.510428,-9770.718434,2516.700203,0.000000
1211.510748,-9696.697840,3108.864956,0.000000
1211.511069,-9474.636058,1998.556043,-306.438199
1211.511390,-10214.842000,962.267725,-76.609550
1211.511711,-10288.862594,-148.041188,229.828649
1211.512031,-9770.718434,-444.123565,766.095498
1211.512352,-9918.759623,0.000000,1302.362347
1211.512673,-9474.636058,-148.041188,2221.676944
1211.512994,-9030.512492,-814.226536,2987.772442
1211.513315,-9326.594869,-2442.679609,3217.601092
1211.513635,-8956.491898,-3849.070898,2528.115143
1211.513956,-9252.574275,-3478.967927,1991.848295
1211.514277,-8586.388927,-2294.638420,995.924147
1211.514598,-9104.533087,444.123565,1072.533697
1211.514918,-9178.553681,2812.782580,1225.752797
1211.515239,-8586.388927,2812.782580,612.876398
1211.515560,-9844.739029,2738.761985,919.314598
1211.515881,-10436.903782,1628.453072,766.095498
1211.516202,-10510.924376,444.123565,1762.019645
1211.516522,-9844.739029,-1702.473667,2528.115143
1211.516843,-10140.821405,-1628.453072,2681.334243
1211.517164,-9252.574275,-2368.659014,2604.724693
1211.517485,-9178.553681,-2960.823768,2681.334243
1211.517805,-8808.450710,-3330.926739,2528.115143
1211.518126,-8882.471304,-4293.194464,1378.971896
1211.518447,-8364.327145,-3108.864956,306.438199
1211.518768,-8734.430116,-1036.288319,-459.657299
1211.519089,-9474.636058,1184.329507,0.000000
1211.519409,-9474.636058,3034.844362,919.314598
1211.519730,-9770.718434,3330.926739,459.657299
1211.520051,-10732.986159,2146.597232,766.095498
1211.520372,-10881.027347,962.267725,459.657299
1211.520693,-10658.965565,-148.041188,0.000000
1211.521013,-10436.903782,-370.102971,536.266849
1211.521334,-9918.759623,-222.061783,612.876398
1211.521655,-9474.636058,-222.061783,1072.533697
1211.521976,-9400.615463,-1110.308913,1838.629195
1211.522296,-9326.594869,-2442.679609,1532.190996
1211.522617,-9474.636058,-3849.070898,612.876398
1211.522938,-9400.615463,-3404.947333,-153.219100
1211.523259,-9474.636058,-1258.350101,-536.266849
1211.523580,-9548.656652,1628.453072,0.000000
1211.523900,-9844.739029,3182.885551,459.657299
1211.524221,-9696.697840,3330.926739,459.657299
1211.524542,-10066.800811,2072.576638,76.609550
1211.524863,-9992.780217,814.226536,766.095498
1211.525183,-10066.800811,-740.205942,766.095498
1211.525504,-10066.800811,-740.205942,1532.190996
1211.525825,-9622.677246,-1332.370696,2528.115143
1211.526146,-8882.471304,-1628.453072,2374.896044
1211.526467,-8808.450710,-2590.720797,2528.115143
1211.526787,-8808.450710,-3404.947333,2451.505594
1211.527108,-9030.512492,-3627.009116,1532.190996
1211.527429,-8882.471304,-2146.597232,842.705048
1211.527750,-8882.471304,74.020594,612.876398
1211.528070,-8808.450710,2220.617826,612.876398
1211.528391,-9104.533087,2664.741391,919.314598
1211.528712,-9770.718434,1924.535449,919.314598
1211.529033,-9326.594869,1924.535449,0.000000
1211.529354,-11029.068536,444.123565,919.314598
1211.529674,-10214.842000,-148.041188,1378.971896
1211.529995,-9696.697840,296.082377,1991.848295
1211.530316,-9992.780217,814.226536,459.657299
1211.530637,-9400.615463,-296.082377,2757.943793
1211.530957,-9104.533087,-2368.659014,2298.286494
1211.531278,-9548.656652,-3330.926739,2451.505594
1211.531599,-8956.491898,-4441.235652,919.314598
1211.531920,-9326.594869,-2960.823768,766.095498
1211.532241,-9030.512492,-888.247130,383.047749
1211.532561,-8808.450710,1924.535449,0.000000
1211.532882,-9474.636058,3478.967927,1072.533697
1211.533203,-10288.862594,2886.803174,536.266849
1211.533524,-10436.903782,1850.514855,842.705048
1211.533845,-11177.109724,296.082377,919.314598
1211.534165,-10214.842000,0.000000,919.314598
1211.534486,-10214.842000,0.000000,1838.629195
1211.534807,-9992.780217,-666.185348,2451.505594
1211.535128,-9400.615463,-1480.411884,2451.505594
1211.535448,-9400.615463,-2516.700203,1608.800546
1211.535769,-9474.636058,-3478.967927,995.924147
1211.536090,-9622.677246,-2886.803174,229.828649
1211.536411,-9178.553681,-1258.350101,306.438199
1211.536732,-9400.615463,1332.370696,0.000000
1211.537052,-9252.574275,2886.803174,0.000000
1211.537373,-8586.388927,2590.720797,-306.438199
1211.537694,-10066.800811,1702.473667,229.828649
1211.538015,-10288.862594,222.061783,536.266849
1211.538335,-10658.965565,-592.164754,612.876398
1211.538656,-10288.862594,-370.102971,3370.820191
1211.538977,-9622.677246,0.000000,1685.410096
1211.539298,-9548.656652,-148.041188,2298.286494
1211.539619,-9474.636058,-1406.391290,2604.724693
1211.539939,-9104.533087,-2738.761985,2145.067394
1211.540260,-9030.512492,-4441.235652,1072.533697
1211.540581,-8364.327145,-3849.070898,153.219100
1211.540902,-8364.327145,-1554.432478,-229.828649
1211.541222,-9178.553681,1406.391290,459.657299
1211.541543,-8956.491898,3330.926739,459.657299
1211.541864,-9400.615463,3552.988522,995.924147
1211.542185,-10066.800811,1850.514855,1072.533697
1211.542506,-10807.006753,222.061783,1072.533697
1211.542826,-11177.109724,0.000000,459.657299
1211.543147,-10658.965565,-592.164754,2221.676944
1211.543468,-9992.780217,-370.102971,2681.334243
1211.543789,-9178.553681,-1332.370696,2834.553343
1211.544109,-9030.512492,-2368.659014,2681.334243
1211.544430,-9252.574275,-3701.029710,2145.067394
1211.544751,-8956.491898,-3923.091493,1149.143247
1211.545072,-8956.491898,-2886.803174,306.438199
1211.545393,-8882.471304,-148.041188,229.828649
1211.545713,-9474.636058,1628.453072,383.047749
1211.546034,-9770.718434,3108.864956,612.876398
1211.546355,-9992.780217,2516.700203,536.266849
1211.546676,-10510.924376,740.205942,459.657299
1211.546996,-11325.150913,518.144159,-1149.143247
1211.547317,-10436.903782,0.000000,536.266849
1211.547638,-10510.924376,148.041188,1378.971896
1211.547958,-9474.636058,148.041188,1608.800546
1211.548279,-9104.533087,-592.164754,1685.410096
1211.548600,-9178.553681,-2146.597232,1685.410096
1211.548920,-9252.574275,-3182.885551,1685.410096
1211.549241,-9474.636058,-3849.070898,1838.629195
1211.549562,-8956.491898,-2368.659014,0.000000
1211.549883,-9252.574275,148.041188,229.828649
1211.550203,-9178.553681,2294.638420,0.000000
1211.550524,-9252.574275,3330.926739,0.000000
1211.550845,-9622.677246,2812.782580,612.876398
1211.551165,-10066.800811,888.247130,0.000000
1211.551486,-10807.006753,74.020594,153.219100
1211.551807,-10510.924376,-222.061783,995.924147
1211.552127,-10288.862594,-518.144159,1838.629195
1211.552448,-9770.718434,-740.205942,2451.505594
1211.552769,-8956.491898,-1702.473667,2451.505594
1211.553090,-9030.512492,-2886.803174,2451.505594
1211.553410,-9252.574275,-3849.070898,1991.848295
1211.553731,-9030.512492,-3330.926739,995.924147
1211.554052,-9030.512492,-1998.556043,1991.848295
1211.554372,-8660.409521,666.185348,0.000000
1211.554693,-9178.553681,1998.556043,229.828649
1211.555014,-9252.574275,2368.659014,459.657299
1211.555334,-9770.718434,1628.453072,306.438199
1211.555655,-9918.759623,740.205942,0.000000
1211.555976,-10510.924376,222.061783,229.828649
1211.556296,-10066.800811,222.061783,153.219100
1211.556617,-10140.821405,888.247130,1608.800546
1211.556938,-9548.656652,1406.391290,2604.724693
1211.557259,-9326.594869,-814.226536,3140.991542
1211.557579,-9548.656652,-2960.823768,2145.067394
1211.557900,-9696.697840,-4367.215058,2145.067394
1211.558221,-9400.615463,-3701.029710,1302.362347
1211.558541,-8956.491898,-1850.514855,612.876398
1211.558862,-8734.430116,814.226536,459.657299
1211.559183,-8808.450710,2812.782580,536.266849
1211.559503,-9474.636058,3182.885551,842.705048
1211.559824,-10362.883188,2220.617826,689.485948
1211.560145,-10881.027347,592.164754,1225.752797
1211.560465,-11177.109724,-592.164754,1455.581446
1211.560786,-10584.944971,-888.247130,1302.362347
1211.561107,-10288.862594,-592.164754,2068.457845
1211.561428,-9918.759623,-740.205942,2911.162892
1211.561748,-9030.512492,-1184.329507,3064.381992
1211.562069,-9178.553681,-3108.864956,1915.238745
1211.562390,-8882.471304,-3552.988522,1149.143247
1211.562710,-9030.512492,-2738.761985,459.657299
1211.563031,-9104.533087,-370.102971,76.609550
1211.563352,-9252.574275,1702.473667,306.438199
1211.563672,-9326.594869,2738.761985,383.047749
1211.563993,-9992.780217,2442.679609,612.876398
1211.564314,-10214.842000,1258.350101,689.485948
1211.564634,-10807.006753,-296.082377,459.657299
1211.564955,-10214.842000,-740.205942,689.485948
1211.565276,-9918.759623,0.000000,1991.848295
1211.565597,-9918.759623,0.000000,2068.457845
1211.565917,-9030.512492,-296.082377,2221.676944
1211.566238,-8956.491898,-2072.576638,2298.286494
1211.566559,-9252.574275,-3627.009116,1225.752797
1211.566879,-9030.512492,-4589.276840,459.657299
1211.567200,-8660.409521,-3775.050304,153.219100
1211.567521,-8512.368333,-1110.308913,-306.438199
1211.567841,-9030.512492,1850.514855,0.000000
1211.568162,-9178.553681,3108.864956,459.657299
1211.568483,-9474.636058,3330.926739,459.657299
1211.568803,-10436.903782,1554.432478,536.266849
1211.569124,-10584.944971,0.000000,689.485948
1211.569445,-9474.636058,-1036.288319,689.485948
1211.569766,-10510.924376,-1036.288319,1991.848295
1211.570086,-9474.636058,-962.267725,2145.067394
1211.570407,-9030.512492,-1628.453072,2374.896044
1211.570728,-9030.512492,-2442.679609,2451.505594
1211.571048,-9474.636058,-3478.967927,1608.800546
1211.571369,-9252.574275,-3330.926739,689.485948
1211.571690,-8956.491898,-1850.514855,459.657299
1211.572010,-9548.656652,518.144159,229.828649
1211.572331,-9770.718434,2368.659014,306.438199
1211.572652,-9622.677246,3182.885551,689.485948
1211.572972,-10288.862594,2072.576638,689.485948
1211.573293,-10881.027347,444.123565,612.876398
1211.573614,-10584.944971,-666.185348,383.047749
1211.573935,-10362.883188,-888.247130,766.095498
1211.574255,-9992.780217,518.144159,1762.019645
1211.574576,-9992.780217,0.000000,2374.896044
1211.574897,-8882.471304,-518.144159,2604.724693
1211.575217,-9400.615463,-2220.617826,2068.457845
1211.575538,-9400.615463,-3478.967927,1685.410096
1211.575859,-9178.553681,-3923.091493,1072.533697
1211.576179,-8808.450710,-2886.803174,536.266849
1211.576500,-8882.471304,-370.102971,-306.438199
1211.576821,-8808.450710,2590.720797,153.219100
1211.577142,-9844.739029,3256.906145,1378.971896
1211.577462,-10362.883188,2738.761985,919.314598
1211.577783,-10362.883188,1036.288319,0.000000
1211.578104,-10881.027347,296.082377,766.095498
1211.578424,-10066.800811,-148.041188,1378.971896
1211.578745,-9992.780217,-518.144159,2068.457845
1211.579066,-9474.636058,-740.205942,2451.505594
1211.579386,-8734.430116,-1776.494261,2298.286494
1211.579707,-9030.512492,-2442.679609,2145.067394
1211.580028,-9252.574275,-3256.906145,1838.629195
1211.580348,-8808.450710,-2516.700203,459.657299
1211.580669,-9474.636058,0.000000,536.266849
1211.580990,-9400.615463,1998.556043,153.219100
1211.581311,-9030.512492,2960.823768,0.000000
1211.581631,-9696.697840,2664.741391,459.657299
1211.581952,-10436.903782,1998.556043,229.828649
1211.582273,-10510.924376,1184.329507,383.047749
1211.582593,-10732.986159,444.123565,919.314598
1211.582914,-10362.883188,518.144159,1302.362347
1211.583235,-10362.883188,814.226536,229.828649
1211.583555,-9622.677246,0.000000,2374.896044
1211.583876,-9252.574275,-1184.329507,2604.724693
1211.584197,-9622.677246,-3034.844362,2374.896044
1211.584517,-9474.636058,-4663.297435,1685.410096
1211.584838,-8586.388927,-3478.967927,1149.143247
1211.585159,-9178.553681,-1406.391290,459.657299
1211.585480,-9178.553681,962.267725,919.314598
1211.585800,-9104.533087,2664.741391,1072.533697
1211.586121,-9548.656652,2664.741391,306.438199
1211.586442,-9992.780217,1480.411884,842.705048
1211.586762,-10362.883188,0.000000,842.705048
1211.587083,-10066.800811,-740.205942,766.095498
1211.587404,-10066.800811,0.000000,-459.657299
1211.587724,-9178.553681,-518.144159,1762.019645
1211.588045,-8956.491898,-1332.370696,1915.238745
1211.588366,-8956.491898,-1998.556043,2145.067394
1211.588686,-9400.615463,-3108.864956,1762.019645
1211.589007,-9622.677246,-3404.947333,1072.533697
1211.589328,-9104.533087,-2664.741391,153.219100
1211.589649,-9104.533087,-148.041188,153.219100
1211.589969,-9474.636058,1036.288319,383.047749
1211.590290,-9104.533087,2368.659014,536.266849
1211.590611,-9844.739029,1406.391290,306.438199
1211.590931,-10362.883188,518.144159,76.609550
1211.591252,-10288.862594,222.061783,0.000000
1211.591573,-10584.944971,1110.308913,2145.067394
1211.591893,-10214.842000,666.185348,1608.800546
1211.592214,-9400.615463,814.226536,1838.629195
1211.592535,-9548.656652,-1258.350101,2451.505594
1211.592855,-8660.409521,-2442.679609,1991.848295
1211.593176,-9918.759623,-4219.173869,1455.581446
1211.593497,-9252.574275,-3849.070898,766.095498
1211.593818,-9030.512492,-1924.535449,229.828649
1211.594138,-9252.574275,666.185348,0.000000
1211.594459,-8956.491898,2886.803174,612.876398
1211.594780,-9400.615463,3404.947333,919.314598
1211.595100,-10066.800811,2368.659014,766.095498
1211.595421,-10807.006753,592.164754,842.705048
1211.595742,-10510.924376,0.000000,612.876398
1211.596062,-10140.821405,-666.185348,1455.581446
1211.596383,-10288.862594,-370.102971,2451.505594
1211.596704,-9474.636058,-740.205942,2757.943793
1211.597024,-9178.553681,-1850.514855,2451.505594
1211.597345,-9326.594869,-3182.885551,1991.848295
1211.597666,-8956.491898,-3701.029710,1225.752797
1211.597987,-9474.636058,-2886.803174,766.095498
1211.598307,-8882.471304,-888.247130,536.266849
1211.598628,-8142.265362,1258.350101,766.095498
1211.598949,-9252.574275,2812.782580,689.485948
1211.599269,-9474.636058,2368.659014,842.705048
1211.599590,-9918.759623,1110.308913,612.876398
1211.599911,-9104.533087,0.000000,-306.438199
1211.600231,-10214.842000,148.041188,612.876398
1211.600552,-10066.800811,148.041188,1225.752797
1211.600873,-9918.759623,518.144159,2068.457845
1211.601194,-9400.615463,0.000000,2528.115143
1211.601514,-9474.636058,-1776.494261,2068.457845
1211.601835,-9400.615463,-3404.947333,1915.238745
1211.602156,-9178.553681,-3923.091493,995.924147
1211.602476,-9104.533087,-2738.761985,229.828649
1211.602797,-8660.409521,-370.102971,0.000000
1211.603118,-8808.450710,1924.535449,306.438199
1211.603438,-9178.553681,3034.844362,536.266849
1211.603759,-9770.718434,2664.741391,459.657299
1211.604080,-10807.006753,2072.576638,229.828649
1211.604400,-10658.965565,148.041188,612.876398
1211.604721,-10436.903782,-370.102971,919.314598
1211.605042,-10436.903782,-148.041188,1455.581446
1211.605363,-9622.677246,0.000000,2221.676944
1211.605683,-9474.636058,-370.102971,2374.896044
1211.606004,-9400.615463,-1776.494261,2068.457845
1211.606325,-9474.636058,-2886.803174,1455.581446
1211.606645,-9622.677246,-3849.070898,842.705048
1211.606966,-9474.636058,-2368.659014,153.219100
1211.607287,-9474.636058,0.000000,0.000000
1211.607607,-9474.636058,2072.576638,306.438199
1211.607928,-9474.636058,2442.679609,306.438199
1211.608249,-9696.697840,1480.411884,-153.219100
1211.608569,-10214.842000,1110.308913,-153.219100
1211.608890,-10288.862594,74.020594,459.657299
1211.609211,-9992.780217,-296.082377,536.266849
1211.609532,-9918.759623,296.082377,2221.676944
1211.609852,-9474.636058,74.020594,1608.800546
1211.610173,-8882.471304,-666.185348,2374.896044
1211.610494,-9252.574275,-2220.617826,2451.505594
1211.610814,-9474.636058,-3478.967927,2145.067394
1211.611135,-9252.574275,-3552.988522,1532.190996
1211.611456,-9104.533087,-2368.659014,536.266849
1211.611776,-8734.430116,-148.041188,612.876398
1211.612097,-8956.491898,2294.638420,689.485948
1211.612418,-9474.636058,2812.782580,1149.143247
1211.612738,-9844.739029,2368.659014,1455.581446
1211.613059,-10214.842000,962.267725,1608.800546
1211.613380,-10436.903782,-740.205942,1532.190996
1211.613701,-10140.821405,-962.267725,4826.401637
1211.614021,-10214.842000,-1332.370696,2528.115143
1211.614342,-9326.594869,-1628.453072,2604.724693
1211.614663,-8882.471304,-2294.638420,2451.505594
1211.614983,-8882.471304,-3404.947333,2374.896044
1211.615304,-8808.450710,-3923.091493,1685.410096
1211.615625,-9178.553681,-3478.967927,306.438199
1211.615945,-8808.450710,-1480.411884,-229.828649
1211.616266,-8882.471304,1332.370696,0.000000
1211.616587,-9918.759623,2812.782580,1072.533697
1211.616907,-9622.677246,2886.803174,689.485948
1211.617228,-10214.842000,1776.494261,459.657299
1211.617549,-10807.006753,814.226536,459.657299
1211.617870,-10658.965565,444.123565,153.219100
1211.618190,-10807.006753,-740.205942,689.485948
1211.618511,-9918.759623,0.000000,1225.752797
1211.618832,-9474.636058,-518.144159,1838.629195
1211.619152,-9030.512492,-1628.453072,1991.848295
1211.619473,-9104.533087,-3256.906145,1915.238745
1211.619794,-9252.574275,-4071.132681,919.314598
1211.620114,-9104.533087,-2960.823768,153.219100
1211.620435,-9252.574275,-740.205942,0.000000
1211.620756,-9252.574275,1776.494261,383.047749
1211.621076,-9400.615463,3478.967927,536.266849
1211.621397,-9844.739029,3108.864956,766.095498
1211.621718,-10214.842000,2220.617826,689.485948
1211.622039,-11029.068536,888.247130,229.828649
1211.622359,-10732.986159,-222.061783,689.485948
1211.622680,-10362.883188,-444.123565,1302.362347
1211.623001,-9918.759623,-666.185348,1762.019645
1211.623321,-9326.594869,-814.226536,2145.067394
1211.623642,-9178.553681,-1850.514855,1685.410096
1211.623963,-9326.594869,-2960.823768,1532.190996
1211.624283,-9400.615463,-3478.967927,842.705048
1211.624604,-9326.594869,-2368.659014,229.828649
1211.624925,-9474.636058,-888.247130,-153.219100
1211.625245,-8956.491898,1628.453072,612.876398
1211.625566,-9548.656652,2294.638420,766.095498
1211.625887,-9992.780217,2294.638420,842.705048
1211.626208,-10066.800811,1480.411884,76.609550
1211.626528,-10214.842000,444.123565,383.047749
1211.626849,-9918.759623,148.041188,383.047749
1211.627170,-9770.718434,518.144159,919.314598
1211.627490,-9474.636058,74.020594,2068.457845
1211.627811,-9030.512492,-296.082377,2451.505594
1211.628132,-9326.594869,-1924.535449,2757.943793
1211.628452,-9474.636058,-3701.029710,2298.286494
1211.628773,-9326.594869,-3849.070898,1532.190996
1211.629094,-9400.615463,-2516.700203,1991.848295
1211.629415,-9252.574275,0.000000,1455.581446
1211.629735,-8956.491898,2072.576638,1072.533697
1211.630056,-9326.594869,2738.761985,1072.533697
1211.630377,-9474.636058,3330.926739,536.266849
1211.630697,-10510.924376,1850.514855,612.876398
1211.631018,-10732.986159,592.164754,612.876398
1211.631339,-10066.800811,518.144159,1072.533697
1211.631659,-10214.842000,74.020594,1838.629195
1211.631980,-9474.636058,-370.102971,2298.286494
1211.632301,-9548.656652,-1110.308913,2528.115143
1211.632621,-9548.656652,-2812.782580,2221.676944
1211.632942,-9622.677246,-3849.070898,1685.410096
1211.633263,-9548.656652,-2886.803174,1072.533697
1211.633584,-9178.553681,-1628.453072,153.219100
1211.633904,-9178.553681,518.144159,76.609550
1211.634225,-8882.471304,1924.535449,0.000000
1211.634546,-9178.553681,2072.576638,1072.533697
1211.634866,-9918.759623,1036.288319,0.000000
1211.635187,-10510.924376,-222.061783,-229.828649
1211.635508,-10436.903782,-296.082377,612.876398
1211.635828,-10362.883188,-444.123565,1072.533697
1211.636149,-10066.800811,0.000000,1838.629195
1211.636470,-9696.697840,-370.102971,1991.848295
1211.636790,-9474.636058,-1332.370696,2221.676944
1211.637111,-9474.636058,-2516.700203,2145.067394
1211.637432,-9326.594869,-3404.947333,1685.410096
1211.637753,-9104.533087,-3108.864956,459.657299
1211.638073,-8586.388927,-814.226536,0.000000
1211.638394,-9104.533087,1110.308913,383.047749
1211.638715,-8512.368333,2220.617826,612.876398
1211.639035,-9030.512492,2294.638420,306.438199
1211.639356,-9844.739029,1332.370696,306.438199
1211.639677,-10436.903782,148.041188,919.314598
1211.639997,-10510.924376,-592.164754,1149.143247
1211.640318,-10436.903782,-1036.288319,1608.800546
1211.640639,-9622.677246,-1332.370696,2068.457845
1211.640959,-9326.594869,-1480.411884,2451.505594
1211.641280,-9030.512492,-2442.679609,2528.115143
1211.641601,-8956.491898,-3478.967927,2145.067394
1211.641922,-9030.512492,-3923.091493,766.095498
1211.642242,-8882.471304,-2590.720797,0.000000
1211.642563,-9178.553681,0.000000,-153.219100
1211.642884,-9622.677246,1628.453072,229.828649
1211.643204,-9252.574275,2368.659014,536.266849
1211.643525,-9326.594869,1998.556043,76.609550
1211.643846,-10066.800811,814.226536,-229.828649
1211.644166,-10436.903782,518.144159,1225.752797
1211.644487,-10658.965565,-148.041188,689.485948
1211.644808,-10362.883188,296.082377,1455.581446
1211.645128,-10066.800811,592.164754,1685.410096
1211.645449,-9474.636058,0.000000,2068.457845
1211.645770,-9696.697840,-1258.350101,2757.943793
1211.646091,-9844.739029,-3034.844362,2451.505594
1211.646411,-9548.656652,-3923.091493,1302.362347
1211.646732,-8438.347739,-2664.741391,153.219100
1211.647053,-9030.512492,-222.061783,1302.362347
1211.647373,-9104.533087,2294.638420,383.047749
1211.647694,-9400.615463,3552.988522,306.438199
1211.648015,-9548.656652,3108.864956,229.828649
1211.648335,-10658.965565,2294.638420,0.000000
1211.648656,-10584.944971,814.226536,383.047749
1211.648977,-10732.986159,0.000000,1378.971896
1211.649298,-10436.903782,-296.082377,2145.067394
1211.649619,-9622.677246,-888.247130,2604.724693
1211.649940,-8956.491898,-1776.494261,2604.724693
1211.650260,-9474.636058,-2664.741391,2987.772442
1211.650581,-9400.615463,-4071.132681,1915.238745
1211.650902,-9030.512492,-3478.967927,995.924147
1211.651223,-8438.347739,-1998.556043,0.000000
1211.651544,-8808.450710,814.226536,-229.828649
1211.651864,-8808.450710,2590.720797,76.609550
1211.652185,-9104.533087,3034.844362,536.266849
1211.652506,-9992.780217,1628.453072,0.000000
1211.652827,-10214.842000,888.247130,229.828649
1211.653148,-10658.965565,-148.041188,689.485948
1211.653468,-10214.842000,-222.061783,842.705048
1211.653789,-10140.821405,74.020594,1455.581446
1211.654110,-9696.697840,222.061783,2068.457845
1211.654431,-9104.533087,-1110.308913,2451.505594
1211.654751,-9252.574275,-3108.864956,2451.505594
1211.655072,-9326.594869,-4737.318029,1608.800546
1211.655393,-9030.512492,-4219.173869,612.876398
1211.655714,-8956.491898,-2516.700203,306.438199
1211.656035,-8808.450710,370.102971,383.047749
1211.656355,-8808.450710,2368.659014,689.485948
1211.656676,-9400.615463,2886.803174,1149.143247
1211.656997,-10140.821405,2368.659014,919.314598
1211.657318,-10955.047942,740.205942,1225.752797
1211.657638,-10732.986159,-370.102971,1685.410096
1211.657959,-10955.047942,-1036.288319,1991.848295
1211.658280,-10288.862594,-370.102971,2528.115143
1211.658601,-9474.636058,-1332.370696,2834.553343
1211.658922,-9252.574275,-2072.576638,2604.724693
1211.659242,-9178.553681,-3256.906145,2221.676944
1211.659563,-8734.430116,-3775.050304,995.924147
1211.659884,-8956.491898,-2960.823768,153.219100
1211.660205,-8808.450710,-592.164754,-153.219100
1211.660526,-9252.574275,1776.494261,383.047749
1211.660846,-9104.533087,2886.803174,459.657299
1211.661167,-9770.718434,2812.782580,536.266849
1211.661488,-10214.842000,1110.308913,1072.533697
1211.661809,-10955.047942,-222.061783,612.876398
1211.662129,-10732.986159,-962.267725,1072.533697
1211.662450,-9992.780217,-814.226536,1378.971896
1211.662771,-9918.759623,74.020594,1838.629195
1211.663092,-9474.636058,-148.041188,1991.848295
1211.663413,-8660.409521,-1628.453072,1838.629195
1211.663733,-8808.450710,-3330.926739,1378.971896
1211.664054,-8586.388927,-4293.194464,0.000000
1211.664375,-8290.306550,-3182.885551,-995.924147
1211.664696,-8734.430116,-518.144159,-766.095498
1211.665016,-8956.491898,1850.514855,-76.609550
1211.665337,-9104.533087,2812.782580,459.657299
1211.665658,-10214.842000,2886.803174,766.095498
1211.665979,-10807.006753,1776.494261,995.924147
1211.666300,-11621.233289,0.000000,1532.190996
1211.666620,-11547.212695,-740.205942,1378.971896
1211.666941,-10436.903782,-740.205942,2145.067394
1211.667262,-9474.636058,-1036.288319,1838.629195
1211.667583,-8808.450710,-1184.329507,2451.505594
1211.667903,-8882.471304,-2442.679609,2604.724693
1211.668224,-8512.368333,-3330.926739,1838.629195
1211.668545,-9326.594869,-3182.885551,1149.143247
1211.668866,-9104.533087,-1850.514855,536.266849
1211.669187,-9252.574275,814.226536,306.438199
1211.669507,-9474.636058,2590.720797,612.876398
1211.669828,-9178.553681,3404.947333,306.438199
1211.670149,-9918.759623,3034.844362,306.438199
1211.670470,-10510.924376,1776.494261,229.828649
1211.670791,-10807.006753,962.267725,612.876398
1211.671111,-10362.883188,814.226536,842.705048
1211.671432,-10288.862594,962.267725,1225.752797
1211.671753,-9844.739029,1480.411884,1915.238745
1211.672074,-9844.739029,444.123565,2757.943793
1211.672394,-9474.636058,-1776.494261,2451.505594
1211.672715,-9622.677246,-3701.029710,2145.067394
1211.673036,-9326.594869,-4367.215058,1149.143247
1211.673357,-8956.491898,-2738.761985,76.609550
1211.673678,-9104.533087,0.000000,0.000000
1211.673998,-8438.347739,2220.617826,153.219100
1211.674319,-9030.512492,3182.885551,612.876398
1211.674640,-9696.697840,2590.720797,689.485948
1211.674961,-10362.883188,1258.350101,229.828649
1211.675281,-10658.965565,222.061783,1302.362347
1211.675602,-10584.944971,-962.267725,1991.848295
1211.675923,-10214.842000,-1184.329507,2451.505594
1211.676244,-9622.677246,-1850.514855,2298.286494
1211.676565,-8734.430116,-1776.494261,2451.505594
1211.676885,-9326.594869,-3256.906145,2757.943793
1211.677206,-8956.491898,-3701.029710,2145.067394
1211.677527,-8660.409521,-3775.050304,612.876398
1211.677848,-9030.512492,-1628.453072,0.000000
1211.678169,-8660.409521,666.185348,-229.828649
1211.678489,-8956.491898,1998.556043,0.000000
1211.678810,-9696.697840,3256.906145,306.438199
1211.679131,-10066.800811,2294.638420,1532.190996
1211.679452,-11029.068536,888.247130,536.266849
1211.679772,-10214.842000,74.020594,689.485948
1211.680093,-10955.047942,-296.082377,536.266849
1211.680414,-9992.780217,74.020594,1455.581446
1211.680735,-9548.656652,-740.205942,1455.581446
1211.681056,-8808.450710,-1998.556043,1685.410096
1211.681376,-9178.553681,-3256.906145,1302.362347
1211.681697,-9104.533087,-4145.153275,1072.533697
1211.682018,-8882.471304,-3478.967927,-383.047749
1211.682339,-9696.697840,-1036.288319,0.000000
1211.682659,-9400.615463,1406.391290,229.828649
1211.682980,-9474.636058,2516.700203,766.095498
1211.683301,-10288.862594,2294.638420,306.438199
1211.683622,-10732.986159,1332.370696,1149.143247
1211.683943,-10807.006753,0.000000,1225.752797
1211.684263,-10584.944971,-1184.329507,1225.752797
1211.684584,-10436.903782,-962.267725,1838.629195
1211.684905,-9918.759623,-1110.308913,2145.067394
1211.685226,-9104.533087,-1554.432478,2681.334243
1211.685547,-9178.553681,-2146.597232,2528.115143
1211.685867,-9178.553681,-3478.967927,1838.629195
1211.686188,-8956.491898,-3701.029710,536.266849
1211.686509,-8734.430116,-2368.659014,76.609550
1211.686830,-8956.491898,0.000000,-306.438199
1211.687150,-8660.409521,2220.617826,76.609550
1211.687471,-8586.388927,3701.029710,1072.533697
1211.687792,-9770.718434,2294.638420,383.047749
1211.688113,-10436.903782,1184.329507,306.438199
1211.688434,-10955.047942,148.041188,536.266849
1211.688754,-10362.883188,74.020594,842.705048
1211.689075,-10066.800811,74.020594,1532.190996
1211.689396,-9770.718434,0.000000,1685.410096
1211.689717,-9252.574275,-814.226536,1991.848295
1211.690037,-9104.533087,-1850.514855,1532.190996
1211.690358,-9030.512492,-3108.864956,1225.752797
1211.690679,-8882.471304,-3552.988522,536.266849
1211.691000,-8808.450710,-1850.514855,0.000000
1211.691321,-9400.615463,666.185348,229.828649
1211.691641,-9696.697840,3108.864956,0.000000
1211.691962,-9474.636058,3034.844362,689.485948
1211.692283,-10066.800811,2294.638420,383.047749
1211.692604,-10362.883188,1036.288319,842.705048
1211.692925,-10658.965565,222.061783,766.095498
1211.693245,-10362.883188,0.000000,1302.362347
1211.693566,-9770.718434,0.000000,1532.190996
1211.693887,-9474.636058,-370.102971,2145.067394
1211.694208,-9252.574275,-1332.370696,2374.896044
1211.694528,-9326.594869,-2072.576638,2221.676944
1211.694849,-9474.636058,-3552.988522,1302.362347
1211.695170,-9252.574275,-2812.782580,919.314598
1211.695491,-9252.574275,-888.247130,536.266849
1211.695812,-9178.553681,1258.350101,1762.019645
1211.696132,-9326.594869,2886.803174,995.924147
1211.696453,-9474.636058,2516.700203,766.095498
1211.696774,-9770.718434,1924.535449,0.000000
1211.697095,-10436.903782,666.185348,76.609550
1211.697415,-10436.903782,222.061783,1072.533697
1211.697736,-10140.821405,-148.041188,1378.971896
1211.698057,-10066.800811,0.000000,1915.238745
1211.698378,-9474.636058,-666.185348,2221.676944
1211.698699,-9770.718434,-1332.370696,3370.820191
1211.699019,-9326.594869,-2664.741391,2451.505594
1211.699340,-9326.594869,-3701.029710,1685.410096
1211.699661,-9104.533087,-3256.906145,919.314598
1211.699982,-8512.368333,-1332.370696,0.000000
1211.700302,-8956.491898,962.267725,229.828649
1211.700623,-8956.491898,2812.782580,689.485948
1211.700944,-9030.512492,2516.700203,919.314598
1211.701265,-10066.800811,1406.391290,919.314598
1211.701586,-10584.944971,-296.082377,1149.143247
1211.701906,-10362.883188,-1258.350101,1149.143247
1211.702227,-10214.842000,-1480.411884,1685.410096
1211.702548,-9770.718434,-888.247130,2451.505594
1211.702869,-9178.553681,-1258.350101,2987.772442
1211.703190,-9030.512492,-2442.679609,2681.334243
1211.703510,-9104.533087,-3923.091493,1991.848295
1211.703831,-9326.594869,-4515.256246,766.095498
1211.704152,-8956.491898,-3256.906145,1302.362347
1211.704473,-9252.574275,-962.267725,76.609550
1211.704793,-9400.615463,1702.473667,-153.219100
1211.705114,-9326.594869,3182.885551,0.000000
1211.705435,-9992.780217,2368.659014,153.219100
1211.705756,-10140.821405,1036.288319,-536.266849
1211.706077,-10436.903782,0.000000,-459.657299
1211.706397,-10658.965565,-444.123565,-153.219100
1211.706718,-10214.842000,74.020594,306.438199
1211.707039,-10214.842000,222.061783,1685.410096
1211.707360,-9400.615463,-370.102971,1762.019645
1211.707680,-9400.615463,-1480.411884,2528.115143
1211.708001,-9844.739029,-3627.009116,2068.457845
1211.708322,-8882.471304,-5033.400406,919.314598
1211.708643,-8956.491898,-2886.803174,76.609550
1211.708964,-9178.553681,-222.061783,459.657299
1211.709284,-9030.512492,1850.514855,459.657299
1211.709605,-9178.553681,2886.803174,76.609550
1211.709926,-9474.636058,2442.679609,766.095498
1211.710247,-10658.965565,1406.391290,1302.362347
1211.710568,-10955.047942,222.061783,1455.581446
1211.710888,-10584.944971,-666.185348,2068.457845
1211.711209,-10584.944971,-296.082377,2451.505594
1211.711530,-9548.656652,-888.247130,2221.676944
1211.711851,-9030.512492,-1332.370696,2451.505594
1211.712171,-8660.409521,-2294.638420,2374.896044
1211.712492,-9104.533087,-2960.823768,1532.190996
1211.712813,-9030.512492,-2368.659014,689.485948
1211.713134,-9030.512492,-1110.308913,229.828649
1211.713455,-9178.553681,1036.288319,306.438199
1211.713775,-9030.512492,2368.659014,0.000000
1211.714096,-9474.636058,2442.679609,1149.143247
1211.714417,-10140.821405,1554.432478,842.705048
1211.714738,-10214.842000,370.102971,1072.533697
1211.715058,-10436.903782,-518.144159,612.876398
1211.715379,-10140.821405,-74.020594,919.314598
1211.715700,-9992.780217,296.082377,1302.362347
1211.716021,-9474.636058,740.205942,1915.238745
1211.716342,-9400.615463,0.000000,2145.067394
1211.716662,-9030.512492,-2072.576638,3524.039291
1211.716983,-9548.656652,-2812.782580,1532.190996
1211.717304,-9326.594869,-2368.659014,459.657299
1211.717625,-9252.574275,-740.205942,306.438199
1211.717946,-9252.574275,1480.411884,76.609550
1211.718266,-9104.533087,3404.947333,0.000000
1211.718587,-9400.615463,3552.988522,612.876398
1211.718908,-10140.821405,2368.659014,536.266849
1211.719229,-10955.047942,1184.329507,919.314598
1211.719549,-10140.821405,-74.020594,1991.848295
1211.719870,-10584.944971,-592.164754,1991.848295
1211.720191,-10510.924376,-814.226536,2911.162892
1211.720512,-9622.677246,-1332.370696,2757.943793
1211.720833,-9400.615463,-1850.514855,536.266849
1211.721153,-9104.533087,-3404.947333,1685.410096
1211.721474,-8956.491898,-4145.153275,766.095498
1211.721795,-8808.450710,-3182.885551,306.438199
1211.722116,-8734.430116,-1110.308913,-306.438199
1211.722436,-9178.553681,1110.308913,-229.828649
1211.722757,-9326.594869,1924.535449,0.000000
1211.723078,-9474.636058,1850.514855,229.828649
1211.723399,-9992.780217,1036.288319,306.438199
1211.723720,-10658.965565,74.020594,-689.485948
1211.724040,-10140.821405,0.000000,76.609550
1211.724361,-10362.883188,296.082377,1149.143247
1211.724682,-9622.677246,222.061783,1455.581446
1211.725003,-8512.368333,-740.205942,3370.820191
1211.725324,-9252.574275,-2294.638420,1838.629195
1211.725644,-9252.574275,-3330.926739,1378.971896
1211.725965,-9178.553681,-3701.029710,919.314598
1211.726286,-9252.574275,-3034.844362,536.266849
1211.726607,-8512.368333,-592.164754,459.657299
1211.726927,-9030.512492,1628.453072,459.657299
1211.727248,-8882.471304,2442.679609,229.828649
1211.727569,-9474.636058,2294.638420,995.924147
1211.727890,-10584.944971,1332.370696,1302.362347
1211.728211,-10362.883188,0.000000,995.924147
1211.728531,-10436.903782,-888.247130,1608.800546
1211.728852,-10510.924376,-1258.350101,1991.848295
1211.729173,-9844.739029,-1702.473667,1915.238745
1211.729494,-9326.594869,-2220.617826,2451.505594
1211.729814,-9326.594869,-2960.823768,2298.286494
1211.730135,-9104.533087,-3404.947333,1685.410096
1211.730456,-8956.491898,-3404.947333,459.657299
1211.730777,-8660.409521,-1850.514855,-229.828649
1211.731098,-9252.574275,740.205942,0.000000
1211.731418,-9030.512492,2368.659014,229.828649
1211.731739,-9696.697840,2072.576638,229.828649
1211.732060,-9474.636058,2220.617826,383.047749
1211.732381,-11547.212695,370.102971,612.876398
1211.732701,-10732.986159,148.041188,1378.971896
1211.733022,-10510.924376,-148.041188,1225.752797
1211.733343,-10510.924376,222.061783,1915.238745
1211.733664,-9474.636058,148.041188,1532.190996
1211.733985,-9178.553681,-222.061783,1532.190996
1211.734305,-9548.656652,-1332.370696,1838.629195
1211.734626,-8882.471304,-2442.679609,612.876398
1211.734947,-9326.594869,-2368.659014,612.876398
1211.735268,-8808.450710,-962.267725,306.438199
1211.735589,-9326.594869,740.205942,0.000000
1211.735909,-9474.636058,2368.659014,459.657299
1211.736230,-9326.594869,2738.761985,842.705048
1211.736551,-9992.780217,1776.494261,1532.190996
1211.736872,-11029.068536,592.164754,1455.581446
1211.737192,-10362.883188,-148.041188,1532.190996
1211.737513,-10732.986159,518.144159,1685.410096
1211.737834,-10140.821405,-592.164754,2145.067394
1211.738155,-9104.533087,-1332.370696,2374.896044
1211.738476,-9178.553681,-2072.576638,2221.676944
1211.738796,-8882.471304,-2738.761985,1685.410096
1211.739117,-8808.450710,-3478.967927,1225.752797
1211.739438,-8808.450710,-2516.700203,306.438199
1211.739759,-8956.491898,-370.102971,0.000000
1211.740079,-9104.533087,2220.617826,153.219100
1211.740400,-8956.491898,2516.700203,1378.971896
1211.740721,-9696.697840,2886.803174,919.314598
1211.741042,-10066.800811,1702.473667,76.609550
1211.741363,-10510.924376,222.061783,459.657299
1211.741683,-9474.636058,-518.144159,1608.800546
1211.742004,-10066.800811,-444.123565,842.705048
1211.742325,-9844.739029,-296.082377,1378.971896
1211.742646,-9474.636058,-518.144159,2221.676944
1211.742967,-9326.594869,-1480.411884,2298.286494
1211.743287,-9400.615463,-3256.906145,1762.019645
1211.743608,-9474.636058,-4071.132681,1302.362347
1211.743929,-9030.512492,-3552.988522,383.047749
1211.744250,-8808.450710,-1480.411884,0.000000
1211.744570,-8660.409521,1332.370696,153.219100
1211.744891,-9252.574275,2812.782580,612.876398
1211.745212,-9770.718434,3108.864956,1072.533697
1211.745533,-10436.903782,1776.494261,1225.752797
1211.745854,-10436.903782,148.041188,536.266849
1211.746174,-10732.986159,-444.123565,1762.019645
1211.746495,-10510.924376,-1110.308913,1915.238745
1211.746816,-9770.718434,-1036.288319,2681.334243
1211.747137,-9474.636058,-2146.597232,2528.115143
1211.747457,-9178.553681,-2738.761985,2374.896044
1211.747778,-8956.491898,-3997.112087,1685.410096
1211.748099,-8956.491898,-4071.132681,459.657299
1211.748420,-8512.368333,-1924.535449,0.000000
1211.748741,-8882.471304,592.164754,0.000000
1211.749061,-9252.574275,2812.782580,306.438199
1211.749382,-9844.739029,3034.844362,919.314598
1211.749703,-9918.759623,2072.576638,612.876398
1211.750024,-10658.965565,-518.144159,-1378.971896
1211.750345,-10584.944971,-962.267725,153.219100
1211.750666,-10584.944971,-1110.308913,689.485948
1211.750986,-9770.718434,-148.041188,1149.143247
1211.751307,-9474.636058,-592.164754,1532.190996
1211.751628,-8586.388927,-888.247130,1762.019645
1211.751949,-9178.553681,-1998.556043,1762.019645
1211.752270,-9326.594869,-4071.132681,1455.581446
1211.752590,-9326.594869,-4071.132681,383.047749
1211.752911,-9252.574275,-2960.823768,-76.609550
1211.753232,-8882.471304,-370.102971,0.000000
1211.753553,-9474.636058,1850.514855,306.438199
1211.753874,-9400.615463,2590.720797,766.095498
1211.754195,-10066.800811,2368.659014,383.047749
1211.754515,-10732.986159,1332.370696,689.485948
1211.754836,-10807.006753,0.000000,919.314598
1211.755157,-10436.903782,-888.247130,1378.971896
1211.755478,-10214.842000,-1036.288319,1838.629195
1211.755799,-9178.553681,-1924.535449,1762.019645
1211.756119,-9326.594869,-2072.576638,2528.115143
1211.756440,-9400.615463,-2886.803174,2298.286494
1211.756761,-9400.615463,-3108.864956,1608.800546
1211.757082,-9178.553681,-2072.576638,383.047749
1211.757403,-9326.594869,0.000000,229.828649
1211.757724,-9474.636058,2368.659014,383.047749
1211.758044,-9622.677246,3478.967927,459.657299
1211.758365,-9696.697840,3182.885551,536.266849
1211.758686,-9474.636058,2664.741391,76.609550
1211.759007,-10807.006753,962.267725,612.876398
1211.759328,-10732.986159,666.185348,1455.581446
1211.759648,-10214.842000,518.144159,1225.752797
1211.759969,-10066.800811,1258.350101,1685.410096
1211.760290,-9400.615463,740.205942,2068.457845
1211.760611,-9400.615463,-296.082377,2374.896044
1211.760932,-9104.533087,-2368.659014,1532.190996
1211.761253,-8586.388927,-3404.947333,0.000000
1211.761573,-8882.471304,-1702.473667,-919.314598
1211.761894,-8364.327145,-370.102971,-536.266849
1211.762215,-8882.471304,1998.556043,0.000000
1211.762536,-9178.553681,3182.885551,612.876398
1211.762857,-9548.656652,2886.803174,1072.533697
1211.763177,-10288.862594,1480.411884,919.314598
1211.763498,-10807.006753,74.020594,1455.581446
1211.763819,-10658.965565,-740.205942,1991.848295
1211.764140,-10214.842000,-740.205942,2451.505594
1211.764461,-9622.677246,-518.144159,2528.115143
1211.764781,-9252.574275,-1554.432478,2911.162892
1211.765102,-8734.430116,-2886.803174,2911.162892
1211.765423,-9104.533087,-3701.029710,2145.067394
1211.765744,-9030.512492,-3923.091493,3217.601092
1211.766065,-8512.368333,-2220.617826,612.876398
1211.766386,-8882.471304,296.082377,229.828649
1211.766706,-9178.553681,2294.638420,76.609550
1211.767027,-9104.533087,3627.009116,459.657299
1211.767348,-9992.780217,2590.720797,0.000000
1211.767669,-10362.883188,1702.473667,536.266849
1211.767990,-11177.109724,0.000000,612.876398
1211.768310,-10658.965565,-888.247130,842.705048
1211.768631,-10362.883188,-592.164754,1455.581446
1211.768952,-10288.862594,-666.185348,1608.800546
1211.769273,-9474.636058,-1184.329507,1685.410096
1211.769594,-9474.636058,-2368.659014,2374.896044
1211.769915,-9030.512492,-2886.803174,2298.286494
1211.770235,-9326.594869,-3330.926739,536.266849
1211.770556,-9030.512492,-1924.535449,-459.657299
1211.770877,-8808.450710,370.102971,-153.219100
1211.771198,-9252.574275,1776.494261,-153.219100
1211.771519,-9326.594869,2442.679609,0.000000
1211.771839,-10066.800811,1628.453072,383.047749
1211.772160,-10732.986159,0.000000,536.266849
1211.772481,-10584.944971,-592.164754,919.314598
1211.772802,-11251.130318,-1110.308913,1991.848295
1211.773123,-10214.842000,-814.226536,2298.286494
1211.773444,-9622.677246,-1036.288319,2834.553343
1211.773764,-9178.553681,-2072.576638,2451.505594
1211.774085,-8290.306550,-2664.741391,2221.676944
1211.774406,-9474.636058,-4515.256246,1532.190996
1211.774727,-8438.347739,-3997.112087,842.705048
1211.775048,-8438.347739,-2146.597232,0.000000
1211.775368,-9030.512492,592.164754,-306.438199
1211.775689,-8660.409521,2220.617826,229.828649
1211.776010,-9474.636058,3034.844362,766.095498
1211.776331,-10140.821405,2072.576638,766.095498
1211.776652,-10436.903782,740.205942,306.438199
1211.776973,-10881.027347,0.000000,1149.143247
1211.777293,-10362.883188,-296.082377,1149.143247
1211.777614,-9992.780217,74.020594,1915.238745
1211.777935,-9622.677246,-370.102971,2374.896044
1211.778256,-8882.471304,-1036.288319,1762.019645
1211.778577,-9178.553681,-2738.761985,1762.019645
1211.778897,-9104.533087,-3627.009116,1149.143247
1211.779218,-8734.430116,-2812.782580,612.876398
1211.779539,-9104.533087,-962.267725,0.000000
1211.779860,-9252.574275,1480.411884,0.000000
1211.780181,-9326.594869,3034.844362,612.876398
1211.780502,-9844.739029,3404.947333,1225.752797
1211.780822,-10362.883188,2072.576638,1149.143247
1211.781143,-10955.047942,1110.308913,1302.362347
1211.781464,-11029.068536,518.144159,1532.190996
1211.781785,-10955.047942,444.123565,2221.676944
1211.782106,-10288.862594,0.000000,2757.943793
1211.782426,-9696.697840,-444.123565,3370.820191
1211.782747,-9474.636058,-1776.494261,2681.334243
1211.783068,-9252.574275,-2960.823768,2068.457845
1211.783389,-9400.615463,-3330.926739,1225.752797
1211.783710,-8660.409521,-2072.576638,306.438199
1211.784031,-8586.388927,-222.061783,0.000000
1211.784351,-8660.409521,2146.597232,-153.219100
1211.784672,-8956.491898,3404.947333,0.000000
1211.784993,-9622.677246,2812.782580,0.000000
1211.785314,-10732.986159,1998.556043,-689.485948
1211.785635,-10510.924376,666.185348,153.219100
1211.785955,-10732.986159,222.061783,689.485948
1211.786276,-10510.924376,148.041188,1455.581446
1211.786597,-9992.780217,-222.061783,5056.230287
1211.786918,-9770.718434,-518.144159,2374.896044
1211.787239,-9178.553681,-2220.617826,1608.800546
1211.787560,-9030.512492,-3256.906145,1532.190996
1211.787880,-8660.409521,-4071.132681,459.657299
1211.788201,-8142.265362,-2960.823768,-383.047749
1211.788522,-8586.388927,-1036.288319,-536.266849
1211.788843,-8512.368333,1406.391290,-306.438199
1211.789164,-9104.533087,2442.679609,766.095498
1211.789484,-9992.780217,1702.473667,766.095498
1211.789805,-10658.965565,888.247130,766.095498
1211.790126,-11029.068536,-222.061783,1225.752797
1211.790447,-10807.006753,-592.164754,1685.410096
1211.790768,-10288.862594,-444.123565,3983.696590
1211.791089,-9622.677246,-1036.288319,2298.286494
1211.791409,-8956.491898,-1776.494261,2374.896044
1211.791730,-8438.347739,-3108.864956,1608.800546
1211.792051,-8808.450710,-3923.091493,1378.971896
1211.792372,-9104.533087,-3330.926739,612.876398
1211.792693,-9030.512492,-2146.597232,229.828649
1211.793013,-8808.450710,148.041188,536.266849
1211.793334,-9622.677246,1702.473667,919.314598
1211.793655,-9474.636058,1702.473667,1915.238745
1211.793976,-10140.821405,962.267725,1608.800546
1211.794297,-10436.903782,0.000000,689.485948
1211.794617,-10436.903782,0.000000,689.485948
1211.794938,-10658.965565,222.061783,2987.772442
1211.795259,-10066.800811,666.185348,2298.286494
1211.795580,-9622.677246,0.000000,2298.286494
1211.795901,-9474.636058,-1184.329507,2604.724693
1211.796222,-9400.615463,-2812.782580,2451.505594
1211.796542,-9770.718434,-4367.215058,1915.238745
1211.796863,-9030.512492,-4145.153275,842.705048
1211.797184,-8808.450710,-2442.679609,229.828649
1211.797505,-9104.533087,370.102971,0.000000
1211.797826,-9622.677246,3775.050304,0.000000
1211.798146,-9622.677246,3182.885551,612.876398
1211.798467,-10362.883188,2146.597232,1149.143247
1211.798788,-10658.965565,666.185348,766.095498
1211.799109,-10807.006753,-370.102971,2681.334243
1211.799430,-10658.965565,-592.164754,1608.800546
1211.799751,-10066.800811,-444.123565,1838.629195
1211.800071,-9622.677246,-888.247130,2374.896044
1211.800392,-9178.553681,-2146.597232,1991.848295
1211.800713,-9252.574275,-2812.782580,1149.143247
1211.801034,-8956.491898,-3256.906145,383.047749
1211.801355,-8956.491898,-2072.576638,-306.438199
1211.801675,-9252.574275,0.000000,-229.828649
1211.801996,-8586.388927,1776.494261,0.000000
1211.802317,-9252.574275,2738.761985,-306.438199
1211.802638,-9844.739029,2368.659014,-612.876398
1211.802959,-10288.862594,1406.391290,0.000000
1211.803280,-10066.800811,296.082377,1302.362347
1211.803600,-10510.924376,518.144159,153.219100
1211.803921,-10066.800811,1184.329507,842.705048
1211.804242,-9622.677246,1110.308913,1685.410096
1211.804563,-9252.574275,148.041188,2374.896044
1211.804884,-9104.533087,-1332.370696,1685.410096
1211.805204,-8882.471304,-2812.782580,1455.581446
1211.805525,-9178.553681,-3108.864956,1302.362347
1211.805846,-8808.450710,-1850.514855,842.705048
1211.806167,-9326.594869,444.123565,689.485948
1211.806488,-9252.574275,2664.741391,995.924147
1211.806809,-9548.656652,3182.885551,1149.143247
1211.807129,-9918.759623,2812.782580,1302.362347
1211.807450,-10362.883188,814.226536,842.705048
1211.807771,-10881.027347,222.061783,1225.752797
1211.808092,-10436.903782,-592.164754,1838.629195
1211.808413,-10214.842000,-888.247130,2221.676944
1211.808733,-9474.636058,-1110.308913,2451.505594
1211.809054,-9474.636058,-1850.514855,2911.162892
1211.809375,-9252.574275,-2738.761985,2681.334243
1211.809696,-9178.553681,-3701.029710,1838.629195
1211.810017,-8882.471304,-3330.926739,1225.752797
1211.810338,-9104.533087,-1998.556043,-689.485948
1211.810658,-9178.553681,370.102971,459.657299
1211.810979,-9252.574275,1924.535449,766.095498
1211.811300,-9770.718434,2294.638420,1149.143247
1211.811621,-9918.759623,666.185348,919.314598
1211.811942,-10658.965565,296.082377,1072.533697
1211.812262,-10584.944971,-296.082377,1072.533697
1211.812583,-10288.862594,-296.082377,1225.752797
1211.812904,-9844.739029,222.061783,1762.019645
1211.813225,-9474.636058,0.000000,1685.410096
1211.813546,-9178.553681,-666.185348,2068.457845
1211.813867,-9252.574275,-2072.576638,1762.019645
1211.814187,-9326.594869,-3330.926739,536.266849
1211.814508,-8808.450710,-2516.700203,1225.752797
1211.814829,-9400.615463,-1554.432478,-306.438199
1211.815150,-8882.471304,814.226536,-459.657299
1211.815471,-9474.636058,1776.494261,0.000000
1211.815791,-9474.636058,2368.659014,2068.457845
1211.816112,-9992.780217,1406.391290,229.828649
1211.816433,-10584.944971,0.000000,766.095498
1211.816754,-10362.883188,-1110.308913,612.876398
1211.817075,-10066.800811,-1998.556043,919.314598
1211.817396,-9844.739029,-1332.370696,1838.629195
1211.817716,-9326.594869,-1406.391290,2068.457845
1211.818037,-8956.491898,-2368.659014,2068.457845
1211.818358,-8956.491898,-3404.947333,1378.971896
1211.818679,-8956.491898,-3256.906145,383.047749
1211.819000,-9104.533087,-2960.823768,-306.438199
1211.819320,-9252.574275,-814.226536,-306.438199
1211.819641,-9474.636058,1554.432478,0.000000
1211.819962,-8290.306550,2664.741391,995.924147
1211.820283,-9918.759623,2812.782580,229.828649
1211.820604,-10436.903782,2220.617826,306.438199
1211.820924,-10955.047942,296.082377,536.266849
1211.821245,-10214.842000,74.020594,689.485948
1211.821566,-10288.862594,-74.020594,1378.971896
1211.821887,-9696.697840,296.082377,1532.190996
1211.822208,-9622.677246,0.000000,2757.943793
1211.822529,-9474.636058,-1480.411884,2528.115143
1211.822849,-9474.636058,-2516.700203,1838.629195
1211.823170,-9696.697840,-3182.885551,1225.752797
1211.823491,-9326.594869,-2738.761985,1072.533697
1211.823812,-8882.471304,0.000000,536.266849
1211.824133,-9326.594869,1628.453072,1149.143247
1211.824453,-8956.491898,3182.885551,1072.533697
1211.824774,-10066.800811,2812.782580,1225.752797
1211.825095,-10362.883188,1924.535449,1378.971896
1211.825416,-10658.965565,1110.308913,1685.410096
1211.825737,-11103.089130,74.020594,2451.505594
1211.826058,-10140.821405,-444.123565,2451.505594
1211.826378,-9770.718434,-814.226536,2528.115143
1211.826699,-9104.533087,-2072.576638,2604.724693
1211.827020,-9474.636058,-2516.700203,1762.019645
1211.827341,-9178.553681,-3775.050304,1378.971896
1211.827662,-8734.430116,-3330.926739,536.266849
1211.827982,-8956.491898,-1036.288319,229.828649
1211.828303,-9918.759623,1184.329507,459.657299
1211.828624,-9252.574275,2664.741391,306.438199
1211.828945,-9622.677246,3108.864956,306.438199
1211.829266,-10214.842000,1998.556043,0.000000
1211.829587,-10140.821405,1110.308913,0.000000
1211.829907,-10214.842000,0.000000,-153.219100
1211.830228,-9992.780217,222.061783,76.609550
1211.830549,-9844.739029,370.102971,459.657299
1211.830870,-9252.574275,444.123565,1685.410096
1211.831191,-9474.636058,-888.247130,1378.971896
1211.831511,-8956.491898,-2294.638420,1838.629195
1211.831832,-9178.553681,-3701.029710,1378.971896
1211.832153,-9030.512492,-3849.070898,689.485948
1211.832474,-8216.285956,-1998.556043,1532.190996
1211.832795,-8882.471304,-222.061783,536.266849
1211.833116,-9030.512492,1998.556043,306.438199
1211.833436,-9326.594869,2516.700203,612.876398
1211.833757,-10140.821405,2368.659014,766.095498
1211.834078,-10584.944971,814.226536,689.485948
1211.834399,-11029.068536,74.020594,1302.362347
1211.834720,-10732.986159,-666.185348,1838.629195
1211.835040,-10214.842000,-962.267725,2451.505594
1211.835361,-9474.636058,-1480.411884,2451.505594
1211.835682,-9252.574275,-2368.659014,2374.896044
1211.836003,-9178.553681,-3256.906145,2145.067394
1211.836324,-9252.574275,-3404.947333,1455.581446
1211.836645,-9178.553681,-2664.741391,536.266849
1211.836965,-8882.471304,-666.185348,459.657299
1211.837286,-9548.656652,1480.411884,766.095498
1211.837607,-9400.615463,2220.617826,919.314598
1211.837928,-9548.656652,1628.453072,919.314598
1211.838249,-9770.718434,962.267725,766.095498
1211.838569,-10658.965565,-148.041188,766.095498
1211.838890,-10510.924376,-518.144159,1072.533697
1211.839211,-10140.821405,-222.061783,1225.752797
1211.839532,-10140.821405,222.061783,1685.410096
1211.839853,-9548.656652,-148.041188,2145.067394
1211.840174,-9178.553681,-1554.432478,2528.115143
1211.840494,-9474.636058,-3182.885551,2528.115143
1211.840815,-8808.450710,-4367.215058,2374.896044
1211.841136,-9030.512492,-3701.029710,612.876398
1211.841457,-8734.430116,-2146.597232,0.000000
1211.841778,-8512.368333,666.185348,0.000000
1211.842098,-9030.512492,1998.556043,612.876398
1211.842419,-9474.636058,2738.761985,995.924147
1211.842740,-10066.800811,1406.391290,842.705048
1211.843061,-10658.965565,296.082377,995.924147
1211.843382,-10436.903782,-518.144159,1532.190996
1211.843703,-10214.842000,-740.205942,2681.334243
1211.844023,-9844.739029,-888.247130,2604.724693
1211.844344,-9696.697840,-962.267725,2987.772442
1211.844665,-9474.636058,-2220.617826,2757.943793
1211.844986,-8586.388927,-2294.638420,2528.115143
1211.845307,-9104.533087,-3627.009116,766.095498
1211.845627,-8882.471304,-2072.576638,-153.219100
1211.845948,-8956.491898,518.144159,-459.657299
1211.846269,-9400.615463,3034.844362,-229.828649
1211.846590,-9474.636058,4219.173869,229.828649
1211.846911,-10066.800811,3627.009116,0.000000
1211.847231,-10732.986159,2442.679609,153.219100
1211.847552,-10955.047942,814.226536,459.657299
1211.847873,-10584.944971,444.123565,842.705048
1211.848194,-10584.944971,444.123565,1378.971896
1211.848515,-9918.759623,222.061783,1685.410096
1211.848836,-9548.656652,-222.061783,2068.457845
1211.849156,-9400.615463,-2072.576638,2145.067394
1211.849477,-9030.512492,-2812.782580,1302.362347
1211.849798,-9178.553681,-2960.823768,766.095498
1211.850119,-8882.471304,-1776.494261,-76.609550
1211.850439,-8512.368333,444.123565,76.609550
1211.850760,-9178.553681,2072.576638,766.095498
1211.851081,-9178.553681,3182.885551,612.876398
1211.851402,-9696.697840,2294.638420,995.924147
1211.851723,-10584.944971,1184.329507,1225.752797
1211.852043,-10881.027347,-222.061783,1915.238745
1211.852364,-10140.821405,-740.205942,1608.800546
1211.852685,-9696.697840,-518.144159,2221.676944
1211.853006,-9400.615463,-666.185348,2451.505594
1211.853327,-8882.471304,-1406.391290,3294.210641
1211.853647,-8586.388927,-2738.761985,2145.067394
1211.853968,-8438.347739,-3552.988522,1302.362347
1211.854289,-8512.368333,-2960.823768,459.657299
1211.854610,-8882.471304,-1184.329507,306.438199
1211.854931,-8734.430116,740.205942,612.876398
1211.855251,-9252.574275,2220.617826,766.095498
1211.855572,-9474.636058,2442.679609,842.705048
1211.855893,-10140.821405,1702.473667,842.705048
1211.856214,-10362.883188,370.102971,229.828649
1211.856535,-10436.903782,-222.061783,536.266849
1211.856855,-10140.821405,0.000000,842.705048
1211.857176,-10362.883188,74.020594,1685.410096
1211.857497,-9696.697840,0.000000,2145.067394
1211.857818,-9326.594869,-1554.432478,2145.067394
1211.858139,-9252.574275,-2664.741391,1838.629195
1211.858459,-9326.594869,-3627.009116,1149.143247
1211.858780,-9548.656652,-3404.947333,229.828649
1211.859101,-8438.347739,-518.144159,-153.219100
1211.859422,-9548.656652,592.164754,383.047749
1211.859743,-9400.615463,2146.597232,383.047749
1211.860063,-10288.862594,1702.473667,1225.752797
1211.860384,-10881.027347,740.205942,76.609550
1211.860705,-10658.965565,-222.061783,1072.533697
1211.861026,-11029.068536,-666.185348,1608.800546
1211.861346,-10510.924376,-666.185348,1838.629195
1211.861667,-10066.800811,-1036.288319,1991.848295
1211.861988,-9030.512492,-1702.473667,1915.238745
1211.862309,-8956.491898,-2664.741391,2145.067394
1211.862630,-9400.615463,-3923.091493,1685.410096
1211.862950,-9178.553681,-3849.070898,919.314598
1211.863271,-9178.553681,-2442.679609,689.485948
1211.863592,-8734.430116,-444.123565,153.219100
1211.863913,-9178.553681,1628.453072,612.876398
1211.864234,-9178.553681,2220.617826,919.314598
1211.864554,-9918.759623,2590.720797,153.219100
1211.864875,-10140.821405,814.226536,0.000000
1211.865196,-10362.883188,0.000000,0.000000
1211.865517,-10214.842000,0.000000,383.047749
1211.865838,-10066.800811,296.082377,1302.362347
1211.866158,-9400.615463,0.000000,1149.143247
1211.866479,-9030.512492,-296.082377,1762.019645
1211.866800,-9252.574275,-2146.597232,1915.238745
1211.867121,-8808.450710,-3404.947333,766.095498
1211.867442,-8882.471304,-3701.029710,76.609550
1211.867762,-8438.347739,-2220.617826,-306.438199
1211.868083,-8956.491898,518.144159,-459.657299
1211.868404,-9178.553681,2442.679609,0.000000
1211.868725,-9400.615463,3404.947333,1608.800546
1211.869046,-10362.883188,2368.659014,459.657299
1211.869366,-11103.089130,1406.391290,689.485948
1211.869687,-11325.150913,444.123565,1225.752797
1211.870008,-11103.089130,-222.061783,1608.800546
1211.870329,-10584.944971,-518.144159,2298.286494
1211.870650,-9918.759623,-592.164754,2757.943793
1211.870970,-9622.677246,-814.226536,2911.162892
1211.871291,-9474.636058,-2146.597232,2681.334243
1211.871612,-9844.739029,-2516.700203,1915.238745
1211.871933,-9252.574275,-2886.803174,842.705048
1211.872253,-8512.368333,-888.247130,0.000000
1211.872574,-9104.533087,1702.473667,459.657299
1211.872895,-9992.780217,3330.926739,766.095498
1211.873216,-9474.636058,3627.009116,919.314598
1211.873537,-10436.903782,2146.597232,612.876398
1211.873857,-10658.965565,888.247130,842.705048
1211.874178,-10436.903782,0.000000,1072.533697
1211.874499,-10807.006753,-148.041188,1762.019645
1211.874820,-9770.718434,0.000000,1762.019645
1211.875141,-9474.636058,0.000000,1838.629195
1211.875461,-9326.594869,-444.123565,2757.943793
1211.875782,-8882.471304,-2442.679609,2298.286494
1211.876103,-9326.594869,-3552.988522,1685.410096
1211.876424,-9030.512492,-3478.967927,229.828649
1211.876745,-8586.388927,-1776.494261,-612.876398
1211.877065,-8808.450710,814.226536,-1149.143247
1211.877386,-8956.491898,2220.617826,0.000000
1211.877707,-9178.553681,2886.803174,459.657299
1211.878028,-9992.780217,2220.617826,229.828649
1211.878349,-10584.944971,666.185348,536.266849
1211.878669,-10881.027347,0.000000,1838.629195
1211.878990,-10658.965565,-740.205942,2451.505594
1211.879311,-9992.780217,-1036.288319,2757.943793
1211.879632,-9178.553681,-1554.432478,3370.820191
1211.879953,-8438.347739,-3034.844362,3140.991542
1211.880273,-9030.512492,-4145.153275,2757.943793
1211.880594,-8734.430116,-4589.276840,1455.581446
1211.880915,-8586.388927,-3478.967927,459.657299
1211.881236,-8364.327145,-814.226536,-306.438199
1211.881557,-9400.615463,1628.453072,76.609550
1211.881877,-8956.491898,2664.741391,689.485948
1211.882198,-9474.636058,1776.494261,0.000000
1211.882519,-9992.780217,888.247130,-229.828649
1211.882840,-10732.986159,0.000000,-459.657299
1211.883160,-10584.944971,0.000000,76.609550
1211.883481,-9992.780217,370.102971,919.314598
1211.883802,-10362.883188,296.082377,1225.752797
1211.884123,-9622.677246,-148.041188,919.314598
1211.884444,-9400.615463,-2220.617826,1225.752797
1211.884764,-9474.636058,-4071.132681,1302.362347
1211.885085,-9474.636058,-4219.173869,306.438199
1211.885406,-9696.697840,-2294.638420,-1225.752797
1211.885727,-9178.553681,-296.082377,-153.219100
1211.886048,-8882.471304,1924.535449,76.609550
1211.886368,-8956.491898,2886.803174,76.609550
1211.886689,-9844.739029,2812.782580,536.266849
1211.887010,-10955.047942,1184.329507,459.657299
1211.887331,-10955.047942,222.061783,689.485948
1211.887652,-11029.068536,-666.185348,995.924147
1211.887972,-10584.944971,-666.185348,2298.286494
1211.888293,-9622.677246,-592.164754,2451.505594
1211.888614,-9474.636058,-1480.411884,2451.505594
1211.888935,-9178.553681,-2664.741391,2221.676944
1211.889256,-9030.512492,-3478.967927,842.705048
1211.889576,-8808.450710,-3478.967927,0.000000
1211.889897,-8512.368333,-888.247130,-612.876398
1211.890218,-8586.388927,1406.391290,0.000000
1211.890539,-9030.512492,2516.700203,76.609550
1211.890860,-8956.491898,2664.741391,536.266849
1211.891180,-9622.677246,1924.535449,306.438199
1211.891501,-11177.109724,666.185348,1378.971896
1211.891822,-10807.006753,-296.082377,1762.019645
1211.892143,-10214.842000,-222.061783,1685.410096
1211.892464,-10362.883188,222.061783,1915.238745
1211.892784,-9326.594869,370.102971,2451.505594
1211.893105,-9178.553681,-888.247130,3447.429741
1211.893426,-8808.450710,-2146.597232,2604.724693
1211.893747,-9104.533087,-3849.070898,1072.533697
1211.894068,-8438.347739,-3330.926739,766.095498
1211.894388,-8438.347739,-1702.473667,459.657299
1211.894709,-8734.430116,814.226536,536.266849
1211.895030,-9178.553681,3034.844362,1532.190996
1211.895351,-9844.739029,3775.050304,1378.971896
1211.895671,-10584.944971,2812.782580,1378.971896
1211.895992,-11399.171507,1184.329507,1685.410096
1211.896313,-11029.068536,370.102971,2221.676944
1211.896634,-10807.006753,-296.082377,2451.505594
1211.896955,-10140.821405,-370.102971,2145.067394
1211.897275,-9326.594869,-962.267725,2604.724693
1211.897596,-8956.491898,-1850.514855,2221.676944
1211.897917,-9400.615463,-2368.659014,1608.800546
1211.898238,-9030.512492,-3256.906145,766.095498
1211.898559,-9030.512492,-2368.659014,-229.828649
1211.898879,-9178.553681,-592.164754,-612.876398
1211.899200,-9474.636058,1184.329507,153.219100
1211.899521,-9474.636058,2072.576638,-229.828649
1211.899842,-9844.739029,1628.453072,-153.219100
1211.900163,-10140.821405,370.102971,-536.266849
1211.900483,-10732.986159,-222.061783,0.000000
1211.900804,-10732.986159,-370.102971,536.266849
1211.901125,-10584.944971,-148.041188,1072.533697
1211.901446,-9918.759623,-222.061783,1378.971896
1211.901767,-9400.615463,-740.205942,1915.238745
1211.902087,-9770.718434,-1110.308913,1762.019645
1211.902408,-9326.594869,-3552.988522,1532.190996
1211.902729,-8956.491898,-4071.132681,536.266849
1211.903050,-8290.306550,-2886.803174,-536.266849
1211.903371,-8512.368333,-518.144159,306.438199
1211.903691,-8882.471304,2220.617826,-459.657299
1211.904012,-9326.594869,3849.070898,0.000000
1211.904333,-9548.656652,3627.009116,229.828649
1211.904654,-10288.862594,2516.700203,229.828649
1211.904975,-10732.986159,740.205942,766.095498
1211.905295,-11103.089130,-592.164754,2145.067394
1211.905616,-10510.924376,-1554.432478,2374.896044
1211.905937,-9844.739029,-1924.535449,2604.724693
1211.906258,-8586.388927,-1480.411884,2604.724693
1211.906578,-8956.491898,-2812.782580,2911.162892
1211.906899,-8808.450710,-3923.091493,2068.457845
1211.907220,-8808.450710,-4071.132681,1072.533697
1211.907541,-8438.347739,-2664.741391,153.219100
1211.907862,-8882.471304,-592.164754,0.000000
1211.908182,-9104.533087,1036.288319,766.095498
1211.908503,-9252.574275,1702.473667,689.485948
1211.908824,-9844.739029,1554.432478,919.314598
1211.909145,-10955.047942,1258.350101,536.266849
1211.909466,-11029.068536,74.020594,1149.143247
1211.909786,-10807.006753,148.041188,1378.971896
1211.910107,-10732.986159,0.000000,2221.676944
1211.910428,-10510.924376,1924.535449,3370.820191
1211.910749,-9844.739029,-666.185348,3370.820191
1211.911070,-9252.574275,-2294.638420,2528.115143
1211.911390,-9622.677246,-3330.926739,2298.286494
1211.911711,-9252.574275,-3182.885551,1685.410096
1211.912032,-9252.574275,-1628.453072,689.485948
1211.912353,-8956.491898,444.123565,306.438199
1211.912674,-9178.553681,2664.741391,306.438199
1211.912994,-9252.574275,3627.009116,229.828649
1211.913315,-10362.883188,3108.864956,229.828649
1211.913636,-10436.903782,2294.638420,689.485948
1211.913957,-10584.944971,666.185348,1225.752797
1211.914278,-10658.965565,0.000000,1225.752797
1211.914598,-10807.006753,-518.144159,3370.820191
1211.914919,-9918.759623,-740.205942,2528.115143
1211.915240,-9474.636058,-1776.494261,2757.943793
1211.915561,-9030.512492,-3108.864956,2221.676944
1211.915882,-8956.491898,-3849.070898,1225.752797
1211.916202,-8512.368333,-3478.967927,0.000000
1211.916523,-8290.306550,-1554.432478,-459.657299
1211.916844,-8660.409521,518.144159,-383.047749
1211.917165,-8808.450710,2220.617826,0.000000
1211.917485,-9400.615463,1924.535449,-306.438199
1211.917806,-10066.800811,1628.453072,76.609550
1211.918127,-11029.068536,444.123565,0.000000
1211.918448,-10584.944971,0.000000,612.876398
1211.918769,-10510.924376,148.041188,1455.581446
1211.919089,-10140.821405,666.185348,1072.533697
1211.919410,-9400.615463,518.144159,1225.752797
1211.919731,-9030.512492,-592.164754,1532.190996
1211.920052,-9030.512492,-2220.617826,1378.971896
1211.920373,-9030.512492,-3330.926739,1225.752797
1211.920693,-8956.491898,-3182.885551,229.828649
1211.921014,-8734.430116,-1480.411884,0.000000
1211.921335,-9104.533087,592.164754,306.438199
1211.921656,-8438.347739,2146.597232,766.095498
1211.921977,-9474.636058,2664.741391,1455.581446
1211.922297,-10436.903782,1850.514855,2068.457845
1211.922618,-10881.027347,518.144159,1685.410096
1211.922939,-10807.006753,-814.226536,1455.581446
1211.923260,-10658.965565,-1036.288319,2451.505594
1211.923581,-9696.697840,-1110.308913,2451.505594
1211.923901,-9252.574275,-1332.370696,2757.943793
1211.924222,-9030.512492,-2442.679609,2298.286494
1211.924543,-9104.533087,-3330.926739,1378.971896
1211.924864,-9104.533087,-3478.967927,612.876398
1211.925185,-9104.533087,-2146.597232,612.876398
1211.925505,-9622.677246,0.000000,995.924147
1211.925826,-9696.697840,296.082377,1838.629195
1211.926147,-9992.780217,1998.556043,1225.752797
1211.926468,-10140.821405,1036.288319,995.924147
1211.926789,-10362.883188,0.000000,995.924147
1211.927109,-10288.862594,-592.164754,306.438199
1211.927430,-10066.800811,-370.102971,689.485948
1211.927751,-9474.636058,518.144159,536.266849
1211.928072,-9622.677246,666.185348,842.705048
1211.928392,-9030.512492,148.041188,1532.190996
1211.928713,-9030.512492,-1554.432478,1685.410096
1211.929034,-9474.636058,-3404.947333,766.095498
1211.929355,-9400.615463,-3849.070898,536.266849
1211.929676,-8882.471304,-2368.659014,229.828649
1211.929996,-9770.718434,222.061783,-612.876398
1211.930317,-8660.409521,2294.638420,153.219100
1211.930638,-9400.615463,3034.844362,383.047749
1211.930959,-9844.739029,2442.679609,459.657299
1211.931280,-10436.903782,962.267725,536.266849
1211.931600,-11029.068536,-444.123565,1072.533697
1211.931921,-10436.903782,-1480.411884,1072.533697
1211.932242,-10362.883188,-1406.391290,1915.238745
1211.932563,-9696.697840,-1702.473667,2528.115143
1211.932884,-8808.450710,-1850.514855,2987.772442
1211.933204,-9178.553681,-3034.844362,1991.848295
1211.933525,-8882.471304,-3404.947333,919.314598
1211.933846,-9104.533087,-2516.700203,76.609550
1211.934167,-9400.615463,-888.247130,-995.924147
1211.934488,-9252.574275,1406.391290,0.000000
1211.934808,-9548.656652,2516.700203,689.485948
1211.935129,-9622.677246,2368.659014,842.705048
1211.935450,-10510.924376,1406.391290,-76.609550
1211.935771,-11029.068536,814.226536,766.095498
1211.936092,-10658.965565,370.102971,612.876398
1211.936412,-10510.924376,592.164754,842.705048
1211.936733,-9918.759623,1184.329507,1455.581446
1211.937054,-9992.780217,814.226536,1532.190996
1211.937375,-9474.636058,148.041188,1915.238745
1211.937696,-9400.615463,-1332.370696,1991.848295
1211.938016,-9474.636058,-1850.514855,1455.581446
1211.938337,-8586.388927,-1332.370696,919.314598
1211.938658,-9548.656652,-370.102971,536.266849
1211.938979,-9326.594869,1702.473667,612.876398
1211.939299,-9252.574275,2886.803174,766.095498
1211.939620,-9474.636058,3404.947333,1532.190996
1211.939941,-10066.800811,1924.535449,1072.533697
1211.940262,-10510.924376,296.082377,1762.019645
1211.940583,-9992.780217,-740.205942,1149.143247
1211.940903,-10066.800811,-962.267725,1532.190996
1211.941224,-9474.636058,-962.267725,2681.334243
1211.941545,-9252.574275,-1258.350101,3294.210641
1211.941866,-9030.512492,-2146.597232,2834.553343
1211.942187,-8808.450710,-3627.009116,2451.505594
1211.942507,-9030.512492,-4959.379811,1378.971896
1211.942828,-8586.388927,-3478.967927,689.485948
1211.943149,-8808.450710,-1332.370696,459.657299
1211.943470,-8660.409521,740.205942,306.438199
1211.943791,-8882.471304,1998.556043,383.047749
1211.944111,-9474.636058,1924.535449,0.000000
1211.944432,-9992.780217,1258.350101,76.609550
1211.944753,-10288.862594,370.102971,536.266849
1211.945074,-10288.862594,0.000000,842.705048
1211.945395,-10436.903782,0.000000,1149.143247
1211.945715,-9696.697840,0.000000,1685.410096
1211.946036,-9178.553681,-296.082377,1762.019645
1211.946357,-9400.615463,-1480.411884,1532.190996
1211.946678,-10436.903782,-2146.597232,2528.115143
1211.946999,-9474.636058,-3182.885551,76.609550
1211.947319,-9178.553681,-2368.659014,-153.219100
1211.947640,-9326.594869,222.061783,-306.438199
1211.947961,-9770.718434,1702.473667,0.000000
1211.948282,-8512.368333,3552.988522,459.657299
1211.948603,-10066.800811,1998.556043,459.657299
1211.948923,-10288.862594,1036.288319,153.219100
1211.949244,-11103.089130,-444.123565,612.876398
1211.949565,-10362.883188,-444.123565,612.876398
1211.949886,-10362.883188,-370.102971,2221.676944
1211.950206,-10066.800811,-814.226536,2987.772442
1211.950527,-9548.656652,-1776.494261,2911.162892
1211.950848,-8956.491898,-3404.947333,3217.601092
1211.951169,-9252.574275,-4145.153275,1915.238745
1211.951490,-9252.574275,-4293.194464,1149.143247
1211.951810,-9104.533087,-2368.659014,0.000000
1211.952131,-8956.491898,-74.020594,229.828649
1211.952452,-9030.512492,1554.432478,153.219100
1211.952773,-9104.533087,2294.638420,459.657299
1211.953093,-9844.739029,1258.350101,459.657299
1211.953414,-10066.800811,814.226536,229.828649
1211.953735,-9844.739029,296.082377,459.657299
1211.954056,-10436.903782,444.123565,1072.533697
1211.954376,-9696.697840,518.144159,1762.019645
1211.954697,-9474.636058,0.000000,2374.896044
1211.955018,-9474.636058,-1036.288319,1915.238745
1211.955339,-9030.512492,-2442.679609,2145.067394
1211.955659,-9178.553681,-3478.967927,1608.800546
1211.955980,-8882.471304,-2812.782580,919.314598
1211.956301,-8512.368333,-1480.411884,0.000000
1211.956622,-8808.450710,1406.391290,153.219100
1211.956943,-8808.450710,2220.617826,306.438199
1211.957263,-9252.574275,2220.617826,459.657299
1211.957584,-9770.718434,1332.370696,76.609550
1211.957905,-10510.924376,814.226536,1302.362347
1211.958226,-10881.027347,370.102971,689.485948
1211.958546,-10658.965565,148.041188,1455.581446
1211.958867,-10584.944971,0.000000,2374.896044
1211.959188,-9400.615463,-592.164754,2528.115143
1211.959509,-9844.739029,-1406.391290,1915.238745
1211.959829,-9474.636058,-2886.803174,1608.800546
1211.960150,-9326.594869,-3108.864956,919.314598
1211.960471,-9252.574275,-2072.576638,306.438199
1211.960792,-8216.285956,888.247130,1302.362347
1211.961112,-9400.615463,1776.494261,459.657299
1211.961433,-9474.636058,2442.679609,536.266849
1211.961754,-9844.739029,1924.535449,459.657299
1211.962075,-10436.903782,962.267725,689.485948
1211.962396,-10807.006753,148.041188,919.314598
1211.962716,-10362.883188,0.000000,919.314598
1211.963037,-10436.903782,518.144159,1225.752797
1211.963358,-9992.780217,518.144159,1685.410096
1211.963679,-9770.718434,148.041188,1532.190996
1211.963999,-9400.615463,-1480.411884,1915.238745
1211.964320,-9400.615463,-3108.864956,1532.190996
1211.964641,-9030.512492,-3627.009116,306.438199
1211.964962,-8808.450710,-2738.761985,-766.095498
1211.965282,-8808.450710,0.000000,0.000000
1211.965603,-8734.430116,2072.576638,0.000000
1211.965924,-9104.533087,2886.803174,0.000000
1211.966245,-9474.636058,2886.803174,459.657299
1211.966565,-10362.883188,1258.350101,612.876398
1211.966886,-10881.027347,-296.082377,1072.533697
1211.967207,-10510.924376,-1184.329507,1532.190996
1211.967528,-10214.842000,-1110.308913,2068.457845
1211.967848,-9474.636058,-1184.329507,2987.772442
1211.968169,-9400.615463,-1258.350101,2987.772442
1211.968490,-9252.574275,-2442.679609,2834.553343
1211.968811,-9030.512492,-3552.988522,1991.848295
1211.969132,-8734.430116,-3478.967927,1302.362347
1211.969452,-8808.450710,-2516.700203,842.705048
1211.969773,-8956.491898,-444.123565,459.657299
1211.970094,-8734.430116,1110.308913,689.485948
1211.970415,-8660.409521,1776.494261,229.828649
1211.970735,-9474.636058,1332.370696,842.705048
1211.971056,-10436.903782,814.226536,1225.752797
1211.971377,-10584.944971,0.000000,1072.533697
1211.971698,-10732.986159,0.000000,1302.362347
1211.972018,-10510.924376,74.020594,1915.238745
1211.972339,-9918.759623,0.000000,2145.067394
1211.972660,-9474.636058,-1110.308913,2451.505594
1211.972981,-9030.512492,-3404.947333,1685.410096
1211.973301,-9030.512492,-3627.009116,1532.190996
1211.973622,-9548.656652,-4145.153275,383.047749
1211.973943,-8808.450710,-1776.494261,0.000000
1211.974264,-9326.594869,592.164754,0.000000
1211.974584,-9622.677246,2886.803174,76.609550
1211.974905,-9326.594869,3404.947333,383.047749
1211.975226,-10436.903782,2294.638420,612.876398
1211.975547,-10955.047942,888.247130,1149.143247
1211.975868,-10881.027347,-592.164754,1149.143247
1211.976188,-10881.027347,-1184.329507,2451.505594
1211.976509,-9918.759623,-888.247130,2145.067394
1211.976830,-9474.636058,-1110.308913,2221.676944
1211.977151,-9326.594869,-1924.535449,2451.505594
1211.977471,-8660.409521,-3256.906145,1455.581446
1211.977792,-8512.368333,-3849.070898,76.609550
1211.978113,-8586.388927,-2664.741391,-306.438199
1211.978434,-8882.471304,-148.041188,-229.828649
1211.978754,-9696.697840,2146.597232,536.266849
1211.979075,-9252.574275,2886.803174,1149.143247
1211.979396,-9622.677246,2664.741391,919.314598
1211.979717,-10510.924376,1628.453072,1072.533697
1211.980037,-10955.047942,592.164754,1455.581446
1211.980358,-10140.821405,0.000000,1608.800546
1211.980679,-10066.800811,0.000000,2068.457845
1211.981000,-9622.677246,518.144159,1991.848295
1211.981321,-8808.450710,0.000000,1838.629195
1211.981641,-9030.512492,-1406.391290,1991.848295
1211.981962,-9030.512492,-2886.803174,1685.410096
1211.982283,-8956.491898,-3478.967927,842.705048
1211.982604,-8882.471304,-2812.782580,229.828649
1211.982924,-8660.409521,-370.102971,-306.438199
1211.983245,-9178.553681,1924.535449,-153.219100
1211.983566,-9178.553681,3552.988522,229.828649
1211.983887,-9548.656652,3478.967927,536.266849
1211.984207,-10288.862594,2590.720797,766.095498
1211.984528,-11103.089130,518.144159,-536.266849
1211.984849,-10955.047942,0.000000,1608.800546
1211.985170,-10436.903782,-740.205942,1915.238745
1211.985490,-10066.800811,-1036.288319,2374.896044
1211.985811,-9622.677246,-1480.411884,2834.553343
1211.986132,-9326.594869,-2294.638420,2604.724693
1211.986453,-9474.636058,-2738.761985,1532.190996
1211.986773,-9104.533087,-2886.803174,536.266849
1211.987094,-8882.471304,-1110.308913,-229.828649
1211.987415,-9104.533087,740.205942,-306.438199
1211.987736,-9400.615463,2442.679609,0.000000
1211.988057,-9770.718434,2590.720797,459.657299
1211.988377,-10288.862594,1628.453072,766.095498
1211.988698,-9548.656652,-74.020594,2068.457845
1211.989019,-11177.109724,-666.185348,1378.971896
1211.989340,-10510.924376,-666.185348,1455.581446
1211.989660,-9770.718434,-518.144159,1455.581446
1211.989981,-9326.594869,-592.164754,1838.629195
1211.990302,-8438.347739,-1184.329507,2298.286494
1211.990623,-9030.512492,-2664.741391,2145.067394
1211.990943,-8734.430116,-4293.194464,1378.971896
1211.991264,-8734.430116,-3923.091493,919.314598
1211.991585,-8290.306550,-2368.659014,229.828649
1211.991906,-9030.512492,666.185348,0.000000
1211.992226,-9104.533087,2886.803174,229.828649
1211.992547,-9622.677246,3478.967927,842.705048
1211.992868,-9474.636058,2368.659014,0.000000
1211.993189,-9992.780217,2368.659014,919.314598
1211.993509,-11621.233289,-814.226536,612.876398
1211.993830,-9474.636058,-370.102971,1532.190996
1211.994151,-10214.842000,-1628.453072,1532.190996
1211.994472,-9030.512492,-1406.391290,2451.505594
1211.994793,-8956.491898,-2146.597232,2221.676944
1211.995113,-9178.553681,-3182.885551,2451.505594
1211.995434,-9178.553681,-4293.194464,1685.410096
1211.995755,-8660.409521,-4145.153275,-229.828649
1211.996076,-9326.594869,-1702.473667,459.657299
1211.996396,-8734.430116,444.123565,229.828649
1211.996717,-9326.594869,2294.638420,536.266849
1211.997038,-10510.924376,2294.638420,766.095498
1211.997359,-9918.759623,1406.391290,306.438199
1211.997679,-10807.006753,296.082377,153.219100
1211.998000,-10807.006753,-222.061783,536.266849
1211.998321,-10362.883188,0.000000,1378.971896
1211.998642,-9992.780217,0.000000,1378.971896
1211.998962,-9474.636058,-518.144159,2068.457845
1211.999283,-9178.553681,-1110.308913,1838.629195
1211.999604,-9548.656652,-2516.700203,1991.848295
1211.999925,-9104.533087,-3330.926739,1608.800546
1212.000246,-9178.553681,-2664.741391,229.828649
1212.000566,-9030.512492,-444.123565,-306.438199
1212.000887,-9400.615463,2220.617826,0.000000
1212.001208,-9030.512492,3775.050304,1225.752797
1212.001529,-9548.656652,3330.926739,919.314598
1212.001849,-10658.965565,2368.659014,689.485948
1212.002170,-10436.903782,1258.350101,612.876398
1212.002491,-11029.068536,370.102971,1455.581446
1212.002812,-10362.883188,444.123565,1915.238745
1212.003132,-9844.739029,222.061783,2298.286494
1212.003453,-9844.739029,-518.144159,2451.505594
1212.003774,-9030.512492,-1924.535449,2221.676944
1212.004095,-8660.409521,-3034.844362,1685.410096
1212.004415,-8956.491898,-3701.029710,0.000000
1212.004736,-8364.327145,-1850.514855,-153.219100
1212.005057,-9252.574275,148.041188,153.219100
1212.005378,-9252.574275,1998.556043,-919.314598
1212.005698,-9474.636058,2516.700203,153.219100
1212.006019,-9992.780217,1924.535449,766.095498
1212.006340,-10362.883188,888.247130,459.657299
1212.006661,-10658.965565,0.000000,1072.533697
1212.006982,-10362.883188,-592.164754,1225.752797
1212.007302,-9844.739029,-444.123565,1532.190996
1212.007623,-9474.636058,-666.185348,2068.457845
1212.007944,-9326.594869,-1036.288319,2221.676944
1212.008265,-9474.636058,-2368.659014,3217.601092
1212.008585,-9326.594869,-3330.926739,1532.190996
1212.008906,-9252.574275,-3849.070898,689.485948
1212.009227,-8956.491898,-2368.659014,383.047749
1212.009548,-9030.512492,222.061783,76.609550
1212.009868,-9992.780217,2146.597232,0.000000
1212.010189,-9104.533087,3034.844362,153.219100
1212.010510,-9548.656652,2368.659014,229.828649
1212.010831,-10362.883188,1110.308913,229.828649
1212.011151,-10510.924376,148.041188,919.314598
1212.011472,-10436.903782,-370.102971,1915.238745
1212.011793,-10288.862594,-814.226536,2298.286494
1212.012114,-9770.718434,-1258.350101,2987.772442
1212.012435,-9400.615463,-2220.617826,3294.210641
1212.012755,-8956.491898,-3701.029710,1762.019645
1212.013076,-9030.512492,-3775.050304,2145.067394
1212.013397,-9104.533087,-3034.844362,1149.143247
1212.013718,-8660.409521,-962.267725,612.876398
1212.014038,-8956.491898,888.247130,306.438199
1212.014359,-9178.553681,2294.638420,689.485948
1212.014680,-9474.636058,2368.659014,766.095498
1212.015001,-10214.842000,370.102971,1302.362347
1212.015321,-10584.944971,-888.247130,1225.752797
1212.015642,-11251.130318,-2368.659014,306.438199
1212.015963,-10362.883188,-814.226536,1302.362347
1212.016284,-9992.780217,296.082377,1532.190996
1212.016604,-9622.677246,0.000000,2451.505594
1212.016925,-9104.533087,-1258.350101,1762.019645
1212.017246,-9104.533087,-3182.885551,1838.629195
1212.017567,-9104.533087,-4737.318029,842.705048
1212.017887,-8882.471304,-4441.235652,0.000000
1212.018208,-8956.491898,-2368.659014,-842.705048
1212.018529,-8586.388927,888.247130,-306.438199
1212.018850,-8882.471304,2738.761985,-766.095498
1212.019171,-9548.656652,3256.906145,229.828649
1212.019491,-9918.759623,2146.597232,0.000000
1212.019812,-10584.944971,1924.535449,1072.533697
1212.020133,-10807.006753,74.020594,1149.143247
1212.020454,-10881.027347,-296.082377,1378.971896
1212.020774,-9992.780217,-222.061783,1838.629195
1212.021095,-9548.656652,-962.267725,2374.896044
1212.021416,-8956.491898,-1776.494261,2145.067394
1212.021737,-9400.615463,-3034.844362,1838.629195
1212.022057,-9104.533087,-3404.947333,306.438199
1212.022378,-8956.491898,-1998.556043,0.000000
1212.022699,-9326.594869,222.061783,0.000000
1212.023020,-9400.615463,1998.556043,306.438199
1212.023340,-9252.574275,3034.844362,459.657299
1212.023661,-10066.800811,2368.659014,612.876398
1212.023982,-10510.924376,1406.391290,842.705048
1212.024303,-10881.027347,814.226536,919.314598
1212.024623,-10881.027347,222.061783,919.314598
1212.024944,-10140.821405,1110.308913,1455.581446
1212.025265,-9918.759623,666.185348,1991.848295
1212.025586,-9474.636058,74.020594,2451.505594
1212.025907,-9400.615463,-1184.329507,2604.724693
1212.026227,-9474.636058,-3034.844362,1915.238745
1212.026548,-8882.471304,-2960.823768,1072.533697
1212.026869,-9326.594869,-2368.659014,0.000000
1212.027190,-9104.533087,296.082377,536.266849
1212.027510,-8956.491898,2368.659014,536.266849
1212.027831,-9252.574275,3552.988522,842.705048
1212.028152,-10140.821405,3775.050304,306.438199
1212.028473,-10066.800811,1480.411884,1302.362347
1212.028793,-10584.944971,74.020594,1532.190996
1212.029114,-10288.862594,-666.185348,1685.410096
1212.029435,-10066.800811,-814.226536,2528.115143
1212.029756,-9474.636058,-814.226536,2451.505594
1212.030076,-9178.553681,-1628.453072,2681.334243
1212.030397,-9252.574275,-2516.700203,2604.724693
1212.030718,-8882.471304,-3256.906145,1991.848295
1212.031039,-8882.471304,-3256.906145,1685.410096
1212.031360,-8438.347739,-1924.535449,153.219100
1212.031680,-8956.491898,148.041188,153.219100
1212.032001,-9030.512492,1924.535449,459.657299
1212.032322,-9178.553681,1480.411884,2834.553343
1212.032643,-9918.759623,1480.411884,383.047749
1212.032963,-10214.842000,444.123565,536.266849
1212.033284,-10436.903782,-518.144159,536.266849
1212.033605,-10288.862594,-296.082377,766.095498
1212.033926,-9844.739029,-296.082377,1378.971896
1212.034246,-9548.656652,0.000000,1685.410096
1212.034567,-8956.491898,-518.144159,1762.019645
1212.034888,-9770.718434,-2664.741391,1072.533697
1212.035209,-9474.636058,-2960.823768,1455.581446
1212.035529,-9548.656652,-3404.947333,229.828649
1212.035850,-9326.594869,-2220.617826,-766.095498
1212.036171,-9252.574275,592.164754,-306.438199
1212.036492,-9474.636058,1776.494261,689.485948
1212.036812,-9252.574275,2442.679609,153.219100
1212.037133,-10362.883188,1406.391290,383.047749
1212.037454,-10436.903782,148.041188,459.657299
1212.037775,-10807.006753,-592.164754,612.876398
1212.038096,-10881.027347,-740.205942,1149.143247
1212.038416,-10066.800811,-592.164754,2145.067394
1212.038737,-9918.759623,-1258.350101,2298.286494
1212.039058,-9252.574275,-2072.576638,2374.896044
1212.039379,-9992.780217,-2590.720797,1378.971896
1212.039699,-9400.615463,-2886.803174,842.705048
1212.040020,-9178.553681,-2146.597232,306.438199
1212.040341,-9326.594869,-370.102971,306.438199
1212.040662,-9474.636058,2072.576638,-153.219100
1212.040982,-9474.636058,2072.576638,689.485948
1212.041303,-9474.636058,1628.453072,1072.533697
1212.041624,-10066.800811,74.020594,995.924147
1212.041945,-10362.883188,-222.061783,1455.581446
1212.042265,-10140.821405,-370.102971,1455.581446
1212.042586,-9992.780217,0.000000,1532.190996
1212.042907,-9474.636058,74.020594,1915.238745
1212.043228,-9030.512492,74.020594,2298.286494
1212.043548,-8956.491898,-1480.411884,2451.505594
1212.043869,-9252.574275,-2738.761985,1991.848295
1212.044190,-9178.553681,-3182.885551,1149.143247
1212.044511,-8734.430116,-2368.659014,459.657299
1212.044832,-9474.636058,666.185348,1225.752797
1212.045152,-9252.574275,2072.576638,689.485948
1212.045473,-9030.512492,3108.864956,459.657299
1212.045794,-9548.656652,2886.803174,689.485948
1212.046115,-10140.821405,1628.453072,766.095498
1212.046435,-10140.821405,888.247130,919.314598
1212.046756,-10955.047942,148.041188,1455.581446
1212.047077,-10362.883188,-148.041188,1838.629195
1212.047398,-9770.718434,-888.247130,1991.848295
1212.047718,-9400.615463,-1702.473667,1838.629195
1212.048039,-9400.615463,-2368.659014,1762.019645
1212.048360,-9474.636058,-3034.844362,1532.190996
1212.048681,-9252.574275,-2368.659014,919.314598
1212.049001,-8882.471304,0.000000,1072.533697
1212.049322,-9474.636058,1554.432478,-153.219100
1212.049643,-9548.656652,2590.720797,0.000000
1212.049964,-9548.656652,2590.720797,76.609550
1212.050284,-10214.842000,1702.473667,153.219100
1212.050605,-10436.903782,222.061783,383.047749
1212.050926,-10881.027347,-592.164754,459.657299
1212.051247,-10510.924376,-666.185348,919.314598
1212.051567,-10140.821405,296.082377,1532.190996
1212.051888,-10066.800811,444.123565,1838.629195
1212.052209,-9326.594869,-740.205942,2068.457845
1212.052530,-9178.553681,-2220.617826,1608.800546
1212.052850,-9252.574275,-4145.153275,919.314598
1212.053171,-9104.533087,-3256.906145,1302.362347
1212.053492,-8808.450710,-2368.659014,459.657299
1212.053813,-8364.327145,74.020594,842.705048
1212.054133,-9178.553681,2072.576638,306.438199
1212.054454,-9400.615463,3108.864956,536.266849
1212.054775,-9548.656652,1702.473667,1072.533697
1212.055095,-10362.883188,888.247130,1302.362347
1212.055416,-10732.986159,-592.164754,1302.362347
1212.055737,-9992.780217,-1184.329507,1685.410096
1212.056058,-9622.677246,-2664.741391,1455.581446
1212.056378,-8956.491898,-1924.535449,2451.505594
1212.056699,-9178.553681,-2664.741391,3140.991542
1212.057020,-8956.491898,-3330.926739,2911.162892
1212.057341,-8808.450710,-4219.173869,1762.019645
1212.057661,-8512.368333,-2960.823768,919.314598
1212.057982,-9104.533087,-1184.329507,229.828649
1212.058303,-8956.491898,1184.329507,612.876398
1212.058624,-9548.656652,2368.659014,766.095498
1212.058944,-9696.697840,1776.494261,612.876398
1212.059265,-10140.821405,888.247130,995.924147
1212.059586,-10510.924376,-814.226536,459.657299
1212.059906,-10584.944971,-740.205942,842.705048
1212.060227,-10955.047942,0.000000,2451.505594
1212.060548,-10140.821405,444.123565,1915.238745
1212.060869,-9770.718434,-296.082377,2528.115143
1212.061189,-9252.574275,-1480.411884,2374.896044
1212.061510,-9326.594869,-3182.885551,2145.067394
1212.061831,-9326.594869,-3923.091493,1149.143247
1212.062152,-8734.430116,-3256.906145,-229.828649
1212.062472,-8882.471304,-592.164754,-689.485948
1212.062793,-9252.574275,2072.576638,-76.609550
1212.063114,-9474.636058,3404.947333,536.266849
1212.063435,-9770.718434,2812.782580,536.266849
1212.063755,-10436.903782,1332.370696,306.438199
1212.064076,-11029.068536,74.020594,766.095498
1212.064397,-11473.192101,-222.061783,1532.190996
1212.064718,-10584.944971,0.000000,1838.629195
1212.065038,-9918.759623,296.082377,1991.848295
1212.065359,-9474.636058,74.020594,2221.676944
1212.065680,-9030.512492,-1332.370696,2987.772442
1212.066000,-8882.471304,-2442.679609,919.314598
1212.066321,-8734.430116,-3256.906145,306.438199
1212.066642,-8956.491898,-1850.514855,-306.438199
1212.066963,-8956.491898,0.000000,-229.828649
1212.067283,-9400.615463,1850.514855,0.000000
1212.067604,-9400.615463,2664.741391,459.657299
1212.067925,-9696.697840,1998.556043,612.876398
1212.068246,-10288.862594,518.144159,536.266849
1212.068566,-10584.944971,296.082377,153.219100
1212.068887,-10510.924376,-296.082377,1225.752797
1212.069208,-10140.821405,296.082377,1915.238745
1212.069529,-9548.656652,74.020594,2528.115143
1212.069849,-9326.594869,-962.267725,2757.943793
1212.070170,-9252.574275,-2220.617826,2221.676944
1212.070491,-9104.533087,-3552.988522,1838.629195
1212.070811,-9104.533087,-3552.988522,995.924147
1212.071132,-8808.450710,-1998.556043,383.047749
1212.071453,-8586.388927,518.144159,459.657299
1212.071774,-9178.553681,2886.803174,536.266849
1212.072094,-9474.636058,4071.132681,1072.533697
1212.072415,-9918.759623,2960.823768,995.924147
1212.072736,-10436.903782,1406.391290,1991.848295
1212.073057,-10510.924376,592.164754,1302.362347
1212.073377,-11399.171507,-518.144159,1838.629195
1212.073698,-9918.759623,-370.102971,2298.286494
1212.074019,-9770.718434,-1036.288319,3294.210641
1212.074340,-9474.636058,-2072.576638,2451.505594
1212.074660,-8808.450710,-2886.803174,2145.067394
1212.074981,-9178.553681,-3701.029710,1455.581446
1212.075302,-9030.512492,-2812.782580,306.438199
1212.075622,-8586.388927,-962.267725,-229.828649
1212.075943,-9326.594869,1184.329507,383.047749
1212.076264,-9178.553681,2072.576638,153.219100
1212.076585,-9474.636058,1554.432478,153.219100
1212.076905,-10362.883188,1184.329507,-306.438199
1212.077226,-10658.965565,-740.205942,383.047749
1212.077547,-10732.986159,-1036.288319,919.314598
1212.077868,-10510.924376,-740.205942,1455.581446
1212.078188,-9622.677246,148.041188,3600.648841
1212.078509,-9400.615463,0.000000,2068.457845
1212.078830,-9104.533087,-1332.370696,2451.505594
1212.079151,-9400.615463,-2738.761985,2145.067394
1212.079471,-9474.636058,-3701.029710,1685.410096
1212.079792,-9474.636058,-3182.885551,1149.143247
1212.080113,-8808.450710,-1332.370696,459.657299
1212.080433,-9104.533087,1184.329507,536.266849
1212.080754,-9474.636058,3034.844362,995.924147
1212.081075,-9474.636058,3256.906145,1532.190996
1212.081396,-10214.842000,1924.535449,612.876398
1212.081716,-10362.883188,444.123565,766.095498
1212.082037,-10362.883188,-814.226536,766.095498
1212.082358,-10214.842000,-1036.288319,1302.362347
1212.082679,-9770.718434,-1110.308913,1915.238745
1212.082999,-9104.533087,-1924.535449,1991.848295
1212.083320,-8586.388927,-2516.700203,1608.800546
1212.083641,-8808.450710,-3552.988522,842.705048
1212.083962,-8364.327145,-3627.009116,229.828649
1212.084282,-8882.471304,-2072.576638,-383.047749
1212.084603,-8956.491898,0.000000,-383.047749
1212.084924,-8956.491898,1480.411884,-306.438199
1212.085244,-9326.594869,1924.535449,-306.438199
1212.085565,-9992.780217,1776.494261,689.485948
1212.085886,-10436.903782,1332.370696,383.047749
1212.086207,-11029.068536,370.102971,1072.533697
1212.086527,-10658.965565,370.102971,995.924147
1212.086848,-10584.944971,444.123565,1838.629195
1212.087169,-9696.697840,518.144159,1532.190996
1212.087490,-9474.636058,-148.041188,1838.629195
1212.087810,-9252.574275,-1776.494261,1685.410096
1212.088131,-9474.636058,-3330.926739,1302.362347
1212.088452,-9178.553681,-3997.112087,459.657299
1212.088773,-8882.471304,-2368.659014,0.000000
1212.089093,-9622.677246,74.020594,0.000000
1212.089414,-9918.759623,3478.967927,-1302.362347
1212.089735,-9844.739029,3997.112087,766.095498
1212.090055,-10288.862594,3627.009116,842.705048
1212.090376,-10288.862594,1850.514855,383.047749
1212.090697,-10807.006753,-370.102971,842.705048
1212.091018,-9918.759623,-962.267725,995.924147
1212.091338,-9770.718434,-962.267725,1225.752797
1212.091659,-9696.697840,-592.164754,2145.067394
1212.091980,-9252.574275,-740.205942,2221.676944
1212.092301,-8882.471304,-2368.659014,2451.505594
1212.092621,-9104.533087,-2960.823768,1608.800546
1212.092942,-9178.553681,-2442.679609,842.705048
1212.093263,-9030.512492,-666.185348,153.219100
1212.093584,-8808.450710,1998.556043,459.657299
1212.093904,-9252.574275,2442.679609,919.314598
1212.094225,-9622.677246,2590.720797,1072.533697
1212.094546,-9844.739029,1628.453072,842.705048
1212.094866,-10436.903782,74.020594,1302.362347
1212.095187,-10584.944971,-666.185348,1455.581446
1212.095508,-10584.944971,-444.123565,2068.457845
1212.095829,-9918.759623,-148.041188,2374.896044
1212.096149,-9548.656652,-222.061783,2757.943793
1212.096470,-8882.471304,-1628.453072,2911.162892
1212.096791,-9030.512492,-3404.947333,2221.676944
1212.097112,-8956.491898,-4515.256246,1915.238745
1212.097432,-9030.512492,-4071.132681,612.876398
1212.097753,-9178.553681,-1924.535449,-536.266849
1212.098074,-8956.491898,592.164754,229.828649
1212.098395,-9326.594869,2368.659014,306.438199
1212.098715,-9696.697840,2590.720797,919.314598
1212.099036,-10214.842000,1406.391290,919.314598
1212.099357,-10584.944971,-222.061783,842.705048
1212.099678,-10584.944971,-888.247130,1225.752797
1212.099998,-10658.965565,-1036.288319,1455.581446
1212.100319,-9918.759623,-888.247130,2451.505594
1212.100640,-9474.636058,-740.205942,2528.115143
1212.100960,-9030.512492,-2072.576638,2681.334243
1212.101281,-8956.491898,-3256.906145,2068.457845
1212.101602,-9252.574275,-3701.029710,766.095498
1212.101923,-9326.594869,-1998.556043,-229.828649
1212.102243,-9030.512492,-370.102971,-229.828649
1212.102564,-9400.615463,1776.494261,0.000000
1212.102885,-9474.636058,2960.823768,76.609550
1212.103206,-9770.718434,2368.659014,1608.800546
1212.103526,-10510.924376,1406.391290,76.609550
1212.103847,-11029.068536,0.000000,612.876398
1212.104168,-10955.047942,-296.082377,919.314598
1212.104489,-10658.965565,0.000000,919.314598
1212.104809,-9696.697840,-296.082377,1455.581446
1212.105130,-9252.574275,-444.123565,1915.238745
1212.105451,-9104.533087,-1850.514855,1455.581446
1212.105771,-9030.512492,-3330.926739,1225.752797
1212.106092,-9178.553681,-4589.276840,0.000000
1212.106413,-9030.512492,-3034.844362,-229.828649
1212.106734,-9104.533087,-592.164754,-153.219100
1212.107054,-9252.574275,1258.350101,0.000000
1212.107375,-9326.594869,2812.782580,306.438199
1212.107696,-9918.759623,2664.741391,612.876398
1212.108017,-10658.965565,1628.453072,1302.362347
1212.108337,-11103.089130,148.041188,1302.362347
1212.108658,-10807.006753,-962.267725,1455.581446
1212.108979,-10214.842000,-1036.288319,1455.581446
1212.109300,-9474.636058,-1184.329507,1685.410096
1212.109620,-8956.491898,-1184.329507,2145.067394
1212.109941,-8734.430116,-2072.576638,1991.848295
1212.110262,-8216.285956,-2664.741391,1915.238745
1212.110582,-8586.388927,-2516.700203,689.485948
1212.110903,-8364.327145,-1036.288319,153.219100
1212.111224,-9178.553681,740.205942,919.314598
1212.111545,-9178.553681,1924.535449,919.314598
1212.111865,-9548.656652,2590.720797,1608.800546
1212.112186,-10288.862594,1850.514855,1225.752797
