#time,accel_x,accel_y,accel_z
1366.811078,-9622.677246,-296.082377,1149.143247
1366.811399,-9622.677246,-296.082377,1225.752797
1366.811720,-9622.677246,-222.061783,1225.752797
1366.812041,-9548.656652,-370.102971,1302.362347
1366.812362,-9548.656652,-370.102971,1378.971896
1366.812683,-9474.636058,-444.123565,919.314598
1366.813004,-9474.636058,-444.123565,1455.581446
1366.813325,-9400.615463,814.226536,459.657299
1366.813646,-9622.677246,-222.061783,1072.533697
1366.813967,-9474.636058,-296.082377,1225.752797
1366.814288,-9622.677246,-518.144159,919.314598
1366.814609,-9622.677246,-296.082377,153.219100
1366.814930,-9622.677246,-296.082377,1225.752797
1366.815251,-9548.656652,-370.102971,1072.533697
1366.815572,-9474.636058,-74.020594,919.314598
1366.815893,-9474.636058,-444.123565,1072.533697
1366.816214,-9992.780217,0.000000,1072.533697
1366.816535,-9696.697840,-222.061783,1225.752797
1366.816856,-9548.656652,-222.061783,1225.752797
1366.817177,-9548.656652,-518.144159,1378.971896
1366.817498,-9474.636058,0.000000,1455.581446
1366.817819,-9326.594869,-370.102971,1149.143247
1366.818140,-9918.759623,-592.164754,1455.581446
1366.818461,-9770.718434,-814.226536,1455.581446
1366.818782,-9622.677246,-1110.308913,1149.143247
1366.819102,-9326.594869,-814.226536,76.609550
1366.819423,-9548.656652,-592.164754,995.924147
1366.819744,-9622.677246,-592.164754,1072.533697
1366.820065,-9696.697840,-518.144159,1072.533697
1366.820386,-9770.718434,-222.061783,842.705048
1366.820707,-9992.780217,-666.185348,612.876398
1366.821028,-9474.636058,-518.144159,919.314598
1366.821349,-9918.759623,-666.185348,1225.752797
1366.821670,-9474.636058,-666.185348,1302.362347
1366.821991,-9696.697840,-1110.308913,2374.896044
1366.822312,-9474.636058,-1554.432478,1838.629195
1366.822633,-9696.697840,-1258.350101,1685.410096
1366.822954,-9918.759623,-1480.411884,1838.629195
1366.823275,-9474.636058,-962.267725,1685.410096
1366.823596,-9474.636058,-1406.391290,2374.896044
1366.823917,-9400.615463,-1110.308913,2068.457845
1366.824238,-9548.656652,-814.226536,2068.457845
1366.824559,-9474.636058,-1110.308913,1991.848295
1366.824880,-9696.697840,-666.185348,1991.848295
1366.825201,-9918.759623,-666.185348,919.314598
1366.825522,-9548.656652,-888.247130,2681.334243
1366.825843,-9622.677246,-1036.288319,3140.991542
1366.826164,-9696.697840,-1258.350101,3524.039291
1366.826485,-9696.697840,-1258.350101,3677.258390
1366.826806,-9622.677246,-1480.411884,5822.325785
1366.827127,-9770.718434,-1924.535449,4596.572988
1366.827448,-9548.656652,-1998.556043,4903.011187
1366.827769,-9474.636058,-2072.576638,5439.278036
1366.828090,-9474.636058,-2220.617826,5515.887586
1366.828411,-9474.636058,-2220.617826,5898.935335
1366.828732,-9252.574275,-2368.659014,5362.668486
1366.829053,-9326.594869,-2294.638420,5515.887586
1366.829374,-9326.594869,-2146.597232,5669.106685
1366.829695,-9252.574275,-2146.597232,5822.325785
1366.830016,-9474.636058,-3034.844362,6281.983084
1366.830337,-9252.574275,-3849.070898,5056.230287
1366.830658,-9178.553681,-4589.276840,5362.668486
1366.830979,-9178.553681,-4441.235652,4903.011187
1366.831300,-9622.677246,-3997.112087,5056.230287
1366.831621,-9474.636058,-3552.988522,5515.887586
1366.831942,-9326.594869,-3330.926739,5056.230287
1366.832263,-9252.574275,-3849.070898,4290.134789
1366.832584,-9326.594869,-4071.132681,4290.134789
1366.832905,-9400.615463,-4959.379811,4749.792088
1366.833226,-9030.512492,-5773.606348,2911.162892
1366.833547,-8734.430116,-6291.750507,3907.087040
1366.833868,-8956.491898,-6587.832884,3830.477490
1366.834189,-9252.574275,-6587.832884,3217.601092
1366.834510,-8956.491898,-6661.853478,2298.286494
1366.834831,-9178.553681,-5181.441594,306.438199
1366.835152,-8956.491898,-4885.359217,919.314598
1366.835473,-9178.553681,-3701.029710,459.657299
1366.835794,-9548.656652,-2886.803174,76.609550
1366.836115,-9474.636058,-1776.494261,-76.609550
1366.836436,-9844.739029,-1110.308913,76.609550
1366.836757,-10066.800811,-2146.597232,689.485948
1366.837078,-9992.780217,-2812.782580,1838.629195
1366.837399,-10436.903782,-4515.256246,2374.896044
1366.837720,-10066.800811,-5699.585753,2451.505594
1366.838041,-9548.656652,-5921.647536,1991.848295
1366.838361,-9400.615463,-6217.729913,2451.505594
1366.838682,-9548.656652,-5551.544565,3370.820191
1366.839003,-9400.615463,-4885.359217,3447.429741
1366.839324,-9400.615463,-4663.297435,3294.210641
1366.839645,-8586.388927,-4367.215058,3677.258390
1366.839966,-9548.656652,-3552.988522,1378.971896
1366.840287,-9548.656652,-2220.617826,689.485948
1366.840608,-10140.821405,74.020594,766.095498
1366.840929,-10436.903782,1702.473667,919.314598
1366.841250,-10807.006753,3034.844362,459.657299
1366.841571,-10807.006753,2442.679609,2298.286494
1366.841892,-11029.068536,1258.350101,3294.210641
1366.842213,-11251.130318,-1036.288319,4443.353888
1366.842534,-10140.821405,-2590.720797,4903.011187
1366.842855,-9770.718434,-3775.050304,4060.306139
1366.843176,-9326.594869,-4589.276840,6435.202183
1366.843497,-8882.471304,-4885.359217,7354.516781
1366.843818,-8586.388927,-5625.565159,7354.516781
1366.844139,-8364.327145,-6143.709319,6281.983084
1366.844460,-7920.203579,-5403.503377,4826.401637
1366.844781,-7994.224174,-3478.967927,3753.867940
1366.845102,-8660.409521,-592.164754,3677.258390
1366.845423,-8882.471304,2146.597232,4060.306139
1366.845744,-9178.553681,2886.803174,4290.134789
1366.846065,-9992.780217,1998.556043,3600.648841
1366.846386,-9992.780217,1184.329507,3140.991542
1366.846707,-10066.800811,592.164754,3983.696590
1366.847028,-10214.842000,-148.041188,3983.696590
1366.847349,-9104.533087,-666.185348,5362.668486
1366.847670,-9474.636058,-3256.906145,5056.230287
1366.847991,-8068.244768,-5699.585753,4060.306139
1366.848312,-7698.141797,-6883.915261,2987.772442
1366.848633,-8808.450710,-5551.544565,3064.381992
1366.848954,-9696.697840,-2146.597232,3524.039291
1366.849275,-9400.615463,-1184.329507,3600.648841
1366.849596,-9326.594869,-592.164754,3140.991542
1366.849917,-8660.409521,-444.123565,1455.581446
1366.850238,-10362.883188,0.000000,1378.971896
1366.850559,-11399.171507,888.247130,1915.238745
1366.850880,-11177.109724,666.185348,2451.505594
1366.851201,-10955.047942,-962.267725,1685.410096
1366.851522,-9918.759623,-1110.308913,536.266849
1366.851843,-9992.780217,-592.164754,0.000000
1366.852164,-9992.780217,-1036.288319,1608.800546
1366.852485,-10362.883188,-518.144159,2068.457845
1366.852806,-10066.800811,-2368.659014,1378.971896
1366.853127,-9548.656652,-3256.906145,1072.533697
1366.853448,-9770.718434,-2960.823768,2374.896044
1366.853769,-10807.006753,-3478.967927,5209.449386
1366.854090,-9844.739029,-5107.421000,4136.915689
1366.854411,-8882.471304,-5995.668130,2374.896044
1366.854732,-8216.285956,-4589.276840,995.924147
1366.855053,-9696.697840,-2442.679609,2221.676944
1366.855374,-10807.006753,-1110.308913,3370.820191
1366.855695,-9622.677246,-1702.473667,3524.039291
1366.856016,-9326.594869,-2072.576638,2221.676944
1366.856337,-9770.718434,-1850.514855,2604.724693
1366.856658,-10732.986159,-2738.761985,4290.134789
1366.856979,-9252.574275,-5551.544565,3983.696590
1366.857300,-8364.327145,-5773.606348,2604.724693
1366.857620,-8142.265362,-4515.256246,2145.067394
1366.857941,-8660.409521,-2886.803174,3677.258390
1366.858262,-9030.512492,-3404.947333,5362.668486
1366.858583,-8364.327145,-4737.318029,4673.182538
1366.858904,-8290.306550,-4885.359217,4290.134789
1366.859225,-9548.656652,-6143.709319,4443.353888
1366.859546,-9030.512492,-5995.668130,4749.792088
1366.859867,-9104.533087,-5033.400406,4826.401637
1366.860188,-9918.759623,-1998.556043,4903.011187
1366.860509,-9622.677246,-592.164754,4213.525239
1366.860830,-9770.718434,0.000000,4673.182538
1366.861151,-9622.677246,-1258.350101,3830.477490
1366.861472,-9696.697840,-3034.844362,3753.867940
1366.861793,-9770.718434,-3775.050304,2451.505594
1366.862114,-8438.347739,-3923.091493,1225.752797
1366.862435,-8586.388927,-2664.741391,1685.410096
1366.862756,-9992.780217,-740.205942,3983.696590
1366.863077,-10066.800811,-1776.494261,6435.202183
1366.863398,-9992.780217,-3775.050304,5286.058936
1366.863719,-9844.739029,-4885.359217,3983.696590
1366.864040,-10510.924376,-5699.585753,3753.867940
1366.864361,-9622.677246,-4145.153275,3370.820191
1366.864682,-9474.636058,-1332.370696,3064.381992
1366.865003,-9326.594869,-1776.494261,2298.286494
1366.865324,-8142.265362,-592.164754,2068.457845
1366.865645,-9992.780217,-814.226536,2221.676944
1366.865966,-11177.109724,-2072.576638,2145.067394
1366.866287,-9844.739029,-2368.659014,1608.800546
1366.866608,-10140.821405,-592.164754,1532.190996
1366.866929,-10658.965565,1036.288319,2451.505594
1366.867250,-10510.924376,1036.288319,3370.820191
1366.867571,-9770.718434,-592.164754,4290.134789
1366.867892,-10658.965565,-2664.741391,2604.724693
1366.868212,-9030.512492,-4811.338623,1225.752797
1366.868533,-8438.347739,-2812.782580,1685.410096
1366.868854,-9474.636058,-1554.432478,3370.820191
1366.869175,-8956.491898,-1184.329507,3064.381992
1366.869496,-7994.224174,-444.123565,3370.820191
1366.869817,-8512.368333,-3404.947333,1378.971896
1366.870138,-8438.347739,-3478.967927,0.000000
1366.870459,-9326.594869,-1110.308913,1302.362347
1366.870779,-10288.862594,1702.473667,3294.210641
1366.871100,-9992.780217,1998.556043,3524.039291
1366.871421,-9104.533087,1924.535449,2528.115143
1366.871742,-9178.553681,-666.185348,1838.629195
1366.872063,-8512.368333,-1554.432478,766.095498
1366.872384,-10140.821405,-1628.453072,2681.334243
1366.872705,-9030.512492,-518.144159,3140.991542
1366.873026,-9030.512492,-1110.308913,4826.401637
1366.873347,-9326.594869,-3552.988522,3370.820191
1366.873667,-9992.780217,-4441.235652,4136.915689
1366.873988,-8290.306550,-6217.729913,2145.067394
1366.874309,-9474.636058,-4515.256246,2604.724693
1366.874630,-9474.636058,-1850.514855,3447.429741
1366.874951,-9104.533087,-2220.617826,1915.238745
1366.875272,-9178.553681,-592.164754,2604.724693
1366.875593,-9622.677246,-1258.350101,612.876398
1366.875914,-8734.430116,592.164754,536.266849
1366.876234,-11547.212695,1110.308913,1532.190996
1366.876555,-11177.109724,296.082377,2451.505594
1366.876876,-9844.739029,222.061783,2987.772442
1366.877197,-11917.315666,-1258.350101,2834.553343
1366.877518,-10140.821405,-518.144159,2987.772442
1366.877839,-10807.006753,-1258.350101,2987.772442
1366.878160,-10140.821405,-740.205942,4749.792088
1366.878481,-8956.491898,-1998.556043,3830.477490
1366.878802,-9030.512492,-3775.050304,3907.087040
1366.879122,-8734.430116,-3923.091493,2145.067394
1366.879443,-7328.038826,-2960.823768,459.657299
1366.879764,-10288.862594,-2368.659014,1225.752797
1366.880085,-9474.636058,222.061783,2834.553343
1366.880406,-8956.491898,-296.082377,2068.457845
1366.880727,-10658.965565,666.185348,459.657299
1366.881048,-10362.883188,1776.494261,229.828649
1366.881369,-9770.718434,1998.556043,153.219100
1366.881689,-11399.171507,1110.308913,1225.752797
1366.882010,-10881.027347,1184.329507,2834.553343
1366.882331,-9770.718434,-2368.659014,766.095498
1366.882652,-9326.594869,-3330.926739,-459.657299
1366.882973,-9030.512492,-1850.514855,536.266849
1366.883294,-9474.636058,-2368.659014,1532.190996
1366.883615,-8734.430116,-2368.659014,3370.820191
1366.883936,-8586.388927,-4515.256246,842.705048
1366.884257,-6735.874072,-4959.379811,-2374.896044
1366.884577,-7402.059420,-2738.761985,-1762.019645
1366.884898,-9696.697840,0.000000,1225.752797
1366.885219,-9918.759623,740.205942,2451.505594
1366.885540,-9548.656652,1184.329507,2298.286494
1366.885861,-9548.656652,-666.185348,-1149.143247
1366.886182,-8808.450710,370.102971,-2145.067394
1366.886503,-11695.253884,1406.391290,459.657299
1366.886824,-10066.800811,2072.576638,1915.238745
1366.887144,-9104.533087,1776.494261,-76.609550
1366.887465,-9474.636058,444.123565,-1072.533697
1366.887786,-7698.141797,0.000000,-2451.505594
1366.888107,-9474.636058,0.000000,-1378.971896
1366.888428,-8734.430116,1850.514855,995.924147
1366.888749,-9844.739029,444.123565,842.705048
1366.889070,-8512.368333,-1036.288319,1149.143247
1366.889391,-9844.739029,-2294.638420,1225.752797
1366.889712,-9770.718434,-222.061783,3830.477490
1366.890032,-12065.356855,-1702.473667,4213.525239
1366.890353,-10807.006753,666.185348,5592.497135
1366.890674,-10140.821405,-1184.329507,2068.457845
1366.890995,-9326.594869,-518.144159,0.000000
1366.891316,-9622.677246,2146.597232,1762.019645
1366.891637,-10658.965565,2368.659014,1532.190996
1366.891958,-10658.965565,2368.659014,2298.286494
1366.892279,-9474.636058,592.164754,306.438199
1366.892599,-8660.409521,0.000000,-766.095498
1366.892920,-9178.553681,-888.247130,-1685.410096
1366.893241,-9474.636058,814.226536,2374.896044
1366.893562,-10584.944971,-740.205942,2911.162892
1366.893883,-9178.553681,-1850.514855,2681.334243
1366.894204,-9474.636058,-3478.967927,1455.581446
1366.894525,-9474.636058,-2516.700203,536.266849
1366.894846,-10066.800811,666.185348,2834.553343
1366.895167,-11103.089130,2368.659014,3524.039291
1366.895487,-8808.450710,1406.391290,2834.553343
1366.895808,-8660.409521,-370.102971,76.609550
1366.896129,-8216.285956,-222.061783,766.095498
1366.896450,-9696.697840,74.020594,383.047749
1366.896771,-10881.027347,888.247130,1072.533697
1366.897092,-9104.533087,1480.411884,2145.067394
1366.897413,-9770.718434,-370.102971,76.609550
1366.897734,-9326.594869,0.000000,689.485948
1366.898054,-9474.636058,592.164754,536.266849
1366.898375,-10288.862594,518.144159,1302.362347
1366.898696,-9992.780217,296.082377,1915.238745
1366.899017,-8068.244768,-518.144159,766.095498
1366.899338,-10436.903782,-3627.009116,536.266849
1366.899659,-8438.347739,-2220.617826,-766.095498
1366.899980,-9770.718434,-518.144159,995.924147
1366.900301,-10436.903782,-2368.659014,1072.533697
1366.900621,-7402.059420,-222.061783,0.000000
1366.900942,-11695.253884,-2664.741391,-612.876398
1366.901263,-7994.224174,-740.205942,-2757.943793
1366.901584,-9548.656652,962.267725,-1838.629195
1366.901905,-10288.862594,2442.679609,1072.533697
1366.902226,-9844.739029,592.164754,383.047749
1366.902547,-11399.171507,-222.061783,1455.581446
1366.902868,-9992.780217,-2072.576638,766.095498
1366.903189,-9474.636058,-1998.556043,842.705048
1366.903509,-11029.068536,-1184.329507,3140.991542
1366.903830,-10066.800811,-1628.453072,2757.943793
1366.904151,-9030.512492,-1258.350101,229.828649
1366.904472,-8882.471304,-1850.514855,-306.438199
1366.904793,-6661.853478,-888.247130,-689.485948
1366.905114,-9030.512492,-296.082377,995.924147
1366.905435,-9918.759623,-148.041188,2145.067394
1366.905756,-9474.636058,-1406.391290,2528.115143
1366.906076,-9104.533087,-1184.329507,1532.190996
1366.906397,-9474.636058,-888.247130,1915.238745
1366.906718,-11917.315666,-222.061783,3294.210641
1366.907039,-11177.109724,1184.329507,4366.744339
1366.907360,-9696.697840,-740.205942,5515.887586
1366.907681,-8956.491898,-1628.453072,1072.533697
1366.908002,-8512.368333,-2368.659014,0.000000
1366.908323,-9474.636058,222.061783,1532.190996
1366.908644,-10362.883188,592.164754,2987.772442
1366.908964,-8364.327145,222.061783,2681.334243
1366.909285,-8734.430116,-1924.535449,1685.410096
1366.909606,-8364.327145,-2738.761985,-766.095498
1366.909927,-9474.636058,74.020594,1149.143247
1366.910248,-11103.089130,1480.411884,2911.162892
1366.910569,-9622.677246,1924.535449,4136.915689
1366.910890,-9326.594869,-74.020594,1838.629195
1366.911211,-11843.295072,-1924.535449,1455.581446
1366.911531,-9400.615463,-296.082377,689.485948
1366.911852,-12657.521608,-296.082377,2987.772442
1366.912173,-8956.491898,444.123565,1838.629195
1366.912494,-9474.636058,-814.226536,306.438199
1366.912815,-9696.697840,-1702.473667,-536.266849
1366.913136,-7179.997637,0.000000,-1608.800546
1366.913457,-9548.656652,1036.288319,2681.334243
1366.913778,-10066.800811,1406.391290,1532.190996
1366.914099,-9326.594869,222.061783,306.438199
1366.914419,-11103.089130,-1184.329507,76.609550
1366.914740,-8068.244768,-592.164754,-612.876398
1366.915061,-9548.656652,814.226536,-229.828649
1366.915382,-10584.944971,1850.514855,1532.190996
1366.915703,-9770.718434,1258.350101,1225.752797
1366.916024,-9474.636058,222.061783,-383.047749
1366.916345,-9104.533087,-1258.350101,-1991.848295
1366.916666,-8586.388927,888.247130,-919.314598
1366.916986,-10214.842000,1776.494261,1302.362347
1366.917307,-9770.718434,1184.329507,1378.971896
1366.917628,-9770.718434,-222.061783,0.000000
1366.917949,-8290.306550,-1332.370696,-995.924147
1366.918270,-8808.450710,-1702.473667,-612.876398
1366.918591,-9844.739029,1406.391290,1838.629195
1366.918912,-11547.212695,888.247130,2911.162892
1366.919233,-9548.656652,888.247130,2068.457845
1366.919554,-9548.656652,-148.041188,919.314598
1366.919874,-8660.409521,-222.061783,-1225.752797
1366.920195,-10066.800811,740.205942,1762.019645
1366.920516,-9844.739029,0.000000,1608.800546
1366.920837,-8586.388927,-1480.411884,689.485948
1366.921158,-8142.265362,-2368.659014,-1225.752797
1366.921479,-7994.224174,-2590.720797,-4443.353888
1366.921800,-9178.553681,518.144159,536.266849
1366.922121,-10955.047942,1776.494261,3064.381992
1366.922441,-9844.739029,1258.350101,3753.867940
1366.922762,-10658.965565,-740.205942,2681.334243
1366.923083,-9992.780217,-2812.782580,1991.848295
1366.923404,-9548.656652,-1332.370696,2374.896044
1366.923725,-10732.986159,-1332.370696,3524.039291
1366.924046,-8586.388927,-1702.473667,3064.381992
1366.924367,-8586.388927,-1554.432478,1302.362347
1366.924688,-9104.533087,-2738.761985,-612.876398
1366.925009,-8216.285956,222.061783,-306.438199
1366.925329,-10066.800811,2368.659014,2911.162892
1366.925650,-10362.883188,1702.473667,1838.629195
1366.925971,-8364.327145,1110.308913,3140.991542
1366.926292,-9844.739029,-1184.329507,-153.219100
1366.926613,-8586.388927,-592.164754,536.266849
1366.926934,-11029.068536,-1406.391290,3217.601092
1366.927255,-11325.150913,-3108.864956,2911.162892
1366.927576,-7994.224174,222.061783,5362.668486
1366.927896,-15396.283594,-2442.679609,1991.848295
1366.928217,-7105.977043,-1110.308913,2374.896044
1366.928538,-9252.574275,-444.123565,-153.219100
1366.928859,-10881.027347,1406.391290,3064.381992
1366.929180,-6661.853478,-1110.308913,-1149.143247
1366.929501,-9696.697840,-518.144159,2834.553343
1366.929822,-7920.203579,-2664.741391,-612.876398
1366.930143,-8734.430116,-1480.411884,-995.924147
1366.930464,-11251.130318,-518.144159,3294.210641
1366.930784,-8956.491898,222.061783,1685.410096
1366.931105,-10362.883188,0.000000,1455.581446
1366.931426,-10807.006753,-1258.350101,1762.019645
1366.931747,-6883.915261,-740.205942,-995.924147
1366.932068,-11547.212695,1110.308913,76.609550
1366.932389,-10732.986159,148.041188,1915.238745
1366.932710,-8438.347739,-296.082377,1608.800546
1366.933031,-10658.965565,-2590.720797,766.095498
1366.933351,-8438.347739,-1776.494261,306.438199
1366.933672,-9622.677246,0.000000,612.876398
1366.933993,-10881.027347,-592.164754,2528.115143
1366.934314,-9104.533087,0.000000,919.314598
1366.934635,-9918.759623,-962.267725,766.095498
1366.934956,-9326.594869,-2368.659014,-2757.943793
1366.935277,-8364.327145,1406.391290,306.438199
1366.935598,-11029.068536,1258.350101,1072.533697
1366.935918,-9992.780217,444.123565,1608.800546
1366.936239,-9474.636058,-592.164754,383.047749
1366.936560,-9400.615463,-1332.370696,-1915.238745
1366.936881,-9326.594869,1258.350101,1225.752797
1366.937202,-11029.068536,2220.617826,3983.696590
1366.937523,-11251.130318,74.020594,5362.668486
1366.937844,-11621.233289,-2220.617826,3294.210641
1366.938165,-8364.327145,-4071.132681,-1991.848295
1366.938486,-7402.059420,-1702.473667,-1608.800546
1366.938806,-10066.800811,518.144159,-536.266849
1366.939127,-8068.244768,1258.350101,306.438199
1366.939448,-8216.285956,1406.391290,-689.485948
1366.939769,-8068.244768,74.020594,-1149.143247
1366.940090,-8734.430116,370.102971,-1302.362347
1366.940411,-13175.665768,1184.329507,3294.210641
1366.940732,-11991.336260,444.123565,4290.134789
1366.941053,-8734.430116,148.041188,2298.286494
1366.941373,-11251.130318,-1184.329507,1455.581446
1366.941694,-8734.430116,-1258.350101,-153.219100
1366.942015,-9622.677246,370.102971,995.924147
1366.942336,-10066.800811,1036.288319,536.266849
1366.942657,-7179.997637,666.185348,-229.828649
1366.942978,-9400.615463,-814.226536,-306.438199
1366.943299,-9252.574275,-1480.411884,-229.828649
1366.943620,-8290.306550,1850.514855,995.924147
1366.943941,-10658.965565,-592.164754,4213.525239
1366.944261,-9918.759623,148.041188,3064.381992
1366.944582,-9918.759623,-888.247130,2068.457845
1366.944903,-9918.759623,-3256.906145,0.000000
1366.945224,-8438.347739,-148.041188,229.828649
1366.945545,-10584.944971,1036.288319,2374.896044
1366.945866,-9696.697840,2072.576638,2221.676944
1366.946187,-9696.697840,1776.494261,1608.800546
1366.946508,-9992.780217,-1850.514855,383.047749
1366.946828,-7624.121203,-1850.514855,-383.047749
1366.947149,-11843.295072,-444.123565,1608.800546
1366.947470,-9400.615463,518.144159,2604.724693
1366.947791,-9030.512492,444.123565,2528.115143
1366.948112,-9696.697840,-1850.514855,612.876398
1366.948433,-7105.977043,-1480.411884,-1915.238745
1366.948754,-8290.306550,222.061783,-1225.752797
1366.949075,-9622.677246,0.000000,766.095498
1366.949396,-8882.471304,0.000000,919.314598
1366.949716,-9918.759623,-1850.514855,995.924147
1366.950037,-9030.512492,-2146.597232,1072.533697
1366.950358,-10066.800811,1258.350101,1302.362347
1366.950679,-11917.315666,814.226536,3217.601092
1366.951000,-9844.739029,1184.329507,2298.286494
1366.951321,-9326.594869,74.020594,76.609550
1366.951642,-8586.388927,-1554.432478,-1685.410096
1366.951963,-7846.182985,-962.267725,-1072.533697
1366.952283,-9770.718434,-1480.411884,306.438199
1366.952604,-8882.471304,-962.267725,919.314598
1366.952925,-9992.780217,-1110.308913,842.705048
1366.953246,-9548.656652,-1702.473667,689.485948
1366.953567,-9918.759623,0.000000,919.314598
1366.953888,-11473.192101,1406.391290,3370.820191
1366.954209,-10658.965565,370.102971,2451.505594
1366.954530,-8364.327145,222.061783,3370.820191
1366.954851,-10140.821405,-1850.514855,0.000000
1366.955171,-8068.244768,-1258.350101,-1149.143247
1366.955492,-9474.636058,222.061783,842.705048
1366.955813,-9918.759623,370.102971,1455.581446
1366.956134,-8290.306550,-296.082377,766.095498
1366.956455,-10510.924376,-962.267725,842.705048
1366.956776,-9548.656652,-518.144159,842.705048
1366.957097,-10214.842000,1036.288319,2298.286494
1366.957418,-12287.418637,0.000000,3600.648841
1366.957738,-9252.574275,-1554.432478,2145.067394
1366.958059,-9696.697840,-2072.576638,995.924147
1366.958380,-9326.594869,-2220.617826,0.000000
1366.958701,-8216.285956,0.000000,0.000000
1366.959022,-9622.677246,740.205942,1762.019645
1366.959343,-9252.574275,518.144159,995.924147
1366.959664,-9252.574275,0.000000,1455.581446
1366.959985,-10436.903782,-2664.741391,383.047749
1366.960306,-8734.430116,-888.247130,919.314598
1366.960626,-10732.986159,1628.453072,2451.505594
1366.960947,-10436.903782,888.247130,2757.943793
1366.961268,-8956.491898,1184.329507,2068.457845
1366.961589,-9178.553681,-1036.288319,0.000000
1366.961910,-7179.997637,74.020594,-2451.505594
1366.962231,-9326.594869,1554.432478,229.828649
1366.962552,-11177.109724,888.247130,3370.820191
1366.962873,-9770.718434,148.041188,3217.601092
1366.963193,-10807.006753,-1776.494261,3447.429741
1366.963514,-9474.636058,-2220.617826,1455.581446
1366.963835,-9770.718434,-666.185348,2221.676944
1366.964156,-11325.150913,-666.185348,2221.676944
1366.964477,-7920.203579,888.247130,1532.190996
1366.964798,-8734.430116,0.000000,229.828649
1366.965119,-7846.182985,74.020594,-1762.019645
1366.965440,-7994.224174,740.205942,-1378.971896
1366.965761,-10066.800811,592.164754,919.314598
1366.966081,-9622.677246,296.082377,1455.581446
1366.966402,-11399.171507,0.000000,2374.896044
1366.966723,-11177.109724,-2516.700203,1225.752797
1366.967044,-9178.553681,-1406.391290,153.219100
1366.967365,-10955.047942,592.164754,1532.190996
1366.967686,-9548.656652,888.247130,1072.533697
1366.968007,-8512.368333,2294.638420,2604.724693
1366.968328,-9474.636058,-1332.370696,-229.828649
1366.968649,-7105.977043,-2146.597232,-3140.991542
1366.968970,-8956.491898,-518.144159,-919.314598
1366.969291,-10362.883188,-592.164754,689.485948
1366.969612,-10214.842000,1332.370696,3524.039291
1366.969933,-11547.212695,0.000000,2374.896044
1366.970253,-9844.739029,-1332.370696,1072.533697
1366.970574,-9844.739029,0.000000,1532.190996
1366.970895,-11695.253884,-592.164754,3447.429741
1366.971216,-8882.471304,-1406.391290,3677.258390
1366.971537,-8586.388927,-1258.350101,536.266849
1366.971858,-8364.327145,-3182.885551,-2987.772442
1366.972179,-7105.977043,444.123565,-1608.800546
1366.972500,-10955.047942,0.000000,536.266849
1366.972821,-9178.553681,1850.514855,2604.724693
1366.973142,-10288.862594,518.144159,1991.848295
1366.973463,-11177.109724,-1924.535449,1608.800546
1366.973784,-9178.553681,-296.082377,1072.533697
1366.974105,-12287.418637,222.061783,3524.039291
1366.974426,-10584.944971,222.061783,4903.011187
1366.974746,-9844.739029,592.164754,4519.963438
1366.975067,-10732.986159,-2072.576638,3370.820191
1366.975388,-8660.409521,-4293.194464,1072.533697
1366.975709,-9178.553681,-2294.638420,842.705048
1366.976030,-10362.883188,-962.267725,1149.143247
1366.976351,-7402.059420,814.226536,0.000000
1366.976672,-7994.224174,1184.329507,459.657299
1366.976993,-7328.038826,222.061783,-995.924147
1366.977314,-8734.430116,518.144159,-995.924147
1366.977635,-10436.903782,-1258.350101,153.219100
1366.977956,-7772.162391,-592.164754,0.000000
1366.978277,-10955.047942,-1184.329507,2068.457845
1366.978598,-11177.109724,-888.247130,2451.505594
1366.978918,-12213.398043,1776.494261,3677.258390
1366.979239,-14137.933492,-370.102971,6052.154434
1366.979560,-9400.615463,-1406.391290,4290.134789
1366.979881,-11177.109724,-3330.926739,2604.724693
1366.980202,-8364.327145,-2886.803174,-153.219100
1366.980523,-7550.100608,-1554.432478,-995.924147
1366.980844,-7920.203579,740.205942,-842.705048
1366.981165,-6883.915261,1184.329507,0.000000
1366.981486,-8438.347739,1110.308913,-459.657299
1366.981807,-10732.986159,-666.185348,766.095498
1366.982128,-10288.862594,-962.267725,306.438199
1366.982449,-10658.965565,222.061783,2298.286494
1366.982770,-12361.439231,-148.041188,2757.943793
1366.983091,-10214.842000,1036.288319,2298.286494
1366.983411,-11843.295072,74.020594,1455.581446
1366.983732,-9844.739029,-740.205942,-536.266849
1366.984053,-8808.450710,148.041188,-1762.019645
1366.984374,-10362.883188,-296.082377,306.438199
1366.984695,-8882.471304,-148.041188,-995.924147
1366.985016,-9178.553681,222.061783,-1455.581446
1366.985337,-8808.450710,-1628.453072,-1685.410096
1366.985658,-7772.162391,0.000000,-1608.800546
1366.985979,-9918.759623,666.185348,0.000000
1366.986300,-11547.212695,-1702.473667,0.000000
1366.986621,-9104.533087,4367.215058,2757.943793
1366.986942,-12805.562797,-4737.318029,76.609550
1366.987263,-7105.977043,1702.473667,2451.505594
1366.987584,-12731.542202,-1406.391290,689.485948
1366.987904,-9918.759623,1036.288319,1608.800546
1366.988225,-8216.285956,1184.329507,-2145.067394
1366.988546,-10214.842000,222.061783,306.438199
1366.988867,-7698.141797,-888.247130,-1378.971896
1366.989188,-7994.224174,-222.061783,-229.828649
1366.989509,-11621.233289,518.144159,3140.991542
1366.989830,-8142.265362,-296.082377,383.047749
1366.990151,-10955.047942,-1554.432478,3294.210641
1366.990472,-9770.718434,-2812.782580,2757.943793
1366.990793,-8808.450710,0.000000,1915.238745
1366.991114,-11621.233289,-1036.288319,4596.572988
1366.991435,-9030.512492,-444.123565,1838.629195
1366.991756,-9030.512492,-1332.370696,1225.752797
1366.992077,-8660.409521,-2220.617826,-612.876398
1366.992397,-7402.059420,-296.082377,-306.438199
1366.992718,-10066.800811,1184.329507,1532.190996
1366.993039,-10140.821405,1258.350101,3600.648841
1366.993360,-9622.677246,1184.329507,2528.115143
1366.993681,-10584.944971,-1406.391290,1225.752797
1366.994002,-9326.594869,-518.144159,1072.533697
1366.994323,-11769.274478,444.123565,3370.820191
1366.994644,-9696.697840,-296.082377,3524.039291
1366.994965,-9918.759623,-1036.288319,1991.848295
1366.995286,-9178.553681,-1998.556043,383.047749
1366.995607,-7550.100608,-1998.556043,-1838.629195
1366.995928,-9770.718434,2072.576638,2068.457845
1366.996249,-10288.862594,148.041188,2068.457845
1366.996569,-8808.450710,444.123565,1225.752797
1366.996890,-10140.821405,-2220.617826,229.828649
1366.997211,-8290.306550,-2072.576638,-1455.581446
1366.997532,-10066.800811,-296.082377,2834.553343
1366.997853,-11325.150913,-740.205942,2911.162892
1366.998174,-8290.306550,148.041188,1302.362347
1366.998495,-10066.800811,-1332.370696,612.876398
1366.998816,-9252.574275,-2590.720797,-919.314598
1366.999137,-8216.285956,-444.123565,-766.095498
1366.999458,-11695.253884,148.041188,1608.800546
1366.999779,-8956.491898,1036.288319,1149.143247
1367.000100,-9252.574275,222.061783,459.657299
1367.000421,-10436.903782,-2368.659014,-2757.943793
1367.000742,-7550.100608,-296.082377,-1302.362347
1367.001062,-11251.130318,-518.144159,1608.800546
1367.001383,-9918.759623,666.185348,2145.067394
1367.001704,-9474.636058,962.267725,1302.362347
1367.002025,-9030.512492,-1036.288319,-2068.457845
1367.002346,-8956.491898,-888.247130,-459.657299
1367.002667,-9030.512492,592.164754,383.047749
1367.002988,-9844.739029,518.144159,536.266849
1367.003309,-9548.656652,814.226536,536.266849
1367.003630,-9622.677246,1258.350101,1532.190996
1367.003951,-9696.697840,-814.226536,1149.143247
1367.004272,-9548.656652,-222.061783,1149.143247
1367.004593,-10658.965565,-592.164754,2451.505594
1367.004914,-9992.780217,-518.144159,2528.115143
1367.005235,-10214.842000,-148.041188,1302.362347
1367.005555,-9548.656652,-2294.638420,-536.266849
1367.005876,-7994.224174,0.000000,76.609550
1367.006197,-10436.903782,592.164754,1685.410096
1367.006518,-9474.636058,296.082377,2757.943793
1367.006839,-9252.574275,-444.123565,2221.676944
1367.007160,-9622.677246,-2590.720797,995.924147
1367.007481,-8586.388927,-1110.308913,766.095498
1367.007802,-11547.212695,-518.144159,3064.381992
1367.008123,-9548.656652,0.000000,3907.087040
1367.008444,-9030.512492,-296.082377,2145.067394
1367.008765,-9400.615463,-666.185348,612.876398
1367.009086,-7920.203579,-148.041188,0.000000
1367.009407,-10362.883188,814.226536,1072.533697
1367.009728,-9844.739029,2072.576638,2298.286494
1367.010048,-9400.615463,592.164754,1991.848295
1367.010369,-9770.718434,-1628.453072,1302.362347
1367.010690,-8882.471304,-1628.453072,-459.657299
1367.011011,-10732.986159,518.144159,3983.696590
1367.011332,-10288.862594,-222.061783,2681.334243
1367.011653,-8586.388927,1036.288319,2451.505594
1367.011974,-10807.006753,148.041188,2298.286494
1367.012295,-9326.594869,-1036.288319,919.314598
1367.012616,-8808.450710,0.000000,2681.334243
1367.012937,-11103.089130,222.061783,3677.258390
1367.013258,-9696.697840,-1628.453072,612.876398
1367.013579,-7846.182985,-296.082377,383.047749
1367.013900,-8216.285956,-1184.329507,-1762.019645
1367.014221,-6069.688724,1850.514855,-1455.581446
1367.014541,-10584.944971,1036.288319,1915.238745
1367.014862,-8586.388927,592.164754,919.314598
1367.015183,-8956.491898,888.247130,689.485948
1367.015504,-11917.315666,-2368.659014,1762.019645
1367.015825,-8956.491898,-444.123565,1608.800546
1367.016146,-12139.377449,-1628.453072,2298.286494
1367.016467,-10066.800811,-962.267725,2374.896044
1367.016788,-8882.471304,-222.061783,919.314598
1367.017109,-10066.800811,-2294.638420,383.047749
1367.017430,-8512.368333,-1850.514855,-1762.019645
1367.017751,-8364.327145,518.144159,-919.314598
1367.018072,-10362.883188,518.144159,76.609550
1367.018393,-9178.553681,1110.308913,1072.533697
1367.018713,-10510.924376,-962.267725,1455.581446
1367.019034,-9030.512492,-2516.700203,-766.095498
1367.019355,-9622.677246,-1184.329507,536.266849
1367.019676,-10510.924376,-888.247130,1149.143247
1367.019997,-9474.636058,814.226536,1378.971896
1367.020318,-9178.553681,1332.370696,1302.362347
1367.020639,-8808.450710,74.020594,-383.047749
1367.020960,-9622.677246,2146.597232,536.266849
1367.021281,-12879.583391,1332.370696,3447.429741
1367.021602,-9400.615463,-962.267725,1838.629195
1367.021923,-10362.883188,-962.267725,2374.896044
1367.022244,-10584.944971,-1776.494261,1762.019645
1367.022565,-7476.080014,-1702.473667,153.219100
1367.022886,-8882.471304,-666.185348,919.314598
1367.023206,-8068.244768,296.082377,612.876398
1367.023527,-7698.141797,74.020594,-383.047749
1367.023848,-9178.553681,-1628.453072,-612.876398
1367.024169,-8068.244768,-1036.288319,-229.828649
1367.024490,-9770.718434,666.185348,2451.505594
1367.024811,-12435.459826,-518.144159,4826.401637
1367.025132,-9770.718434,-222.061783,4596.572988
1367.025453,-11325.150913,-2738.761985,2528.115143
1367.025774,-9474.636058,-2886.803174,459.657299
1367.026095,-8290.306550,148.041188,919.314598
1367.026416,-9474.636058,1036.288319,1225.752797
1367.026737,-9474.636058,1332.370696,1608.800546
1367.027058,-8364.327145,1184.329507,1149.143247
1367.027379,-9326.594869,-1998.556043,0.000000
1367.027699,-9104.533087,-1776.494261,995.924147
1367.028020,-11547.212695,-518.144159,3294.210641
1367.028341,-11029.068536,-962.267725,3753.867940
1367.028662,-9548.656652,222.061783,3753.867940
1367.028983,-10584.944971,-1850.514855,1455.581446
1367.029304,-7698.141797,0.000000,0.000000
1367.029625,-10140.821405,1332.370696,1302.362347
1367.029946,-9844.739029,1924.535449,1762.019645
1367.030267,-9030.512492,1258.350101,1991.848295
1367.030588,-9548.656652,-1628.453072,995.924147
1367.030909,-7254.018232,-2220.617826,-383.047749
1367.031230,-10658.965565,-1184.329507,1455.581446
1367.031551,-11251.130318,-740.205942,4290.134789
1367.031872,-9400.615463,-1110.308913,2604.724693
1367.032192,-10658.965565,-1258.350101,2451.505594
1367.032513,-8734.430116,-2960.823768,-766.095498
1367.032834,-8290.306550,518.144159,76.609550
1367.033155,-10955.047942,74.020594,1915.238745
1367.033476,-8808.450710,296.082377,995.924147
1367.033797,-9178.553681,74.020594,-229.828649
1367.034118,-9696.697840,-2664.741391,-689.485948
1367.034439,-8290.306550,-962.267725,-995.924147
1367.034760,-10584.944971,-148.041188,1225.752797
1367.035081,-9770.718434,-148.041188,842.705048
1367.035402,-9252.574275,1924.535449,-612.876398
1367.035723,-10807.006753,-740.205942,-383.047749
1367.036044,-6809.894666,-222.061783,-2834.553343
1367.036364,-9622.677246,-222.061783,-1302.362347
1367.036685,-8956.491898,222.061783,-459.657299
1367.037006,-9696.697840,1850.514855,1838.629195
1367.037327,-11473.192101,-1480.411884,2068.457845
1367.037648,-9474.636058,-1702.473667,1072.533697
1367.037969,-11251.130318,-1036.288319,1608.800546
1367.038290,-11251.130318,222.061783,2221.676944
1367.038611,-9770.718434,1628.453072,2911.162892
1367.038932,-10658.965565,1628.453072,1991.848295
1367.039253,-8364.327145,-962.267725,-1378.971896
1367.039574,-7402.059420,-888.247130,-1685.410096
1367.039895,-9474.636058,-1184.329507,-1225.752797
1367.040216,-8068.244768,740.205942,995.924147
1367.040537,-10807.006753,-518.144159,2221.676944
1367.040857,-9400.615463,-1702.473667,1378.971896
1367.041178,-9548.656652,-370.102971,1072.533697
1367.041499,-11991.336260,666.185348,3524.039291
1367.041820,-11029.068536,296.082377,3064.381992
1367.042141,-9992.780217,740.205942,2451.505594
1367.042462,-9992.780217,-1480.411884,306.438199
1367.042783,-7105.977043,-592.164754,-1838.629195
1367.043104,-9104.533087,592.164754,-153.219100
1367.043425,-9474.636058,666.185348,1685.410096
1367.043746,-9178.553681,1258.350101,2374.896044
1367.044067,-10066.800811,-1628.453072,1838.629195
1367.044388,-8882.471304,-1480.411884,842.705048
1367.044709,-10214.842000,-814.226536,995.924147
1367.045030,-11177.109724,148.041188,3677.258390
1367.045350,-9548.656652,888.247130,3524.039291
1367.045671,-9252.574275,-222.061783,1762.019645
1367.045992,-8438.347739,-1258.350101,-1302.362347
1367.046313,-7402.059420,2294.638420,919.314598
1367.046634,-11399.171507,-888.247130,1532.190996
1367.046955,-7476.080014,592.164754,1532.190996
1367.047276,-9844.739029,-1480.411884,1991.848295
1367.047597,-9326.594869,-2294.638420,306.438199
1367.047918,-8364.327145,-518.144159,689.485948
1367.048239,-11399.171507,222.061783,3753.867940
1367.048560,-9474.636058,-666.185348,2987.772442
1367.048881,-8660.409521,-740.205942,919.314598
1367.049202,-10510.924376,-1110.308913,919.314598
1367.049523,-8512.368333,370.102971,76.609550
1367.049843,-10214.842000,740.205942,2528.115143
1367.050164,-10807.006753,-1332.370696,4136.915689
1367.050485,-8660.409521,-2516.700203,1608.800546
1367.050806,-10510.924376,-3775.050304,-1225.752797
1367.051127,-8068.244768,-1628.453072,-1072.533697
1367.051448,-7994.224174,1628.453072,-1072.533697
1367.051769,-10362.883188,1480.411884,919.314598
1367.052090,-8734.430116,1776.494261,0.000000
1367.052411,-8660.409521,-222.061783,-306.438199
1367.052732,-8808.450710,-2886.803174,-2068.457845
1367.053053,-10140.821405,-592.164754,689.485948
1367.053374,-12213.398043,-814.226536,2834.553343
1367.053695,-10140.821405,814.226536,1991.848295
1367.054016,-11547.212695,1184.329507,2834.553343
1367.054336,-9326.594869,-1776.494261,-536.266849
1367.054657,-8438.347739,-1406.391290,-383.047749
1367.054978,-10584.944971,-222.061783,689.485948
1367.055299,-8734.430116,148.041188,-536.266849
1367.055620,-10066.800811,666.185348,0.000000
1367.055941,-9252.574275,-1184.329507,0.000000
1367.056262,-7476.080014,-888.247130,-1991.848295
1367.056583,-10658.965565,888.247130,1991.848295
1367.056904,-9770.718434,148.041188,2298.286494
1367.057225,-10436.903782,370.102971,2374.896044
1367.057546,-10362.883188,-1702.473667,2298.286494
1367.057867,-8438.347739,-1184.329507,306.438199
1367.058188,-9992.780217,0.000000,1991.848295
1367.058508,-12139.377449,-370.102971,4136.915689
1367.058829,-10362.883188,518.144159,3217.601092
1367.059150,-10658.965565,-2368.659014,3064.381992
1367.059471,-9474.636058,-4293.194464,383.047749
1367.059792,-8364.327145,-1332.370696,-383.047749
1367.060113,-9992.780217,-444.123565,995.924147
1367.060434,-9178.553681,1998.556043,689.485948
1367.060755,-7920.203579,2664.741391,1378.971896
1367.061076,-9400.615463,-1258.350101,-1378.971896
1367.061397,-8734.430116,370.102971,842.705048
1367.061718,-10658.965565,-222.061783,2374.896044
1367.062039,-11695.253884,-2146.597232,4749.792088
1367.062360,-9844.739029,-1406.391290,3370.820191
1367.062681,-10584.944971,-2294.638420,1762.019645
1367.063001,-8956.491898,-518.144159,995.924147
1367.063322,-9104.533087,2368.659014,2987.772442
1367.063643,-9622.677246,1924.535449,2145.067394
1367.063964,-9400.615463,1850.514855,1455.581446
1367.064285,-7994.224174,0.000000,612.876398
1367.064606,-8660.409521,-2812.782580,-612.876398
1367.064927,-9400.615463,-370.102971,1608.800546
1367.065248,-10436.903782,-1480.411884,2604.724693
1367.065569,-9622.677246,-296.082377,2987.772442
1367.065890,-10510.924376,-1480.411884,2145.067394
1367.066211,-8290.306550,-1702.473667,-76.609550
1367.066531,-9622.677246,222.061783,229.828649
1367.066852,-11251.130318,1776.494261,1532.190996
1367.067173,-8808.450710,2220.617826,689.485948
1367.067494,-9844.739029,222.061783,1072.533697
1367.067815,-9030.512492,-1998.556043,-1378.971896
1367.068135,-8808.450710,-370.102971,-689.485948
1367.068456,-11547.212695,-1850.514855,1302.362347
1367.068777,-8734.430116,-444.123565,1532.190996
1367.069098,-10288.862594,0.000000,689.485948
1367.069419,-10140.821405,148.041188,0.000000
1367.069740,-8586.388927,740.205942,-383.047749
1367.070060,-10436.903782,1184.329507,919.314598
1367.070381,-10362.883188,0.000000,1302.362347
1367.070702,-9548.656652,148.041188,1072.533697
1367.071023,-10066.800811,-1628.453072,689.485948
1367.071344,-8956.491898,-1554.432478,-459.657299
1367.071665,-9030.512492,148.041188,459.657299
1367.071985,-10584.944971,1184.329507,1149.143247
1367.072306,-9474.636058,2590.720797,766.095498
1367.072627,-9326.594869,1850.514855,536.266849
1367.072948,-9918.759623,-592.164754,-995.924147
1367.073269,-7550.100608,2146.597232,76.609550
1367.073590,-10214.842000,0.000000,76.609550
1367.073910,-9178.553681,-222.061783,1378.971896
1367.074231,-8586.388927,-1332.370696,2451.505594
1367.074552,-9770.718434,-3108.864956,1838.629195
1367.074873,-8882.471304,-1702.473667,2757.943793
1367.075194,-11769.274478,-814.226536,4979.620737
1367.075514,-11399.171507,-1480.411884,4136.915689
1367.075835,-9696.697840,444.123565,2451.505594
1367.076156,-8808.450710,-814.226536,306.438199
1367.076477,-7254.018232,518.144159,-459.657299
1367.076798,-9474.636058,1628.453072,1225.752797
1367.077119,-9622.677246,222.061783,1072.533697
1367.077439,-7994.224174,296.082377,1302.362347
1367.077760,-9622.677246,-2664.741391,766.095498
1367.078081,-8512.368333,-1258.350101,-306.438199
1367.078402,-11621.233289,1406.391290,2374.896044
1367.078723,-11325.150913,1776.494261,3600.648841
1367.079044,-7994.224174,740.205942,2757.943793
1367.079364,-10658.965565,-2146.597232,2298.286494
1367.079685,-9622.677246,-3997.112087,383.047749
1367.080006,-9178.553681,-592.164754,229.828649
1367.080327,-10658.965565,296.082377,3447.429741
1367.080648,-9770.718434,-148.041188,1762.019645
1367.080968,-8438.347739,962.267725,2757.943793
1367.081289,-9844.739029,-3997.112087,459.657299
1367.081610,-7105.977043,740.205942,-536.266849
1367.081931,-12213.398043,-296.082377,3753.867940
1367.082252,-9104.533087,740.205942,2068.457845
1367.082573,-9548.656652,1258.350101,2298.286494
1367.082893,-10807.006753,-2146.597232,76.609550
1367.083214,-7105.977043,74.020594,-1378.971896
1367.083535,-11325.150913,1036.288319,153.219100
1367.083856,-10140.821405,-666.185348,1608.800546
1367.084177,-8956.491898,-1628.453072,995.924147
1367.084498,-10066.800811,-2368.659014,536.266849
1367.084818,-8956.491898,-2960.823768,-1685.410096
1367.085139,-8142.265362,1258.350101,1072.533697
1367.085460,-11251.130318,-370.102971,2451.505594
1367.085781,-9474.636058,666.185348,1608.800546
1367.086102,-9992.780217,-1998.556043,-153.219100
1367.086423,-8068.244768,-3108.864956,-1685.410096
1367.086743,-8734.430116,296.082377,-1072.533697
1367.087064,-11547.212695,1702.473667,2068.457845
1367.087385,-11029.068536,2960.823768,3370.820191
1367.087706,-10955.047942,1702.473667,2528.115143
1367.088027,-9030.512492,-2516.700203,-1072.533697
1367.088347,-7031.956449,-2294.638420,-2451.505594
1367.088668,-9252.574275,1110.308913,-536.266849
1367.088989,-8882.471304,1036.288319,229.828649
1367.089310,-8290.306550,1924.535449,383.047749
1367.089631,-8734.430116,-444.123565,-612.876398
1367.089952,-7624.121203,-2072.576638,-1838.629195
1367.090272,-10955.047942,74.020594,2068.457845
1367.090593,-12139.377449,-1480.411884,4443.353888
1367.090914,-9770.718434,-666.185348,3983.696590
1367.091235,-10732.986159,-1110.308913,2528.115143
1367.091556,-8882.471304,-1480.411884,689.485948
1367.091877,-8956.491898,370.102971,1302.362347
1367.092197,-11325.150913,-148.041188,1838.629195
1367.092518,-8290.306550,1110.308913,1302.362347
1367.092839,-9104.533087,-444.123565,-383.047749
1367.093160,-9178.553681,-1332.370696,-383.047749
1367.093481,-9474.636058,-592.164754,153.219100
1367.093801,-11103.089130,444.123565,2681.334243
1367.094122,-10140.821405,-222.061783,3447.429741
1367.094443,-9474.636058,-148.041188,2451.505594
1367.094764,-10214.842000,-2812.782580,919.314598
1367.095085,-7994.224174,-296.082377,-229.828649
1367.095406,-10881.027347,1554.432478,2298.286494
1367.095726,-9548.656652,1998.556043,2528.115143
1367.096047,-10214.842000,-740.205942,3370.820191
1367.096368,-9548.656652,-2664.741391,536.266849
1367.096689,-8956.491898,-2368.659014,-229.828649
1367.097010,-10436.903782,-296.082377,2374.896044
1367.097331,-9326.594869,740.205942,2451.505594
1367.097651,-8808.450710,2294.638420,2145.067394
1367.097972,-9104.533087,0.000000,-229.828649
1367.098293,-6661.853478,222.061783,-1838.629195
1367.098614,-9770.718434,666.185348,536.266849
1367.098935,-9992.780217,-962.267725,2987.772442
1367.099256,-10436.903782,0.000000,2298.286494
1367.099576,-10288.862594,-1480.411884,2451.505594
1367.099897,-9400.615463,-2294.638420,76.609550
1367.100218,-8882.471304,666.185348,689.485948
1367.100539,-10658.965565,1702.473667,1991.848295
1367.100860,-9178.553681,1998.556043,0.000000
1367.101180,-8808.450710,1406.391290,0.000000
1367.101501,-9474.636058,-1924.535449,-995.924147
1367.101822,-7698.141797,-518.144159,-306.438199
1367.102143,-11177.109724,-1036.288319,1072.533697
1367.102464,-9474.636058,-814.226536,1302.362347
1367.102785,-10140.821405,0.000000,1762.019645
1367.103105,-9696.697840,-2368.659014,-612.876398
1367.103426,-8216.285956,-148.041188,-612.876398
1367.103747,-11251.130318,444.123565,-306.438199
1367.104068,-9474.636058,222.061783,612.876398
1367.104389,-9474.636058,0.000000,995.924147
1367.104710,-9548.656652,-1628.453072,383.047749
1367.105030,-7994.224174,-1924.535449,-842.705048
1367.105351,-10881.027347,-740.205942,766.095498
1367.105672,-9696.697840,-740.205942,1685.410096
1367.105993,-8290.306550,814.226536,1378.971896
1367.106314,-11547.212695,-1332.370696,2068.457845
1367.106634,-9030.512492,0.000000,689.485948
1367.106955,-9696.697840,74.020594,1838.629195
1367.107276,-10807.006753,0.000000,2681.334243
1367.107597,-8586.388927,666.185348,2451.505594
1367.107918,-9548.656652,-1036.288319,2374.896044
1367.108239,-9030.512492,-3404.947333,1685.410096
1367.108559,-8734.430116,-666.185348,229.828649
1367.108880,-9918.759623,74.020594,2221.676944
1367.109201,-10140.821405,296.082377,2987.772442
1367.109522,-10362.883188,1258.350101,2451.505594
1367.109843,-10362.883188,-1036.288319,919.314598
1367.110164,-8660.409521,-222.061783,-76.609550
1367.110484,-9400.615463,666.185348,0.000000
1367.110805,-10436.903782,518.144159,766.095498
1367.111126,-8512.368333,1184.329507,153.219100
1367.111447,-9030.512492,-148.041188,-1991.848295
1367.111768,-8956.491898,-814.226536,-153.219100
1367.112089,-10955.047942,1258.350101,2911.162892
1367.112409,-12065.356855,-1184.329507,4826.401637
1367.112730,-10510.924376,-888.247130,3907.087040
1367.113051,-9844.739029,-2146.597232,3524.039291
1367.113372,-8808.450710,-2220.617826,-229.828649
1367.113693,-8586.388927,2220.617826,842.705048
1367.114013,-10362.883188,1554.432478,1532.190996
1367.114334,-8216.285956,962.267725,2221.676944
1367.114655,-9770.718434,-2368.659014,612.876398
1367.114976,-7698.141797,-2146.597232,-1302.362347
1367.115297,-8956.491898,-444.123565,0.000000
1367.115618,-10288.862594,1480.411884,3524.039291
1367.115938,-9992.780217,518.144159,4213.525239
1367.116259,-8808.450710,0.000000,2298.286494
1367.116580,-9474.636058,-1850.514855,766.095498
1367.116901,-9030.512492,-1628.453072,-153.219100
1367.117222,-9918.759623,-296.082377,1608.800546
1367.117543,-9770.718434,-1184.329507,1762.019645
1367.117863,-8364.327145,0.000000,766.095498
1367.118184,-9252.574275,-1332.370696,229.828649
1367.118505,-8734.430116,-1776.494261,-536.266849
1367.118826,-9918.759623,-666.185348,1149.143247
1367.119147,-10658.965565,-1258.350101,1991.848295
1367.119467,-9326.594869,222.061783,1072.533697
1367.119788,-10807.006753,-592.164754,229.828649
1367.120109,-8660.409521,-666.185348,-1608.800546
1367.120430,-8586.388927,1776.494261,-1302.362347
1367.120751,-9992.780217,4293.194464,995.924147
1367.121072,-9400.615463,1480.411884,306.438199
1367.121392,-9844.739029,888.247130,306.438199
1367.121713,-9770.718434,-1332.370696,-1072.533697
1367.122034,-9030.512492,-444.123565,-1149.143247
1367.122355,-12139.377449,814.226536,2604.724693
1367.122676,-10288.862594,222.061783,2451.505594
1367.122997,-9548.656652,296.082377,1838.629195
1367.123317,-10732.986159,-2886.803174,229.828649
1367.123638,-7105.977043,-666.185348,-995.924147
1367.123959,-11177.109724,0.000000,1915.238745
1367.124280,-10510.924376,1110.308913,3907.087040
1367.124601,-9770.718434,1406.391290,4213.525239
1367.124921,-11325.150913,-2368.659014,3600.648841
1367.125242,-8364.327145,-2590.720797,-1302.362347
1367.125563,-10288.862594,-1110.308913,766.095498
1367.125884,-10362.883188,-1406.391290,1991.848295
1367.126205,-7179.997637,518.144159,-306.438199
1367.126526,-7920.203579,1110.308913,0.000000
1367.126846,-7179.997637,-2368.659014,-1838.629195
1367.127167,-7772.162391,740.205942,-689.485948
1367.127488,-11103.089130,-1110.308913,2298.286494
1367.127809,-10214.842000,-1332.370696,3064.381992
1367.128130,-11843.295072,-444.123565,4749.792088
1367.128451,-10066.800811,-3182.885551,2834.553343
1367.128771,-9622.677246,-814.226536,1532.190996
1367.129092,-10658.965565,222.061783,2528.115143
1367.129413,-8364.327145,222.061783,1302.362347
1367.129734,-9548.656652,0.000000,-1378.971896
1367.130055,-8216.285956,-1850.514855,-1915.238745
1367.130376,-6735.874072,-296.082377,-3830.477490
1367.130696,-10658.965565,1998.556043,919.314598
1367.131017,-9622.677246,2886.803174,2298.286494
1367.131338,-11695.253884,2590.720797,2604.724693
1367.131659,-10658.965565,-592.164754,2451.505594
1367.131980,-8660.409521,-1480.411884,0.000000
1367.132300,-10362.883188,0.000000,1302.362347
1367.132621,-11325.150913,-814.226536,2911.162892
1367.132942,-9474.636058,1184.329507,3294.210641
1367.133263,-10881.027347,-666.185348,2911.162892
1367.133584,-10066.800811,-2368.659014,229.828649
1367.133905,-9326.594869,-1184.329507,689.485948
1367.134225,-11399.171507,-2368.659014,1149.143247
1367.134546,-9178.553681,-740.205942,1302.362347
1367.134867,-9326.594869,0.000000,306.438199
1367.135188,-7550.100608,-888.247130,-1608.800546
1367.135509,-8660.409521,-962.267725,-1378.971896
1367.135830,-9104.533087,222.061783,1149.143247
1367.136150,-9992.780217,-592.164754,1378.971896
1367.136471,-10955.047942,0.000000,1685.410096
1367.136792,-11029.068536,-1776.494261,1302.362347
1367.137113,-9474.636058,-888.247130,689.485948
1367.137434,-10066.800811,74.020594,1378.971896
1367.137754,-10066.800811,0.000000,1455.581446
1367.138075,-8216.285956,370.102971,995.924147
1367.138396,-9252.574275,-2442.679609,-459.657299
1367.138717,-7624.121203,-740.205942,-2068.457845
1367.139038,-9844.739029,444.123565,536.266849
1367.139359,-10955.047942,-518.144159,1608.800546
1367.139679,-9474.636058,1628.453072,2298.286494
1367.140000,-10510.924376,-2960.823768,919.314598
1367.140321,-7698.141797,-1184.329507,459.657299
1367.140642,-9696.697840,1184.329507,0.000000
1367.140963,-11621.233289,740.205942,2757.943793
1367.141284,-9474.636058,1554.432478,1685.410096
1367.141604,-10955.047942,888.247130,2374.896044
1367.141925,-7994.224174,-2220.617826,306.438199
1367.142246,-8808.450710,-1628.453072,0.000000
1367.142567,-11251.130318,-1628.453072,1608.800546
1367.142888,-9400.615463,-1406.391290,1225.752797
1367.143209,-9178.553681,0.000000,842.705048
1367.143529,-10584.944971,-1850.514855,306.438199
1367.143850,-8364.327145,-592.164754,153.219100
1367.144171,-11325.150913,1110.308913,2145.067394
1367.144492,-10732.986159,1702.473667,1915.238745
1367.144813,-9918.759623,3182.885551,2451.505594
1367.145133,-11473.192101,-888.247130,2068.457845
1367.145454,-8438.347739,-1184.329507,0.000000
1367.145775,-10436.903782,0.000000,689.485948
1367.146096,-10362.883188,148.041188,1608.800546
1367.146417,-9548.656652,1036.288319,153.219100
1367.146738,-10436.903782,-296.082377,1225.752797
1367.147058,-8364.327145,-1110.308913,-1072.533697
1367.147379,-9770.718434,1628.453072,612.876398
1367.147700,-11029.068536,296.082377,2528.115143
1367.148021,-9178.553681,-1110.308913,2834.553343
1367.148342,-10140.821405,-888.247130,1608.800546
1367.148663,-9104.533087,-2664.741391,536.266849
1367.148983,-9104.533087,-814.226536,229.828649
1367.149304,-9918.759623,962.267725,3064.381992
1367.149625,-8216.285956,-1332.370696,1838.629195
1367.149946,-8438.347739,962.267725,153.219100
1367.150267,-10362.883188,-1110.308913,459.657299
1367.150587,-7994.224174,-740.205942,-995.924147
1367.150908,-9770.718434,1332.370696,3447.429741
1367.151229,-9770.718434,-1258.350101,1532.190996
1367.151550,-8290.306550,0.000000,1225.752797
1367.151871,-9918.759623,-2960.823768,-459.657299
1367.152192,-6365.771101,-1184.329507,-2374.896044
1367.152512,-9178.553681,1258.350101,1072.533697
1367.152833,-9696.697840,518.144159,1225.752797
1367.153154,-8586.388927,1480.411884,2221.676944
1367.153475,-11843.295072,-518.144159,2681.334243
1367.153796,-9992.780217,-3182.885551,1072.533697
1367.154117,-10066.800811,-2072.576638,536.266849
1367.154437,-12435.459826,-1628.453072,2834.553343
1367.154758,-8882.471304,74.020594,919.314598
1367.155079,-9918.759623,3108.864956,1072.533697
1367.155400,-8882.471304,1036.288319,-1225.752797
1367.155721,-7179.997637,2368.659014,-2221.676944
1367.156042,-11177.109724,370.102971,1378.971896
1367.156362,-8808.450710,74.020594,76.609550
1367.156683,-10807.006753,-1258.350101,1532.190996
1367.157004,-9548.656652,-2368.659014,1685.410096
1367.157325,-9030.512492,-1258.350101,919.314598
1367.157646,-11621.233289,518.144159,3140.991542
1367.157966,-10955.047942,370.102971,2528.115143
1367.158287,-9030.512492,1184.329507,1762.019645
1367.158608,-10362.883188,-1628.453072,1532.190996
1367.158929,-7994.224174,-2146.597232,-383.047749
1367.159250,-9770.718434,-1036.288319,919.314598
1367.159571,-9400.615463,-1258.350101,1762.019645
1367.159891,-8660.409521,-444.123565,1838.629195
1367.160212,-10955.047942,-1702.473667,1991.848295
1367.160533,-8882.471304,-2368.659014,459.657299
1367.160854,-10140.821405,-444.123565,1302.362347
1367.161175,-11399.171507,148.041188,3140.991542
1367.161496,-10066.800811,1406.391290,2987.772442
1367.161816,-10362.883188,888.247130,2834.553343
1367.162137,-8660.409521,-2220.617826,-459.657299
1367.162458,-7772.162391,962.267725,306.438199
1367.162779,-10584.944971,1406.391290,2451.505594
1367.163100,-9696.697840,370.102971,2145.067394
1367.163420,-10066.800811,-222.061783,3064.381992
1367.163741,-10658.965565,-3034.844362,1915.238745
1367.164062,-8512.368333,-2664.741391,0.000000
1367.164383,-10214.842000,0.000000,1302.362347
1367.164704,-9474.636058,296.082377,383.047749
1367.165025,-7254.018232,1998.556043,842.705048
1367.165345,-10362.883188,518.144159,306.438199
1367.165666,-7624.121203,296.082377,-1149.143247
1367.165987,-9104.533087,-592.164754,-612.876398
1367.166308,-11029.068536,-444.123565,1991.848295
1367.166629,-9474.636058,0.000000,2068.457845
1367.166950,-10362.883188,-2072.576638,919.314598
1367.167270,-8734.430116,-1184.329507,689.485948
1367.167591,-10510.924376,0.000000,-1149.143247
1367.167912,-10732.986159,-444.123565,1991.848295
1367.168233,-9400.615463,-444.123565,459.657299
1367.168554,-8586.388927,0.000000,0.000000
1367.168874,-9474.636058,-3034.844362,-1302.362347
1367.169195,-8364.327145,444.123565,-1149.143247
1367.169516,-11325.150913,0.000000,2298.286494
1367.169837,-9696.697840,-1036.288319,1685.410096
1367.170157,-9696.697840,518.144159,1915.238745
1367.170478,-11103.089130,-1702.473667,689.485948
1367.170799,-9178.553681,148.041188,-1455.581446
1367.171120,-12139.377449,2368.659014,1225.752797
1367.171441,-10214.842000,2886.803174,1608.800546
1367.171761,-9326.594869,1998.556043,306.438199
1367.172082,-10436.903782,-962.267725,383.047749
1367.172403,-7105.977043,-2072.576638,-2221.676944
1367.172724,-9474.636058,-1036.288319,-612.876398
1367.173044,-9252.574275,-370.102971,1072.533697
1367.173365,-7772.162391,1776.494261,1149.143247
1367.173686,-10955.047942,74.020594,842.705048
1367.174007,-8364.327145,-148.041188,919.314598
1367.174327,-9770.718434,666.185348,2757.943793
1367.174648,-12435.459826,-1554.432478,4596.572988
1367.174969,-10807.006753,-1110.308913,3600.648841
1367.175290,-10510.924376,-1332.370696,2451.505594
1367.175610,-8512.368333,-1332.370696,995.924147
1367.175931,-7772.162391,148.041188,919.314598
1367.176252,-9548.656652,-1554.432478,1915.238745
1367.176573,-7476.080014,-1184.329507,-612.876398
1367.176894,-8734.430116,666.185348,0.000000
1367.177214,-9104.533087,-2294.638420,76.609550
1367.177535,-9400.615463,-518.144159,1838.629195
1367.177856,-10955.047942,-1702.473667,3294.210641
1367.178177,-9622.677246,-1184.329507,1378.971896
1367.178497,-9474.636058,962.267725,1608.800546
1367.178818,-11029.068536,-1258.350101,2451.505594
1367.179139,-9474.636058,-888.247130,919.314598
1367.179460,-10140.821405,1036.288319,1685.410096
1367.179780,-8882.471304,518.144159,1302.362347
1367.180101,-7402.059420,296.082377,612.876398
1367.180422,-10955.047942,-1702.473667,383.047749
1367.180743,-7772.162391,-1332.370696,-919.314598
1367.181064,-9104.533087,1850.514855,-229.828649
1367.181384,-11325.150913,148.041188,2681.334243
1367.181705,-9548.656652,2146.597232,3064.381992
1367.182026,-12287.418637,-518.144159,3370.820191
1367.182347,-10436.903782,-2368.659014,842.705048
1367.182667,-8660.409521,222.061783,1225.752797
1367.182988,-12065.356855,-740.205942,3294.210641
1367.183309,-8586.388927,-370.102971,2298.286494
1367.183630,-9548.656652,-370.102971,1685.410096
1367.183950,-8882.471304,-2368.659014,-842.705048
1367.184271,-7402.059420,370.102971,-766.095498
1367.184592,-10732.986159,0.000000,2068.457845
1367.184913,-9474.636058,888.247130,2298.286494
1367.185233,-10066.800811,296.082377,2145.067394
1367.185554,-10214.842000,-1480.411884,1149.143247
1367.185875,-8290.306550,-2146.597232,-1149.143247
1367.186196,-9622.677246,222.061783,536.266849
1367.186517,-10732.986159,296.082377,2528.115143
1367.186837,-8956.491898,1184.329507,1915.238745
1367.187158,-9622.677246,-1776.494261,919.314598
1367.187479,-7772.162391,-2886.803174,-2451.505594
1367.187800,-8734.430116,-740.205942,-1762.019645
1367.188120,-11251.130318,592.164754,995.924147
1367.188441,-9252.574275,2442.679609,1838.629195
1367.188762,-9918.759623,518.144159,995.924147
1367.189083,-7698.141797,-1998.556043,-995.924147
1367.189403,-8290.306550,-888.247130,-2374.896044
1367.189724,-10362.883188,1406.391290,0.000000
1367.190045,-9622.677246,296.082377,306.438199
1367.190366,-7772.162391,1110.308913,766.095498
1367.190686,-9918.759623,-1406.391290,842.705048
1367.191007,-9770.718434,-592.164754,536.266849
1367.191328,-12065.356855,0.000000,3600.648841
1367.191649,-11769.274478,-444.123565,3600.648841
1367.191970,-10066.800811,1924.535449,3524.039291
1367.192290,-10807.006753,-1628.453072,1072.533697
1367.192611,-8142.265362,-1110.308913,-842.705048
1367.192932,-7994.224174,814.226536,536.266849
1367.193253,-9252.574275,-592.164754,1225.752797
1367.193573,-7920.203579,592.164754,1225.752797
1367.193894,-10066.800811,-666.185348,1072.533697
1367.194215,-9548.656652,-2294.638420,229.828649
1367.194536,-9548.656652,592.164754,1225.752797
1367.194856,-12213.398043,592.164754,4366.744339
1367.195177,-9178.553681,518.144159,2451.505594
1367.195498,-11621.233289,0.000000,2681.334243
1367.195819,-9178.553681,-1110.308913,536.266849
1367.196140,-8882.471304,-666.185348,0.000000
1367.196460,-10288.862594,-222.061783,1072.533697
1367.196781,-8068.244768,-518.144159,1378.971896
1367.197102,-9326.594869,-1036.288319,1302.362347
1367.197423,-9400.615463,-3627.009116,0.000000
1367.197743,-8142.265362,-2294.638420,-842.705048
1367.198064,-11843.295072,814.226536,2451.505594
1367.198385,-11695.253884,0.000000,3064.381992
1367.198706,-9474.636058,1776.494261,3217.601092
1367.199026,-10288.862594,-1850.514855,1225.752797
1367.199347,-7328.038826,-1628.453072,-919.314598
1367.199668,-8808.450710,296.082377,229.828649
1367.199989,-9548.656652,74.020594,1685.410096
1367.200309,-8882.471304,1406.391290,1838.629195
1367.200630,-9696.697840,74.020594,2604.724693
1367.200951,-9474.636058,-3701.029710,689.485948
1367.201272,-8734.430116,-1258.350101,1378.971896
1367.201593,-11695.253884,-1924.535449,1915.238745
1367.201913,-9770.718434,0.000000,2068.457845
1367.202234,-9474.636058,740.205942,612.876398
1367.202555,-7994.224174,-740.205942,-536.266849
1367.202876,-8068.244768,444.123565,-1072.533697
1367.203196,-8734.430116,666.185348,766.095498
1367.203517,-9844.739029,-1258.350101,1378.971896
1367.203838,-9548.656652,-1480.411884,689.485948
1367.204159,-9844.739029,-2368.659014,306.438199
1367.204479,-9178.553681,-666.185348,-995.924147
1367.204800,-10436.903782,2442.679609,1762.019645
1367.205121,-11325.150913,740.205942,1838.629195
1367.205442,-9252.574275,1332.370696,1302.362347
1367.205763,-9992.780217,-2516.700203,0.000000
1367.206083,-7698.141797,-962.267725,-2298.286494
1367.206404,-10436.903782,814.226536,229.828649
1367.206725,-10288.862594,74.020594,1455.581446
1367.207046,-9326.594869,740.205942,1838.629195
1367.207366,-10807.006753,-518.144159,536.266849
1367.207687,-8660.409521,-666.185348,-1302.362347
1367.208008,-9992.780217,2146.597232,1225.752797
1367.208329,-13101.645173,666.185348,3447.429741
1367.208649,-9474.636058,888.247130,3294.210641
1367.208970,-10658.965565,-1998.556043,1608.800546
1367.209291,-8142.265362,-1850.514855,306.438199
1367.209612,-8216.285956,-1702.473667,-766.095498
1367.209932,-10214.842000,0.000000,2298.286494
1367.210253,-8290.306550,592.164754,-383.047749
1367.210574,-6883.915261,1258.350101,306.438199
1367.210895,-8364.327145,-296.082377,-1455.581446
1367.211216,-7846.182985,1554.432478,0.000000
1367.211536,-11843.295072,3034.844362,2757.943793
1367.211857,-11769.274478,962.267725,4903.011187
1367.212178,-11325.150913,-296.082377,4213.525239
1367.212499,-10658.965565,-1924.535449,2987.772442
1367.212819,-10881.027347,-1924.535449,2298.286494
1367.213140,-10066.800811,1258.350101,3524.039291
1367.213461,-8882.471304,0.000000,1378.971896
1367.213782,-7994.224174,666.185348,153.219100
1367.214102,-7846.182985,592.164754,-842.705048
1367.214423,-8216.285956,-1554.432478,-1915.238745
1367.214744,-8734.430116,740.205942,1455.581446
1367.215065,-10658.965565,-518.144159,2604.724693
1367.215385,-9844.739029,-518.144159,2451.505594
1367.215706,-10807.006753,-666.185348,2528.115143
1367.216027,-9326.594869,-814.226536,2068.457845
1367.216348,-9326.594869,-1184.329507,766.095498
1367.216669,-9104.533087,222.061783,3753.867940
1367.216989,-7920.203579,-1406.391290,995.924147
1367.217310,-8586.388927,-1184.329507,459.657299
1367.217631,-9918.759623,-2146.597232,-306.438199
1367.217952,-7031.956449,-1110.308913,-1762.019645
1367.218272,-9548.656652,1776.494261,1072.533697
1367.218593,-10881.027347,1110.308913,2757.943793
1367.218914,-9696.697840,518.144159,2451.505594
1367.219235,-12361.439231,-1924.535449,1838.629195
1367.219555,-8586.388927,-2590.720797,0.000000
1367.219876,-9844.739029,-444.123565,0.000000
1367.220197,-10881.027347,148.041188,1455.581446
1367.220518,-8438.347739,2072.576638,1072.533697
1367.220839,-9326.594869,-1036.288319,-383.047749
1367.221159,-7846.182985,-2664.741391,-2451.505594
1367.221480,-8660.409521,-518.144159,-1532.190996
1367.221801,-11917.315666,-370.102971,1455.581446
1367.222122,-9992.780217,740.205942,2068.457845
1367.222442,-10658.965565,1332.370696,2221.676944
1367.222763,-9326.594869,-1406.391290,76.609550
1367.223084,-8734.430116,-740.205942,0.000000
1367.223405,-10510.924376,0.000000,2145.067394
1367.223725,-10066.800811,-2072.576638,3294.210641
1367.224046,-8734.430116,-444.123565,995.924147
1367.224367,-9622.677246,-2368.659014,689.485948
1367.224688,-7179.997637,0.000000,-1532.190996
1367.225008,-11251.130318,1258.350101,2757.943793
1367.225329,-10066.800811,592.164754,3064.381992
1367.225650,-9326.594869,666.185348,1838.629195
1367.225971,-9918.759623,-2220.617826,1225.752797
1367.226292,-8364.327145,-2220.617826,383.047749
1367.226612,-10955.047942,-1776.494261,1991.848295
1367.226933,-9474.636058,-1332.370696,1378.971896
1367.227254,-7476.080014,-296.082377,306.438199
1367.227575,-9622.677246,-740.205942,-536.266849
1367.227895,-8808.450710,-148.041188,0.000000
1367.228216,-10436.903782,2294.638420,2451.505594
1367.228537,-12583.501014,-222.061783,4903.011187
1367.228858,-9918.759623,-1184.329507,3370.820191
1367.229178,-10955.047942,-2368.659014,2374.896044
1367.229499,-10066.800811,-2812.782580,306.438199
1367.229820,-8808.450710,-370.102971,766.095498
1367.230141,-10066.800811,1406.391290,2374.896044
1367.230462,-7476.080014,444.123565,0.000000
1367.230782,-8660.409521,0.000000,-76.609550
1367.231103,-9252.574275,-3330.926739,-689.485948
1367.231424,-8290.306550,-1776.494261,-2451.505594
1367.231745,-11103.089130,222.061783,2451.505594
1367.232065,-10288.862594,1998.556043,3524.039291
1367.232386,-11251.130318,2294.638420,3983.696590
1367.232707,-11103.089130,0.000000,3140.991542
1367.233028,-8808.450710,-518.144159,153.219100
1367.233348,-9992.780217,1258.350101,919.314598
1367.233669,-9696.697840,444.123565,1149.143247
1367.233990,-8956.491898,1850.514855,1455.581446
1367.234311,-10436.903782,-370.102971,1072.533697
1367.234631,-7254.018232,-592.164754,-995.924147
1367.234952,-9474.636058,-148.041188,-229.828649
1367.235273,-11399.171507,444.123565,1991.848295
1367.235594,-9770.718434,1258.350101,1455.581446
1367.235915,-10881.027347,1258.350101,2757.943793
1367.236235,-9622.677246,-1184.329507,612.876398
1367.236556,-8142.265362,222.061783,-536.266849
1367.236877,-10658.965565,74.020594,919.314598
1367.237198,-9104.533087,-370.102971,1149.143247
1367.237518,-8512.368333,-1480.411884,0.000000
1367.237839,-9178.553681,-3182.885551,-1149.143247
1367.238160,-7328.038826,-1110.308913,-2298.286494
1367.238481,-10955.047942,888.247130,2681.334243
1367.238801,-12361.439231,-74.020594,4519.963438
1367.239122,-9844.739029,444.123565,2987.772442
1367.239443,-10881.027347,-3330.926739,536.266849
1367.239764,-7402.059420,-2146.597232,-2221.676944
1367.240084,-8512.368333,148.041188,-612.876398
1367.240405,-8808.450710,296.082377,612.876398
1367.240726,-7254.018232,74.020594,153.219100
1367.241047,-8438.347739,-814.226536,-612.876398
1367.241368,-8882.471304,-1998.556043,-1378.971896
1367.241688,-9622.677246,1258.350101,1608.800546
1367.242009,-11843.295072,74.020594,4136.915689
1367.242330,-9696.697840,814.226536,4060.306139
1367.242651,-11843.295072,-1258.350101,3217.601092
1367.242971,-7550.100608,-2664.741391,995.924147
1367.243292,-8660.409521,-1184.329507,459.657299
1367.243613,-11251.130318,-1850.514855,2298.286494
1367.243934,-8956.491898,-666.185348,1608.800546
1367.244254,-9844.739029,-1332.370696,1608.800546
1367.244575,-8512.368333,-2220.617826,-153.219100
1367.244896,-8956.491898,148.041188,0.000000
1367.245217,-12805.562797,1036.288319,3600.648841
1367.245538,-10658.965565,1480.411884,2604.724693
1367.245858,-10658.965565,1924.535449,2604.724693
1367.246179,-11917.315666,-1258.350101,2298.286494
1367.246500,-9548.656652,-1036.288319,0.000000
1367.246821,-11843.295072,0.000000,2528.115143
1367.247141,-8956.491898,-1480.411884,1685.410096
1367.247462,-6957.935855,-222.061783,0.000000
1367.247783,-9178.553681,-2812.782580,-1762.019645
1367.248104,-6439.791695,-1258.350101,-3064.381992
1367.248424,-8512.368333,2516.700203,-383.047749
1367.248745,-11251.130318,1702.473667,2451.505594
1367.249066,-9622.677246,1850.514855,4290.134789
1367.249387,-13249.686362,-888.247130,3294.210641
1367.249707,-9844.739029,-2590.720797,3140.991542
1367.250028,-11621.233289,-1480.411884,3753.867940
1367.250349,-12435.459826,-740.205942,5056.230287
1367.250670,-8290.306550,-666.185348,1915.238745
1367.250991,-8586.388927,-1480.411884,-229.828649
1367.251311,-6217.729913,-1332.370696,-3294.210641
1367.251632,-7254.018232,-148.041188,-2911.162892
1367.251953,-7402.059420,2146.597232,-1225.752797
1367.252274,-9918.759623,2812.782580,766.095498
1367.252594,-10140.821405,1036.288319,3370.820191
1367.252915,-10658.965565,-1850.514855,2757.943793
1367.253236,-9326.594869,-2368.659014,459.657299
1367.253557,-10066.800811,-1110.308913,2145.067394
1367.253877,-9844.739029,-148.041188,2068.457845
1367.254198,-8068.244768,1628.453072,1302.362347
1367.254519,-9548.656652,-370.102971,-612.876398
1367.254840,-5699.585753,814.226536,-3217.601092
1367.255161,-9696.697840,814.226536,-612.876398
1367.255481,-9992.780217,74.020594,-306.438199
1367.255802,-9844.739029,962.267725,766.095498
1367.256123,-11251.130318,-370.102971,766.095498
1367.256444,-9252.574275,0.000000,306.438199
1367.256764,-11695.253884,814.226536,1455.581446
1367.257085,-11029.068536,518.144159,2528.115143
1367.257406,-9474.636058,666.185348,1608.800546
1367.257727,-10436.903782,296.082377,1149.143247
1367.258047,-9104.533087,-666.185348,0.000000
1367.258368,-8364.327145,-592.164754,-766.095498
1367.258689,-9622.677246,592.164754,1072.533697
1367.259010,-9474.636058,888.247130,1455.581446
1367.259330,-10436.903782,-222.061783,2451.505594
1367.259651,-9622.677246,-740.205942,2145.067394
1367.259972,-9992.780217,-1702.473667,1608.800546
1367.260293,-10807.006753,-1110.308913,2068.457845
1367.260614,-9918.759623,-1554.432478,1685.410096
1367.260934,-8956.491898,-666.185348,2068.457845
1367.261255,-10436.903782,-1702.473667,229.828649
1367.261576,-8068.244768,-1406.391290,383.047749
1367.261897,-9844.739029,370.102971,1302.362347
1367.262217,-10732.986159,444.123565,2451.505594
1367.262538,-10066.800811,1184.329507,2451.505594
1367.262859,-10288.862594,-222.061783,2451.505594
1367.263180,-8734.430116,-2960.823768,153.219100
1367.263500,-8142.265362,-2146.597232,-612.876398
1367.263821,-7105.977043,1998.556043,0.000000
1367.264142,-9770.718434,1332.370696,2298.286494
1367.264463,-9400.615463,296.082377,1991.848295
1367.264783,-6957.935855,-3627.009116,-766.095498
1367.265104,-7920.203579,-1776.494261,-2145.067394
1367.265425,-10955.047942,592.164754,2757.943793
1367.265746,-9992.780217,-592.164754,3983.696590
1367.266067,-13471.748144,1480.411884,7354.516781
1367.266387,-9696.697840,-1184.329507,2145.067394
1367.266708,-10510.924376,-1480.411884,383.047749
1367.267029,-9474.636058,148.041188,2068.457845
1367.267350,-9104.533087,888.247130,995.924147
1367.267670,-8364.327145,2368.659014,1149.143247
1367.267991,-8734.430116,296.082377,766.095498
1367.268312,-5995.668130,-2442.679609,-2604.724693
1367.268633,-9918.759623,-1184.329507,0.000000
1367.268954,-10436.903782,-1776.494261,1608.800546
1367.269275,-9622.677246,592.164754,3753.867940
1367.269595,-12065.356855,-518.144159,3600.648841
1367.269916,-9326.594869,-1258.350101,536.266849
1367.270237,-9030.512492,-666.185348,0.000000
1367.270558,-11473.192101,-740.205942,229.828649
1367.270879,-8142.265362,518.144159,689.485948
1367.271199,-9992.780217,-740.205942,-536.266849
1367.271520,-8956.491898,-2960.823768,-1532.190996
1367.271841,-8216.285956,-296.082377,-1378.971896
1367.272162,-10807.006753,444.123565,383.047749
1367.272483,-10584.944971,370.102971,2145.067394
1367.272804,-10732.986159,1554.432478,2528.115143
1367.273124,-10955.047942,-1036.288319,306.438199
1367.273445,-9030.512492,0.000000,-995.924147
1367.273766,-9178.553681,1480.411884,1225.752797
1367.274087,-9696.697840,-1110.308913,1532.190996
1367.274408,-8142.265362,-592.164754,76.609550
1367.274729,-8660.409521,-740.205942,-536.266849
1367.275049,-8068.244768,-666.185348,-1532.190996
1367.275370,-8660.409521,2220.617826,0.000000
1367.275691,-11399.171507,2738.761985,3370.820191
1367.276012,-10362.883188,2368.659014,4443.353888
1367.276333,-11029.068536,444.123565,4366.744339
1367.276653,-10288.862594,-2960.823768,2834.553343
1367.276974,-9400.615463,-1554.432478,1378.971896
1367.277295,-10807.006753,-2294.638420,1532.190996
1367.277616,-7254.018232,-592.164754,459.657299
1367.277937,-6957.935855,814.226536,-536.266849
1367.278258,-7254.018232,-1036.288319,-1455.581446
1367.278578,-7179.997637,222.061783,-842.705048
1367.278899,-10362.883188,444.123565,1455.581446
1367.279220,-10807.006753,-370.102971,2451.505594
1367.279541,-10807.006753,74.020594,3370.820191
1367.279862,-11177.109724,-1628.453072,2757.943793
1367.280183,-9548.656652,-148.041188,1378.971896
1367.280503,-11399.171507,888.247130,2451.505594
1367.280824,-9622.677246,0.000000,2145.067394
1367.281145,-8586.388927,-296.082377,995.924147
1367.281466,-9992.780217,-1924.535449,306.438199
1367.281787,-7846.182985,-1998.556043,-1915.238745
1367.282108,-9622.677246,666.185348,459.657299
1367.282428,-11177.109724,296.082377,2221.676944
1367.282749,-9474.636058,1406.391290,2298.286494
1367.283070,-11547.212695,-1184.329507,2834.553343
1367.283391,-10066.800811,-1776.494261,766.095498
1367.283712,-8734.430116,592.164754,612.876398
1367.284032,-11991.336260,-518.144159,2987.772442
1367.284353,-8512.368333,1776.494261,2298.286494
1367.284674,-9548.656652,0.000000,1991.848295
1367.284995,-9030.512492,-4885.359217,-1149.143247
1367.285316,-5255.462188,-2294.638420,-2834.553343
1367.285637,-9622.677246,-1406.391290,-536.266849
1367.285957,-9104.533087,2368.659014,1149.143247
1367.286278,-10214.842000,2590.720797,3370.820191
1367.286599,-11621.233289,-1332.370696,3447.429741
1367.286920,-9400.615463,-1850.514855,995.924147
1367.287241,-10436.903782,-1184.329507,689.485948
1367.287562,-10362.883188,-1332.370696,2528.115143
1367.287882,-9326.594869,296.082377,1302.362347
1367.288203,-9474.636058,-814.226536,459.657299
1367.288524,-7105.977043,-1480.411884,-2451.505594
1367.288845,-7254.018232,1110.308913,-1455.581446
1367.289166,-10732.986159,370.102971,306.438199
1367.289487,-9474.636058,888.247130,1149.143247
1367.289807,-10807.006753,518.144159,1455.581446
1367.290128,-9474.636058,-2220.617826,-842.705048
1367.290449,-9326.594869,296.082377,-306.438199
1367.290770,-11251.130318,-1406.391290,1302.362347
1367.291091,-9104.533087,888.247130,1455.581446
1367.291411,-10214.842000,1110.308913,1532.190996
1367.291732,-9400.615463,-1258.350101,76.609550
1367.292053,-8290.306550,-814.226536,-1302.362347
1367.292374,-10288.862594,-370.102971,766.095498
1367.292695,-9918.759623,0.000000,1072.533697
1367.293016,-10066.800811,888.247130,2068.457845
1367.293336,-10362.883188,-592.164754,1608.800546
1367.293657,-7846.182985,-740.205942,76.609550
1367.293978,-10584.944971,814.226536,2604.724693
1367.294299,-10807.006753,-1258.350101,2987.772442
1367.294620,-9104.533087,-740.205942,1302.362347
1367.294941,-10214.842000,148.041188,612.876398
1367.295261,-8216.285956,-962.267725,-153.219100
1367.295582,-9326.594869,1184.329507,1225.752797
1367.295903,-10362.883188,666.185348,3294.210641
1367.296224,-8882.471304,2072.576638,1838.629195
1367.296545,-11695.253884,-222.061783,2681.334243
1367.296865,-7698.141797,-2368.659014,995.924147
1367.297186,-9474.636058,0.000000,459.657299
1367.297507,-10955.047942,1332.370696,2451.505594
1367.297828,-8438.347739,1554.432478,2451.505594
1367.298149,-8364.327145,740.205942,1608.800546
1367.298470,-8586.388927,-3923.091493,-1225.752797
1367.298790,-6661.853478,0.000000,-1378.971896
1367.299111,-11769.274478,148.041188,2068.457845
1367.299432,-9178.553681,74.020594,2911.162892
1367.299753,-10584.944971,0.000000,3677.258390
1367.300074,-10732.986159,-1480.411884,2068.457845
1367.300395,-8734.430116,0.000000,1225.752797
1367.300715,-11991.336260,1110.308913,3064.381992
1367.301036,-9622.677246,1184.329507,2374.896044
1367.301357,-8882.471304,74.020594,536.266849
1367.301678,-8660.409521,-2294.638420,-153.219100
1367.301999,-6587.832884,-2886.803174,-3064.381992
1367.302320,-9474.636058,-518.144159,-842.705048
1367.302640,-9992.780217,1036.288319,1532.190996
1367.302961,-9696.697840,1924.535449,1915.238745
1367.303282,-11547.212695,-296.082377,2681.334243
1367.303603,-9326.594869,-2738.761985,229.828649
1367.303924,-9622.677246,-1554.432478,-459.657299
1367.304244,-11399.171507,-666.185348,919.314598
1367.304565,-8660.409521,444.123565,842.705048
1367.304886,-9696.697840,0.000000,689.485948
1367.305207,-9252.574275,-3478.967927,-1149.143247
1367.305528,-7105.977043,-1406.391290,-2374.896044
1367.305849,-10140.821405,-888.247130,1225.752797
1367.306169,-9622.677246,0.000000,995.924147
1367.306490,-11029.068536,1480.411884,2681.334243
1367.306811,-10362.883188,-518.144159,1455.581446
1367.307132,-8734.430116,-296.082377,0.000000
1367.307453,-9474.636058,74.020594,1991.848295
1367.307774,-10288.862594,-1554.432478,1838.629195
1367.308094,-9474.636058,-74.020594,689.485948
1367.308415,-10214.842000,-592.164754,612.876398
1367.308736,-7772.162391,-1776.494261,-1072.533697
1367.309057,-9104.533087,1332.370696,-612.876398
1367.309378,-10510.924376,1110.308913,2221.676944
1367.309699,-10066.800811,1332.370696,2681.334243
1367.310019,-10881.027347,-592.164754,3983.696590
1367.310340,-9474.636058,-2590.720797,1302.362347
1367.310661,-8734.430116,-1332.370696,1302.362347
1367.310982,-9622.677246,-370.102971,1762.019645
1367.311303,-7994.224174,518.144159,2374.896044
1367.311623,-9992.780217,-1480.411884,2374.896044
1367.311944,-8216.285956,-2368.659014,153.219100
1367.312265,-8734.430116,-148.041188,-229.828649
1367.312586,-10658.965565,1110.308913,2068.457845
1367.312907,-10510.924376,1480.411884,2681.334243
1367.313228,-10510.924376,2368.659014,4443.353888
1367.313548,-11325.150913,666.185348,3907.087040
1367.313869,-9178.553681,888.247130,2681.334243
1367.314190,-9918.759623,-814.226536,2451.505594
1367.314511,-9622.677246,-2072.576638,-153.219100
1367.314832,-7402.059420,592.164754,-1149.143247
1367.315153,-8438.347739,0.000000,153.219100
1367.315473,-6439.791695,814.226536,-612.876398
1367.315794,-9252.574275,1776.494261,2374.896044
1367.316115,-11251.130318,-1036.288319,3294.210641
1367.316436,-11547.212695,-666.185348,3677.258390
1367.316757,-11843.295072,-3108.864956,3524.039291
1367.317077,-9844.739029,-2072.576638,1762.019645
1367.317398,-9770.718434,0.000000,1685.410096
1367.317719,-7920.203579,1406.391290,1072.533697
1367.318040,-9104.533087,222.061783,995.924147
1367.318361,-9474.636058,-2442.679609,-1378.971896
1367.318682,-8068.244768,-2368.659014,-3217.601092
1367.319002,-8438.347739,-1406.391290,-2681.334243
1367.319323,-9474.636058,1776.494261,0.000000
1367.319644,-11251.130318,2738.761985,3370.820191
1367.319965,-10214.842000,1110.308913,2987.772442
1367.320286,-9844.739029,-2146.597232,995.924147
1367.320607,-9030.512492,-2812.782580,-229.828649
1367.320927,-10658.965565,-1406.391290,76.609550
1367.321248,-10066.800811,222.061783,-229.828649
1367.321569,-9474.636058,2368.659014,842.705048
1367.321890,-9622.677246,888.247130,-153.219100
1367.322211,-8216.285956,-962.267725,-2911.162892
1367.322532,-9992.780217,296.082377,-1225.752797
1367.322852,-11029.068536,-1480.411884,689.485948
1367.323173,-9474.636058,74.020594,766.095498
1367.323494,-10510.924376,-666.185348,306.438199
1367.323815,-8364.327145,-148.041188,-1532.190996
1367.324136,-8660.409521,3330.926739,-383.047749
1367.324456,-12065.356855,2072.576638,2451.505594
1367.324777,-8956.491898,-518.144159,2451.505594
1367.325098,-9918.759623,-2220.617826,919.314598
1367.325419,-9770.718434,-2812.782580,0.000000
1367.325740,-9030.512492,-592.164754,1149.143247
1367.326061,-10881.027347,1850.514855,4060.306139
1367.326381,-8882.471304,444.123565,3370.820191
1367.326702,-8068.244768,666.185348,1762.019645
1367.327023,-10288.862594,-3627.009116,1225.752797
1367.327344,-7624.121203,-2738.761985,0.000000
1367.327665,-10362.883188,-1332.370696,1915.238745
1367.327986,-9474.636058,-1110.308913,2911.162892
1367.328306,-8956.491898,296.082377,2911.162892
1367.328627,-10288.862594,-1480.411884,2298.286494
1367.328948,-7328.038826,-1924.535449,1302.362347
1367.329269,-9474.636058,-666.185348,1685.410096
1367.329590,-11251.130318,-1258.350101,3294.210641
1367.329911,-9400.615463,74.020594,2911.162892
1367.330231,-10288.862594,-444.123565,2911.162892
1367.330552,-7772.162391,-962.267725,919.314598
1367.330873,-8956.491898,0.000000,766.095498
1367.331194,-10807.006753,-1036.288319,2451.505594
1367.331515,-7846.182985,-1184.329507,1685.410096
1367.331835,-9918.759623,-1554.432478,1838.629195
1367.332156,-10510.924376,-1924.535449,0.000000
1367.332477,-8808.450710,-1036.288319,0.000000
1367.332798,-11695.253884,1628.453072,2987.772442
1367.333119,-10658.965565,1332.370696,2911.162892
1367.333440,-10066.800811,222.061783,2528.115143
1367.333760,-10658.965565,-3256.906145,1225.752797
1367.334081,-8808.450710,-1776.494261,-995.924147
1367.334402,-10807.006753,74.020594,1302.362347
1367.334723,-9400.615463,1110.308913,1915.238745
1367.335044,-8660.409521,1406.391290,612.876398
1367.335365,-9622.677246,-888.247130,306.438199
1367.335685,-7254.018232,-1850.514855,-1915.238745
1367.336006,-9474.636058,-740.205942,-995.924147
1367.336327,-10807.006753,0.000000,1455.581446
1367.336648,-9474.636058,2146.597232,1685.410096
1367.336969,-12065.356855,296.082377,3370.820191
1367.337289,-9918.759623,-814.226536,1225.752797
1367.337610,-10140.821405,-444.123565,1302.362347
1367.337931,-11621.233289,-1702.473667,1838.629195
1367.338252,-8142.265362,-1184.329507,0.000000
1367.338573,-9770.718434,-888.247130,-1378.971896
1367.338894,-6883.915261,666.185348,-2374.896044
1367.339214,-9178.553681,0.000000,-2757.943793
1367.339535,-8956.491898,1776.494261,536.266849
1367.339856,-9178.553681,-296.082377,-153.219100
1367.340177,-11695.253884,-296.082377,1302.362347
1367.340498,-10881.027347,-1554.432478,995.924147
1367.340819,-9400.615463,-888.247130,306.438199
1367.341139,-9622.677246,-296.082377,2528.115143
1367.341460,-8142.265362,-222.061783,0.000000
1367.341781,-8956.491898,-296.082377,612.876398
1367.342102,-8882.471304,-1406.391290,-1149.143247
1367.342423,-8216.285956,-518.144159,-2451.505594
1367.342744,-9030.512492,1998.556043,612.876398
1367.343064,-10288.862594,-222.061783,1455.581446
1367.343385,-9622.677246,666.185348,2298.286494
1367.343706,-10881.027347,-1184.329507,2451.505594
1367.344027,-9178.553681,-3256.906145,995.924147
1367.344348,-9770.718434,74.020594,1991.848295
1367.344668,-11547.212695,-962.267725,2987.772442
1367.344989,-9548.656652,1036.288319,2911.162892
1367.345310,-10140.821405,74.020594,2987.772442
1367.345631,-9104.533087,-3478.967927,-919.314598
1367.345952,-7846.182985,-1406.391290,0.000000
1367.346273,-10436.903782,-296.082377,842.705048
1367.346593,-10658.965565,1184.329507,2987.772442
1367.346914,-10658.965565,3108.864956,3447.429741
1367.347235,-10214.842000,444.123565,2681.334243
1367.347556,-8586.388927,-1406.391290,0.000000
1367.347877,-10732.986159,1332.370696,1608.800546
1367.348198,-11843.295072,370.102971,2451.505594
1367.348518,-9474.636058,1776.494261,2681.334243
1367.348839,-10436.903782,0.000000,1302.362347
1367.349160,-8290.306550,-1776.494261,0.000000
1367.349481,-9326.594869,74.020594,1378.971896
1367.349802,-10732.986159,-1184.329507,2911.162892
1367.350123,-9474.636058,0.000000,2528.115143
1367.350443,-11251.130318,-1850.514855,2374.896044
1367.350764,-7994.224174,-1480.411884,-1225.752797
1367.351085,-8734.430116,1776.494261,-153.219100
1367.351406,-9770.718434,1036.288319,1685.410096
1367.351727,-7994.224174,222.061783,1685.410096
1367.352047,-9622.677246,-2368.659014,919.314598
1367.352368,-8956.491898,-3404.947333,-383.047749
1367.352689,-9326.594869,-1776.494261,229.828649
1367.353010,-12361.439231,-740.205942,3983.696590
1367.353331,-9104.533087,-1184.329507,3600.648841
1367.353652,-9770.718434,-444.123565,2068.457845
1367.353972,-8808.450710,-1776.494261,0.000000
1367.354293,-6957.935855,-1554.432478,-2757.943793
1367.354614,-9474.636058,-296.082377,-1072.533697
1367.354935,-7624.121203,148.041188,1225.752797
1367.355256,-8586.388927,592.164754,-306.438199
1367.355577,-10066.800811,-888.247130,-153.219100
1367.355897,-8364.327145,-1850.514855,-1608.800546
1367.356218,-10066.800811,888.247130,0.000000
1367.356539,-11251.130318,1628.453072,1915.238745
1367.356860,-9770.718434,2368.659014,1915.238745
1367.357181,-10658.965565,1036.288319,1378.971896
1367.357501,-8734.430116,-1332.370696,-1455.581446
1367.357822,-8660.409521,444.123565,-76.609550
1367.358143,-10288.862594,0.000000,1455.581446
1367.358464,-9252.574275,1554.432478,1915.238745
1367.358785,-10807.006753,-222.061783,1302.362347
1367.359106,-9400.615463,-1554.432478,-383.047749
1367.359426,-9104.533087,-296.082377,-919.314598
1367.359747,-11621.233289,1480.411884,2451.505594
1367.360068,-12213.398043,1184.329507,4136.915689
1367.360389,-10732.986159,1702.473667,3294.210641
1367.360710,-10584.944971,-1184.329507,1685.410096
1367.361031,-7698.141797,-1924.535449,0.000000
1367.361351,-10214.842000,0.000000,1532.190996
1367.361672,-9252.574275,-1406.391290,1302.362347
1367.361993,-8364.327145,-518.144159,766.095498
1367.362314,-8216.285956,-2294.638420,0.000000
1367.362635,-6809.894666,-2146.597232,0.000000
1367.362956,-10288.862594,666.185348,2451.505594
1367.363276,-12435.459826,296.082377,5209.449386
1367.363597,-10214.842000,296.082377,5132.839837
1367.363918,-10955.047942,-1776.494261,3677.258390
1367.364239,-9104.533087,-2442.679609,1378.971896
1367.364560,-9474.636058,-592.164754,1685.410096
1367.364880,-9548.656652,592.164754,2298.286494
1367.365201,-7920.203579,296.082377,1532.190996
1367.365522,-8068.244768,296.082377,229.828649
1367.365843,-7550.100608,-2294.638420,-1149.143247
1367.366164,-8438.347739,-518.144159,-306.438199
1367.366485,-11399.171507,296.082377,2528.115143
1367.366805,-9770.718434,0.000000,2681.334243
1367.367126,-9918.759623,222.061783,2681.334243
1367.367447,-10214.842000,-1924.535449,995.924147
1367.367768,-8438.347739,-1110.308913,0.000000
1367.368089,-10584.944971,0.000000,1915.238745
1367.368409,-9104.533087,-148.041188,1072.533697
1367.368730,-9252.574275,962.267725,-536.266849
1367.369051,-9844.739029,-444.123565,229.828649
1367.369372,-8216.285956,-666.185348,-1608.800546
1367.369692,-10658.965565,148.041188,383.047749
1367.370013,-9770.718434,-1110.308913,1225.752797
1367.370334,-8882.471304,-148.041188,1072.533697
1367.370655,-11621.233289,-1036.288319,1072.533697
1367.370975,-8882.471304,-2072.576638,-689.485948
1367.371296,-9252.574275,0.000000,-1302.362347
1367.371617,-10214.842000,740.205942,-153.219100
1367.371938,-9400.615463,1776.494261,689.485948
1367.372259,-9918.759623,1184.329507,919.314598
1367.372579,-9326.594869,-1776.494261,-995.924147
1367.372900,-8438.347739,148.041188,-842.705048
1367.373221,-10955.047942,1184.329507,689.485948
1367.373542,-9770.718434,814.226536,1455.581446
1367.373862,-9622.677246,1998.556043,1378.971896
1367.374183,-9326.594869,-1036.288319,995.924147
1367.374504,-9252.574275,-1702.473667,-153.219100
1367.374825,-10066.800811,0.000000,2528.115143
1367.375146,-11843.295072,-518.144159,3370.820191
1367.375466,-9622.677246,888.247130,2757.943793
1367.375787,-10510.924376,-518.144159,2834.553343
1367.376108,-7698.141797,-962.267725,-612.876398
1367.376429,-8734.430116,666.185348,0.000000
1367.376749,-10214.842000,-370.102971,2068.457845
1367.377070,-7846.182985,148.041188,1532.190996
1367.377391,-11399.171507,-2442.679609,1762.019645
1367.377712,-8808.450710,-3404.947333,0.000000
1367.378032,-8068.244768,-2220.617826,-306.438199
1367.378353,-11177.109724,444.123565,2451.505594
1367.378674,-8586.388927,888.247130,2757.943793
1367.378995,-10584.944971,0.000000,2604.724693
1367.379316,-9474.636058,-2368.659014,842.705048
1367.379636,-7772.162391,0.000000,-1532.190996
1367.379957,-11843.295072,666.185348,2911.162892
1367.380278,-9992.780217,148.041188,3217.601092
1367.380599,-9918.759623,666.185348,2911.162892
1367.380919,-9770.718434,-1924.535449,1532.190996
1367.381240,-6883.915261,-1924.535449,0.000000
1367.381561,-9992.780217,-666.185348,1302.362347
1367.381882,-9474.636058,-444.123565,1991.848295
1367.382202,-9622.677246,962.267725,1838.629195
1367.382523,-9992.780217,0.000000,1455.581446
1367.382844,-8512.368333,-814.226536,-383.047749
1367.383165,-10362.883188,1332.370696,1302.362347
1367.383486,-11325.150913,1406.391290,3370.820191
1367.383806,-10140.821405,1036.288319,2987.772442
1367.384127,-9844.739029,-1406.391290,2068.457845
1367.384448,-8216.285956,-2664.741391,-766.095498
1367.384769,-9474.636058,-518.144159,-612.876398
1367.385089,-10362.883188,1110.308913,2451.505594
1367.385410,-9474.636058,740.205942,842.705048
1367.385731,-9104.533087,962.267725,-76.609550
1367.386052,-8660.409521,-3034.844362,-1685.410096
1367.386372,-8586.388927,444.123565,-1072.533697
1367.386693,-12657.521608,0.000000,3140.991542
1367.387014,-10140.821405,-296.082377,2604.724693
1367.387335,-11251.130318,222.061783,2451.505594
1367.387656,-9770.718434,-2146.597232,76.609550
1367.387976,-8734.430116,-1036.288319,-1149.143247
1367.388297,-10732.986159,814.226536,1915.238745
1367.388618,-9252.574275,0.000000,2451.505594
1367.388939,-8734.430116,74.020594,1685.410096
1367.389259,-9770.718434,-2072.576638,-306.438199
1367.389580,-7994.224174,-3701.029710,-3447.429741
1367.389901,-7920.203579,888.247130,-2604.724693
1367.390222,-9918.759623,1332.370696,-229.828649
1367.390542,-7994.224174,2442.679609,-306.438199
1367.390863,-9474.636058,1776.494261,1302.362347
1367.391184,-10214.842000,-2516.700203,306.438199
1367.391505,-9474.636058,-1628.453072,842.705048
1367.391826,-12287.418637,-666.185348,2681.334243
1367.392146,-9178.553681,-1184.329507,2987.772442
1367.392467,-9844.739029,0.000000,2298.286494
1367.392788,-9178.553681,-1036.288319,536.266849
1367.393109,-6661.853478,-148.041188,-995.924147
1367.393429,-9030.512492,814.226536,76.609550
1367.393750,-9178.553681,1702.473667,1532.190996
1367.394071,-9474.636058,1258.350101,1455.581446
1367.394392,-9844.739029,-1850.514855,766.095498
1367.394712,-7920.203579,-740.205942,612.876398
1367.395033,-10658.965565,1110.308913,2681.334243
1367.395354,-10436.903782,-740.205942,3983.696590
1367.395675,-10288.862594,-1110.308913,2911.162892
1367.395996,-10584.944971,-2146.597232,1685.410096
1367.396316,-7994.224174,-1406.391290,-995.924147
1367.396637,-9992.780217,1480.411884,1915.238745
1367.396958,-11843.295072,740.205942,3447.429741
1367.397279,-10436.903782,1628.453072,3370.820191
1367.397599,-11843.295072,-1184.329507,2528.115143
1367.397920,-8512.368333,-3627.009116,229.828649
1367.398241,-9252.574275,-2368.659014,383.047749
1367.398562,-10066.800811,-444.123565,1685.410096
1367.398882,-8068.244768,1110.308913,536.266849
1367.399203,-9326.594869,1332.370696,-766.095498
1367.399524,-8290.306550,74.020594,-1302.362347
1367.399845,-7846.182985,1184.329507,-1608.800546
1367.400166,-11399.171507,148.041188,2528.115143
1367.400486,-10436.903782,518.144159,3677.258390
1367.400807,-12287.418637,-2368.659014,3677.258390
1367.401128,-10288.862594,-3404.947333,2604.724693
1367.401449,-9474.636058,-1480.411884,1302.362347
1367.401769,-10807.006753,-296.082377,1762.019645
1367.402090,-8142.265362,148.041188,1072.533697
1367.402411,-7402.059420,74.020594,0.000000
1367.402732,-7402.059420,-2516.700203,-1838.629195
1367.403053,-7476.080014,-1998.556043,-1838.629195
1367.403373,-10584.944971,296.082377,1302.362347
1367.403694,-10807.006753,0.000000,2911.162892
1367.404015,-8956.491898,1480.411884,2374.896044
1367.404336,-11325.150913,-592.164754,2221.676944
1367.404656,-8882.471304,-2220.617826,-153.219100
1367.404977,-9548.656652,-518.144159,-306.438199
1367.405298,-9992.780217,1258.350101,1378.971896
1367.405619,-9030.512492,1406.391290,-306.438199
1367.405939,-9400.615463,888.247130,459.657299
1367.406260,-9548.656652,-2442.679609,-1302.362347
1367.406581,-6661.853478,-222.061783,-2145.067394
1367.406902,-10288.862594,-888.247130,612.876398
1367.407223,-8956.491898,0.000000,919.314598
1367.407543,-10807.006753,592.164754,3370.820191
1367.407864,-11029.068536,-1406.391290,1072.533697
1367.408185,-8438.347739,814.226536,536.266849
1367.408506,-11399.171507,296.082377,1532.190996
1367.408826,-8808.450710,740.205942,1378.971896
1367.409147,-10288.862594,-222.061783,1378.971896
1367.409468,-9622.677246,-814.226536,153.219100
1367.409789,-8290.306550,-2442.679609,-689.485948
1367.410109,-8882.471304,-370.102971,0.000000
1367.410430,-9548.656652,740.205942,1532.190996
1367.410751,-10214.842000,1406.391290,1838.629195
1367.411072,-9622.677246,1184.329507,2068.457845
1367.411393,-8438.347739,-740.205942,-153.219100
1367.411713,-9844.739029,888.247130,919.314598
1367.412034,-11769.274478,296.082377,2528.115143
1367.412355,-11473.192101,222.061783,2374.896044
1367.412676,-10881.027347,-592.164754,3447.429741
1367.412996,-9770.718434,-1702.473667,1455.581446
1367.413317,-8586.388927,-518.144159,-2068.457845
1367.413638,-10510.924376,888.247130,842.705048
1367.413959,-9178.553681,2590.720797,459.657299
1367.414279,-8882.471304,3034.844362,153.219100
1367.414600,-8956.491898,-888.247130,-1225.752797
1367.414921,-7031.956449,-1702.473667,-3524.039291
1367.415242,-9622.677246,74.020594,-1378.971896
1367.415563,-9992.780217,444.123565,459.657299
1367.415883,-8956.491898,2294.638420,1455.581446
1367.416204,-10955.047942,666.185348,2451.505594
1367.416525,-9622.677246,-1480.411884,536.266849
1367.416846,-9178.553681,74.020594,153.219100
1367.417166,-10881.027347,1036.288319,919.314598
1367.417487,-9474.636058,2812.782580,995.924147
1367.417808,-9622.677246,2220.617826,1302.362347
1367.418129,-8438.347739,-1036.288319,-1532.190996
1367.418449,-7328.038826,0.000000,-3447.429741
1367.418770,-9252.574275,518.144159,-1455.581446
1367.419091,-8956.491898,740.205942,-536.266849
1367.419412,-9918.759623,2368.659014,842.705048
1367.419733,-11547.212695,1110.308913,1072.533697
1367.420053,-10436.903782,296.082377,-229.828649
1367.420374,-10584.944971,740.205942,-919.314598
1367.420695,-10436.903782,1850.514855,-1072.533697
1367.421016,-11325.150913,4145.153275,-153.219100
1367.421336,-10881.027347,4441.235652,76.609550
1367.421657,-9474.636058,1258.350101,-1991.848295
1367.421978,-8882.471304,740.205942,-3983.696590
1367.422299,-9400.615463,888.247130,-4213.525239
1367.422619,-10584.944971,1924.535449,-2528.115143
1367.422940,-10140.821405,3182.885551,-919.314598
1367.423261,-9548.656652,2368.659014,-995.924147
1367.423582,-10436.903782,148.041188,-1225.752797
1367.423903,-10066.800811,-296.082377,-1225.752797
1367.424223,-9178.553681,0.000000,-2221.676944
1367.424544,-10214.842000,3330.926739,-766.095498
1367.424865,-9770.718434,4959.379811,0.000000
1367.425186,-9548.656652,3552.988522,-229.828649
1367.425506,-9252.574275,1628.453072,-1149.143247
1367.425827,-8808.450710,0.000000,-3447.429741
1367.426148,-8734.430116,1184.329507,-3217.601092
1367.426469,-9918.759623,2516.700203,-919.314598
1367.426790,-9326.594869,3849.070898,-995.924147
1367.427110,-9474.636058,3256.906145,-689.485948
1367.427431,-9030.512492,2368.659014,-1302.362347
1367.427752,-9252.574275,1406.391290,-1991.848295
1367.428073,-9696.697840,1036.288319,-1302.362347
1367.428393,-9104.533087,2664.741391,-2068.457845
1367.428714,-10510.924376,5033.400406,-689.485948
1367.429035,-9918.759623,4589.276840,-995.924147
1367.429356,-8660.409521,2664.741391,-842.705048
1367.429676,-8734.430116,518.144159,-1838.629195
1367.429997,-9474.636058,296.082377,0.000000
1367.430318,-12139.377449,-296.082377,-306.438199
1367.430639,-10140.821405,1110.308913,1378.971896
1367.430960,-11399.171507,666.185348,1225.752797
1367.431280,-9622.677246,2146.597232,995.924147
1367.431601,-8512.368333,666.185348,-1072.533697
1367.431922,-9474.636058,1628.453072,689.485948
1367.432243,-8290.306550,1258.350101,-1915.238745
1367.432563,-9696.697840,740.205942,-2528.115143
1367.432884,-9252.574275,1776.494261,-1991.848295
1367.433205,-9622.677246,2960.823768,-2451.505594
1367.433526,-11547.212695,3849.070898,-1532.190996
1367.433846,-10807.006753,3997.112087,459.657299
1367.434167,-10510.924376,2886.803174,-229.828649
1367.434488,-11547.212695,1480.411884,0.000000
1367.434809,-11177.109724,444.123565,76.609550
1367.435130,-9844.739029,0.000000,306.438199
1367.435450,-9178.553681,-370.102971,-1378.971896
1367.435771,-8290.306550,1850.514855,-1532.190996
1367.436092,-9104.533087,2294.638420,-1072.533697
1367.436413,-9474.636058,2368.659014,-306.438199
1367.436733,-8734.430116,1258.350101,-1532.190996
1367.437054,-10066.800811,1036.288319,-1532.190996
1367.437375,-10214.842000,2220.617826,-229.828649
1367.437696,-11621.233289,518.144159,383.047749
1367.438016,-9252.574275,2960.823768,0.000000
1367.438337,-10732.986159,3552.988522,-766.095498
1367.438658,-9770.718434,4145.153275,-306.438199
1367.438979,-10288.862594,2812.782580,-766.095498
1367.439300,-9326.594869,1110.308913,-1991.848295
1367.439620,-8142.265362,1036.288319,-2068.457845
1367.439941,-8808.450710,740.205942,-2374.896044
1367.440262,-8512.368333,74.020594,-1225.752797
1367.440583,-8364.327145,-740.205942,-1608.800546
1367.440903,-8956.491898,0.000000,-2451.505594
1367.441224,-8734.430116,2368.659014,-919.314598
1367.441545,-10140.821405,2294.638420,-306.438199
1367.441866,-10807.006753,1924.535449,153.219100
1367.442186,-10584.944971,1850.514855,-995.924147
1367.442507,-9770.718434,3701.029710,-1608.800546
1367.442828,-10214.842000,4441.235652,-1302.362347
1367.443149,-10066.800811,3182.885551,0.000000
1367.443470,-9548.656652,1036.288319,-1838.629195
1367.443790,-8734.430116,222.061783,-3370.820191
1367.444111,-8586.388927,1036.288319,-4213.525239
1367.444432,-9400.615463,2738.761985,-2374.896044
1367.444753,-10214.842000,3997.112087,306.438199
1367.445073,-10658.965565,3478.967927,919.314598
1367.445394,-10288.862594,1406.391290,766.095498
1367.445715,-9622.677246,0.000000,229.828649
1367.446036,-9844.739029,0.000000,1072.533697
1367.446356,-10807.006753,592.164754,1991.848295
1367.446677,-9844.739029,962.267725,995.924147
1367.446998,-9030.512492,666.185348,-536.266849
1367.447319,-8216.285956,1406.391290,-3140.991542
1367.447640,-8364.327145,2590.720797,-4060.306139
1367.447960,-9548.656652,4145.153275,-2374.896044
1367.448281,-9844.739029,4959.379811,-1685.410096
1367.448602,-10288.862594,4515.256246,-1608.800546
1367.448923,-10066.800811,3701.029710,-1455.581446
1367.449243,-10436.903782,2072.576638,-612.876398
1367.449564,-10658.965565,962.267725,-76.609550
1367.449885,-10436.903782,888.247130,536.266849
1367.450206,-9474.636058,1480.411884,536.266849
1367.450526,-9252.574275,1480.411884,536.266849
1367.450847,-9104.533087,444.123565,459.657299
1367.451168,-8808.450710,-518.144159,0.000000
1367.451489,-8438.347739,-592.164754,-1762.019645
1367.451810,-8290.306550,592.164754,-2911.162892
1367.452130,-8586.388927,2442.679609,-2834.553343
1367.452451,-9696.697840,3849.070898,-2451.505594
1367.452772,-9770.718434,4959.379811,-1378.971896
1367.453093,-10658.965565,5107.421000,-1378.971896
1367.453413,-10955.047942,4589.276840,-1225.752797
1367.453734,-11325.150913,3404.947333,-689.485948
1367.454055,-10732.986159,2368.659014,1455.581446
1367.454376,-9770.718434,962.267725,-766.095498
1367.454697,-9770.718434,296.082377,-689.485948
1367.455017,-8882.471304,148.041188,-766.095498
1367.455338,-9030.512492,-222.061783,-383.047749
1367.455659,-8290.306550,-1184.329507,995.924147
1367.455980,-8586.388927,-444.123565,-153.219100
1367.456300,-9474.636058,0.000000,-229.828649
1367.456621,-9104.533087,740.205942,-919.314598
1367.456942,-9252.574275,1702.473667,-1532.190996
1367.457263,-9252.574275,3182.885551,-1762.019645
1367.457583,-10066.800811,3997.112087,-2298.286494
1367.457904,-10510.924376,4811.338623,-2681.334243
1367.458225,-10658.965565,4737.318029,-2451.505594
1367.458546,-11029.068536,4071.132681,-2221.676944
1367.458867,-10584.944971,2812.782580,-1455.581446
1367.459187,-10955.047942,2368.659014,76.609550
1367.459508,-10362.883188,1036.288319,306.438199
1367.459829,-9696.697840,-740.205942,995.924147
1367.460150,-9030.512492,-2442.679609,1302.362347
1367.460470,-8586.388927,-2960.823768,919.314598
1367.460791,-8512.368333,-2146.597232,689.485948
1367.461112,-8290.306550,-666.185348,229.828649
1367.461433,-8438.347739,888.247130,-229.828649
1367.461753,-8512.368333,2294.638420,306.438199
1367.462074,-9104.533087,2442.679609,-1455.581446
1367.462395,-9548.656652,3182.885551,-1838.629195
1367.462716,-10140.821405,3034.844362,-1991.848295
1367.463037,-10732.986159,3552.988522,-1532.190996
1367.463357,-10807.006753,4145.153275,-1455.581446
1367.463678,-10658.965565,2960.823768,-1225.752797
1367.463999,-10732.986159,2368.659014,-306.438199
1367.464320,-10288.862594,1184.329507,-612.876398
1367.464640,-9770.718434,-74.020594,0.000000
1367.464961,-9474.636058,-666.185348,0.000000
1367.465282,-8956.491898,-1184.329507,-1149.143247
1367.465603,-8808.450710,-222.061783,-1608.800546
1367.465923,-8808.450710,740.205942,-1762.019645
1367.466244,-8808.450710,1924.535449,-2374.896044
1367.466565,-9326.594869,4219.173869,-2221.676944
1367.466886,-9622.677246,4219.173869,-2834.553343
1367.467207,-10066.800811,4737.318029,-2681.334243
1367.467528,-10436.903782,4737.318029,-2528.115143
1367.467848,-10807.006753,4737.318029,-1991.848295
1367.468169,-11251.130318,3701.029710,-1149.143247
1367.468490,-10807.006753,2664.741391,-919.314598
1367.468811,-10288.862594,1776.494261,-842.705048
1367.469132,-9992.780217,888.247130,-153.219100
1367.469453,-9770.718434,370.102971,995.924147
1367.469773,-9030.512492,0.000000,0.000000
1367.470094,-8734.430116,222.061783,0.000000
1367.470415,-8660.409521,296.082377,229.828649
1367.470736,-8660.409521,518.144159,-536.266849
1367.471057,-8142.265362,1036.288319,689.485948
1367.471378,-9030.512492,1702.473667,0.000000
1367.471698,-9548.656652,3034.844362,689.485948
1367.472019,-10140.821405,1998.556043,1685.410096
1367.472340,-9992.780217,1110.308913,1455.581446
1367.472661,-9770.718434,1258.350101,1149.143247
1367.472982,-10140.821405,0.000000,919.314598
1367.473303,-9622.677246,74.020594,1532.190996
1367.473623,-9400.615463,-222.061783,1685.410096
1367.473944,-9178.553681,-888.247130,1838.629195
1367.474265,-8586.388927,-1110.308913,689.485948
1367.474586,-8882.471304,-1036.288319,1608.800546
1367.474907,-9252.574275,-592.164754,1762.019645
1367.475228,-9474.636058,518.144159,1915.238745
1367.475548,-9696.697840,1258.350101,2298.286494
1367.475869,-9770.718434,1776.494261,1762.019645
1367.476190,-9400.615463,1924.535449,459.657299
1367.476511,-9622.677246,2368.659014,306.438199
1367.476832,-9844.739029,2664.741391,76.609550
1367.477153,-10214.842000,2812.782580,76.609550
1367.477474,-10362.883188,2738.761985,306.438199
1367.477794,-10140.821405,2516.700203,-536.266849
1367.478115,-10584.944971,2220.617826,-612.876398
1367.478436,-10658.965565,1702.473667,-229.828649
1367.478757,-10732.986159,1258.350101,-76.609550
1367.479078,-10955.047942,962.267725,-2451.505594
1367.479399,-10362.883188,592.164754,-1762.019645
1367.479719,-10066.800811,1184.329507,-2221.676944
1367.480040,-9622.677246,1406.391290,-3217.601092
1367.480361,-9474.636058,2368.659014,-4213.525239
1367.480682,-9844.739029,2664.741391,-4519.963438
1367.481003,-9400.615463,2664.741391,-5898.935335
1367.481324,-9696.697840,3108.864956,-5898.935335
1367.481644,-9770.718434,3182.885551,-6052.154434
1367.481965,-10584.944971,3552.988522,-5822.325785
1367.482286,-10658.965565,3552.988522,-5362.668486
1367.482607,-10658.965565,3034.844362,-4903.011187
1367.482928,-10732.986159,2738.761985,-4443.353888
1367.483249,-10436.903782,2590.720797,-3830.477490
1367.483569,-10140.821405,2960.823768,-3983.696590
1367.483890,-9474.636058,2146.597232,-3677.258390
1367.484211,-9030.512492,1776.494261,-3524.039291
1367.484532,-8586.388927,1998.556043,-3524.039291
1367.484853,-8882.471304,1998.556043,-3524.039291
1367.485174,-8660.409521,2738.761985,-2681.334243
1367.485494,-8586.388927,2664.741391,-2987.772442
1367.485815,-8882.471304,3404.947333,-2681.334243
1367.486136,-9030.512492,3923.091493,-1762.019645
1367.486457,-9400.615463,4367.215058,-1608.800546
1367.486778,-9252.574275,4737.318029,-153.219100
1367.487099,-9844.739029,4367.215058,153.219100
1367.487419,-10214.842000,3256.906145,1378.971896
1367.487740,-10066.800811,2442.679609,2298.286494
1367.488061,-9696.697840,1184.329507,2987.772442
1367.488382,-9548.656652,0.000000,3064.381992
1367.488703,-9622.677246,-444.123565,3447.429741
1367.489024,-8808.450710,-296.082377,2374.896044
1367.489345,-8882.471304,444.123565,1838.629195
1367.489665,-8512.368333,1628.453072,919.314598
1367.489986,-8882.471304,3330.926739,1302.362347
1367.490307,-9844.739029,4071.132681,306.438199
1367.490628,-10214.842000,4219.173869,1532.190996
1367.490949,-10732.986159,3478.967927,766.095498
1367.491270,-11029.068536,3552.988522,689.485948
1367.491590,-11103.089130,3256.906145,919.314598
1367.491911,-10881.027347,3182.885551,2068.457845
1367.492232,-10510.924376,2886.803174,2221.676944
1367.492553,-10362.883188,1998.556043,2298.286494
1367.492874,-10288.862594,-296.082377,2068.457845
1367.493195,-9474.636058,-2146.597232,1455.581446
1367.493515,-9252.574275,-2738.761985,1149.143247
1367.493836,-9400.615463,-1924.535449,153.219100
1367.494157,-8660.409521,-1110.308913,-766.095498
1367.494478,-8142.265362,0.000000,-1991.848295
1367.494799,-8438.347739,1110.308913,-3294.210641
1367.495120,-9178.553681,2072.576638,-3983.696590
1367.495440,-10140.821405,2886.803174,-4826.401637
1367.495761,-10288.862594,3701.029710,-5286.058936
1367.496082,-10658.965565,4589.276840,-5209.449386
1367.496403,-10955.047942,5477.523971,-4519.963438
1367.496724,-11251.130318,4589.276840,-2681.334243
1367.497045,-10881.027347,1480.411884,-1915.238745
1367.497365,-10066.800811,-2072.576638,-2221.676944
1367.497686,-9326.594869,-4145.153275,-2604.724693
1367.498007,-9326.594869,-4737.318029,-2528.115143
1367.498328,-8512.368333,-2590.720797,-1991.848295
1367.498649,-8068.244768,-1036.288319,-1608.800546
1367.498970,-7254.018232,74.020594,-2911.162892
1367.499290,-8142.265362,1036.288319,-4060.306139
1367.499611,-8438.347739,2368.659014,-4749.792088
1367.499932,-9622.677246,4071.132681,-4136.915689
1367.500253,-10955.047942,5403.503377,-3140.991542
1367.500574,-11103.089130,5699.585753,-1915.238745
1367.500895,-11251.130318,4441.235652,-1762.019645
1367.501216,-11103.089130,3404.947333,-3064.381992
1367.501536,-10584.944971,2664.741391,-1991.848295
1367.501857,-11029.068536,2516.700203,-229.828649
1367.502178,-10732.986159,1406.391290,229.828649
1367.502499,-9622.677246,222.061783,-536.266849
1367.502820,-8512.368333,-148.041188,-766.095498
1367.503141,-8364.327145,1184.329507,689.485948
1367.503461,-9326.594869,1258.350101,2604.724693
1367.503782,-9400.615463,0.000000,3983.696590
1367.504103,-8956.491898,-1184.329507,3217.601092
1367.504424,-8808.450710,-444.123565,1378.971896
1367.504745,-8586.388927,1480.411884,1608.800546
1367.505066,-10140.821405,2886.803174,2451.505594
1367.505386,-11177.109724,3997.112087,2451.505594
1367.505707,-9992.780217,3923.091493,1838.629195
1367.506028,-10140.821405,4885.359217,76.609550
1367.506349,-11251.130318,4663.297435,1378.971896
1367.506670,-11769.274478,3701.029710,2374.896044
1367.506991,-10658.965565,1554.432478,1762.019645
1367.507311,-9770.718434,1480.411884,0.000000
1367.507632,-8586.388927,1184.329507,-1838.629195
1367.507953,-8882.471304,1184.329507,-1072.533697
1367.508274,-8882.471304,1110.308913,-612.876398
1367.508595,-8216.285956,1628.453072,-1915.238745
1367.508916,-8512.368333,2812.782580,-1455.581446
1367.509236,-10066.800811,2812.782580,-383.047749
1367.509557,-9918.759623,1702.473667,0.000000
1367.509878,-10214.842000,-444.123565,-536.266849
1367.510199,-9104.533087,444.123565,-3064.381992
1367.510520,-9178.553681,2368.659014,-2451.505594
1367.510841,-10066.800811,3256.906145,-3447.429741
1367.511162,-9474.636058,4515.256246,-2681.334243
1367.511482,-10288.862594,3849.070898,-4519.963438
1367.511803,-8364.327145,4367.215058,-3524.039291
1367.512124,-10881.027347,3182.885551,-3217.601092
1367.512445,-9992.780217,1184.329507,-1991.848295
1367.512766,-9474.636058,-740.205942,-3753.867940
1367.513087,-11177.109724,592.164754,-1455.581446
1367.513407,-8290.306550,370.102971,-2298.286494
1367.513728,-10436.903782,2072.576638,-689.485948
1367.514049,-9770.718434,2960.823768,-383.047749
1367.514370,-10732.986159,2886.803174,-2145.067394
1367.514691,-9400.615463,2442.679609,-2528.115143
1367.515012,-7846.182985,3256.906145,-4673.182538
1367.515332,-9548.656652,3256.906145,-4213.525239
1367.515653,-10140.821405,2442.679609,-2374.896044
1367.515974,-8142.265362,3182.885551,-1378.971896
1367.516295,-12213.398043,1554.432478,-995.924147
1367.516616,-10955.047942,2368.659014,766.095498
1367.516937,-9844.739029,1036.288319,689.485948
1367.517257,-11843.295072,1702.473667,1915.238745
1367.517578,-10436.903782,2368.659014,1762.019645
1367.517899,-8512.368333,1554.432478,995.924147
1367.518220,-8808.450710,-518.144159,995.924147
1367.518541,-7328.038826,-1258.350101,-306.438199
1367.518862,-9252.574275,-1628.453072,-459.657299
1367.519182,-8882.471304,518.144159,306.438199
1367.519503,-9400.615463,1628.453072,-612.876398
1367.519824,-9474.636058,4441.235652,536.266849
1367.520145,-11399.171507,3478.967927,1838.629195
1367.520466,-9696.697840,2368.659014,995.924147
1367.520787,-10510.924376,1406.391290,536.266849
1367.521107,-11029.068536,296.082377,459.657299
1367.521428,-9326.594869,888.247130,0.000000
1367.521749,-10584.944971,962.267725,612.876398
1367.522070,-9474.636058,1850.514855,1838.629195
1367.522391,-9030.512492,222.061783,766.095498
1367.522712,-9622.677246,-740.205942,842.705048
1367.523033,-9548.656652,-1776.494261,-153.219100
1367.523353,-8438.347739,-740.205942,-995.924147
1367.523674,-9474.636058,592.164754,0.000000
1367.523995,-9104.533087,1110.308913,229.828649
1367.524316,-8438.347739,2368.659014,-1532.190996
1367.524637,-9178.553681,962.267725,-2298.286494
1367.524958,-8808.450710,1332.370696,-2834.553343
1367.525278,-9400.615463,2516.700203,-2604.724693
1367.525599,-11547.212695,2590.720797,-842.705048
1367.525920,-10807.006753,2812.782580,-459.657299
1367.526241,-9622.677246,1998.556043,-995.924147
1367.526562,-10436.903782,148.041188,-919.314598
1367.526883,-10066.800811,592.164754,-383.047749
1367.527203,-10732.986159,814.226536,842.705048
1367.527524,-11177.109724,888.247130,2298.286494
1367.527845,-9992.780217,-666.185348,1225.752797
1367.528166,-9474.636058,-3256.906145,0.000000
1367.528487,-8956.491898,-1702.473667,-1378.971896
1367.528808,-10140.821405,1332.370696,-1455.581446
1367.529128,-8364.327145,2516.700203,-1915.238745
1367.529449,-8808.450710,1258.350101,-2604.724693
1367.529770,-6513.812290,2368.659014,-4979.620737
1367.530091,-9622.677246,592.164754,-3983.696590
1367.530412,-9918.759623,296.082377,-1302.362347
1367.530733,-9696.697840,4145.153275,766.095498
1367.531053,-13175.665768,1036.288319,3140.991542
1367.531374,-10362.883188,592.164754,2298.286494
1367.531695,-10881.027347,-370.102971,1685.410096
1367.532016,-11251.130318,-2738.761985,2604.724693
1367.532337,-8364.327145,-1628.453072,2221.676944
1367.532658,-9474.636058,-1258.350101,3370.820191
1367.532978,-9696.697840,-3923.091493,2374.896044
1367.533299,-6661.853478,-1332.370696,-2068.457845
1367.533620,-9474.636058,-1036.288319,76.609550
1367.533941,-7994.224174,888.247130,1455.581446
1367.534262,-8660.409521,2664.741391,2451.505594
1367.534583,-11843.295072,1184.329507,3524.039291
1367.534904,-9252.574275,1998.556043,2298.286494
1367.535224,-11103.089130,1406.391290,2451.505594
1367.535545,-10881.027347,1406.391290,2681.334243
1367.535866,-9474.636058,2812.782580,3524.039291
1367.536187,-10955.047942,1110.308913,3983.696590
1367.536508,-8882.471304,-1184.329507,2834.553343
1367.536829,-8438.347739,-2368.659014,1608.800546
1367.537149,-9400.615463,-3182.885551,1532.190996
1367.537470,-9104.533087,-2220.617826,1455.581446
1367.537791,-9622.677246,-148.041188,5975.544884
1367.538112,-9474.636058,-1702.473667,3064.381992
1367.538433,-8734.430116,-814.226536,1225.752797
1367.538754,-10288.862594,-2220.617826,1149.143247
1367.539074,-9030.512492,-518.144159,0.000000
1367.539395,-10362.883188,1850.514855,995.924147
1367.539716,-10658.965565,1184.329507,689.485948
1367.540037,-8734.430116,1480.411884,-995.924147
1367.540358,-10362.883188,444.123565,-1378.971896
1367.540679,-9252.574275,1702.473667,-2145.067394
1367.540999,-9844.739029,2220.617826,-383.047749
1367.541320,-11399.171507,592.164754,1762.019645
1367.541641,-8734.430116,-1480.411884,153.219100
1367.541962,-10732.986159,-3849.070898,-229.828649
1367.542283,-8660.409521,-4811.338623,-306.438199
1367.542604,-8882.471304,-2812.782580,842.705048
1367.542924,-11029.068536,-1332.370696,3830.477490
1367.543245,-9030.512492,-2368.659014,1608.800546
1367.543566,-8956.491898,-1406.391290,1149.143247
1367.543887,-9474.636058,-1628.453072,229.828649
1367.544208,-8142.265362,740.205942,-1072.533697
1367.544529,-10214.842000,1702.473667,995.924147
1367.544850,-9030.512492,-740.205942,-2221.676944
1367.545170,-7476.080014,518.144159,-2451.505594
1367.545491,-8438.347739,-1110.308913,-2757.943793
1367.545812,-7846.182985,296.082377,-1762.019645
1367.546133,-11991.336260,1258.350101,3447.429741
1367.546454,-12509.480420,-1036.288319,4290.134789
1367.546775,-10881.027347,-2368.659014,3140.991542
1367.547095,-11843.295072,-3552.988522,3600.648841
1367.547416,-9474.636058,-2590.720797,3064.381992
1367.547737,-10584.944971,-296.082377,4213.525239
1367.548058,-9622.677246,-962.267725,2911.162892
1367.548379,-5773.606348,-444.123565,-995.924147
1367.548700,-7550.100608,148.041188,-1838.629195
1367.549020,-7846.182985,444.123565,-1072.533697
1367.549341,-9992.780217,1258.350101,536.266849
1367.549662,-10510.924376,3108.864956,4519.963438
1367.549983,-10214.842000,592.164754,1838.629195
1367.550304,-11251.130318,148.041188,2604.724693
1367.550625,-12213.398043,-666.185348,3753.867940
1367.550945,-10807.006753,370.102971,3600.648841
1367.551266,-10362.883188,1258.350101,6741.640382
1367.551587,-10140.821405,-962.267725,3140.991542
1367.551908,-8142.265362,-518.144159,383.047749
1367.552229,-10066.800811,-1480.411884,383.047749
1367.552550,-8660.409521,-592.164754,612.876398
1367.552870,-9622.677246,1332.370696,3064.381992
1367.553191,-11177.109724,-2516.700203,3600.648841
1367.553512,-8586.388927,-2368.659014,2068.457845
1367.553833,-9770.718434,-1702.473667,612.876398
1367.554154,-9474.636058,-1036.288319,-229.828649
1367.554475,-8142.265362,2960.823768,-153.219100
1367.554795,-10066.800811,2368.659014,153.219100
1367.555116,-7402.059420,1924.535449,-2528.115143
1367.555437,-9474.636058,518.144159,-1149.143247
1367.555758,-9770.718434,-2220.617826,76.609550
1367.556079,-9252.574275,-1480.411884,-76.609550
1367.556400,-11695.253884,0.000000,2834.553343
1367.556721,-9030.512492,-888.247130,1225.752797
1367.557041,-8438.347739,-222.061783,1378.971896
1367.557362,-10214.842000,-296.082377,536.266849
1367.557683,-7846.182985,-370.102971,995.924147
1367.558004,-11029.068536,-740.205942,2451.505594
1367.558325,-10362.883188,-3478.967927,2298.286494
1367.558646,-8438.347739,-3404.947333,-1302.362347
1367.558966,-9400.615463,-1554.432478,-1532.190996
1367.559287,-7105.977043,814.226536,-1762.019645
1367.559608,-9918.759623,4367.215058,1455.581446
1367.559929,-10732.986159,1776.494261,1762.019645
1367.560250,-8364.327145,0.000000,-2145.067394
1367.560571,-10288.862594,-666.185348,-689.485948
1367.560891,-11251.130318,-1776.494261,229.828649
1367.561212,-10362.883188,888.247130,2834.553343
1367.561533,-12361.439231,0.000000,3830.477490
1367.561854,-7846.182985,-962.267725,1149.143247
1367.562175,-8068.244768,-1554.432478,-842.705048
1367.562496,-8882.471304,-2294.638420,-612.876398
1367.562816,-9326.594869,148.041188,229.828649
1367.563137,-11177.109724,1184.329507,2757.943793
1367.563458,-8808.450710,-962.267725,689.485948
1367.563779,-8882.471304,-148.041188,766.095498
1367.564100,-10881.027347,-1850.514855,1302.362347
1367.564421,-10066.800811,296.082377,2145.067394
1367.564741,-11769.274478,888.247130,4290.134789
1367.565062,-9696.697840,-666.185348,4213.525239
1367.565383,-8660.409521,-740.205942,153.219100
1367.565704,-10288.862594,-1110.308913,306.438199
1367.566025,-8660.409521,592.164754,612.876398
1367.566346,-9918.759623,2220.617826,3140.991542
1367.566666,-9770.718434,814.226536,3447.429741
1367.566987,-8586.388927,-888.247130,1685.410096
1367.567308,-10510.924376,-1850.514855,1915.238745
1367.567629,-9474.636058,-2220.617826,1838.629195
1367.567950,-9918.759623,222.061783,4213.525239
1367.568271,-10436.903782,-1110.308913,3447.429741
1367.568592,-7698.141797,-962.267725,1302.362347
1367.568912,-9400.615463,-1554.432478,1225.752797
1367.569233,-8438.347739,-1258.350101,919.314598
1367.569554,-8438.347739,1110.308913,3294.210641
1367.569875,-11029.068536,888.247130,3907.087040
1367.570195,-9770.718434,-148.041188,2528.115143
1367.570516,-10436.903782,-1332.370696,2221.676944
1367.570837,-9474.636058,-1702.473667,459.657299
1367.571158,-7772.162391,-518.144159,-76.609550
1367.571478,-10510.924376,518.144159,1532.190996
1367.571799,-8808.450710,444.123565,153.219100
1367.572120,-7698.141797,-518.144159,-2145.067394
1367.572441,-7846.182985,74.020594,-3140.991542
1367.572761,-8882.471304,1776.494261,-919.314598
1367.573082,-11473.192101,740.205942,2604.724693
1367.573403,-10807.006753,-1776.494261,1991.848295
1367.573724,-8882.471304,-1998.556043,0.000000
1367.574044,-10288.862594,-2072.576638,1302.362347
1367.574365,-9918.759623,-814.226536,0.000000
1367.574686,-9844.739029,2442.679609,1455.581446
1367.575007,-11029.068536,74.020594,1455.581446
1367.575327,-7994.224174,-888.247130,-1991.848295
1367.575648,-8660.409521,-1258.350101,-1762.019645
1367.575969,-11103.089130,-2072.576638,-1149.143247
1367.576290,-9548.656652,2146.597232,1072.533697
1367.576610,-12435.459826,148.041188,3294.210641
1367.576931,-9252.574275,-1332.370696,536.266849
1367.577252,-8808.450710,-814.226536,-1991.848295
1367.577573,-11029.068536,-2146.597232,76.609550
1367.577893,-8586.388927,-148.041188,-76.609550
1367.578214,-10288.862594,1110.308913,1991.848295
1367.578535,-9548.656652,-962.267725,995.924147
1367.578856,-7698.141797,-1332.370696,-766.095498
1367.579176,-11029.068536,-2368.659014,0.000000
1367.579497,-8586.388927,-962.267725,1378.971896
1367.579818,-10066.800811,1628.453072,3140.991542
1367.580139,-11843.295072,-666.185348,3907.087040
1367.580459,-8956.491898,-592.164754,995.924147
1367.580780,-10066.800811,-370.102971,306.438199
1367.581101,-8734.430116,0.000000,459.657299
1367.581422,-9326.594869,2146.597232,2298.286494
1367.581742,-11399.171507,962.267725,3140.991542
1367.582063,-7920.203579,-1332.370696,0.000000
1367.582384,-6957.935855,-666.185348,-1838.629195
1367.582705,-8290.306550,-2146.597232,-1378.971896
1367.583025,-7550.100608,4293.194464,766.095498
1367.583346,-12139.377449,3997.112087,4903.011187
1367.583667,-8808.450710,1406.391290,2757.943793
1367.583988,-10288.862594,1554.432478,2911.162892
1367.584309,-11473.192101,-2516.700203,2451.505594
1367.584629,-9104.533087,-1036.288319,1915.238745
1367.584950,-11325.150913,1258.350101,4749.792088
1367.585271,-9104.533087,-1036.288319,1915.238745
1367.585592,-6069.688724,74.020594,-689.485948
1367.585912,-10732.986159,-2442.679609,-229.828649
1367.586233,-7698.141797,222.061783,1455.581446
1367.586554,-11843.295072,1036.288319,2528.115143
1367.586875,-11399.171507,0.000000,2911.162892
1367.587195,-8216.285956,148.041188,995.924147
1367.587516,-11325.150913,-814.226536,1225.752797
1367.587837,-8512.368333,-1628.453072,76.609550
1367.588158,-10584.944971,-444.123565,1838.629195
1367.588478,-9696.697840,-1554.432478,1762.019645
1367.588799,-7624.121203,-1406.391290,-995.924147
1367.589120,-10066.800811,592.164754,-306.438199
1367.589441,-9548.656652,0.000000,306.438199
1367.589761,-9474.636058,1924.535449,383.047749
1367.590082,-11399.171507,222.061783,2374.896044
1367.590403,-8512.368333,-1480.411884,-76.609550
1367.590724,-10510.924376,-1628.453072,2221.676944
1367.591044,-10066.800811,-2072.576638,995.924147
1367.591365,-9844.739029,0.000000,1685.410096
1367.591686,-11251.130318,1258.350101,4213.525239
1367.592007,-9622.677246,-1184.329507,1455.581446
1367.592327,-8438.347739,-1332.370696,76.609550
1367.592648,-7846.182985,-2294.638420,-2068.457845
1367.592969,-6735.874072,-666.185348,-2451.505594
1367.593290,-8438.347739,1554.432478,536.266849
1367.593610,-8586.388927,-666.185348,919.314598
1367.593931,-7624.121203,-1776.494261,0.000000
1367.594252,-10066.800811,-2072.576638,0.000000
1367.594573,-10807.006753,-1702.473667,1455.581446
1367.594893,-11695.253884,888.247130,4903.011187
