#time,accel_x,accel_y,accel_z
1181.298371,-9844.739029,-2146.597232,2298.286494
1181.298692,-9252.574275,-1628.453072,1302.362347
1181.299013,-9918.759623,-814.226536,766.095498
1181.299333,-9696.697840,74.020594,919.314598
1181.299654,-10066.800811,296.082377,1072.533697
1181.299974,-9474.636058,518.144159,689.485948
1181.300295,-10140.821405,0.000000,1455.581446
1181.300616,-10140.821405,-1184.329507,842.705048
1181.300936,-9770.718434,-1184.329507,1532.190996
1181.301257,-9474.636058,-1332.370696,1455.581446
1181.301578,-9104.533087,-962.267725,1225.752797
1181.301898,-8660.409521,-740.205942,1225.752797
1181.302219,-8956.491898,-814.226536,1149.143247
1181.302540,-9178.553681,-962.267725,1378.971896
1181.302860,-9474.636058,-518.144159,1991.848295
1181.303181,-9474.636058,-962.267725,1608.800546
1181.303501,-9622.677246,-1184.329507,2374.896044
1181.303822,-9622.677246,-1332.370696,1991.848295
1181.304143,-9178.553681,-1850.514855,2145.067394
1181.304463,-9770.718434,-1924.535449,2757.943793
1181.304784,-9622.677246,-1924.535449,2911.162892
1181.305105,-9696.697840,-2146.597232,2987.772442
1181.305425,-9474.636058,-2664.741391,3370.820191
1181.305746,-9622.677246,-2590.720797,3140.991542
1181.306066,-9622.677246,-3034.844362,3524.039291
1181.306387,-9178.553681,-3404.947333,3830.477490
1181.306708,-9178.553681,-3256.906145,3907.087040
1181.307028,-9474.636058,-3404.947333,3753.867940
1181.307349,-9326.594869,-3478.967927,4749.792088
1181.307670,-9474.636058,-3478.967927,5362.668486
1181.307990,-9474.636058,-3552.988522,5822.325785
1181.308311,-9474.636058,-3627.009116,5822.325785
1181.308631,-9622.677246,-4145.153275,6435.202183
1181.308952,-9474.636058,-4515.256246,6052.154434
1181.309273,-9474.636058,-4663.297435,6281.983084
1181.309593,-9548.656652,-4589.276840,6511.811733
1181.309914,-9474.636058,-4589.276840,5745.716235
1181.310235,-9326.594869,-4219.173869,5132.839837
1181.310555,-9400.615463,-3849.070898,4519.963438
1181.310876,-9474.636058,-3256.906145,4060.306139
1181.311196,-9252.574275,-2812.782580,3370.820191
1181.311517,-9548.656652,-2516.700203,2987.772442
1181.311838,-9622.677246,-2516.700203,2604.724693
1181.312158,-9844.739029,-2368.659014,2528.115143
1181.312479,-9918.759623,-2072.576638,3447.429741
1181.312800,-10288.862594,-2146.597232,3064.381992
1181.313120,-10362.883188,-2368.659014,3064.381992
1181.313441,-10066.800811,-2664.741391,3370.820191
1181.313761,-10066.800811,-2886.803174,4290.134789
1181.314082,-9992.780217,-3923.091493,3830.477490
1181.314403,-9548.656652,-4589.276840,3140.991542
1181.314723,-9178.553681,-5329.482782,2681.334243
1181.315044,-8882.471304,-4959.379811,2068.457845
1181.315365,-8882.471304,-4071.132681,2068.457845
1181.315685,-9326.594869,-3404.947333,1762.019645
1181.316006,-9104.533087,-2368.659014,1532.190996
1181.316326,-9474.636058,-1776.494261,459.657299
1181.316647,-10140.821405,-74.020594,383.047749
1181.316968,-9844.739029,-444.123565,229.828649
1181.317288,-9548.656652,-444.123565,-229.828649
1181.317609,-9474.636058,-666.185348,-766.095498
1181.317930,-9326.594869,-888.247130,-1302.362347
1181.318250,-9548.656652,-1110.308913,-1608.800546
1181.318571,-9548.656652,-814.226536,-1685.410096
1181.318891,-9918.759623,0.000000,-919.314598
1181.319212,-9918.759623,0.000000,-612.876398
1181.319533,-9548.656652,222.061783,-612.876398
1181.319853,-9844.739029,1332.370696,0.000000
1181.320174,-9992.780217,1036.288319,536.266849
1181.320495,-9770.718434,1036.288319,1149.143247
1181.320815,-9104.533087,74.020594,1991.848295
1181.321136,-9474.636058,-148.041188,995.924147
1181.321456,-9178.553681,148.041188,842.705048
1181.321777,-9326.594869,444.123565,612.876398
1181.322098,-9178.553681,1554.432478,689.485948
1181.322419,-9474.636058,1702.473667,689.485948
1181.322739,-9326.594869,2294.638420,919.314598
1181.323060,-9918.759623,2294.638420,1225.752797
1181.323381,-9844.739029,2294.638420,2068.457845
1181.323702,-10510.924376,2368.659014,2451.505594
1181.324023,-10288.862594,1924.535449,2528.115143
1181.324343,-10288.862594,1702.473667,2298.286494
1181.324664,-9770.718434,1924.535449,1685.410096
1181.324985,-9474.636058,2220.617826,1072.533697
1181.325306,-9548.656652,2220.617826,1378.971896
1181.325627,-9474.636058,2220.617826,1532.190996
1181.325947,-9622.677246,2072.576638,1838.629195
1181.326268,-9844.739029,1480.411884,2145.067394
1181.326589,-10066.800811,666.185348,2911.162892
1181.326910,-10140.821405,0.000000,3447.429741
1181.327230,-9696.697840,-518.144159,3677.258390
1181.327551,-9548.656652,-1554.432478,3600.648841
1181.327872,-8882.471304,-1184.329507,2145.067394
1181.328193,-8660.409521,-2072.576638,2221.676944
1181.328514,-8068.244768,-1332.370696,1838.629195
1181.328834,-8216.285956,-666.185348,1378.971896
1181.329155,-8364.327145,-814.226536,-459.657299
1181.329476,-8512.368333,0.000000,919.314598
1181.329797,-9178.553681,-370.102971,842.705048
1181.330117,-9474.636058,-592.164754,766.095498
1181.330438,-9696.697840,-740.205942,459.657299
1181.330759,-9844.739029,-666.185348,153.219100
1181.331080,-9622.677246,-592.164754,153.219100
1181.331401,-9474.636058,-148.041188,-153.219100
1181.331721,-9696.697840,0.000000,-612.876398
1181.332042,-9622.677246,518.144159,-536.266849
1181.332363,-10214.842000,74.020594,0.000000
1181.332684,-9696.697840,-444.123565,536.266849
1181.333005,-10140.821405,-1406.391290,766.095498
1181.333325,-10066.800811,-2960.823768,689.485948
1181.333646,-9622.677246,-3330.926739,919.314598
1181.333967,-9474.636058,-3701.029710,766.095498
1181.334288,-9326.594869,-3256.906145,76.609550
1181.334608,-9252.574275,-2442.679609,0.000000
1181.334929,-9474.636058,-1110.308913,-229.828649
1181.335250,-9474.636058,0.000000,0.000000
1181.335571,-9770.718434,148.041188,76.609550
1181.335892,-10362.883188,74.020594,383.047749
1181.336212,-10140.821405,-962.267725,0.000000
1181.336533,-10732.986159,-962.267725,689.485948
1181.336854,-10362.883188,-1258.350101,536.266849
1181.337175,-10066.800811,-1406.391290,383.047749
1181.337495,-9548.656652,-1184.329507,76.609550
1181.337816,-9474.636058,-74.020594,0.000000
1181.338137,-9474.636058,222.061783,0.000000
1181.338458,-9474.636058,370.102971,689.485948
1181.338779,-9696.697840,0.000000,1225.752797
1181.339099,-9844.739029,-592.164754,1838.629195
1181.339420,-9770.718434,-1480.411884,3140.991542
1181.339741,-9548.656652,-2368.659014,3370.820191
1181.340062,-9474.636058,-3108.864956,3140.991542
1181.340383,-8290.306550,-3256.906145,2068.457845
1181.340703,-8660.409521,-1850.514855,1991.848295
1181.341024,-8512.368333,-592.164754,1455.581446
1181.341345,-8512.368333,1036.288319,1608.800546
1181.341666,-8364.327145,1258.350101,995.924147
1181.341986,-8956.491898,888.247130,842.705048
1181.342307,-9474.636058,740.205942,995.924147
1181.342628,-9844.739029,222.061783,1608.800546
1181.342949,-10214.842000,0.000000,1608.800546
1181.343270,-10066.800811,0.000000,1608.800546
1181.343590,-10214.842000,592.164754,1149.143247
1181.343911,-9844.739029,1406.391290,766.095498
1181.344232,-9770.718434,2220.617826,383.047749
1181.344553,-10214.842000,2146.597232,229.828649
1181.344874,-9844.739029,2294.638420,919.314598
1181.345194,-10066.800811,1258.350101,1225.752797
1181.345515,-9844.739029,74.020594,1685.410096
1181.345836,-9622.677246,-814.226536,1838.629195
1181.346157,-9622.677246,-1480.411884,2145.067394
1181.346477,-9622.677246,-1184.329507,1838.629195
1181.346798,-9474.636058,-74.020594,1608.800546
1181.347119,-9622.677246,814.226536,766.095498
1181.347440,-9622.677246,1480.411884,153.219100
1181.347761,-9548.656652,1850.514855,0.000000
1181.348081,-9548.656652,1702.473667,0.000000
1181.348402,-9770.718434,1184.329507,0.000000
1181.348723,-10214.842000,592.164754,306.438199
1181.349044,-10288.862594,296.082377,76.609550
1181.349364,-10140.821405,222.061783,153.219100
1181.349685,-10140.821405,814.226536,76.609550
1181.350006,-9918.759623,1332.370696,-306.438199
1181.350327,-10214.842000,1998.556043,-383.047749
1181.350648,-9918.759623,1702.473667,0.000000
1181.350968,-9770.718434,962.267725,689.485948
1181.351289,-9844.739029,0.000000,919.314598
1181.351610,-9252.574275,-1924.535449,2834.553343
1181.351931,-9548.656652,-2220.617826,2298.286494
1181.352252,-9474.636058,-2812.782580,2987.772442
1181.352572,-9474.636058,-3256.906145,2911.162892
1181.352893,-8438.347739,-2738.761985,2298.286494
1181.353214,-8364.327145,-2146.597232,1378.971896
1181.353535,-8586.388927,-888.247130,1455.581446
1181.353855,-8586.388927,0.000000,1225.752797
1181.354176,-8882.471304,-148.041188,842.705048
1181.354497,-9696.697840,0.000000,1225.752797
1181.354818,-9622.677246,-740.205942,1072.533697
1181.355139,-9844.739029,-1036.288319,1225.752797
1181.355459,-10066.800811,-1332.370696,1532.190996
1181.355780,-10066.800811,-888.247130,1915.238745
1181.356101,-9770.718434,-962.267725,1072.533697
1181.356422,-9696.697840,-370.102971,919.314598
1181.356742,-9696.697840,0.000000,1225.752797
1181.357063,-9918.759623,-592.164754,1455.581446
1181.357384,-9622.677246,-1184.329507,1991.848295
1181.357705,-9696.697840,-2220.617826,1685.410096
1181.358026,-9844.739029,-2738.761985,2451.505594
1181.358346,-9622.677246,-3108.864956,2451.505594
1181.358667,-9622.677246,-3108.864956,2451.505594
1181.358988,-9326.594869,-2516.700203,1532.190996
1181.359309,-9474.636058,-1776.494261,919.314598
1181.359630,-9252.574275,-444.123565,1149.143247
1181.359950,-9178.553681,592.164754,536.266849
1181.360271,-9918.759623,666.185348,459.657299
1181.360592,-9844.739029,444.123565,383.047749
1181.360913,-9770.718434,-222.061783,306.438199
1181.361233,-10436.903782,-814.226536,306.438199
1181.361554,-10140.821405,-1110.308913,995.924147
1181.361875,-10214.842000,-1036.288319,459.657299
1181.362196,-9548.656652,-518.144159,229.828649
1181.362517,-9622.677246,74.020594,0.000000
1181.362837,-9474.636058,666.185348,612.876398
1181.363158,-9474.636058,740.205942,306.438199
1181.363479,-9622.677246,518.144159,612.876398
1181.363800,-9696.697840,148.041188,1378.971896
1181.364121,-9770.718434,0.000000,3140.991542
1181.364441,-9770.718434,-1702.473667,1915.238745
1181.364762,-9622.677246,-2072.576638,2145.067394
1181.365083,-9104.533087,-1776.494261,1608.800546
1181.365404,-9104.533087,-1036.288319,1302.362347
1181.365724,-9178.553681,370.102971,1225.752797
1181.366045,-9178.553681,814.226536,919.314598
1181.366366,-9104.533087,1036.288319,995.924147
1181.366687,-9400.615463,740.205942,842.705048
1181.367008,-9770.718434,148.041188,995.924147
1181.367328,-9770.718434,-222.061783,919.314598
1181.367649,-9770.718434,-222.061783,995.924147
1181.367970,-9918.759623,0.000000,689.485948
1181.368291,-10288.862594,1110.308913,-766.095498
1181.368611,-9918.759623,1998.556043,842.705048
1181.368932,-9992.780217,2146.597232,919.314598
1181.369253,-10288.862594,1998.556043,1149.143247
1181.369574,-10140.821405,1332.370696,919.314598
1181.369895,-9918.759623,148.041188,1762.019645
1181.370215,-10066.800811,-888.247130,2451.505594
1181.370536,-9770.718434,-2072.576638,2145.067394
1181.370857,-9474.636058,-2220.617826,1991.848295
1181.371178,-9548.656652,-1480.411884,1455.581446
1181.371499,-8956.491898,-666.185348,1378.971896
1181.371819,-9104.533087,222.061783,995.924147
1181.372140,-9400.615463,1332.370696,689.485948
1181.372461,-9770.718434,1554.432478,383.047749
1181.372782,-9770.718434,1110.308913,766.095498
1181.373102,-10066.800811,444.123565,612.876398
1181.373423,-10288.862594,-518.144159,612.876398
1181.373744,-10140.821405,-740.205942,689.485948
1181.374065,-9696.697840,-222.061783,306.438199
1181.374386,-10066.800811,296.082377,76.609550
1181.374706,-9622.677246,1036.288319,0.000000
1181.375027,-9400.615463,1480.411884,-383.047749
1181.375348,-9548.656652,1406.391290,-229.828649
1181.375669,-9548.656652,518.144159,306.438199
1181.375989,-10066.800811,0.000000,1532.190996
1181.376310,-9622.677246,-1554.432478,1302.362347
1181.376631,-9844.739029,-2368.659014,1762.019645
1181.376952,-9474.636058,-3034.844362,2298.286494
1181.377273,-8956.491898,-3330.926739,1838.629195
1181.377593,-8660.409521,-2220.617826,1225.752797
1181.377914,-8734.430116,-962.267725,2451.505594
1181.378235,-8438.347739,-296.082377,1149.143247
1181.378556,-8956.491898,74.020594,1072.533697
1181.378877,-9326.594869,-370.102971,766.095498
1181.379197,-9474.636058,0.000000,689.485948
1181.379518,-9844.739029,-1110.308913,842.705048
1181.379839,-10140.821405,-814.226536,1149.143247
1181.380160,-10214.842000,-740.205942,766.095498
1181.380480,-9918.759623,-370.102971,153.219100
1181.380801,-8586.388927,148.041188,76.609550
1181.381122,-9696.697840,296.082377,536.266849
1181.381443,-9696.697840,0.000000,766.095498
1181.381764,-9548.656652,0.000000,1225.752797
1181.382084,-9992.780217,-592.164754,1685.410096
1181.382405,-9992.780217,-1628.453072,2757.943793
1181.382726,-9918.759623,-2146.597232,2604.724693
1181.383047,-9696.697840,-2812.782580,2834.553343
1181.383368,-9474.636058,-2738.761985,2451.505594
1181.383688,-9474.636058,-2220.617826,1991.848295
1181.384009,-9030.512492,-1110.308913,1608.800546
1181.384330,-9474.636058,222.061783,1532.190996
1181.384651,-9474.636058,888.247130,1838.629195
1181.384971,-9474.636058,592.164754,842.705048
1181.385292,-9770.718434,222.061783,919.314598
1181.385613,-9992.780217,-518.144159,1302.362347
1181.385934,-10510.924376,-666.185348,1302.362347
1181.386255,-10066.800811,-814.226536,1302.362347
1181.386575,-9696.697840,-222.061783,459.657299
1181.386896,-9474.636058,592.164754,383.047749
1181.387217,-9548.656652,1406.391290,459.657299
1181.387538,-9548.656652,1184.329507,383.047749
1181.387858,-9696.697840,962.267725,536.266849
1181.388179,-9474.636058,222.061783,766.095498
1181.388500,-9622.677246,-444.123565,842.705048
1181.388821,-9474.636058,-1332.370696,1532.190996
1181.389142,-9548.656652,-2072.576638,2374.896044
1181.389462,-9030.512492,-2220.617826,1532.190996
1181.389783,-8956.491898,-1850.514855,1149.143247
1181.390104,-9030.512492,-666.185348,1072.533697
1181.390425,-9252.574275,370.102971,229.828649
1181.390746,-9326.594869,814.226536,306.438199
1181.391066,-9178.553681,1184.329507,229.828649
1181.391387,-9474.636058,1036.288319,306.438199
1181.391708,-10066.800811,370.102971,536.266849
1181.392029,-9992.780217,0.000000,536.266849
1181.392349,-10066.800811,-222.061783,153.219100
1181.392670,-9844.739029,222.061783,459.657299
1181.392991,-9770.718434,1036.288319,153.219100
1181.393312,-10066.800811,1924.535449,-1072.533697
1181.393633,-9844.739029,2072.576638,689.485948
1181.393953,-10066.800811,1776.494261,1072.533697
1181.394274,-10066.800811,888.247130,1608.800546
1181.394595,-10362.883188,0.000000,2221.676944
1181.394916,-9918.759623,-1258.350101,2451.505594
1181.395237,-9770.718434,-2368.659014,2528.115143
1181.395557,-9400.615463,-2442.679609,2068.457845
1181.395878,-9030.512492,-1924.535449,1838.629195
1181.396199,-8808.450710,-1110.308913,1378.971896
1181.396520,-8808.450710,444.123565,1072.533697
1181.396840,-9252.574275,1258.350101,689.485948
1181.397161,-9400.615463,1480.411884,842.705048
1181.397482,-9622.677246,1258.350101,1072.533697
1181.397803,-9844.739029,148.041188,612.876398
1181.398124,-10066.800811,-296.082377,459.657299
1181.398444,-10436.903782,-814.226536,766.095498
1181.398765,-9992.780217,-592.164754,1685.410096
1181.399086,-9548.656652,-74.020594,612.876398
1181.399407,-9696.697840,592.164754,383.047749
1181.399727,-9622.677246,888.247130,1072.533697
1181.400048,-9622.677246,814.226536,1072.533697
1181.400369,-9252.574275,74.020594,919.314598
1181.400690,-9474.636058,-666.185348,1455.581446
1181.401011,-9474.636058,-1924.535449,1838.629195
1181.401331,-9400.615463,-2886.803174,2451.505594
1181.401652,-8586.388927,-2960.823768,2298.286494
1181.401973,-9030.512492,-3256.906145,1991.848295
1181.402294,-8808.450710,-1924.535449,1685.410096
1181.402615,-9178.553681,-1036.288319,1455.581446
1181.402935,-9178.553681,888.247130,2451.505594
1181.403256,-9474.636058,74.020594,766.095498
1181.403577,-9474.636058,74.020594,229.828649
1181.403898,-9770.718434,-148.041188,689.485948
1181.404218,-9918.759623,-888.247130,766.095498
1181.404539,-9622.677246,-518.144159,1302.362347
1181.404860,-9992.780217,-518.144159,536.266849
1181.405181,-9622.677246,222.061783,229.828649
1181.405502,-9770.718434,518.144159,0.000000
1181.405822,-9770.718434,1184.329507,0.000000
1181.406143,-9992.780217,962.267725,689.485948
1181.406464,-9918.759623,370.102971,766.095498
1181.406785,-9770.718434,-740.205942,1762.019645
1181.407105,-9622.677246,-1998.556043,1685.410096
1181.407426,-9992.780217,-2960.823768,2145.067394
1181.407747,-9400.615463,-2738.761985,2068.457845
1181.408068,-9252.574275,-2812.782580,1838.629195
1181.408389,-9178.553681,-1924.535449,1072.533697
1181.408709,-9030.512492,-814.226536,842.705048
1181.409030,-9252.574275,370.102971,1072.533697
1181.409351,-9474.636058,888.247130,995.924147
1181.409672,-9622.677246,814.226536,689.485948
1181.409993,-9696.697840,592.164754,1762.019645
1181.410313,-10066.800811,-518.144159,459.657299
1181.410634,-10288.862594,-296.082377,612.876398
1181.410955,-10066.800811,-222.061783,536.266849
1181.411276,-9770.718434,444.123565,995.924147
1181.411596,-9548.656652,1110.308913,0.000000
1181.411917,-9622.677246,1628.453072,306.438199
1181.412238,-9696.697840,1554.432478,766.095498
1181.412559,-9844.739029,1036.288319,689.485948
1181.412880,-9918.759623,0.000000,1302.362347
1181.413200,-9844.739029,-814.226536,2068.457845
1181.413521,-9992.780217,-1850.514855,2681.334243
1181.413842,-9696.697840,-2442.679609,2834.553343
1181.414163,-8808.450710,-2960.823768,2298.286494
1181.414484,-8882.471304,-2220.617826,2145.067394
1181.414804,-8956.491898,-370.102971,1455.581446
1181.415125,-8882.471304,74.020594,1302.362347
1181.415446,-8956.491898,518.144159,1225.752797
1181.415767,-9252.574275,592.164754,842.705048
1181.416087,-9474.636058,518.144159,76.609550
1181.416408,-9622.677246,0.000000,689.485948
1181.416729,-9918.759623,-148.041188,995.924147
1181.417050,-9992.780217,222.061783,229.828649
1181.417371,-9770.718434,222.061783,0.000000
1181.417691,-9696.697840,444.123565,0.000000
1181.418012,-9622.677246,1036.288319,153.219100
1181.418333,-9918.759623,296.082377,1225.752797
1181.418654,-9622.677246,370.102971,919.314598
1181.418974,-9992.780217,-296.082377,1072.533697
1181.419295,-9918.759623,-1332.370696,1915.238745
1181.419616,-9548.656652,-2442.679609,2068.457845
1181.419937,-9400.615463,-3034.844362,2145.067394
1181.420258,-9474.636058,-3034.844362,1915.238745
1181.420578,-8956.491898,-1850.514855,1149.143247
1181.420899,-9178.553681,-222.061783,995.924147
1181.421220,-9474.636058,740.205942,0.000000
1181.421540,-9400.615463,1406.391290,536.266849
1181.421861,-9548.656652,962.267725,229.828649
1181.422181,-10066.800811,370.102971,383.047749
1181.422502,-10140.821405,0.000000,383.047749
1181.422822,-10288.862594,-1036.288319,76.609550
1181.423143,-10066.800811,-962.267725,-153.219100
1181.423463,-10140.821405,-518.144159,-153.219100
1181.423784,-9770.718434,0.000000,-306.438199
1181.424104,-10066.800811,740.205942,-919.314598
1181.424424,-9844.739029,1110.308913,0.000000
1181.424745,-9992.780217,814.226536,153.219100
1181.425065,-9770.718434,74.020594,153.219100
1181.425386,-9918.759623,-1036.288319,1225.752797
1181.425706,-9252.574275,-2294.638420,1915.238745
1181.426027,-9474.636058,-2886.803174,1915.238745
1181.426347,-9548.656652,-2738.761985,1915.238745
1181.426668,-8882.471304,-2220.617826,1378.971896
1181.426988,-9178.553681,-666.185348,766.095498
1181.427308,-8956.491898,0.000000,1072.533697
1181.427629,-9030.512492,518.144159,1225.752797
1181.427949,-9178.553681,444.123565,1225.752797
1181.428270,-9326.594869,740.205942,689.485948
1181.428590,-9400.615463,0.000000,1455.581446
1181.428911,-9992.780217,-222.061783,1762.019645
1181.429231,-9844.739029,-592.164754,1915.238745
1181.429552,-10066.800811,-296.082377,1608.800546
1181.429872,-9770.718434,0.000000,689.485948
1181.430192,-9474.636058,814.226536,1149.143247
1181.430513,-9770.718434,1480.411884,1302.362347
1181.430833,-9992.780217,1184.329507,1532.190996
1181.431154,-9400.615463,1850.514855,2911.162892
1181.431474,-9770.718434,-814.226536,2145.067394
1181.431795,-9918.759623,-1850.514855,2451.505594
1181.432115,-9622.677246,-2664.741391,3064.381992
1181.432436,-9474.636058,-2960.823768,4596.572988
1181.432756,-9326.594869,-2590.720797,2298.286494
1181.433076,-8808.450710,-1110.308913,1455.581446
1181.433397,-9104.533087,0.000000,766.095498
1181.433717,-9104.533087,1036.288319,1072.533697
1181.434038,-9474.636058,1184.329507,919.314598
1181.434358,-9770.718434,666.185348,689.485948
1181.434679,-9770.718434,0.000000,306.438199
1181.434999,-9992.780217,-518.144159,76.609550
1181.435320,-10362.883188,0.000000,-383.047749
1181.435640,-10066.800811,0.000000,76.609550
1181.435960,-9918.759623,592.164754,-229.828649
1181.436281,-10066.800811,1110.308913,76.609550
1181.436601,-10140.821405,1998.556043,1149.143247
1181.436922,-10362.883188,1258.350101,306.438199
1181.437242,-10066.800811,592.164754,842.705048
1181.437563,-9844.739029,-148.041188,1225.752797
1181.437883,-9918.759623,-740.205942,1608.800546
1181.438204,-9474.636058,-1850.514855,1072.533697
1181.438524,-9178.553681,-2590.720797,1838.629195
1181.438844,-8882.471304,-2294.638420,1072.533697
1181.439165,-8882.471304,-1110.308913,689.485948
1181.439485,-9104.533087,962.267725,536.266849
1181.439806,-9104.533087,1110.308913,383.047749
1181.440126,-9178.553681,1036.288319,383.047749
1181.440447,-9696.697840,740.205942,153.219100
1181.440767,-9770.718434,666.185348,383.047749
1181.441088,-10066.800811,-814.226536,459.657299
1181.441408,-9992.780217,-814.226536,229.828649
1181.441728,-9992.780217,0.000000,383.047749
1181.442049,-9992.780217,444.123565,612.876398
1181.442369,-9622.677246,1110.308913,689.485948
1181.442690,-9548.656652,1258.350101,689.485948
1181.443010,-9548.656652,666.185348,1225.752797
1181.443331,-9770.718434,74.020594,1838.629195
1181.443651,-10066.800811,-888.247130,2374.896044
1181.443972,-9548.656652,-2442.679609,2834.553343
1181.444292,-9252.574275,-3330.926739,2834.553343
1181.444612,-9178.553681,-3478.967927,3217.601092
1181.444933,-9178.553681,-1998.556043,3907.087040
1181.445253,-8882.471304,-2072.576638,2604.724693
1181.445574,-8660.409521,-666.185348,1608.800546
1181.445894,-9104.533087,666.185348,1532.190996
1181.446215,-9474.636058,1110.308913,1608.800546
1181.446535,-9548.656652,888.247130,1685.410096
1181.446856,-9844.739029,222.061783,1532.190996
1181.447176,-9770.718434,-740.205942,1072.533697
1181.447496,-10140.821405,-888.247130,1455.581446
1181.447817,-10214.842000,-1554.432478,1072.533697
1181.448137,-9844.739029,-222.061783,919.314598
1181.448458,-9696.697840,666.185348,383.047749
1181.448778,-9622.677246,1776.494261,612.876398
1181.449099,-9770.718434,1110.308913,-612.876398
1181.449419,-10214.842000,592.164754,995.924147
1181.449740,-9918.759623,0.000000,1378.971896
1181.450060,-10140.821405,-962.267725,1302.362347
1181.450380,-9918.759623,-1554.432478,1838.629195
1181.450701,-9696.697840,-2220.617826,1838.629195
1181.451021,-9252.574275,-2220.617826,1455.581446
1181.451342,-9104.533087,-1628.453072,1072.533697
1181.451662,-8956.491898,-740.205942,689.485948
1181.451983,-9474.636058,-296.082377,842.705048
1181.452303,-9474.636058,296.082377,459.657299
1181.452624,-9326.594869,222.061783,229.828649
1181.452944,-9326.594869,-370.102971,0.000000
1181.453264,-9696.697840,-592.164754,1072.533697
1181.453585,-10140.821405,-888.247130,459.657299
1181.453905,-9770.718434,-814.226536,536.266849
1181.454226,-9918.759623,-296.082377,0.000000
1181.454546,-9696.697840,74.020594,0.000000
1181.454867,-9326.594869,592.164754,0.000000
1181.455187,-9622.677246,1036.288319,383.047749
1181.455508,-9474.636058,814.226536,612.876398
1181.455828,-9474.636058,518.144159,1532.190996
1181.456148,-9548.656652,-518.144159,1838.629195
1181.456469,-9548.656652,-1702.473667,2451.505594
1181.456789,-9622.677246,-2590.720797,2451.505594
1181.457110,-9326.594869,-2368.659014,2451.505594
1181.457430,-9178.553681,-1554.432478,2145.067394
1181.457751,-8882.471304,-222.061783,1532.190996
1181.458071,-9104.533087,814.226536,1225.752797
1181.458392,-9326.594869,888.247130,1225.752797
1181.458712,-9474.636058,888.247130,995.924147
1181.459032,-9918.759623,0.000000,612.876398
1181.459353,-9844.739029,-148.041188,766.095498
1181.459673,-10140.821405,-444.123565,766.095498
1181.459994,-9992.780217,0.000000,612.876398
1181.460314,-9918.759623,592.164754,842.705048
1181.460635,-9696.697840,1110.308913,153.219100
1181.460955,-9918.759623,1480.411884,306.438199
1181.461276,-10288.862594,1776.494261,766.095498
1181.461596,-10955.047942,1480.411884,536.266849
1181.461916,-9770.718434,518.144159,1225.752797
1181.462237,-9918.759623,-592.164754,2221.676944
1181.462557,-9548.656652,-2072.576638,2145.067394
1181.462878,-9474.636058,-2812.782580,2298.286494
1181.463198,-9326.594869,-2886.803174,2145.067394
1181.463519,-9178.553681,-2146.597232,1685.410096
1181.463839,-9030.512492,-592.164754,1302.362347
1181.464160,-9400.615463,592.164754,1532.190996
1181.464480,-8438.347739,814.226536,1532.190996
1181.464800,-9326.594869,296.082377,536.266849
1181.465121,-9400.615463,0.000000,612.876398
1181.465441,-9548.656652,-444.123565,459.657299
1181.465762,-9548.656652,-1036.288319,1685.410096
1181.466082,-9696.697840,-740.205942,153.219100
1181.466403,-9918.759623,0.000000,-153.219100
1181.466723,-9474.636058,666.185348,0.000000
1181.467044,-9474.636058,1258.350101,-229.828649
1181.467364,-9992.780217,962.267725,229.828649
1181.467684,-9918.759623,666.185348,919.314598
1181.468005,-9770.718434,-148.041188,995.924147
1181.468325,-9474.636058,-1184.329507,1302.362347
1181.468646,-9770.718434,-2072.576638,2068.457845
1181.468966,-9400.615463,-2738.761985,1915.238745
1181.469287,-8734.430116,-2738.761985,1762.019645
1181.469607,-8956.491898,-2368.659014,1915.238745
1181.469928,-9474.636058,-888.247130,612.876398
1181.470248,-9252.574275,-222.061783,766.095498
1181.470568,-9178.553681,740.205942,766.095498
1181.470889,-9400.615463,814.226536,536.266849
1181.471209,-9622.677246,592.164754,919.314598
1181.471530,-9696.697840,0.000000,919.314598
1181.471850,-10214.842000,-444.123565,766.095498
1181.472171,-10436.903782,-444.123565,919.314598
1181.472491,-10288.862594,0.000000,536.266849
1181.472812,-10510.924376,518.144159,612.876398
1181.473132,-9918.759623,814.226536,383.047749
1181.473452,-9992.780217,1110.308913,766.095498
1181.473773,-9992.780217,666.185348,1072.533697
1181.474093,-10066.800811,0.000000,1225.752797
1181.474414,-9770.718434,-888.247130,2145.067394
1181.474734,-9992.780217,-1628.453072,2374.896044
1181.475055,-9770.718434,-1998.556043,2681.334243
1181.475375,-9622.677246,-2368.659014,2681.334243
1181.475696,-8660.409521,-1258.350101,766.095498
1181.476016,-9104.533087,-1036.288319,1608.800546
1181.476337,-9326.594869,0.000000,1302.362347
1181.476657,-9400.615463,296.082377,1532.190996
1181.476977,-9326.594869,296.082377,919.314598
1181.477298,-8808.450710,0.000000,0.000000
1181.477618,-9252.574275,444.123565,76.609550
1181.477939,-9548.656652,0.000000,229.828649
1181.478259,-9548.656652,-296.082377,153.219100
1181.478580,-8956.491898,-370.102971,-306.438199
1181.478900,-9622.677246,74.020594,0.000000
1181.479221,-9696.697840,518.144159,0.000000
1181.479541,-10140.821405,666.185348,536.266849
1181.479861,-9918.759623,740.205942,766.095498
1181.480182,-9548.656652,296.082377,1072.533697
1181.480502,-9992.780217,0.000000,1762.019645
1181.480823,-9548.656652,-1628.453072,2145.067394
1181.481143,-9474.636058,-2516.700203,1991.848295
1181.481464,-9178.553681,-2072.576638,3370.820191
1181.481784,-9104.533087,-2220.617826,1762.019645
1181.482105,-9030.512492,-1332.370696,1072.533697
1181.482425,-8882.471304,0.000000,1149.143247
1181.482745,-9326.594869,518.144159,995.924147
1181.483066,-9548.656652,888.247130,689.485948
1181.483386,-9622.677246,0.000000,995.924147
1181.483707,-9918.759623,-518.144159,842.705048
1181.484027,-9844.739029,-740.205942,689.485948
1181.484348,-10362.883188,-518.144159,766.095498
1181.484668,-9918.759623,0.000000,459.657299
1181.484989,-9770.718434,444.123565,153.219100
1181.485309,-10066.800811,666.185348,76.609550
1181.485629,-9400.615463,1036.288319,-689.485948
1181.485950,-10066.800811,1332.370696,459.657299
1181.486270,-10066.800811,962.267725,919.314598
1181.486591,-9844.739029,148.041188,1378.971896
1181.486911,-10288.862594,-888.247130,2221.676944
1181.487232,-9548.656652,-1776.494261,2298.286494
1181.487552,-9844.739029,-2664.741391,2298.286494
1181.487873,-9178.553681,-2516.700203,1608.800546
1181.488193,-9178.553681,-1480.411884,1838.629195
1181.488513,-9252.574275,-222.061783,1302.362347
1181.488834,-9178.553681,592.164754,1302.362347
1181.489154,-9030.512492,592.164754,919.314598
1181.489475,-9178.553681,74.020594,689.485948
1181.489795,-9622.677246,0.000000,1685.410096
1181.490116,-9992.780217,-740.205942,766.095498
1181.490436,-9844.739029,-592.164754,995.924147
1181.490757,-9992.780217,-592.164754,766.095498
1181.491077,-10066.800811,222.061783,919.314598
1181.491397,-9770.718434,370.102971,536.266849
1181.491718,-9622.677246,740.205942,459.657299
1181.492038,-9696.697840,888.247130,383.047749
1181.492359,-9918.759623,666.185348,1149.143247
1181.492679,-9474.636058,0.000000,2374.896044
1181.493000,-9548.656652,-1332.370696,2145.067394
1181.493320,-9548.656652,-2146.597232,2298.286494
1181.493641,-9474.636058,-3108.864956,2145.067394
1181.493961,-9030.512492,-1258.350101,1915.238745
1181.494281,-9030.512492,-2072.576638,1378.971896
1181.494602,-8734.430116,-666.185348,995.924147
1181.494922,-9326.594869,740.205942,612.876398
1181.495243,-9326.594869,1258.350101,919.314598
1181.495563,-9474.636058,1332.370696,536.266849
1181.495884,-9844.739029,370.102971,842.705048
1181.496204,-9992.780217,-74.020594,536.266849
1181.496525,-10436.903782,-518.144159,842.705048
1181.496845,-10140.821405,-148.041188,766.095498
1181.497165,-10140.821405,0.000000,383.047749
1181.497486,-9770.718434,740.205942,76.609550
1181.497806,-9770.718434,1776.494261,76.609550
1181.498127,-9992.780217,1702.473667,995.924147
1181.498447,-10214.842000,1480.411884,766.095498
1181.498768,-9770.718434,518.144159,1149.143247
1181.499088,-9918.759623,-740.205942,1532.190996
1181.499409,-9622.677246,-1406.391290,536.266849
1181.499729,-9696.697840,-2368.659014,2757.943793
1181.500049,-9252.574275,-2886.803174,2604.724693
1181.500370,-9030.512492,-2368.659014,2145.067394
1181.500690,-9252.574275,-1036.288319,1685.410096
1181.501011,-8956.491898,-222.061783,1149.143247
1181.501331,-8660.409521,222.061783,1225.752797
1181.501652,-8956.491898,148.041188,766.095498
1181.501972,-9104.533087,74.020594,383.047749
1181.502293,-9622.677246,814.226536,459.657299
1181.502613,-9844.739029,-666.185348,1225.752797
1181.502933,-9622.677246,-666.185348,842.705048
1181.503254,-9770.718434,-222.061783,383.047749
1181.503574,-9252.574275,1110.308913,1378.971896
1181.503895,-9474.636058,666.185348,459.657299
1181.504215,-9474.636058,592.164754,459.657299
1181.504536,-9474.636058,592.164754,842.705048
1181.504856,-9622.677246,0.000000,1455.581446
1181.505177,-9548.656652,-962.267725,2298.286494
1181.505497,-9696.697840,-2220.617826,2451.505594
1181.505817,-9548.656652,-2886.803174,2604.724693
1181.506138,-9622.677246,-2886.803174,2298.286494
1181.506458,-9474.636058,-2368.659014,1532.190996
1181.506779,-9030.512492,-962.267725,919.314598
1181.507099,-9178.553681,296.082377,766.095498
1181.507420,-9474.636058,1184.329507,1072.533697
1181.507740,-9474.636058,666.185348,1762.019645
1181.508061,-9770.718434,296.082377,689.485948
1181.508381,-9844.739029,-148.041188,536.266849
1181.508701,-10066.800811,-370.102971,842.705048
1181.509022,-10436.903782,-518.144159,1072.533697
1181.509342,-9918.759623,-666.185348,919.314598
1181.509663,-9622.677246,-296.082377,76.609550
1181.509983,-9696.697840,1110.308913,0.000000
1181.510304,-10362.883188,962.267725,689.485948
1181.510624,-9918.759623,814.226536,1685.410096
1181.510945,-10066.800811,666.185348,1072.533697
1181.511265,-9844.739029,74.020594,919.314598
1181.511585,-10214.842000,-888.247130,1378.971896
1181.511906,-9696.697840,-1406.391290,2145.067394
1181.512226,-9844.739029,-2368.659014,2757.943793
1181.512547,-8882.471304,-2368.659014,1532.190996
1181.512867,-9178.553681,-1850.514855,1302.362347
1181.513188,-8734.430116,-592.164754,842.705048
1181.513508,-8586.388927,222.061783,842.705048
1181.513829,-9400.615463,592.164754,689.485948
1181.514149,-9178.553681,814.226536,383.047749
1181.514469,-9770.718434,-148.041188,383.047749
1181.514790,-9992.780217,-740.205942,919.314598
1181.515110,-9992.780217,-888.247130,919.314598
1181.515431,-10066.800811,-592.164754,919.314598
1181.515751,-9918.759623,370.102971,766.095498
1181.516072,-9178.553681,1332.370696,1378.971896
1181.516392,-9474.636058,1924.535449,459.657299
1181.516713,-9548.656652,1628.453072,612.876398
1181.517033,-9622.677246,1036.288319,842.705048
1181.517353,-9548.656652,-222.061783,1455.581446
1181.517674,-9474.636058,-1406.391290,1762.019645
1181.517994,-9548.656652,-2590.720797,2451.505594
1181.518315,-9326.594869,-3034.844362,2374.896044
1181.518635,-9400.615463,-2664.741391,2221.676944
1181.518956,-9326.594869,-888.247130,1838.629195
1181.519276,-9400.615463,296.082377,1532.190996
1181.519597,-9474.636058,1036.288319,1072.533697
1181.519917,-9400.615463,1406.391290,1378.971896
1181.520237,-9918.759623,0.000000,306.438199
1181.520558,-9844.739029,148.041188,766.095498
1181.520878,-9770.718434,-444.123565,995.924147
1181.521199,-10214.842000,-1036.288319,1225.752797
1181.521519,-9696.697840,-740.205942,1072.533697
1181.521840,-9992.780217,74.020594,612.876398
1181.522160,-10066.800811,592.164754,766.095498
1181.522481,-9622.677246,1332.370696,766.095498
1181.522801,-9770.718434,1332.370696,612.876398
1181.523121,-9474.636058,888.247130,766.095498
1181.523442,-9770.718434,444.123565,1302.362347
1181.523762,-9696.697840,-740.205942,1685.410096
1181.524083,-9474.636058,-2072.576638,2145.067394
1181.524404,-9696.697840,-3108.864956,3217.601092
1181.524724,-9178.553681,-3108.864956,1378.971896
1181.525045,-8734.430116,-1850.514855,689.485948
1181.525366,-8882.471304,-518.144159,536.266849
1181.525686,-8808.450710,444.123565,536.266849
1181.526007,-8956.491898,74.020594,0.000000
1181.526328,-9178.553681,74.020594,153.219100
1181.526648,-9400.615463,-518.144159,-306.438199
1181.526969,-9992.780217,-1110.308913,306.438199
1181.527290,-10066.800811,-1258.350101,383.047749
1181.527610,-10214.842000,-962.267725,459.657299
1181.527931,-9844.739029,74.020594,0.000000
1181.528252,-9918.759623,1110.308913,0.000000
1181.528572,-9918.759623,1850.514855,383.047749
1181.528893,-9770.718434,1258.350101,919.314598
1181.529214,-9696.697840,518.144159,842.705048
1181.529534,-9252.574275,-444.123565,1072.533697
1181.529855,-9548.656652,-1480.411884,1838.629195
1181.530176,-9622.677246,-2294.638420,2604.724693
1181.530497,-9400.615463,-3256.906145,2681.334243
1181.530817,-9474.636058,-3256.906145,2451.505594
1181.531138,-9030.512492,-2368.659014,1991.848295
1181.531459,-9548.656652,-740.205942,2068.457845
1181.531779,-9548.656652,222.061783,1685.410096
1181.532100,-9474.636058,1036.288319,1608.800546
1181.532421,-9400.615463,888.247130,1225.752797
1181.532741,-9770.718434,148.041188,612.876398
1181.533062,-9992.780217,-444.123565,1149.143247
1181.533383,-10288.862594,-1184.329507,1302.362347
1181.533703,-10066.800811,-814.226536,919.314598
1181.534024,-9622.677246,-370.102971,612.876398
1181.534345,-9474.636058,518.144159,766.095498
1181.534665,-9770.718434,814.226536,536.266849
1181.534986,-9696.697840,1036.288319,1149.143247
1181.535307,-9844.739029,444.123565,842.705048
1181.535627,-10288.862594,444.123565,995.924147
1181.535948,-10066.800811,-370.102971,2145.067394
1181.536269,-10066.800811,-1258.350101,2987.772442
1181.536589,-9696.697840,-1702.473667,2757.943793
1181.536910,-9326.594869,-2072.576638,1915.238745
1181.537231,-9178.553681,-1850.514855,1991.848295
1181.537551,-9030.512492,-888.247130,1302.362347
1181.537872,-9178.553681,-222.061783,1302.362347
1181.538193,-9030.512492,296.082377,459.657299
1181.538513,-8882.471304,370.102971,459.657299
1181.538834,-9178.553681,222.061783,0.000000
1181.539155,-9474.636058,0.000000,306.438199
1181.539475,-10066.800811,-74.020594,612.876398
1181.539796,-10066.800811,74.020594,306.438199
1181.540117,-10066.800811,370.102971,459.657299
1181.540437,-10066.800811,814.226536,536.266849
1181.540758,-9696.697840,1406.391290,76.609550
1181.541079,-9178.553681,1406.391290,-383.047749
1181.541399,-9622.677246,1332.370696,459.657299
1181.541720,-9548.656652,666.185348,612.876398
1181.542041,-9474.636058,-296.082377,919.314598
1181.542361,-9474.636058,-1480.411884,1685.410096
1181.542682,-9252.574275,-2368.659014,1838.629195
1181.543003,-9474.636058,-2368.659014,1762.019645
1181.543323,-9030.512492,-1924.535449,1378.971896
1181.543644,-9030.512492,-1110.308913,1225.752797
1181.543965,-9030.512492,0.000000,1149.143247
1181.544285,-9178.553681,962.267725,919.314598
1181.544606,-9622.677246,1110.308913,919.314598
1181.544927,-9770.718434,444.123565,689.485948
1181.545247,-9770.718434,0.000000,842.705048
1181.545568,-10066.800811,-592.164754,536.266849
1181.545889,-9992.780217,-666.185348,383.047749
1181.546209,-9622.677246,-592.164754,383.047749
1181.546530,-9770.718434,222.061783,0.000000
1181.546851,-9474.636058,1110.308913,229.828649
1181.547172,-9918.759623,1850.514855,459.657299
1181.547492,-9844.739029,1628.453072,995.924147
1181.547813,-10066.800811,962.267725,1302.362347
1181.548134,-10288.862594,-148.041188,2298.286494
1181.548454,-9992.780217,-1406.391290,2451.505594
1181.548775,-9918.759623,-2294.638420,3064.381992
1181.549096,-9696.697840,-2738.761985,3294.210641
1181.549416,-9474.636058,-2220.617826,1991.848295
1181.549737,-8808.450710,-1702.473667,1378.971896
1181.550058,-9030.512492,0.000000,1378.971896
1181.550378,-9104.533087,592.164754,1455.581446
1181.550699,-9104.533087,0.000000,1302.362347
1181.551020,-9030.512492,-296.082377,459.657299
1181.551340,-9400.615463,-592.164754,0.000000
1181.551661,-9770.718434,-888.247130,383.047749
1181.551982,-10140.821405,-814.226536,689.485948
1181.552302,-9844.739029,-296.082377,842.705048
1181.552623,-9770.718434,0.000000,383.047749
1181.552944,-9844.739029,370.102971,306.438199
1181.553264,-9844.739029,592.164754,536.266849
1181.553585,-9770.718434,518.144159,689.485948
1181.553906,-9622.677246,222.061783,1225.752797
1181.554226,-9548.656652,-370.102971,1378.971896
1181.554547,-9474.636058,-1406.391290,1915.238745
1181.554868,-9474.636058,-1998.556043,2298.286494
1181.555188,-9252.574275,-2368.659014,2298.286494
1181.555509,-9326.594869,-2516.700203,1532.190996
1181.555830,-8808.450710,-1776.494261,1378.971896
1181.556150,-8956.491898,-592.164754,766.095498
1181.556471,-9030.512492,444.123565,1991.848295
1181.556792,-9696.697840,666.185348,1302.362347
1181.557112,-9770.718434,444.123565,995.924147
1181.557433,-10066.800811,0.000000,1378.971896
1181.557754,-10362.883188,-814.226536,1225.752797
1181.558074,-10584.944971,-740.205942,919.314598
1181.558395,-10066.800811,-888.247130,1072.533697
1181.558716,-9918.759623,-444.123565,0.000000
1181.559036,-9696.697840,444.123565,-459.657299
1181.559357,-9770.718434,1258.350101,76.609550
1181.559678,-9992.780217,1480.411884,0.000000
1181.559998,-10140.821405,1184.329507,536.266849
1181.560319,-9918.759623,74.020594,1378.971896
1181.560640,-9104.533087,-1702.473667,2528.115143
1181.560960,-9696.697840,-1628.453072,2374.896044
1181.561281,-9696.697840,-2368.659014,2757.943793
1181.561602,-9252.574275,-2294.638420,1915.238745
1181.561922,-8882.471304,-2220.617826,76.609550
1181.562243,-8882.471304,-370.102971,919.314598
1181.562564,-8882.471304,888.247130,1149.143247
1181.562884,-9252.574275,1036.288319,995.924147
1181.563205,-9030.512492,888.247130,766.095498
1181.563526,-9474.636058,666.185348,459.657299
1181.563847,-9770.718434,592.164754,842.705048
1181.564167,-9992.780217,0.000000,919.314598
1181.564488,-10066.800811,0.000000,1302.362347
1181.564809,-9622.677246,444.123565,1685.410096
1181.565129,-9770.718434,814.226536,919.314598
1181.565450,-9696.697840,1924.535449,612.876398
1181.565771,-9548.656652,1332.370696,689.485948
1181.566091,-9622.677246,518.144159,306.438199
1181.566412,-9622.677246,148.041188,1532.190996
1181.566733,-9474.636058,-1258.350101,1915.238745
1181.567053,-9474.636058,-2738.761985,2374.896044
1181.567374,-9326.594869,-3404.947333,2221.676944
1181.567695,-9326.594869,-3108.864956,2374.896044
1181.568015,-9178.553681,-2220.617826,1608.800546
1181.568336,-8956.491898,-1110.308913,919.314598
1181.568657,-8882.471304,222.061783,766.095498
1181.568977,-9400.615463,1110.308913,842.705048
1181.569298,-9696.697840,592.164754,919.314598
1181.569619,-9474.636058,0.000000,919.314598
1181.569939,-9770.718434,-666.185348,229.828649
1181.570260,-9844.739029,-74.020594,-995.924147
1181.570581,-9992.780217,-888.247130,689.485948
1181.570901,-9844.739029,-370.102971,536.266849
1181.571222,-9770.718434,518.144159,306.438199
1181.571543,-9770.718434,962.267725,306.438199
1181.571863,-9770.718434,814.226536,383.047749
1181.572184,-10066.800811,0.000000,842.705048
1181.572505,-9844.739029,-296.082377,1072.533697
1181.572825,-9992.780217,-962.267725,1455.581446
1181.573146,-10288.862594,-1480.411884,1991.848295
1181.573467,-9770.718434,-2220.617826,2451.505594
1181.573787,-9622.677246,-2442.679609,2451.505594
1181.574108,-9400.615463,-2072.576638,1685.410096
1181.574429,-8364.327145,-1406.391290,1915.238745
1181.574749,-9326.594869,-296.082377,1149.143247
1181.575070,-8956.491898,74.020594,306.438199
1181.575391,-9252.574275,74.020594,76.609550
1181.575711,-9400.615463,0.000000,0.000000
1181.576032,-9474.636058,-370.102971,0.000000
1181.576353,-9992.780217,-1036.288319,153.219100
1181.576673,-9992.780217,-1036.288319,459.657299
1181.576994,-10066.800811,-814.226536,229.828649
1181.577315,-9992.780217,222.061783,0.000000
1181.577635,-9548.656652,666.185348,459.657299
1181.577956,-9622.677246,518.144159,229.828649
1181.578277,-9696.697840,518.144159,842.705048
1181.578597,-9918.759623,814.226536,995.924147
1181.578918,-9548.656652,-962.267725,1915.238745
1181.579239,-9474.636058,-1998.556043,2298.286494
1181.579559,-9326.594869,-2960.823768,2834.553343
1181.579880,-9178.553681,-2886.803174,3064.381992
1181.580201,-9178.553681,-2294.638420,2221.676944
1181.580522,-8882.471304,-1110.308913,1838.629195
1181.580842,-8734.430116,74.020594,1838.629195
1181.581163,-9400.615463,962.267725,1532.190996
1181.581484,-9178.553681,1184.329507,1455.581446
1181.581804,-9474.636058,1036.288319,919.314598
1181.582125,-9696.697840,740.205942,842.705048
1181.582446,-10214.842000,444.123565,1225.752797
1181.582766,-10658.965565,-444.123565,306.438199
1181.583087,-10140.821405,-370.102971,766.095498
1181.583408,-9622.677246,518.144159,153.219100
1181.583728,-10066.800811,814.226536,229.828649
1181.584049,-9474.636058,1036.288319,-536.266849
1181.584370,-9770.718434,1184.329507,459.657299
1181.584690,-9474.636058,962.267725,689.485948
1181.585011,-9844.739029,444.123565,1149.143247
1181.585332,-10066.800811,-666.185348,2145.067394
1181.585652,-10214.842000,-1924.535449,2374.896044
1181.585973,-9696.697840,-2368.659014,2374.896044
1181.586294,-9548.656652,-2146.597232,2145.067394
1181.586614,-9178.553681,-1406.391290,1378.971896
1181.586935,-9178.553681,-444.123565,1991.848295
1181.587256,-9178.553681,222.061783,919.314598
1181.587576,-9104.533087,370.102971,383.047749
1181.587897,-9252.574275,148.041188,76.609550
1181.588218,-9548.656652,-370.102971,229.828649
1181.588538,-10140.821405,0.000000,842.705048
1181.588859,-10140.821405,0.000000,919.314598
1181.589180,-10066.800811,0.000000,612.876398
1181.589500,-10140.821405,0.000000,306.438199
1181.589821,-9770.718434,148.041188,0.000000
1181.590142,-9918.759623,666.185348,0.000000
1181.590462,-9918.759623,962.267725,536.266849
1181.590783,-9474.636058,814.226536,689.485948
1181.591104,-10066.800811,0.000000,1149.143247
1181.591424,-9400.615463,-1036.288319,1915.238745
1181.591745,-9474.636058,-2368.659014,2221.676944
1181.592066,-9326.594869,-2886.803174,2145.067394
1181.592386,-9030.512492,-2664.741391,1991.848295
1181.592707,-9030.512492,-2368.659014,1225.752797
1181.593028,-8586.388927,-740.205942,1378.971896
1181.593348,-9252.574275,370.102971,919.314598
1181.593669,-9252.574275,888.247130,842.705048
1181.593990,-9548.656652,740.205942,919.314598
1181.594310,-9622.677246,0.000000,995.924147
1181.594631,-9696.697840,-444.123565,536.266849
1181.594952,-10214.842000,-814.226536,919.314598
1181.595272,-10658.965565,0.000000,1378.971896
1181.595593,-9918.759623,0.000000,153.219100
1181.595914,-9918.759623,518.144159,536.266849
1181.596235,-9770.718434,1258.350101,612.876398
1181.596555,-9918.759623,2368.659014,2298.286494
1181.596876,-10066.800811,814.226536,1149.143247
1181.597197,-9770.718434,74.020594,1762.019645
1181.597517,-10066.800811,-1036.288319,2298.286494
1181.597838,-9770.718434,-1776.494261,2757.943793
1181.598159,-9622.677246,-2442.679609,2911.162892
1181.598479,-9400.615463,-2664.741391,2451.505594
1181.598800,-9252.574275,-1998.556043,2221.676944
1181.599121,-9400.615463,-740.205942,1838.629195
1181.599441,-9326.594869,74.020594,2068.457845
1181.599762,-9326.594869,740.205942,1302.362347
1181.600083,-9104.533087,370.102971,995.924147
1181.600403,-9400.615463,0.000000,229.828649
1181.600724,-9548.656652,-666.185348,0.000000
1181.601045,-9918.759623,-814.226536,383.047749
1181.601365,-10066.800811,-592.164754,766.095498
1181.601686,-9992.780217,0.000000,0.000000
1181.602007,-9844.739029,740.205942,0.000000
1181.602327,-9770.718434,1258.350101,0.000000
1181.602648,-9696.697840,1332.370696,306.438199
1181.602969,-9770.718434,1110.308913,536.266849
1181.603289,-9770.718434,518.144159,1302.362347
1181.603610,-9474.636058,-962.267725,2374.896044
1181.603931,-9474.636058,-2146.597232,1838.629195
1181.604251,-9400.615463,-2738.761985,1991.848295
1181.604572,-9178.553681,-2516.700203,1762.019645
1181.604893,-8734.430116,-1998.556043,4443.353888
1181.605213,-8882.471304,-444.123565,995.924147
1181.605534,-8956.491898,296.082377,919.314598
1181.605855,-9252.574275,1110.308913,842.705048
1181.606175,-9178.553681,592.164754,536.266849
1181.606496,-9400.615463,148.041188,383.047749
1181.606817,-9696.697840,0.000000,612.876398
1181.607137,-9992.780217,-296.082377,536.266849
1181.607458,-10214.842000,-370.102971,383.047749
1181.607779,-9918.759623,0.000000,76.609550
1181.608099,-9918.759623,74.020594,0.000000
1181.608420,-9992.780217,1184.329507,153.219100
1181.608741,-9770.718434,1184.329507,842.705048
1181.609061,-9992.780217,962.267725,459.657299
1181.609382,-9622.677246,296.082377,1225.752797
1181.609703,-9696.697840,-962.267725,1532.190996
1181.610023,-9696.697840,-1258.350101,2145.067394
1181.610344,-9548.656652,-2368.659014,1915.238745
1181.610665,-9400.615463,-2368.659014,2298.286494
1181.610985,-9326.594869,-1998.556043,1991.848295
1181.611306,-9104.533087,-962.267725,1762.019645
1181.611627,-9252.574275,0.000000,1455.581446
1181.611947,-9252.574275,666.185348,1455.581446
1181.612268,-9400.615463,444.123565,689.485948
1181.612589,-9622.677246,370.102971,612.876398
1181.612910,-9770.718434,148.041188,229.828649
1181.613230,-10436.903782,-592.164754,612.876398
1181.613551,-9770.718434,-296.082377,229.828649
1181.613872,-9918.759623,74.020594,-306.438199
1181.614192,-9548.656652,814.226536,0.000000
1181.614513,-9770.718434,1480.411884,-1072.533697
1181.614834,-9844.739029,1480.411884,-153.219100
1181.615154,-9992.780217,666.185348,306.438199
1181.615475,-10066.800811,0.000000,1378.971896
1181.615796,-9918.759623,-1406.391290,2145.067394
1181.616116,-9992.780217,-2590.720797,2451.505594
1181.616437,-9400.615463,-3182.885551,2145.067394
1181.616758,-9178.553681,-2812.782580,2374.896044
1181.617078,-9104.533087,-2146.597232,1838.629195
1181.617399,-8734.430116,-444.123565,995.924147
1181.617720,-8956.491898,518.144159,689.485948
1181.618040,-9178.553681,1332.370696,1072.533697
1181.618361,-9622.677246,1258.350101,1225.752797
1181.618682,-9918.759623,1406.391290,1455.581446
1181.619002,-9770.718434,74.020594,842.705048
1181.619323,-10140.821405,-592.164754,1455.581446
1181.619644,-10288.862594,-1036.288319,1455.581446
1181.619964,-9844.739029,-666.185348,1455.581446
1181.620285,-9696.697840,0.000000,689.485948
1181.620606,-9548.656652,518.144159,536.266849
1181.620926,-9622.677246,1406.391290,459.657299
1181.621247,-9696.697840,1406.391290,995.924147
1181.621568,-9918.759623,1036.288319,2451.505594
1181.621888,-9844.739029,148.041188,1838.629195
1181.622209,-9696.697840,-962.267725,1915.238745
1181.622530,-9844.739029,-1776.494261,2451.505594
1181.622850,-9770.718434,-2220.617826,2145.067394
1181.623171,-9400.615463,-1924.535449,2145.067394
1181.623491,-9252.574275,-962.267725,1838.629195
1181.623812,-8956.491898,-370.102971,1225.752797
1181.624133,-9252.574275,222.061783,995.924147
1181.624453,-8956.491898,0.000000,919.314598
1181.624774,-9252.574275,0.000000,153.219100
1181.625095,-9474.636058,-370.102971,536.266849
1181.625416,-9622.677246,-1036.288319,689.485948
1181.625736,-9252.574275,-1110.308913,0.000000
1181.626057,-10214.842000,-444.123565,612.876398
1181.626378,-10140.821405,0.000000,689.485948
1181.626698,-9918.759623,592.164754,153.219100
1181.627019,-9770.718434,740.205942,1915.238745
1181.627340,-9548.656652,740.205942,612.876398
1181.627661,-9844.739029,370.102971,919.314598
1181.627981,-9622.677246,-444.123565,1302.362347
1181.628302,-9474.636058,-1850.514855,2145.067394
1181.628623,-9696.697840,-2812.782580,2451.505594
1181.628943,-9474.636058,-2960.823768,1991.848295
1181.629264,-9252.574275,-2590.720797,1762.019645
1181.629585,-8808.450710,-1110.308913,1225.752797
1181.629906,-8290.306550,-666.185348,1532.190996
1181.630226,-9474.636058,888.247130,842.705048
1181.630547,-9252.574275,1184.329507,1072.533697
1181.630868,-9548.656652,0.000000,306.438199
1181.631189,-9548.656652,0.000000,383.047749
1181.631509,-10584.944971,-740.205942,689.485948
1181.631830,-9992.780217,-518.144159,229.828649
1181.632151,-10288.862594,0.000000,689.485948
1181.632471,-9844.739029,0.000000,459.657299
1181.632792,-9474.636058,814.226536,0.000000
1181.633113,-10140.821405,1184.329507,76.609550
1181.633434,-10066.800811,1110.308913,306.438199
1181.633754,-9992.780217,888.247130,612.876398
1181.634075,-9474.636058,-444.123565,459.657299
1181.634396,-9844.739029,-592.164754,1455.581446
1181.634716,-10066.800811,-1406.391290,2528.115143
1181.635037,-9622.677246,-2368.659014,2528.115143
1181.635358,-8956.491898,-2368.659014,2221.676944
1181.635679,-8956.491898,-2146.597232,2145.067394
1181.635999,-8956.491898,-1480.411884,1762.019645
1181.636320,-8956.491898,-148.041188,1685.410096
1181.636641,-9252.574275,-148.041188,1149.143247
1181.636961,-9030.512492,0.000000,459.657299
1181.637282,-9474.636058,0.000000,383.047749
1181.637603,-9918.759623,-296.082377,689.485948
1181.637924,-9992.780217,-370.102971,689.485948
1181.638244,-10658.965565,740.205942,689.485948
1181.638565,-10288.862594,444.123565,383.047749
1181.638886,-10066.800811,962.267725,306.438199
1181.639206,-9474.636058,1184.329507,536.266849
1181.639527,-9844.739029,1258.350101,153.219100
1181.639848,-9474.636058,592.164754,689.485948
1181.640169,-9548.656652,-222.061783,1302.362347
1181.640489,-9548.656652,-1480.411884,1915.238745
1181.640810,-9548.656652,-2294.638420,2068.457845
1181.641131,-9548.656652,-2368.659014,2604.724693
1181.641451,-9326.594869,-2368.659014,2451.505594
1181.641772,-9104.533087,-1850.514855,1608.800546
1181.642093,-8882.471304,-148.041188,1378.971896
1181.642414,-8660.409521,444.123565,383.047749
1181.642734,-8956.491898,1480.411884,459.657299
1181.643055,-9474.636058,888.247130,459.657299
1181.643376,-9696.697840,592.164754,459.657299
1181.643697,-10140.821405,370.102971,383.047749
1181.644017,-9696.697840,-518.144159,306.438199
1181.644338,-10288.862594,0.000000,689.485948
1181.644659,-10214.842000,-148.041188,612.876398
1181.644979,-9992.780217,222.061783,383.047749
1181.645300,-9992.780217,1850.514855,1685.410096
1181.645621,-9770.718434,962.267725,689.485948
1181.645942,-10066.800811,518.144159,536.266849
1181.646262,-9696.697840,74.020594,536.266849
1181.646583,-9844.739029,-740.205942,1225.752797
1181.646904,-9622.677246,-1258.350101,1991.848295
1181.647224,-9844.739029,-2220.617826,2451.505594
1181.647545,-9400.615463,-2590.720797,2145.067394
1181.647866,-9326.594869,-2220.617826,1608.800546
1181.648187,-8882.471304,-1332.370696,1378.971896
1181.648507,-9400.615463,0.000000,1302.362347
1181.648828,-9030.512492,740.205942,1225.752797
1181.649149,-9326.594869,370.102971,919.314598
1181.649469,-9474.636058,296.082377,1762.019645
1181.649790,-9474.636058,-370.102971,383.047749
1181.650111,-9844.739029,-592.164754,842.705048
1181.650432,-9918.759623,-888.247130,689.485948
1181.650752,-9770.718434,-518.144159,383.047749
1181.651073,-9622.677246,296.082377,612.876398
1181.651394,-9696.697840,592.164754,383.047749
1181.651714,-9696.697840,888.247130,306.438199
1181.652035,-9696.697840,666.185348,842.705048
1181.652356,-9178.553681,-518.144159,1072.533697
1181.652677,-10066.800811,-666.185348,1915.238745
1181.652997,-9548.656652,-1628.453072,2221.676944
1181.653318,-9474.636058,-2442.679609,2374.896044
1181.653639,-9400.615463,-2590.720797,1762.019645
1181.653959,-9252.574275,-2442.679609,1608.800546
1181.654280,-8734.430116,-1184.329507,919.314598
1181.654601,-9104.533087,296.082377,919.314598
1181.654922,-9178.553681,962.267725,612.876398
1181.655242,-9104.533087,1110.308913,766.095498
1181.655563,-9696.697840,518.144159,612.876398
1181.655884,-9622.677246,74.020594,536.266849
1181.656205,-10436.903782,-592.164754,919.314598
1181.656525,-9992.780217,0.000000,1225.752797
1181.656846,-10140.821405,-370.102971,766.095498
1181.657167,-9918.759623,0.000000,536.266849
1181.657487,-9992.780217,1110.308913,536.266849
1181.657808,-9844.739029,1554.432478,1072.533697
1181.658129,-9844.739029,1258.350101,1072.533697
1181.658450,-9918.759623,814.226536,1455.581446
1181.658770,-10066.800811,-74.020594,1915.238745
1181.659091,-9844.739029,-1110.308913,2221.676944
1181.659412,-9696.697840,-2146.597232,2911.162892
1181.659732,-9474.636058,-2886.803174,2757.943793
1181.660053,-9474.636058,-2738.761985,2374.896044
1181.660374,-9030.512492,-1480.411884,1915.238745
1181.660695,-8290.306550,518.144159,1838.629195
1181.661015,-9030.512492,148.041188,1532.190996
1181.661336,-9030.512492,0.000000,766.095498
1181.661657,-9030.512492,-222.061783,229.828649
1181.661977,-9474.636058,-740.205942,-229.828649
1181.662298,-9622.677246,-1036.288319,229.828649
1181.662619,-9622.677246,-888.247130,306.438199
1181.662940,-9770.718434,-666.185348,0.000000
1181.663260,-9696.697840,296.082377,0.000000
1181.663581,-9844.739029,962.267725,0.000000
1181.663902,-9770.718434,1184.329507,153.219100
1181.664222,-9696.697840,962.267725,229.828649
1181.664543,-9844.739029,444.123565,612.876398
1181.664864,-9474.636058,222.061783,1685.410096
1181.665185,-9918.759623,-1110.308913,2068.457845
1181.665505,-9696.697840,-2368.659014,2298.286494
1181.665826,-9474.636058,-2590.720797,1838.629195
1181.666147,-9326.594869,-1776.494261,1991.848295
1181.666467,-9178.553681,-1480.411884,1302.362347
1181.666788,-8956.491898,0.000000,842.705048
1181.667109,-9326.594869,1110.308913,536.266849
1181.667430,-9622.677246,1554.432478,612.876398
1181.667750,-9548.656652,1110.308913,919.314598
1181.668071,-9992.780217,444.123565,459.657299
1181.668392,-10214.842000,-592.164754,459.657299
1181.668713,-10658.965565,-666.185348,229.828649
1181.669033,-9696.697840,-444.123565,995.924147
1181.669354,-9844.739029,0.000000,459.657299
1181.669675,-9770.718434,592.164754,153.219100
1181.669995,-9844.739029,814.226536,0.000000
1181.670316,-9696.697840,1258.350101,1302.362347
1181.670637,-9622.677246,296.082377,766.095498
1181.670958,-9844.739029,0.000000,766.095498
1181.671278,-9770.718434,-740.205942,1915.238745
1181.671599,-9474.636058,-1850.514855,2374.896044
1181.671920,-9474.636058,-2146.597232,2451.505594
1181.672240,-8882.471304,-2072.576638,1915.238745
1181.672561,-9030.512492,-1406.391290,1455.581446
1181.672882,-9252.574275,0.000000,1608.800546
1181.673203,-9252.574275,370.102971,1608.800546
1181.673523,-9104.533087,888.247130,1302.362347
1181.673844,-9178.553681,666.185348,1225.752797
1181.674165,-9474.636058,148.041188,1149.143247
1181.674485,-9770.718434,-666.185348,1378.971896
1181.674806,-9918.759623,-1480.411884,1532.190996
1181.675127,-9844.739029,-1184.329507,1072.533697
1181.675448,-9770.718434,-518.144159,612.876398
1181.675768,-9696.697840,592.164754,612.876398
1181.676089,-9696.697840,1554.432478,229.828649
1181.676410,-9918.759623,1776.494261,383.047749
1181.676730,-9844.739029,1480.411884,766.095498
1181.677051,-9622.677246,222.061783,1532.190996
1181.677372,-10214.842000,-888.247130,1838.629195
1181.677693,-9770.718434,-2220.617826,2068.457845
1181.678013,-9696.697840,-2812.782580,2068.457845
1181.678334,-9252.574275,-2442.679609,1608.800546
1181.678655,-9326.594869,-1480.411884,1378.971896
1181.678975,-9326.594869,-814.226536,0.000000
1181.679296,-8956.491898,740.205942,766.095498
1181.679617,-9474.636058,814.226536,612.876398
1181.679938,-9474.636058,666.185348,536.266849
1181.680258,-9622.677246,0.000000,842.705048
1181.680579,-9992.780217,-666.185348,459.657299
1181.680900,-10066.800811,-1036.288319,842.705048
1181.681221,-9992.780217,-814.226536,383.047749
1181.681541,-9992.780217,0.000000,306.438199
1181.681862,-9030.512492,370.102971,0.000000
1181.682183,-9696.697840,1332.370696,-306.438199
1181.682503,-9770.718434,1554.432478,306.438199
1181.682824,-9918.759623,1184.329507,536.266849
1181.683145,-9844.739029,0.000000,919.314598
1181.683466,-9548.656652,-1036.288319,1532.190996
1181.683786,-9474.636058,-1924.535449,2298.286494
1181.684107,-9548.656652,-2442.679609,2374.896044
1181.684428,-9326.594869,-2516.700203,1991.848295
1181.684748,-9178.553681,-1628.453072,1915.238745
1181.685069,-8808.450710,-666.185348,1762.019645
1181.685390,-9030.512492,74.020594,1302.362347
1181.685711,-8956.491898,296.082377,1072.533697
1181.686031,-9918.759623,222.061783,766.095498
1181.686352,-9400.615463,0.000000,689.485948
1181.686673,-9770.718434,-592.164754,612.876398
1181.686993,-10066.800811,-740.205942,1149.143247
1181.687314,-9770.718434,-814.226536,995.924147
1181.687635,-9992.780217,-296.082377,766.095498
1181.687956,-9770.718434,148.041188,919.314598
1181.688276,-9770.718434,222.061783,689.485948
1181.688597,-9474.636058,592.164754,919.314598
1181.688918,-9474.636058,666.185348,766.095498
1181.689238,-9548.656652,-148.041188,1762.019645
1181.689559,-9696.697840,-1184.329507,2221.676944
1181.689880,-9622.677246,-2072.576638,2528.115143
1181.690201,-8586.388927,-3256.906145,2298.286494
1181.690521,-9474.636058,-2812.782580,2451.505594
1181.690842,-9400.615463,-2368.659014,2068.457845
1181.691163,-9178.553681,-1184.329507,1455.581446
1181.691483,-8882.471304,-592.164754,2987.772442
1181.691804,-9400.615463,1110.308913,1685.410096
1181.692125,-9622.677246,1480.411884,995.924147
1181.692446,-9844.739029,740.205942,766.095498
1181.692766,-10288.862594,74.020594,689.485948
1181.693087,-10732.986159,-444.123565,153.219100
1181.693408,-10584.944971,-296.082377,383.047749
1181.693729,-10140.821405,0.000000,306.438199
1181.694049,-10140.821405,518.144159,0.000000
1181.694370,-9474.636058,740.205942,-612.876398
1181.694691,-9696.697840,1480.411884,-1072.533697
1181.695011,-9844.739029,1184.329507,0.000000
1181.695332,-9770.718434,444.123565,0.000000
1181.695653,-9622.677246,0.000000,-459.657299
1181.695974,-9696.697840,-1406.391290,1072.533697
1181.696294,-9474.636058,-1850.514855,1838.629195
1181.696615,-9252.574275,-2368.659014,2451.505594
1181.696936,-8956.491898,-2146.597232,2068.457845
1181.697256,-8734.430116,-962.267725,1532.190996
1181.697577,-8808.450710,-148.041188,1225.752797
1181.697898,-8882.471304,518.144159,1225.752797
1181.698219,-8882.471304,518.144159,1149.143247
1181.698539,-8364.327145,0.000000,1225.752797
1181.698860,-9326.594869,0.000000,229.828649
1181.699181,-9474.636058,-666.185348,689.485948
1181.699501,-9622.677246,-518.144159,919.314598
1181.699822,-9548.656652,-444.123565,1991.848295
1181.700143,-9696.697840,296.082377,612.876398
1181.700464,-9770.718434,888.247130,766.095498
1181.700784,-9474.636058,1184.329507,766.095498
1181.701105,-9770.718434,888.247130,995.924147
1181.701426,-10140.821405,740.205942,1608.800546
1181.701746,-9622.677246,-518.144159,2374.896044
1181.702067,-9844.739029,-1480.411884,2451.505594
1181.702388,-9548.656652,-2590.720797,2604.724693
1181.702709,-9474.636058,-2664.741391,2911.162892
1181.703029,-9400.615463,-1924.535449,1685.410096
1181.703350,-9326.594869,-888.247130,1149.143247
1181.703671,-9252.574275,370.102971,919.314598
1181.703991,-9918.759623,1554.432478,-306.438199
1181.704312,-9918.759623,1480.411884,689.485948
1181.704633,-9844.739029,888.247130,919.314598
1181.704954,-10510.924376,74.020594,995.924147
1181.705274,-10288.862594,-222.061783,459.657299
1181.705595,-10436.903782,-370.102971,842.705048
1181.705916,-10510.924376,-148.041188,1149.143247
1181.706237,-9770.718434,0.000000,536.266849
1181.706557,-9696.697840,666.185348,0.000000
1181.706878,-9622.677246,1110.308913,0.000000
1181.707199,-9696.697840,1184.329507,229.828649
1181.707519,-9918.759623,518.144159,459.657299
1181.707840,-9696.697840,-148.041188,995.924147
1181.708161,-9696.697840,-592.164754,229.828649
1181.708482,-9622.677246,-1998.556043,1685.410096
1181.708802,-9474.636058,-2590.720797,1685.410096
1181.709123,-9178.553681,-2590.720797,1685.410096
1181.709444,-9178.553681,-1850.514855,1225.752797
1181.709764,-9030.512492,-888.247130,919.314598
1181.710085,-9030.512492,74.020594,1149.143247
1181.710406,-9326.594869,-296.082377,842.705048
1181.710727,-8660.409521,-444.123565,536.266849
1181.711047,-9474.636058,-888.247130,-766.095498
1181.711368,-9474.636058,-1332.370696,229.828649
1181.711689,-9474.636058,-1628.453072,76.609550
1181.712009,-9548.656652,-814.226536,536.266849
1181.712330,-9622.677246,222.061783,612.876398
1181.712651,-9696.697840,666.185348,153.219100
1181.712972,-9844.739029,1332.370696,536.266849
1181.713292,-9770.718434,1628.453072,842.705048
1181.713613,-10066.800811,888.247130,1072.533697
1181.713934,-9992.780217,148.041188,1378.971896
1181.714254,-10066.800811,-888.247130,2374.896044
1181.714575,-9474.636058,-2442.679609,1915.238745
1181.714896,-9474.636058,-2664.741391,2528.115143
1181.715217,-8956.491898,-2220.617826,2987.772442
1181.715537,-9178.553681,-1554.432478,1991.848295
1181.715858,-9400.615463,-296.082377,1915.238745
1181.716179,-9104.533087,888.247130,1455.581446
1181.716499,-9918.759623,814.226536,4903.011187
1181.716820,-9844.739029,592.164754,1532.190996
1181.717141,-9622.677246,-222.061783,1072.533697
1181.717462,-10066.800811,-740.205942,995.924147
1181.717782,-10214.842000,-518.144159,1072.533697
1181.718103,-10510.924376,-370.102971,689.485948
1181.718424,-9918.759623,74.020594,306.438199
1181.718745,-9622.677246,888.247130,0.000000
1181.719065,-9844.739029,1480.411884,76.609550
1181.719386,-9770.718434,1406.391290,1225.752797
1181.719707,-9992.780217,296.082377,689.485948
1181.720027,-9622.677246,-444.123565,1149.143247
1181.720348,-9844.739029,-1332.370696,1608.800546
1181.720669,-9474.636058,-1702.473667,2221.676944
1181.720990,-9474.636058,-2368.659014,2451.505594
1181.721310,-9252.574275,-2368.659014,2374.896044
1181.721631,-8734.430116,-1924.535449,1455.581446
1181.721952,-8808.450710,-1184.329507,1149.143247
1181.722272,-9104.533087,0.000000,1302.362347
1181.722593,-8882.471304,296.082377,1149.143247
1181.722914,-8882.471304,222.061783,536.266849
1181.723235,-8660.409521,0.000000,76.609550
1181.723555,-9474.636058,-148.041188,612.876398
1181.723876,-10140.821405,-592.164754,689.485948
1181.724197,-9696.697840,-444.123565,612.876398
1181.724517,-10214.842000,0.000000,0.000000
1181.724838,-9696.697840,592.164754,0.000000
1181.725159,-9770.718434,1258.350101,76.609550
1181.725480,-10066.800811,1332.370696,612.876398
1181.725800,-9918.759623,1036.288319,612.876398
1181.726121,-9696.697840,148.041188,1072.533697
1181.726442,-9844.739029,-888.247130,1685.410096
1181.726762,-9992.780217,-1850.514855,2298.286494
1181.727083,-9622.677246,-2590.720797,2451.505594
1181.727404,-9400.615463,-2960.823768,1762.019645
1181.727725,-7920.203579,-2220.617826,689.485948
1181.728045,-8956.491898,-888.247130,919.314598
1181.728366,-9104.533087,296.082377,766.095498
1181.728687,-9474.636058,962.267725,689.485948
1181.729007,-9622.677246,1406.391290,612.876398
1181.729328,-9844.739029,814.226536,612.876398
1181.729649,-10288.862594,370.102971,842.705048
1181.729970,-10807.006753,74.020594,1149.143247
1181.730290,-10584.944971,-296.082377,766.095498
1181.730611,-9548.656652,-222.061783,919.314598
1181.730932,-9622.677246,74.020594,153.219100
1181.731252,-9622.677246,814.226536,-153.219100
1181.731573,-9548.656652,1480.411884,306.438199
1181.731894,-9770.718434,1332.370696,76.609550
1181.732215,-9474.636058,370.102971,536.266849
1181.732535,-9622.677246,-222.061783,995.924147
1181.732856,-9622.677246,-1184.329507,1762.019645
1181.733177,-9474.636058,-1924.535449,2681.334243
1181.733497,-9326.594869,-2590.720797,2757.943793
1181.733818,-9104.533087,-2368.659014,2145.067394
1181.734139,-8956.491898,-1480.411884,1762.019645
1181.734460,-8882.471304,-592.164754,1225.752797
1181.734780,-8734.430116,444.123565,1225.752797
1181.735101,-8956.491898,74.020594,919.314598
1181.735422,-8882.471304,0.000000,459.657299
1181.735742,-9178.553681,-370.102971,612.876398
1181.736063,-9992.780217,-962.267725,919.314598
1181.736384,-9770.718434,-962.267725,842.705048
1181.736705,-9696.697840,-518.144159,766.095498
1181.737025,-9918.759623,370.102971,383.047749
1181.737346,-9918.759623,1036.288319,229.828649
1181.737667,-9770.718434,1554.432478,766.095498
1181.737987,-9844.739029,1406.391290,766.095498
1181.738308,-9844.739029,888.247130,1072.533697
1181.738629,-10066.800811,0.000000,1838.629195
1181.738950,-9548.656652,-1258.350101,1762.019645
1181.739270,-9992.780217,-2368.659014,2221.676944
1181.739591,-9474.636058,-2886.803174,2298.286494
1181.739912,-9474.636058,-2368.659014,1685.410096
1181.740232,-8956.491898,-592.164754,2987.772442
1181.740553,-9104.533087,370.102971,1378.971896
1181.740874,-9474.636058,1036.288319,1455.581446
1181.741195,-9548.656652,1110.308913,919.314598
1181.741515,-9622.677246,370.102971,689.485948
1181.741836,-9622.677246,0.000000,612.876398
1181.742157,-10140.821405,-296.082377,612.876398
1181.742477,-10140.821405,-518.144159,995.924147
1181.742798,-10066.800811,-296.082377,306.438199
1181.743119,-10066.800811,148.041188,-306.438199
1181.743440,-9770.718434,814.226536,-229.828649
1181.743760,-9770.718434,1628.453072,76.609550
1181.744081,-9992.780217,1702.473667,459.657299
1181.744402,-9696.697840,2072.576638,3064.381992
1181.744722,-9696.697840,-148.041188,1072.533697
1181.745043,-9622.677246,-1554.432478,1838.629195
1181.745364,-9474.636058,-2664.741391,2451.505594
1181.745685,-9474.636058,-3404.947333,2757.943793
1181.746005,-9030.512492,-3108.864956,2374.896044
1181.746326,-8660.409521,-1702.473667,1455.581446
1181.746647,-8734.430116,-666.185348,1685.410096
1181.746967,-8660.409521,370.102971,1302.362347
1181.747288,-8808.450710,370.102971,1302.362347
1181.747609,-8956.491898,222.061783,459.657299
1181.747930,-9474.636058,-222.061783,612.876398
1181.748250,-9918.759623,0.000000,842.705048
1181.748571,-10066.800811,666.185348,2757.943793
1181.748892,-10066.800811,0.000000,1225.752797
1181.749212,-9918.759623,0.000000,612.876398
1181.749533,-9992.780217,814.226536,153.219100
1181.749854,-9918.759623,1332.370696,612.876398
1181.750175,-9696.697840,962.267725,612.876398
1181.750495,-9770.718434,814.226536,689.485948
1181.750816,-9696.697840,-444.123565,1149.143247
1181.751137,-9844.739029,-1554.432478,1915.238745
1181.751458,-9918.759623,-2516.700203,2374.896044
1181.751778,-9844.739029,-3108.864956,2374.896044
1181.752099,-9474.636058,-3034.844362,2145.067394
1181.752420,-9474.636058,-1998.556043,1225.752797
1181.752740,-9474.636058,-518.144159,842.705048
1181.753061,-9326.594869,666.185348,842.705048
1181.753382,-9548.656652,1110.308913,689.485948
1181.753703,-9918.759623,1036.288319,459.657299
1181.754023,-9918.759623,518.144159,689.485948
1181.754344,-10362.883188,0.000000,306.438199
1181.754665,-10214.842000,-518.144159,536.266849
1181.754985,-10436.903782,-740.205942,612.876398
1181.755306,-10066.800811,-222.061783,229.828649
1181.755627,-10288.862594,0.000000,-536.266849
1181.755948,-9548.656652,518.144159,-306.438199
1181.756268,-9474.636058,1036.288319,0.000000
1181.756589,-9770.718434,888.247130,383.047749
1181.756910,-9474.636058,-74.020594,-1149.143247
1181.757230,-9844.739029,-296.082377,1225.752797
1181.757551,-9548.656652,-1406.391290,2374.896044
1181.757872,-9770.718434,-2146.597232,2528.115143
1181.758193,-9400.615463,-2738.761985,2681.334243
1181.758513,-9030.512492,-2368.659014,2145.067394
1181.758834,-8734.430116,-1406.391290,1532.190996
1181.759155,-8956.491898,-74.020594,1302.362347
1181.759475,-8734.430116,74.020594,1455.581446
1181.759796,-9252.574275,370.102971,919.314598
1181.760117,-9400.615463,148.041188,766.095498
1181.760438,-9548.656652,0.000000,1072.533697
1181.760758,-10066.800811,-740.205942,1302.362347
1181.761079,-9770.718434,-740.205942,1072.533697
1181.761400,-10066.800811,-74.020594,1378.971896
1181.761720,-9844.739029,444.123565,995.924147
1181.762041,-9622.677246,1406.391290,766.095498
1181.762362,-9844.739029,1628.453072,919.314598
1181.762683,-9770.718434,1554.432478,766.095498
1181.763003,-9696.697840,740.205942,1225.752797
1181.763324,-9622.677246,-222.061783,1225.752797
1181.763645,-9844.739029,-1332.370696,2221.676944
1181.763965,-9918.759623,-2516.700203,3217.601092
1181.764286,-9548.656652,-2738.761985,2528.115143
1181.764607,-9474.636058,-2368.659014,1915.238745
1181.764928,-9326.594869,-1184.329507,1225.752797
1181.765248,-9252.574275,-296.082377,612.876398
1181.765569,-9474.636058,962.267725,995.924147
1181.765890,-9548.656652,814.226536,612.876398
1181.766210,-9770.718434,666.185348,612.876398
1181.766531,-9918.759623,0.000000,229.828649
1181.766852,-10066.800811,-592.164754,153.219100
1181.767173,-9918.759623,-740.205942,0.000000
1181.767493,-10066.800811,-148.041188,0.000000
1181.767814,-9844.739029,740.205942,-306.438199
1181.768135,-9696.697840,1332.370696,0.000000
1181.768455,-9918.759623,1850.514855,-153.219100
1181.768776,-9770.718434,1332.370696,153.219100
1181.769097,-9844.739029,592.164754,306.438199
1181.769418,-9844.739029,444.123565,2298.286494
1181.769738,-9992.780217,-1406.391290,2145.067394
1181.770059,-9548.656652,-2516.700203,2451.505594
1181.770380,-9104.533087,-3182.885551,2451.505594
1181.770700,-9030.512492,-2960.823768,1838.629195
1181.771021,-9030.512492,-1776.494261,2068.457845
1181.771342,-8882.471304,-1036.288319,1378.971896
1181.771663,-8956.491898,0.000000,1378.971896
1181.771983,-8882.471304,222.061783,766.095498
1181.772304,-8808.450710,-222.061783,-153.219100
1181.772625,-9474.636058,-296.082377,153.219100
1181.772945,-9918.759623,-370.102971,689.485948
1181.773266,-10066.800811,-518.144159,612.876398
1181.773587,-10214.842000,-444.123565,-766.095498
1181.773908,-10066.800811,444.123565,306.438199
1181.774228,-10066.800811,814.226536,459.657299
1181.774549,-9770.718434,1184.329507,612.876398
1181.774870,-9918.759623,888.247130,842.705048
1181.775190,-9770.718434,444.123565,995.924147
1181.775511,-10066.800811,-814.226536,1685.410096
1181.775832,-9770.718434,-1554.432478,2145.067394
1181.776153,-9548.656652,-2886.803174,2604.724693
1181.776473,-9030.512492,-3330.926739,2374.896044
1181.776794,-9252.574275,-2368.659014,2068.457845
1181.777115,-9474.636058,-1332.370696,2451.505594
1181.777435,-9104.533087,-296.082377,1685.410096
1181.777756,-9326.594869,444.123565,1302.362347
1181.778077,-9474.636058,740.205942,1378.971896
1181.778398,-9696.697840,888.247130,1072.533697
1181.778718,-10140.821405,148.041188,689.485948
1181.779039,-9992.780217,-222.061783,766.095498
1181.779360,-10140.821405,-518.144159,459.657299
1181.779680,-10066.800811,-148.041188,536.266849
1181.780001,-9918.759623,296.082377,0.000000
1181.780322,-9770.718434,888.247130,153.219100
1181.780643,-9622.677246,814.226536,919.314598
1181.780963,-9918.759623,1184.329507,612.876398
1181.781284,-9844.739029,592.164754,766.095498
1181.781605,-9918.759623,0.000000,1149.143247
1181.781925,-9770.718434,-814.226536,1991.848295
1181.782246,-9400.615463,-1924.535449,2068.457845
1181.782567,-9252.574275,-2442.679609,2221.676944
1181.782888,-9252.574275,-2664.741391,1838.629195
1181.783208,-9030.512492,-2072.576638,995.924147
1181.783529,-8808.450710,-370.102971,383.047749
1181.783850,-9178.553681,74.020594,612.876398
1181.784170,-8808.450710,444.123565,612.876398
1181.784491,-9030.512492,148.041188,612.876398
1181.784812,-9474.636058,-740.205942,1302.362347
1181.785133,-9252.574275,-370.102971,383.047749
1181.785453,-9918.759623,-814.226536,536.266849
1181.785774,-9918.759623,-444.123565,842.705048
1181.786095,-9474.636058,0.000000,383.047749
1181.786415,-9770.718434,444.123565,0.000000
1181.786736,-9326.594869,1036.288319,76.609550
1181.787057,-9770.718434,1258.350101,536.266849
1181.787378,-10066.800811,740.205942,1378.971896
1181.787698,-9844.739029,-222.061783,1532.190996
1181.788019,-9548.656652,-1184.329507,2221.676944
1181.788340,-9844.739029,-2220.617826,2451.505594
1181.788660,-9252.574275,-2516.700203,2987.772442
1181.788981,-9400.615463,-2368.659014,2911.162892
1181.789302,-9400.615463,-1702.473667,2221.676944
1181.789623,-8956.491898,-370.102971,1225.752797
1181.789943,-8956.491898,518.144159,842.705048
1181.790264,-9326.594869,1184.329507,1915.238745
1181.790585,-9696.697840,888.247130,1072.533697
1181.790905,-9844.739029,740.205942,919.314598
1181.791226,-10140.821405,0.000000,842.705048
1181.791547,-10214.842000,-518.144159,1149.143247
1181.791868,-10288.862594,-814.226536,459.657299
1181.792188,-9844.739029,-148.041188,612.876398
1181.792509,-9844.739029,888.247130,0.000000
1181.792830,-9992.780217,1258.350101,306.438199
1181.793150,-9992.780217,1332.370696,919.314598
1181.793471,-9844.739029,814.226536,766.095498
1181.793792,-10140.821405,0.000000,1302.362347
1181.794113,-9844.739029,-962.267725,1608.800546
1181.794433,-9548.656652,-1924.535449,2451.505594
1181.794754,-9326.594869,-2664.741391,2681.334243
1181.795075,-9326.594869,-2516.700203,3140.991542
1181.795395,-9178.553681,-2368.659014,2068.457845
1181.795716,-8808.450710,-1110.308913,1762.019645
1181.796037,-8808.450710,-592.164754,1455.581446
1181.796358,-8956.491898,0.000000,1455.581446
1181.796678,-9104.533087,0.000000,842.705048
1181.796999,-8956.491898,0.000000,612.876398
1181.797320,-9252.574275,444.123565,536.266849
1181.797640,-9918.759623,-296.082377,536.266849
1181.797961,-9696.697840,-444.123565,153.219100
1181.798282,-9696.697840,0.000000,0.000000
1181.798603,-9770.718434,888.247130,689.485948
1181.798923,-9548.656652,1628.453072,-536.266849
1181.799244,-9844.739029,1628.453072,0.000000
1181.799565,-10066.800811,1184.329507,76.609550
1181.799885,-9918.759623,518.144159,1149.143247
1181.800206,-9622.677246,-1258.350101,1685.410096
1181.800527,-9992.780217,-2220.617826,2221.676944
1181.800848,-9770.718434,-3108.864956,2681.334243
1181.801168,-9622.677246,-3256.906145,2298.286494
1181.801489,-9474.636058,-2812.782580,1225.752797
1181.801810,-9030.512492,-1258.350101,1072.533697
1181.802130,-8586.388927,0.000000,612.876398
1181.802451,-9252.574275,1036.288319,536.266849
1181.802772,-9474.636058,1776.494261,459.657299
1181.803093,-9770.718434,1110.308913,689.485948
1181.803413,-10362.883188,222.061783,919.314598
1181.803734,-10362.883188,-148.041188,842.705048
1181.804055,-10584.944971,-370.102971,1149.143247
1181.804375,-9992.780217,-296.082377,766.095498
1181.804696,-10288.862594,370.102971,766.095498
1181.805017,-9770.718434,666.185348,153.219100
1181.805338,-9770.718434,1258.350101,306.438199
1181.805658,-8956.491898,666.185348,1149.143247
1181.805979,-9548.656652,370.102971,1378.971896
1181.806300,-9400.615463,-592.164754,1455.581446
1181.806620,-9474.636058,-1702.473667,1915.238745
1181.806941,-9326.594869,-2442.679609,2451.505594
1181.807262,-9400.615463,-2960.823768,2604.724693
1181.807583,-9030.512492,-2294.638420,2451.505594
1181.807903,-8808.450710,-888.247130,1991.848295
1181.808224,-9030.512492,148.041188,1838.629195
1181.808545,-9178.553681,1110.308913,1762.019645
1181.808865,-9104.533087,518.144159,1532.190996
1181.809186,-9326.594869,222.061783,1072.533697
1181.809507,-9252.574275,-592.164754,842.705048
1181.809828,-9992.780217,-1036.288319,459.657299
1181.810148,-9770.718434,-888.247130,995.924147
1181.810469,-9696.697840,-444.123565,766.095498
1181.810790,-9622.677246,0.000000,536.266849
1181.811111,-9474.636058,518.144159,-766.095498
1181.811431,-9474.636058,592.164754,229.828649
1181.811752,-9918.759623,888.247130,612.876398
1181.812073,-9918.759623,444.123565,1072.533697
1181.812393,-9696.697840,-888.247130,1532.190996
1181.812714,-9474.636058,-2368.659014,1915.238745
1181.813035,-9326.594869,-3182.885551,2068.457845
1181.813356,-9474.636058,-3330.926739,1915.238745
1181.813676,-9474.636058,-2442.679609,1532.190996
1181.813997,-9326.594869,-1258.350101,1149.143247
1181.814318,-9178.553681,0.000000,919.314598
1181.814638,-9252.574275,962.267725,919.314598
1181.814959,-9548.656652,1332.370696,766.095498
1181.815280,-9918.759623,666.185348,1225.752797
1181.815601,-9992.780217,74.020594,842.705048
1181.815921,-10066.800811,-518.144159,459.657299
1181.816242,-10362.883188,-518.144159,766.095498
1181.816563,-10140.821405,-74.020594,459.657299
1181.816883,-10066.800811,592.164754,306.438199
1181.817204,-10066.800811,1110.308913,76.609550
1181.817525,-9918.759623,1480.411884,0.000000
1181.817846,-10066.800811,1258.350101,0.000000
1181.818166,-10362.883188,1258.350101,612.876398
1181.818487,-9992.780217,0.000000,1302.362347
1181.818808,-9770.718434,-1184.329507,1838.629195
1181.819128,-9622.677246,-1850.514855,2374.896044
1181.819449,-9474.636058,-1702.473667,1838.629195
1181.819770,-9178.553681,-2516.700203,2145.067394
1181.820091,-9030.512492,-1850.514855,1838.629195
1181.820411,-8882.471304,-814.226536,1378.971896
1181.820732,-8956.491898,148.041188,1378.971896
1181.821053,-8808.450710,518.144159,1149.143247
1181.821373,-8956.491898,74.020594,689.485948
1181.821694,-9178.553681,-370.102971,919.314598
1181.822015,-9474.636058,-666.185348,1225.752797
1181.822336,-10066.800811,-296.082377,1225.752797
1181.822656,-9844.739029,-518.144159,766.095498
1181.822977,-9622.677246,-296.082377,383.047749
1181.823298,-9474.636058,592.164754,306.438199
1181.823618,-9844.739029,1480.411884,-383.047749
1181.823939,-9474.636058,1480.411884,536.266849
1181.824260,-9548.656652,1036.288319,919.314598
1181.824581,-9696.697840,148.041188,1608.800546
1181.824901,-9992.780217,-888.247130,1762.019645
1181.825222,-9548.656652,-1924.535449,2068.457845
1181.825543,-9474.636058,-2516.700203,2221.676944
1181.825863,-9252.574275,-2442.679609,1915.238745
1181.826184,-9252.574275,-1702.473667,995.924147
1181.826505,-8216.285956,-518.144159,2451.505594
1181.826825,-9252.574275,888.247130,612.876398
1181.827146,-9548.656652,1184.329507,612.876398
1181.827467,-9548.656652,444.123565,383.047749
1181.827787,-9770.718434,0.000000,612.876398
1181.828108,-10214.842000,-740.205942,459.657299
1181.828429,-10436.903782,-666.185348,383.047749
1181.828749,-10436.903782,-666.185348,919.314598
1181.829070,-9992.780217,-296.082377,0.000000
1181.829391,-9992.780217,444.123565,153.219100
1181.829711,-10066.800811,1110.308913,0.000000
1181.830032,-9992.780217,1184.329507,76.609550
1181.830353,-9844.739029,888.247130,383.047749
1181.830674,-9696.697840,814.226536,1685.410096
1181.830994,-9696.697840,-444.123565,1149.143247
1181.831315,-9696.697840,-1406.391290,1838.629195
1181.831636,-9548.656652,-2294.638420,1915.238745
1181.831956,-9326.594869,-2442.679609,1838.629195
1181.832277,-9326.594869,-1776.494261,1302.362347
1181.832598,-9030.512492,-1036.288319,1225.752797
1181.832918,-8956.491898,370.102971,995.924147
1181.833239,-9104.533087,444.123565,1225.752797
1181.833560,-8586.388927,74.020594,2068.457845
1181.833880,-8956.491898,0.000000,1302.362347
1181.834201,-9844.739029,-666.185348,1302.362347
1181.834522,-9474.636058,-814.226536,1302.362347
1181.834842,-10362.883188,-740.205942,1915.238745
1181.835163,-9548.656652,-888.247130,919.314598
1181.835484,-9474.636058,74.020594,919.314598
1181.835804,-9474.636058,1110.308913,536.266849
1181.836125,-9474.636058,1480.411884,995.924147
1181.836446,-9844.739029,1406.391290,1532.190996
1181.836766,-9622.677246,740.205942,1838.629195
1181.837087,-9696.697840,-592.164754,2451.505594
1181.837408,-9770.718434,-1776.494261,2451.505594
1181.837728,-9400.615463,-2442.679609,2987.772442
1181.838049,-9400.615463,-2738.761985,2681.334243
1181.838370,-8956.491898,-2368.659014,1838.629195
1181.838691,-9030.512492,-1184.329507,995.924147
1181.839011,-9326.594869,74.020594,-76.609550
1181.839332,-9178.553681,1036.288319,612.876398
1181.839653,-9474.636058,1110.308913,1072.533697
1181.839973,-9918.759623,444.123565,766.095498
1181.840294,-10140.821405,-222.061783,689.485948
1181.840615,-10510.924376,-814.226536,383.047749
1181.840935,-10436.903782,-888.247130,919.314598
1181.841256,-10288.862594,-518.144159,766.095498
1181.841577,-10066.800811,74.020594,153.219100
1181.841897,-9474.636058,592.164754,-459.657299
1181.842218,-9770.718434,1110.308913,-306.438199
1181.842539,-9844.739029,1036.288319,0.000000
1181.842859,-9548.656652,518.144159,306.438199
1181.843180,-8956.491898,-1110.308913,1838.629195
1181.843501,-9770.718434,-1480.411884,1455.581446
1181.843821,-9622.677246,-2368.659014,1991.848295
1181.844142,-9770.718434,-2886.803174,2604.724693
1181.844463,-9474.636058,-2738.761985,2221.676944
1181.844783,-9104.533087,-1480.411884,995.924147
1181.845104,-9030.512492,0.000000,1149.143247
1181.845425,-9178.553681,666.185348,689.485948
1181.845745,-8882.471304,888.247130,306.438199
1181.846066,-8956.491898,-74.020594,536.266849
1181.846387,-9252.574275,-370.102971,0.000000
1181.846707,-9474.636058,-1110.308913,76.609550
1181.847028,-9918.759623,-370.102971,612.876398
1181.847349,-9844.739029,222.061783,76.609550
1181.847670,-9770.718434,518.144159,536.266849
1181.847990,-9696.697840,1406.391290,459.657299
1181.848311,-9474.636058,1332.370696,459.657299
1181.848632,-9992.780217,1480.411884,766.095498
1181.848952,-10362.883188,888.247130,1378.971896
1181.849273,-9696.697840,-370.102971,1991.848295
1181.849594,-9622.677246,-2146.597232,2145.067394
1181.849914,-9622.677246,-2812.782580,2834.553343
1181.850235,-9400.615463,-3627.009116,3294.210641
1181.850556,-9326.594869,-2886.803174,2145.067394
1181.850876,-8956.491898,-1184.329507,1685.410096
1181.851197,-9178.553681,444.123565,1532.190996
1181.851518,-9104.533087,1406.391290,3294.210641
1181.851838,-9474.636058,1554.432478,1685.410096
1181.852159,-9622.677246,814.226536,1455.581446
1181.852480,-9696.697840,0.000000,1072.533697
1181.852800,-10140.821405,-740.205942,1455.581446
1181.853121,-10436.903782,-1258.350101,1455.581446
1181.853442,-9918.759623,-888.247130,842.705048
1181.853762,-9992.780217,-370.102971,536.266849
1181.854083,-9548.656652,740.205942,0.000000
1181.854404,-9622.677246,1332.370696,0.000000
1181.854724,-9770.718434,1332.370696,536.266849
1181.855045,-9622.677246,1036.288319,842.705048
1181.855366,-9918.759623,-148.041188,1072.533697
1181.855687,-9770.718434,-1184.329507,1072.533697
1181.856007,-9474.636058,-1998.556043,1685.410096
1181.856328,-9474.636058,-2368.659014,2068.457845
1181.856649,-9178.553681,-1554.432478,1838.629195
1181.856969,-9400.615463,-962.267725,306.438199
1181.857290,-8734.430116,296.082377,919.314598
1181.857611,-8956.491898,1184.329507,766.095498
1181.857931,-9252.574275,888.247130,536.266849
1181.858252,-9030.512492,666.185348,459.657299
1181.858573,-9992.780217,-370.102971,0.000000
1181.858893,-9400.615463,-444.123565,459.657299
1181.859214,-10214.842000,-666.185348,536.266849
1181.859535,-9844.739029,-518.144159,766.095498
1181.859855,-10362.883188,1184.329507,0.000000
1181.860176,-9770.718434,740.205942,0.000000
1181.860497,-9696.697840,1480.411884,-76.609550
1181.860817,-9918.759623,1406.391290,0.000000
1181.861138,-9770.718434,814.226536,766.095498
1181.861459,-9696.697840,0.000000,995.924147
1181.861779,-9992.780217,-1036.288319,1608.800546
1181.862100,-9770.718434,-2146.597232,2145.067394
1181.862421,-9696.697840,-2516.700203,2298.286494
1181.862741,-9252.574275,-2516.700203,2374.896044
1181.863062,-9400.615463,-1406.391290,1685.410096
1181.863383,-9326.594869,-518.144159,1455.581446
1181.863704,-9178.553681,444.123565,1455.581446
1181.864024,-9770.718434,1036.288319,1072.533697
1181.864345,-9696.697840,518.144159,1149.143247
1181.864666,-9548.656652,-222.061783,1225.752797
1181.864986,-9918.759623,-370.102971,1302.362347
1181.865307,-10214.842000,-444.123565,1072.533697
1181.865628,-10214.842000,-148.041188,1072.533697
1181.865948,-9992.780217,518.144159,536.266849
1181.866269,-10066.800811,814.226536,459.657299
1181.866590,-9918.759623,1554.432478,459.657299
1181.866910,-10066.800811,1702.473667,995.924147
1181.867231,-9918.759623,740.205942,766.095498
1181.867552,-9696.697840,222.061783,1149.143247
1181.867872,-9770.718434,-888.247130,1608.800546
1181.868193,-10140.821405,-1776.494261,3600.648841
1181.868514,-9400.615463,-2516.700203,2451.505594
1181.868834,-9252.574275,-2960.823768,2374.896044
1181.869155,-8808.450710,-2738.761985,1915.238745
1181.869476,-8808.450710,-1554.432478,2528.115143
1181.869796,-8734.430116,-666.185348,1532.190996
1181.870117,-8882.471304,0.000000,1072.533697
1181.870438,-8956.491898,0.000000,842.705048
1181.870758,-9252.574275,-222.061783,536.266849
1181.871079,-9474.636058,-518.144159,995.924147
1181.871400,-10066.800811,-592.164754,995.924147
1181.871721,-9992.780217,-740.205942,536.266849
1181.872041,-9992.780217,0.000000,459.657299
1181.872362,-9178.553681,74.020594,459.657299
1181.872683,-9474.636058,888.247130,0.000000
1181.873003,-9548.656652,1406.391290,76.609550
1181.873324,-9622.677246,888.247130,229.828649
1181.873645,-9770.718434,296.082377,229.828649
1181.873965,-9992.780217,-296.082377,1608.800546
1181.874286,-9844.739029,-1480.411884,1991.848295
1181.874607,-9844.739029,-2072.576638,2298.286494
1181.874927,-9548.656652,-2442.679609,2451.505594
1181.875248,-9030.512492,-2368.659014,1991.848295
1181.875569,-9252.574275,-1332.370696,1149.143247
1181.875889,-9030.512492,-148.041188,689.485948
1181.876210,-9326.594869,888.247130,612.876398
1181.876531,-9918.759623,1628.453072,689.485948
1181.876851,-9696.697840,888.247130,995.924147
1181.877172,-9992.780217,0.000000,536.266849
1181.877493,-10288.862594,-592.164754,612.876398
1181.877813,-10140.821405,0.000000,-689.485948
1181.878134,-10214.842000,-222.061783,536.266849
1181.878455,-9992.780217,370.102971,153.219100
1181.878775,-9696.697840,1036.288319,0.000000
1181.879096,-9696.697840,1628.453072,153.219100
1181.879417,-9992.780217,1036.288319,229.828649
1181.879737,-9918.759623,296.082377,1072.533697
1181.880058,-9844.739029,-444.123565,1302.362347
1181.880379,-9548.656652,-1258.350101,1838.629195
1181.880700,-9474.636058,-2664.741391,1762.019645
1181.881020,-9474.636058,-2812.782580,2451.505594
1181.881341,-9104.533087,-2368.659014,2145.067394
1181.881662,-9030.512492,-2072.576638,1685.410096
1181.881982,-8586.388927,-296.082377,0.000000
1181.882303,-9178.553681,222.061783,1225.752797
1181.882624,-9030.512492,518.144159,995.924147
1181.882944,-9104.533087,74.020594,995.924147
1181.883265,-9474.636058,-296.082377,919.314598
1181.883586,-9696.697840,-666.185348,919.314598
1181.883906,-10066.800811,-740.205942,766.095498
1181.884227,-10066.800811,-444.123565,1225.752797
1181.884548,-9844.739029,370.102971,536.266849
1181.884868,-9918.759623,1332.370696,995.924147
1181.885189,-9474.636058,1406.391290,229.828649
1181.885510,-9622.677246,1258.350101,766.095498
1181.885830,-9622.677246,962.267725,1225.752797
1181.886151,-9844.739029,296.082377,1302.362347
1181.886472,-9548.656652,-1406.391290,1838.629195
1181.886792,-9992.780217,-2368.659014,2374.896044
1181.887113,-9474.636058,-2960.823768,2374.896044
1181.887434,-9622.677246,-2738.761985,2145.067394
1181.887754,-9104.533087,-1480.411884,1532.190996
1181.888075,-9104.533087,-74.020594,1072.533697
1181.888396,-9400.615463,888.247130,1149.143247
1181.888717,-9400.615463,1110.308913,919.314598
1181.889037,-10066.800811,740.205942,229.828649
1181.889358,-10066.800811,0.000000,689.485948
1181.889679,-10066.800811,-888.247130,383.047749
1181.889999,-10066.800811,-1406.391290,689.485948
1181.890320,-9918.759623,-1628.453072,0.000000
1181.890641,-9918.759623,0.000000,229.828649
1181.890961,-9844.739029,1110.308913,0.000000
1181.891282,-9918.759623,1776.494261,229.828649
1181.891603,-9992.780217,1406.391290,153.219100
1181.891923,-10066.800811,1332.370696,383.047749
1181.892244,-10214.842000,296.082377,1225.752797
1181.892565,-9844.739029,-518.144159,1838.629195
1181.892885,-9844.739029,-1776.494261,2298.286494
1181.893206,-9622.677246,-1850.514855,2528.115143
1181.893527,-9252.574275,-2590.720797,2451.505594
1181.893847,-8956.491898,-2220.617826,1532.190996
1181.894168,-8660.409521,-1406.391290,1455.581446
1181.894489,-8512.368333,-296.082377,612.876398
1181.894809,-8956.491898,444.123565,612.876398
1181.895130,-9030.512492,0.000000,612.876398
1181.895451,-9252.574275,-148.041188,306.438199
1181.895771,-9622.677246,-666.185348,306.438199
1181.896092,-9770.718434,-888.247130,612.876398
1181.896413,-10140.821405,-592.164754,689.485948
1181.896734,-9918.759623,-222.061783,229.828649
1181.897054,-9548.656652,814.226536,153.219100
1181.897375,-9548.656652,1406.391290,1991.848295
1181.897696,-9400.615463,1332.370696,0.000000
1181.898016,-9622.677246,1184.329507,229.828649
1181.898337,-10214.842000,296.082377,919.314598
1181.898658,-9622.677246,-962.267725,1532.190996
1181.898978,-9548.656652,-2516.700203,2298.286494
1181.899299,-9548.656652,-3108.864956,2374.896044
1181.899620,-9548.656652,-2812.782580,2145.067394
1181.899940,-9548.656652,-1554.432478,2374.896044
1181.900261,-8734.430116,-666.185348,1149.143247
1181.900582,-9030.512492,222.061783,1225.752797
1181.900902,-9400.615463,962.267725,1225.752797
1181.901223,-9548.656652,814.226536,1608.800546
1181.901544,-9992.780217,-370.102971,1608.800546
1181.901864,-10140.821405,-370.102971,1532.190996
1181.902185,-10066.800811,-962.267725,1225.752797
1181.902506,-10362.883188,-666.185348,1302.362347
1181.902826,-9992.780217,-222.061783,842.705048
1181.903147,-9918.759623,444.123565,766.095498
1181.903468,-9548.656652,888.247130,536.266849
1181.903788,-9548.656652,1332.370696,689.485948
1181.904109,-9696.697840,1110.308913,383.047749
1181.904430,-9622.677246,666.185348,766.095498
1181.904751,-9918.759623,0.000000,1915.238745
1181.905071,-9844.739029,-1258.350101,2451.505594
1181.905392,-9696.697840,-2146.597232,2757.943793
1181.905713,-9622.677246,-2886.803174,2987.772442
1181.906033,-9252.574275,-2146.597232,2451.505594
1181.906354,-8882.471304,-1258.350101,1685.410096
1181.906675,-8808.450710,-518.144159,1302.362347
1181.906995,-8956.491898,0.000000,766.095498
1181.907316,-8660.409521,0.000000,306.438199
1181.907637,-9178.553681,0.000000,459.657299
1181.907957,-9622.677246,-592.164754,459.657299
1181.908278,-9770.718434,-888.247130,689.485948
1181.908599,-10214.842000,-592.164754,1455.581446
1181.908919,-9992.780217,148.041188,689.485948
1181.909240,-10066.800811,1184.329507,306.438199
1181.909561,-9918.759623,1406.391290,76.609550
1181.909881,-9696.697840,1776.494261,2068.457845
1181.910202,-9548.656652,1110.308913,0.000000
1181.910523,-9622.677246,444.123565,229.828649
1181.910843,-9622.677246,-518.144159,1072.533697
1181.911164,-9474.636058,-1776.494261,1378.971896
1181.911485,-9178.553681,-2516.700203,1532.190996
1181.911805,-9252.574275,-2738.761985,1915.238745
1181.912126,-9326.594869,-2590.720797,1455.581446
1181.912447,-9030.512492,-1924.535449,1072.533697
1181.912767,-9844.739029,74.020594,1225.752797
1181.913088,-9474.636058,518.144159,306.438199
1181.913409,-9474.636058,962.267725,612.876398
1181.913730,-9548.656652,370.102971,383.047749
1181.914050,-9696.697840,-370.102971,383.047749
1181.914371,-9992.780217,-592.164754,536.266849
1181.914692,-10288.862594,-518.144159,153.219100
1181.915012,-10066.800811,0.000000,153.219100
1181.915333,-9770.718434,592.164754,153.219100
1181.915654,-9548.656652,1406.391290,0.000000
1181.915974,-9918.759623,1702.473667,536.266849
1181.916295,-9992.780217,1332.370696,536.266849
1181.916616,-9918.759623,740.205942,1225.752797
1181.916936,-9400.615463,-74.020594,2298.286494
1181.917257,-9770.718434,-1332.370696,2604.724693
1181.917578,-9770.718434,-2368.659014,3294.210641
1181.917898,-9474.636058,-2590.720797,3294.210641
1181.918219,-9326.594869,-2738.761985,2681.334243
1181.918540,-8956.491898,-1702.473667,2528.115143
1181.918860,-9030.512492,-518.144159,2221.676944
1181.919181,-9104.533087,370.102971,2068.457845
1181.919502,-9104.533087,592.164754,1072.533697
1181.919822,-9178.553681,0.000000,383.047749
1181.920143,-9474.636058,-370.102971,689.485948
1181.920464,-9696.697840,-296.082377,919.314598
1181.920784,-10436.903782,-592.164754,1302.362347
1181.921105,-10214.842000,0.000000,1378.971896
1181.921426,-9770.718434,74.020594,229.828649
1181.921747,-9992.780217,518.144159,536.266849
1181.922067,-9622.677246,1036.288319,76.609550
1181.922388,-9770.718434,962.267725,229.828649
1181.922709,-9992.780217,444.123565,1608.800546
1181.923029,-9622.677246,-518.144159,1225.752797
1181.923350,-10066.800811,-1406.391290,2145.067394
1181.923671,-9548.656652,-2442.679609,2145.067394
1181.923991,-9474.636058,-2442.679609,1991.848295
1181.924312,-9548.656652,-2146.597232,2145.067394
1181.924633,-8882.471304,-962.267725,1302.362347
1181.924953,-8734.430116,222.061783,689.485948
1181.925274,-9474.636058,1258.350101,689.485948
1181.925595,-8660.409521,962.267725,612.876398
1181.925915,-9696.697840,740.205942,536.266849
1181.926236,-9844.739029,0.000000,459.657299
1181.926557,-9844.739029,-370.102971,383.047749
1181.926877,-10214.842000,-518.144159,459.657299
1181.927198,-9844.739029,-444.123565,153.219100
1181.927519,-9770.718434,0.000000,0.000000
1181.927839,-9696.697840,740.205942,0.000000
1181.928160,-9844.739029,1258.350101,0.000000
1181.928481,-9844.739029,1036.288319,995.924147
1181.928802,-10066.800811,666.185348,459.657299
1181.929122,-9918.759623,148.041188,1302.362347
1181.929443,-9918.759623,-666.185348,1915.238745
1181.929764,-9770.718434,-1628.453072,2451.505594
1181.930084,-9992.780217,-2442.679609,3064.381992
1181.930405,-9474.636058,-3034.844362,2911.162892
1181.930726,-9252.574275,-2368.659014,2298.286494
1181.931046,-8956.491898,-1332.370696,2145.067394
1181.931367,-8882.471304,-592.164754,1149.143247
1181.931688,-9104.533087,518.144159,1915.238745
1181.932009,-9178.553681,370.102971,1302.362347
1181.932329,-9474.636058,0.000000,1378.971896
1181.932650,-9474.636058,-222.061783,3064.381992
1181.932971,-10066.800811,-592.164754,1455.581446
1181.933291,-9992.780217,-296.082377,1072.533697
1181.933612,-10066.800811,518.144159,306.438199
1181.933933,-9622.677246,1110.308913,153.219100
1181.934253,-9770.718434,1924.535449,0.000000
1181.934574,-9696.697840,1628.453072,-153.219100
1181.934895,-9918.759623,1258.350101,153.219100
1181.935216,-9770.718434,296.082377,689.485948
1181.935536,-9326.594869,-296.082377,2451.505594
1181.935857,-9844.739029,-2146.597232,1991.848295
1181.936178,-9474.636058,-2886.803174,1991.848295
1181.936498,-9400.615463,-3108.864956,2145.067394
1181.936819,-9030.512492,-2664.741391,1455.581446
1181.937140,-8734.430116,-1332.370696,919.314598
1181.937460,-9178.553681,-148.041188,1225.752797
1181.937781,-9030.512492,740.205942,689.485948
1181.938102,-9400.615463,592.164754,536.266849
1181.938423,-9474.636058,518.144159,612.876398
1181.938743,-9844.739029,0.000000,229.828649
1181.939064,-10066.800811,-518.144159,459.657299
1181.939385,-9918.759623,-592.164754,153.219100
1181.939705,-9844.739029,444.123565,-766.095498
1181.940026,-9918.759623,814.226536,0.000000
1181.940347,-10288.862594,1110.308913,459.657299
1181.940668,-9992.780217,1258.350101,1072.533697
1181.940988,-10066.800811,444.123565,2374.896044
1181.941309,-9918.759623,0.000000,1072.533697
1181.941630,-9548.656652,-1184.329507,1455.581446
1181.941950,-9548.656652,-1480.411884,2451.505594
1181.942271,-9474.636058,-2146.597232,3064.381992
1181.942592,-9622.677246,-2294.638420,2145.067394
1181.942912,-9104.533087,-2072.576638,1915.238745
1181.943233,-8882.471304,-888.247130,1455.581446
1181.943554,-9474.636058,74.020594,1302.362347
1181.943875,-9030.512492,444.123565,1915.238745
1181.944195,-9178.553681,666.185348,1149.143247
1181.944516,-9474.636058,74.020594,612.876398
1181.944837,-9918.759623,0.000000,536.266849
1181.945157,-10140.821405,-592.164754,842.705048
1181.945478,-10362.883188,-296.082377,1072.533697
1181.945799,-9844.739029,0.000000,536.266849
1181.946119,-9918.759623,962.267725,306.438199
1181.946440,-9770.718434,1036.288319,459.657299
1181.946761,-9178.553681,740.205942,153.219100
1181.947082,-9770.718434,592.164754,459.657299
1181.947402,-9622.677246,222.061783,995.924147
1181.947723,-9696.697840,-740.205942,1608.800546
1181.948044,-9918.759623,-2072.576638,1762.019645
1181.948364,-9622.677246,-2516.700203,2451.505594
1181.948685,-9474.636058,-2516.700203,2298.286494
1181.949006,-9326.594869,-2146.597232,1762.019645
1181.949326,-9030.512492,-1258.350101,919.314598
1181.949647,-8882.471304,-296.082377,995.924147
1181.949968,-8882.471304,740.205942,383.047749
1181.950289,-9104.533087,962.267725,383.047749
1181.950609,-9474.636058,666.185348,612.876398
1181.950930,-9252.574275,-444.123565,306.438199
1181.951251,-9992.780217,-518.144159,229.828649
1181.951571,-9992.780217,-592.164754,612.876398
1181.951892,-9770.718434,-370.102971,459.657299
1181.952213,-9770.718434,74.020594,459.657299
1181.952533,-9548.656652,740.205942,383.047749
1181.952854,-9622.677246,1110.308913,229.828649
1181.953175,-9622.677246,888.247130,153.219100
1181.953496,-9844.739029,666.185348,995.924147
1181.953816,-9474.636058,0.000000,1532.190996
1181.954137,-9844.739029,-1036.288319,1762.019645
1181.954458,-10066.800811,-1554.432478,2374.896044
1181.954778,-9770.718434,-2146.597232,2374.896044
1181.955099,-9400.615463,-592.164754,3294.210641
1181.955420,-9030.512492,-1480.411884,1532.190996
1181.955740,-9030.512492,-518.144159,1149.143247
1181.956061,-8956.491898,296.082377,1225.752797
1181.956382,-9326.594869,444.123565,2604.724693
1181.956703,-9178.553681,444.123565,842.705048
1181.957023,-9696.697840,0.000000,919.314598
1181.957344,-10066.800811,-518.144159,995.924147
1181.957665,-10362.883188,-518.144159,1302.362347
1181.957985,-9918.759623,-444.123565,1225.752797
1181.958306,-10140.821405,0.000000,1149.143247
1181.958627,-9844.739029,592.164754,689.485948
1181.958948,-9770.718434,1036.288319,383.047749
1181.959268,-9252.574275,592.164754,459.657299
1181.959589,-9622.677246,1036.288319,459.657299
1181.959910,-10066.800811,0.000000,919.314598
1181.960230,-9400.615463,-1036.288319,1915.238745
1181.960551,-9622.677246,-1924.535449,1532.190996
1181.960872,-9474.636058,-2590.720797,2145.067394
1181.961192,-9326.594869,-2516.700203,1762.019645
1181.961513,-8882.471304,-1554.432478,1378.971896
1181.961834,-8956.491898,-518.144159,1072.533697
1181.962155,-8438.347739,592.164754,766.095498
1181.962475,-8956.491898,444.123565,919.314598
1181.962796,-9326.594869,222.061783,919.314598
1181.963117,-9548.656652,-370.102971,842.705048
1181.963437,-10288.862594,-518.144159,1302.362347
1181.963758,-10066.800811,-1332.370696,842.705048
1181.964079,-9844.739029,-814.226536,689.485948
1181.964399,-9770.718434,0.000000,459.657299
1181.964720,-9992.780217,962.267725,1302.362347
1181.965041,-9844.739029,1036.288319,153.219100
1181.965362,-10066.800811,1036.288319,459.657299
1181.965682,-9992.780217,666.185348,383.047749
1181.966003,-10140.821405,148.041188,689.485948
1181.966324,-10066.800811,-740.205942,1532.190996
1181.966644,-9696.697840,-1406.391290,1685.410096
1181.966965,-9696.697840,-2146.597232,1838.629195
1181.967286,-9548.656652,-2516.700203,1455.581446
1181.967606,-7402.059420,-2590.720797,229.828649
1181.967927,-9030.512492,-814.226536,459.657299
1181.968248,-9326.594869,148.041188,1149.143247
1181.968569,-9474.636058,666.185348,689.485948
1181.968889,-9252.574275,740.205942,2681.334243
1181.969210,-9696.697840,74.020594,766.095498
1181.969531,-9918.759623,-740.205942,919.314598
1181.969851,-10140.821405,-888.247130,1378.971896
1181.970172,-10066.800811,-518.144159,995.924147
1181.970493,-9400.615463,-148.041188,689.485948
1181.970813,-9844.739029,888.247130,306.438199
1181.971134,-9696.697840,1480.411884,536.266849
1181.971455,-9622.677246,1406.391290,689.485948
1181.971776,-9252.574275,518.144159,1608.800546
1181.972096,-9770.718434,0.000000,1838.629195
1181.972417,-9770.718434,-1258.350101,2298.286494
1181.972738,-9918.759623,-2442.679609,2987.772442
1181.973058,-9622.677246,-2960.823768,3140.991542
1181.973379,-9030.512492,-2886.803174,2911.162892
1181.973700,-8660.409521,-2220.617826,2451.505594
1181.974020,-8734.430116,-740.205942,1608.800546
1181.974341,-8586.388927,518.144159,1225.752797
1181.974662,-8956.491898,1332.370696,1455.581446
1181.974983,-9326.594869,1184.329507,842.705048
1181.975303,-9474.636058,296.082377,1378.971896
1181.975624,-10066.800811,-296.082377,1072.533697
1181.975945,-9548.656652,-592.164754,612.876398
1181.976265,-10214.842000,-814.226536,766.095498
1181.976586,-9770.718434,-296.082377,919.314598
1181.976907,-9474.636058,592.164754,229.828649
1181.977227,-10214.842000,962.267725,-459.657299
1181.977548,-9622.677246,1480.411884,153.219100
1181.977869,-9474.636058,962.267725,0.000000
1181.978190,-9474.636058,74.020594,153.219100
1181.978510,-9770.718434,-888.247130,842.705048
1181.978831,-9918.759623,-1628.453072,2298.286494
1181.979152,-9844.739029,-2368.659014,2068.457845
1181.979472,-9696.697840,-2442.679609,1838.629195
1181.979793,-9548.656652,-2220.617826,1838.629195
1181.980114,-9622.677246,-1184.329507,1608.800546
1181.980435,-9178.553681,-222.061783,306.438199
1181.980755,-9252.574275,962.267725,229.828649
1181.981076,-9474.636058,1036.288319,76.609550
1181.981397,-9252.574275,370.102971,-919.314598
1181.981717,-9474.636058,444.123565,-76.609550
1181.982038,-10214.842000,74.020594,0.000000
1181.982359,-10288.862594,518.144159,536.266849
1181.982679,-10510.924376,444.123565,536.266849
1181.983000,-10436.903782,740.205942,229.828649
1181.983321,-9992.780217,1110.308913,229.828649
1181.983642,-9696.697840,888.247130,0.000000
1181.983962,-9770.718434,1332.370696,459.657299
1181.984283,-10436.903782,740.205942,536.266849
1181.984604,-9770.718434,-740.205942,1149.143247
1181.984924,-9622.677246,-1850.514855,2528.115143
1181.985245,-9622.677246,-2960.823768,2068.457845
1181.985566,-9474.636058,-2886.803174,1225.752797
1181.985886,-9326.594869,-2738.761985,2145.067394
1181.986207,-8808.450710,-1480.411884,1378.971896
1181.986528,-9326.594869,0.000000,1532.190996
1181.986849,-8808.450710,1406.391290,1532.190996
1181.987169,-9030.512492,740.205942,919.314598
1181.987490,-9474.636058,74.020594,842.705048
1181.987811,-9326.594869,-296.082377,689.485948
1181.988131,-9622.677246,-814.226536,919.314598
1181.988452,-8882.471304,0.000000,1225.752797
1181.988773,-9844.739029,-370.102971,995.924147
1181.989093,-9622.677246,148.041188,689.485948
1181.989414,-9696.697840,888.247130,229.828649
1181.989735,-9770.718434,1776.494261,2298.286494
1181.990056,-10066.800811,888.247130,1455.581446
1181.990376,-10214.842000,592.164754,1455.581446
1181.990697,-9918.759623,74.020594,1685.410096
1181.991018,-9992.780217,-592.164754,2451.505594
1181.991338,-9474.636058,-1258.350101,3217.601092
1181.991659,-9400.615463,-2146.597232,3064.381992
1181.991980,-9474.636058,-2368.659014,2298.286494
1181.992300,-9030.512492,-1480.411884,1532.190996
1181.992621,-8956.491898,-1110.308913,306.438199
1181.992942,-9030.512492,222.061783,919.314598
1181.993263,-9104.533087,148.041188,842.705048
1181.993583,-9326.594869,74.020594,76.609550
1181.993904,-9696.697840,-814.226536,306.438199
1181.994225,-9770.718434,-1332.370696,536.266849
1181.994545,-10214.842000,-1480.411884,995.924147
1181.994866,-10140.821405,-1332.370696,612.876398
1181.995187,-9992.780217,-222.061783,766.095498
1181.995507,-9548.656652,-148.041188,0.000000
1181.995828,-9326.594869,888.247130,76.609550
1181.996149,-9622.677246,814.226536,383.047749
1181.996470,-9622.677246,444.123565,612.876398
1181.996790,-9918.759623,0.000000,459.657299
1181.997111,-9548.656652,-1258.350101,1455.581446
1181.997432,-9548.656652,-1998.556043,1532.190996
1181.997752,-9474.636058,-2368.659014,2145.067394
1181.998073,-9474.636058,-1850.514855,1762.019645
1181.998394,-9326.594869,-1332.370696,1149.143247
1181.998715,-8882.471304,-148.041188,842.705048
1181.999035,-9030.512492,888.247130,612.876398
1181.999356,-9400.615463,962.267725,919.314598
1181.999677,-9474.636058,666.185348,1149.143247
1181.999997,-9770.718434,0.000000,766.095498
1182.000318,-9696.697840,-888.247130,766.095498
1182.000639,-9918.759623,-1036.288319,689.485948
1182.000959,-10510.924376,74.020594,766.095498
1182.001280,-9548.656652,0.000000,229.828649
1182.001601,-9770.718434,814.226536,383.047749
1182.001922,-9918.759623,1332.370696,459.657299
1182.002242,-9992.780217,1110.308913,536.266849
1182.002563,-10214.842000,814.226536,1072.533697
1182.002884,-10066.800811,0.000000,1302.362347
1182.003204,-9918.759623,-740.205942,1685.410096
1182.003525,-9770.718434,-1406.391290,1838.629195
1182.003846,-9474.636058,-2294.638420,2145.067394
1182.004166,-9400.615463,-2368.659014,2298.286494
1182.004487,-8734.430116,-1776.494261,1762.019645
1182.004808,-9104.533087,-518.144159,1532.190996
1182.005129,-8734.430116,74.020594,2528.115143
1182.005449,-9178.553681,518.144159,1455.581446
1182.005770,-9252.574275,296.082377,1072.533697
1182.006091,-9474.636058,0.000000,766.095498
1182.006411,-9696.697840,-296.082377,2451.505594
1182.006732,-10066.800811,-888.247130,1455.581446
1182.007053,-9992.780217,-814.226536,1225.752797
1182.007373,-10066.800811,-148.041188,689.485948
1182.007694,-9844.739029,518.144159,306.438199
1182.008015,-9622.677246,1480.411884,0.000000
1182.008336,-9474.636058,1184.329507,536.266849
1182.008656,-9770.718434,1036.288319,612.876398
1182.008977,-9474.636058,0.000000,1149.143247
1182.009298,-9992.780217,74.020594,2298.286494
1182.009618,-9548.656652,-2368.659014,2374.896044
1182.009939,-9474.636058,-2960.823768,2374.896044
1182.010260,-9400.615463,-2960.823768,2374.896044
1182.010580,-8956.491898,-2294.638420,1302.362347
1182.010901,-8882.471304,-592.164754,995.924147
1182.011222,-8956.491898,370.102971,766.095498
1182.011543,-9104.533087,1036.288319,689.485948
1182.011863,-9548.656652,962.267725,612.876398
1182.012184,-9770.718434,814.226536,612.876398
1182.012505,-10214.842000,222.061783,383.047749
1182.012825,-10362.883188,-296.082377,306.438199
1182.013146,-9992.780217,-222.061783,459.657299
1182.013467,-9548.656652,-296.082377,-459.657299
1182.013787,-9400.615463,888.247130,-229.828649
1182.014108,-9844.739029,592.164754,0.000000
1182.014429,-9548.656652,1184.329507,-536.266849
1182.014750,-9770.718434,666.185348,153.219100
1182.015070,-9622.677246,370.102971,306.438199
1182.015391,-9696.697840,-518.144159,1455.581446
1182.015712,-9918.759623,-1480.411884,2068.457845
1182.016032,-9770.718434,-2368.659014,2374.896044
1182.016353,-9622.677246,-2738.761985,1915.238745
1182.016674,-9252.574275,-2368.659014,1455.581446
1182.016995,-9030.512492,-962.267725,995.924147
1182.017315,-8956.491898,74.020594,995.924147
1182.017636,-9178.553681,1110.308913,-383.047749
1182.017957,-9252.574275,444.123565,229.828649
1182.018277,-9400.615463,0.000000,306.438199
1182.018598,-9770.718434,-814.226536,612.876398
1182.018919,-9992.780217,-1036.288319,919.314598
1182.019239,-9992.780217,-1258.350101,1072.533697
1182.019560,-10214.842000,-444.123565,842.705048
1182.019881,-9918.759623,666.185348,536.266849
1182.020202,-9844.739029,1406.391290,306.438199
1182.020522,-10436.903782,1628.453072,995.924147
1182.020843,-9548.656652,888.247130,1149.143247
1182.021164,-9474.636058,0.000000,1225.752797
1182.021484,-9548.656652,-1184.329507,2068.457845
1182.021805,-9622.677246,-2664.741391,2604.724693
1182.022126,-9548.656652,-2738.761985,2911.162892
1182.022446,-9326.594869,-3034.844362,2757.943793
1182.022767,-9252.574275,-2294.638420,2528.115143
1182.023088,-9178.553681,-1110.308913,2221.676944
1182.023409,-8808.450710,0.000000,2298.286494
1182.023729,-9030.512492,740.205942,1762.019645
1182.024050,-9474.636058,814.226536,1532.190996
1182.024371,-9548.656652,222.061783,1149.143247
1182.024691,-10140.821405,0.000000,919.314598
1182.025012,-10066.800811,-962.267725,995.924147
1182.025333,-10066.800811,-1036.288319,1072.533697
1182.025653,-9844.739029,-814.226536,459.657299
1182.025974,-9992.780217,74.020594,-383.047749
1182.026295,-9770.718434,1184.329507,-459.657299
1182.026616,-9770.718434,1554.432478,76.609550
1182.026936,-9992.780217,1036.288319,459.657299
1182.027257,-9770.718434,222.061783,306.438199
1182.027578,-9918.759623,-814.226536,536.266849
1182.027898,-9770.718434,-1480.411884,1302.362347
1182.028219,-9696.697840,-2294.638420,2374.896044
1182.028540,-9696.697840,-2442.679609,2298.286494
1182.028861,-9844.739029,-1628.453072,1302.362347
1182.029181,-9252.574275,-1036.288319,1685.410096
1182.029502,-9030.512492,0.000000,689.485948
1182.029823,-9252.574275,370.102971,1149.143247
1182.030144,-9178.553681,444.123565,766.095498
1182.030464,-9252.574275,222.061783,383.047749
1182.030785,-9400.615463,-74.020594,383.047749
1182.031106,-9770.718434,-444.123565,689.485948
1182.031426,-9844.739029,-518.144159,766.095498
1182.031747,-9918.759623,0.000000,306.438199
1182.032068,-10066.800811,370.102971,536.266849
1182.032389,-9696.697840,740.205942,229.828649
1182.032709,-9622.677246,814.226536,76.609550
1182.033030,-9474.636058,740.205942,-536.266849
1182.033351,-9474.636058,444.123565,536.266849
1182.033672,-9548.656652,-370.102971,1225.752797
1182.033992,-9622.677246,-1406.391290,2068.457845
1182.034313,-9622.677246,-2664.741391,2374.896044
1182.034634,-9474.636058,-2812.782580,2374.896044
1182.034954,-9326.594869,-2664.741391,2068.457845
1182.035275,-9104.533087,-1850.514855,1225.752797
1182.035596,-8734.430116,-518.144159,1225.752797
1182.035917,-8734.430116,444.123565,459.657299
1182.036237,-9252.574275,1110.308913,842.705048
1182.036558,-9474.636058,888.247130,766.095498
1182.036879,-10214.842000,444.123565,1225.752797
1182.037200,-8068.244768,-592.164754,842.705048
1182.037520,-10510.924376,0.000000,689.485948
1182.037841,-10362.883188,74.020594,919.314598
1182.038162,-10066.800811,666.185348,76.609550
1182.038483,-10066.800811,962.267725,229.828649
1182.038803,-9548.656652,1332.370696,-76.609550
1182.039124,-9992.780217,1258.350101,229.828649
1182.039445,-9844.739029,592.164754,766.095498
1182.039765,-9918.759623,148.041188,1149.143247
1182.040086,-10066.800811,-666.185348,1838.629195
1182.040407,-9770.718434,-1850.514855,2374.896044
1182.040728,-9770.718434,-2368.659014,2834.553343
1182.041048,-9474.636058,-2368.659014,2681.334243
1182.041369,-9400.615463,-1924.535449,1072.533697
1182.041690,-8882.471304,-740.205942,1685.410096
1182.042011,-8956.491898,0.000000,1302.362347
1182.042331,-8808.450710,222.061783,842.705048
1182.042652,-8734.430116,0.000000,766.095498
1182.042973,-9104.533087,-444.123565,459.657299
1182.043293,-9474.636058,-592.164754,689.485948
1182.043614,-9844.739029,-740.205942,842.705048
1182.043935,-9992.780217,-370.102971,919.314598
1182.044256,-10140.821405,296.082377,919.314598
1182.044576,-9622.677246,814.226536,76.609550
1182.044897,-9474.636058,1184.329507,229.828649
1182.045218,-9696.697840,1406.391290,306.438199
1182.045539,-9696.697840,740.205942,536.266849
1182.045859,-9622.677246,0.000000,1302.362347
1182.046180,-9622.677246,-1258.350101,1455.581446
1182.046501,-9548.656652,-1850.514855,1685.410096
1182.046821,-9696.697840,-2368.659014,1991.848295
1182.047142,-9252.574275,-2442.679609,2145.067394
1182.047463,-9252.574275,-1628.453072,1685.410096
1182.047784,-9030.512492,-740.205942,919.314598
1182.048104,-9104.533087,370.102971,1072.533697
1182.048425,-9770.718434,592.164754,919.314598
1182.048746,-9326.594869,370.102971,1149.143247
1182.049067,-9770.718434,222.061783,766.095498
1182.049387,-10066.800811,0.000000,536.266849
1182.049708,-9918.759623,-444.123565,1378.971896
1182.050029,-10436.903782,-296.082377,612.876398
1182.050350,-9992.780217,0.000000,229.828649
1182.050670,-9696.697840,518.144159,0.000000
1182.050991,-9992.780217,1258.350101,-153.219100
1182.051312,-9770.718434,1628.453072,0.000000
1182.051632,-9992.780217,1258.350101,306.438199
1182.051953,-9844.739029,592.164754,842.705048
1182.052274,-9844.739029,-518.144159,1838.629195
1182.052595,-10362.883188,-1628.453072,1685.410096
1182.052915,-10066.800811,-2368.659014,2987.772442
1182.053236,-9474.636058,-2886.803174,2528.115143
1182.053557,-8956.491898,-2516.700203,2604.724693
1182.053878,-7846.182985,-1702.473667,1991.848295
1182.054198,-8882.471304,-592.164754,1378.971896
1182.054519,-8734.430116,0.000000,1455.581446
1182.054840,-8956.491898,0.000000,842.705048
1182.055160,-8882.471304,0.000000,689.485948
1182.055481,-9474.636058,-444.123565,919.314598
1182.055802,-9918.759623,-592.164754,919.314598
1182.056123,-9696.697840,-518.144159,612.876398
1182.056443,-9844.739029,-74.020594,612.876398
1182.056764,-9622.677246,444.123565,766.095498
1182.057085,-9696.697840,814.226536,229.828649
1182.057406,-9844.739029,1184.329507,536.266849
1182.057726,-9696.697840,1184.329507,995.924147
1182.058047,-9844.739029,370.102971,1685.410096
1182.058368,-9696.697840,-518.144159,1838.629195
1182.058688,-9548.656652,-1776.494261,2298.286494
1182.059009,-9474.636058,-3034.844362,2604.724693
1182.059330,-9326.594869,-3552.988522,2298.286494
1182.059651,-8660.409521,-2368.659014,2068.457845
1182.059971,-9104.533087,-1628.453072,1915.238745
1182.060292,-9030.512492,-222.061783,1225.752797
1182.060613,-9030.512492,370.102971,1072.533697
1182.060934,-9474.636058,518.144159,766.095498
1182.061254,-9770.718434,222.061783,919.314598
1182.061575,-10066.800811,-296.082377,919.314598
1182.061896,-10362.883188,-888.247130,1302.362347
1182.062217,-9474.636058,0.000000,1838.629195
1182.062537,-10288.862594,-740.205942,229.828649
1182.062858,-9770.718434,0.000000,229.828649
1182.063179,-9918.759623,888.247130,-229.828649
1182.063499,-10066.800811,1332.370696,1762.019645
1182.063820,-9696.697840,962.267725,0.000000
1182.064141,-9474.636058,740.205942,306.438199
1182.064462,-9992.780217,0.000000,919.314598
1182.064782,-9696.697840,-1110.308913,1608.800546
1182.065103,-9622.677246,-1554.432478,1762.019645
1182.065424,-9770.718434,-1998.556043,1991.848295
1182.065745,-9474.636058,-1480.411884,1608.800546
1182.066065,-9252.574275,-962.267725,1532.190996
1182.066386,-9992.780217,0.000000,766.095498
1182.066707,-9252.574275,296.082377,1149.143247
1182.067027,-8956.491898,296.082377,536.266849
1182.067348,-9252.574275,0.000000,536.266849
1182.067669,-9400.615463,0.000000,612.876398
1182.067990,-9474.636058,-740.205942,766.095498
1182.068310,-9548.656652,-1036.288319,612.876398
1182.068631,-9696.697840,-148.041188,459.657299
1182.068952,-9918.759623,222.061783,153.219100
1182.069273,-9622.677246,1110.308913,383.047749
1182.069593,-9548.656652,1258.350101,459.657299
1182.069914,-9770.718434,962.267725,536.266849
1182.070235,-9770.718434,592.164754,1302.362347
1182.070556,-9844.739029,370.102971,995.924147
1182.070876,-9770.718434,-1406.391290,2068.457845
1182.071197,-9622.677246,-2220.617826,2834.553343
1182.071518,-9474.636058,-2442.679609,2604.724693
1182.071838,-9474.636058,-2368.659014,2681.334243
1182.072159,-8660.409521,-1480.411884,1838.629195
1182.072480,-8808.450710,-518.144159,1532.190996
1182.072801,-8882.471304,444.123565,1225.752797
1182.073121,-9252.574275,1110.308913,1072.533697
1182.073442,-9104.533087,444.123565,0.000000
1182.073763,-9622.677246,0.000000,76.609550
1182.074084,-9696.697840,-296.082377,0.000000
1182.074404,-10066.800811,0.000000,306.438199
1182.074725,-9548.656652,1628.453072,459.657299
1182.075046,-10066.800811,1036.288319,229.828649
1182.075366,-10214.842000,1554.432478,0.000000
1182.075687,-9992.780217,1554.432478,-229.828649
1182.076008,-9992.780217,1480.411884,306.438199
1182.076329,-10214.842000,814.226536,153.219100
1182.076649,-10288.862594,0.000000,995.924147
1182.076970,-9696.697840,-962.267725,1378.971896
1182.077291,-9622.677246,-1480.411884,1991.848295
1182.077612,-10066.800811,-2294.638420,2451.505594
1182.077932,-9326.594869,-2368.659014,2451.505594
1182.078253,-9474.636058,-2220.617826,1685.410096
1182.078574,-9030.512492,-1110.308913,1532.190996
1182.078894,-8290.306550,-1332.370696,2374.896044
1182.079215,-9474.636058,148.041188,1378.971896
1182.079536,-9252.574275,222.061783,1149.143247
1182.079857,-9326.594869,-148.041188,766.095498
1182.080177,-9622.677246,-222.061783,1991.848295
1182.080498,-9844.739029,-592.164754,919.314598
1182.080819,-9992.780217,-592.164754,919.314598
1182.081140,-9918.759623,-296.082377,842.705048
1182.081460,-9474.636058,148.041188,536.266849
1182.081781,-9548.656652,592.164754,229.828649
1182.082102,-9400.615463,814.226536,612.876398
1182.082423,-9474.636058,296.082377,766.095498
1182.082743,-9548.656652,0.000000,1455.581446
1182.083064,-9474.636058,-888.247130,1225.752797
1182.083385,-9474.636058,-2294.638420,2374.896044
1182.083705,-9474.636058,-2812.782580,2374.896044
1182.084026,-9326.594869,-2812.782580,2221.676944
1182.084347,-8956.491898,-1998.556043,1455.581446
1182.084668,-8808.450710,-666.185348,1072.533697
1182.084988,-9104.533087,148.041188,766.095498
1182.085309,-9104.533087,444.123565,766.095498
1182.085630,-9474.636058,518.144159,612.876398
1182.085951,-9474.636058,0.000000,0.000000
1182.086271,-10140.821405,-148.041188,919.314598
1182.086592,-10584.944971,-296.082377,995.924147
1182.086913,-10214.842000,-666.185348,1072.533697
1182.087233,-9326.594869,74.020594,2068.457845
1182.087554,-9844.739029,296.082377,153.219100
1182.087875,-10066.800811,1184.329507,306.438199
1182.088196,-10066.800811,1110.308913,76.609550
1182.088516,-9918.759623,1110.308913,153.219100
1182.088837,-9918.759623,888.247130,459.657299
1182.089158,-10214.842000,0.000000,1225.752797
1182.089479,-10140.821405,-888.247130,1915.238745
1182.089799,-10066.800811,-1924.535449,2528.115143
1182.090120,-9178.553681,-2368.659014,2374.896044
1182.090441,-9474.636058,-2368.659014,1838.629195
1182.090761,-8956.491898,-1554.432478,1685.410096
1182.091082,-9400.615463,-740.205942,1532.190996
1182.091403,-8882.471304,74.020594,1225.752797
1182.091724,-9030.512492,0.000000,1302.362347
1182.092044,-9474.636058,0.000000,1072.533697
1182.092365,-9548.656652,-370.102971,1072.533697
1182.092686,-9844.739029,-666.185348,995.924147
1182.093007,-9622.677246,-666.185348,1149.143247
1182.093327,-9474.636058,-296.082377,689.485948
1182.093648,-9770.718434,592.164754,229.828649
1182.093969,-9622.677246,962.267725,153.219100
1182.094290,-9474.636058,1702.473667,383.047749
1182.094610,-9770.718434,1258.350101,766.095498
1182.094931,-9918.759623,222.061783,1149.143247
1182.095252,-9622.677246,-888.247130,1455.581446
