#time,accel_x,accel_y,accel_z
1282.102946,-9622.677246,-296.082377,1455.581446
1282.103267,-9474.636058,-370.102971,1225.752797
1282.103588,-9548.656652,-370.102971,919.314598
1282.103908,-9548.656652,-444.123565,1149.143247
1282.104229,-9622.677246,-444.123565,1225.752797
1282.104550,-9474.636058,-740.205942,1072.533697
1282.104871,-9474.636058,-222.061783,1225.752797
1282.105192,-9696.697840,-296.082377,842.705048
1282.105513,-9474.636058,-296.082377,1072.533697
1282.105833,-9696.697840,-740.205942,306.438199
1282.106154,-9474.636058,-296.082377,1072.533697
1282.106475,-9474.636058,-370.102971,919.314598
1282.106796,-9548.656652,-444.123565,1072.533697
1282.107117,-9474.636058,0.000000,1532.190996
1282.107437,-9770.718434,-370.102971,1149.143247
1282.107758,-9770.718434,-444.123565,1378.971896
1282.108079,-9548.656652,-814.226536,1378.971896
1282.108400,-9400.615463,-518.144159,1685.410096
1282.108721,-10140.821405,-814.226536,1378.971896
1282.109041,-9474.636058,-962.267725,1225.752797
1282.109362,-9252.574275,-1036.288319,689.485948
1282.109683,-9400.615463,-888.247130,689.485948
1282.110004,-9548.656652,-592.164754,383.047749
1282.110325,-9548.656652,-444.123565,1072.533697
1282.110645,-9696.697840,0.000000,1149.143247
1282.110966,-9770.718434,-888.247130,842.705048
1282.111287,-9474.636058,-222.061783,383.047749
1282.111608,-9918.759623,-962.267725,919.314598
1282.111929,-9622.677246,-518.144159,1378.971896
1282.112250,-9770.718434,-1258.350101,1455.581446
1282.112570,-9474.636058,-1258.350101,1608.800546
1282.112891,-9474.636058,-1332.370696,1455.581446
1282.113212,-9696.697840,-1480.411884,1915.238745
1282.113533,-9474.636058,-1184.329507,1991.848295
1282.113854,-9326.594869,-1258.350101,2068.457845
1282.114174,-8956.491898,-2146.597232,1608.800546
1282.114495,-9252.574275,-1258.350101,1991.848295
1282.114816,-9474.636058,-1036.288319,1991.848295
1282.115137,-9844.739029,-962.267725,2221.676944
1282.115458,-9770.718434,-592.164754,842.705048
1282.115778,-9696.697840,-962.267725,2604.724693
1282.116099,-9696.697840,-1036.288319,3140.991542
1282.116420,-9770.718434,-1110.308913,3447.429741
1282.116741,-9918.759623,-1628.453072,3830.477490
1282.117062,-9548.656652,-2294.638420,4213.525239
1282.117382,-9548.656652,-2664.741391,4443.353888
1282.117703,-9252.574275,-2960.823768,4443.353888
1282.118024,-9326.594869,-3182.885551,5209.449386
1282.118345,-8808.450710,-2960.823768,7048.078582
1282.118666,-9400.615463,-3256.906145,6052.154434
1282.118987,-9178.553681,-3478.967927,6052.154434
1282.119307,-9252.574275,-4441.235652,5822.325785
1282.119628,-9104.533087,-4663.297435,7737.564530
1282.119949,-9178.553681,-4811.338623,6128.763984
1282.120270,-9104.533087,-4885.359217,6205.373534
1282.120591,-9326.594869,-5107.421000,5898.935335
1282.120911,-9252.574275,-4737.318029,5592.497135
1282.121232,-9400.615463,-4515.256246,5515.887586
1282.121553,-9326.594869,-3997.112087,5056.230287
1282.121874,-9326.594869,-3627.009116,5132.839837
1282.122195,-9400.615463,-3849.070898,4903.011187
1282.122515,-8734.430116,-4219.173869,5209.449386
1282.122836,-9548.656652,-4145.153275,4290.134789
1282.123157,-9400.615463,-4219.173869,3600.648841
1282.123478,-9104.533087,-4441.235652,3447.429741
1282.123799,-9474.636058,-4663.297435,1991.848295
1282.124119,-9548.656652,-4885.359217,2757.943793
1282.124440,-9400.615463,-5477.523971,2298.286494
1282.124761,-9104.533087,-5329.482782,995.924147
1282.125082,-8956.491898,-4737.318029,76.609550
1282.125403,-8660.409521,-2886.803174,-459.657299
1282.125724,-9696.697840,-1406.391290,-459.657299
1282.126044,-9622.677246,-370.102971,0.000000
1282.126365,-10066.800811,-296.082377,-612.876398
1282.126686,-10955.047942,-148.041188,-229.828649
1282.127007,-10732.986159,-1184.329507,612.876398
1282.127328,-10955.047942,-1924.535449,1608.800546
1282.127648,-10807.006753,-2664.741391,2451.505594
1282.127969,-9844.739029,-3775.050304,2757.943793
1282.128290,-9400.615463,-4811.338623,2451.505594
1282.128611,-8956.491898,-4737.318029,2681.334243
1282.128932,-8956.491898,-4441.235652,2834.553343
1282.129252,-9104.533087,-3997.112087,3677.258390
1282.129573,-8882.471304,-3997.112087,3370.820191
1282.129894,-8956.491898,-3701.029710,3064.381992
1282.130215,-9474.636058,-3478.967927,2298.286494
1282.130536,-9030.512492,-2072.576638,1915.238745
1282.130856,-9474.636058,-592.164754,1838.629195
1282.131177,-9548.656652,1036.288319,1762.019645
1282.131498,-9696.697840,2146.597232,1762.019645
1282.131819,-9992.780217,2368.659014,2451.505594
1282.132140,-10288.862594,1702.473667,4443.353888
1282.132461,-10362.883188,0.000000,3753.867940
1282.132781,-10066.800811,-2146.597232,4443.353888
1282.133102,-9400.615463,-3997.112087,5056.230287
1282.133423,-9104.533087,-4737.318029,5592.497135
1282.133744,-8734.430116,-5551.544565,6741.640382
1282.134065,-8290.306550,-5403.503377,7124.688131
1282.134385,-8438.347739,-5921.647536,6281.983084
1282.134706,-8142.265362,-5699.585753,4903.011187
1282.135027,-7105.977043,-4515.256246,3753.867940
1282.135348,-7994.224174,-592.164754,2604.724693
1282.135669,-10140.821405,888.247130,3064.381992
1282.135989,-9326.594869,4293.194464,3600.648841
1282.136310,-11177.109724,3627.009116,4749.792088
1282.136631,-11473.192101,1924.535449,3907.087040
1282.136952,-10881.027347,74.020594,3753.867940
1282.137273,-11843.295072,-2294.638420,4366.744339
1282.137594,-10214.842000,-2072.576638,4519.963438
1282.137914,-9696.697840,-3478.967927,4903.011187
1282.138235,-9992.780217,-4441.235652,5132.839837
1282.138556,-7624.121203,-6809.894666,3677.258390
1282.138877,-7920.203579,-6587.832884,2374.896044
1282.139198,-9474.636058,-3997.112087,3140.991542
1282.139518,-8364.327145,-2886.803174,2681.334243
1282.139839,-9474.636058,-1628.453072,3830.477490
1282.140160,-9400.615463,-1184.329507,2221.676944
1282.140481,-9548.656652,-1554.432478,2528.115143
1282.140802,-10807.006753,-518.144159,2451.505594
1282.141122,-11325.150913,-1258.350101,2834.553343
1282.141443,-10658.965565,-2442.679609,2145.067394
1282.141764,-10362.883188,-3108.864956,536.266849
1282.142085,-8364.327145,-2442.679609,-689.485948
1282.142406,-9770.718434,-1628.453072,-689.485948
1282.142726,-9622.677246,-888.247130,1455.581446
1282.143047,-10066.800811,-2294.638420,1915.238745
1282.143368,-9474.636058,-4367.215058,2451.505594
1282.143689,-9178.553681,-4589.276840,995.924147
1282.144010,-9844.739029,-4441.235652,2987.772442
1282.144331,-9474.636058,-4737.318029,3140.991542
1282.144651,-9326.594869,-4811.338623,4519.963438
1282.144972,-7624.121203,-5107.421000,612.876398
1282.145293,-7772.162391,-3330.926739,-229.828649
1282.145614,-9400.615463,-888.247130,1225.752797
1282.145935,-9548.656652,-814.226536,2451.505594
1282.146255,-9696.697840,-370.102971,1838.629195
1282.146576,-10066.800811,74.020594,1762.019645
1282.146897,-10362.883188,444.123565,3140.991542
1282.147218,-11621.233289,-1406.391290,5056.230287
1282.147539,-9770.718434,-3478.967927,3753.867940
1282.147859,-9030.512492,-3923.091493,2068.457845
1282.148180,-8512.368333,-2294.638420,1149.143247
1282.148501,-9030.512492,-222.061783,3370.820191
1282.148822,-9400.615463,-740.205942,5362.668486
1282.149143,-8660.409521,-1628.453072,4290.134789
1282.149463,-9104.533087,-2738.761985,2604.724693
1282.149784,-9104.533087,-2886.803174,2987.772442
1282.150105,-10658.965565,-4219.173869,3677.258390
1282.150426,-9326.594869,-1924.535449,3677.258390
1282.150747,-9770.718434,-1554.432478,2834.553343
1282.151068,-9104.533087,1406.391290,1685.410096
1282.151388,-9992.780217,2294.638420,1762.019645
1282.151709,-9918.759623,1924.535449,1149.143247
1282.152030,-10066.800811,2220.617826,919.314598
1282.152351,-10658.965565,1924.535449,1225.752797
1282.152672,-10436.903782,0.000000,1072.533697
1282.152992,-9252.574275,-1702.473667,-383.047749
1282.153313,-8956.491898,-2220.617826,459.657299
1282.153634,-9474.636058,-592.164754,1608.800546
1282.153955,-10436.903782,0.000000,2681.334243
1282.154276,-9474.636058,-148.041188,2451.505594
1282.154596,-9030.512492,-962.267725,1378.971896
1282.154917,-8808.450710,-1776.494261,919.314598
1282.155238,-8956.491898,-2664.741391,76.609550
1282.155559,-9104.533087,-2072.576638,-306.438199
1282.155880,-9622.677246,0.000000,-842.705048
1282.156200,-9548.656652,1924.535449,0.000000
1282.156521,-10584.944971,2442.679609,842.705048
1282.156842,-9696.697840,3034.844362,1149.143247
1282.157163,-11325.150913,2072.576638,-612.876398
1282.157484,-9696.697840,2886.803174,0.000000
1282.157805,-9992.780217,962.267725,-842.705048
1282.158125,-7920.203579,148.041188,-1915.238745
1282.158446,-9178.553681,-1036.288319,-2987.772442
1282.158767,-7994.224174,1110.308913,-2221.676944
1282.159087,-9326.594869,2146.597232,306.438199
1282.159408,-9474.636058,666.185348,1685.410096
1282.159729,-9474.636058,-518.144159,1685.410096
1282.160050,-10140.821405,-1480.411884,2145.067394
1282.160370,-9844.739029,-1628.453072,1762.019645
1282.160691,-8808.450710,-1776.494261,995.924147
1282.161012,-8882.471304,-1406.391290,76.609550
1282.161332,-9030.512492,1406.391290,919.314598
1282.161653,-9622.677246,2220.617826,0.000000
1282.161974,-9400.615463,2738.761985,229.828649
1282.162294,-9474.636058,2220.617826,306.438199
1282.162615,-10584.944971,1110.308913,1302.362347
1282.162936,-10436.903782,148.041188,1532.190996
1282.163257,-10362.883188,-1924.535449,1915.238745
1282.163577,-9178.553681,-1998.556043,766.095498
1282.163898,-9474.636058,-888.247130,1455.581446
1282.164219,-8734.430116,1184.329507,2757.943793
1282.164539,-9622.677246,296.082377,3447.429741
1282.164860,-9992.780217,-444.123565,3064.381992
1282.165181,-9104.533087,-1480.411884,2528.115143
1282.165502,-9400.615463,-2664.741391,3677.258390
1282.165822,-9696.697840,-3627.009116,2451.505594
1282.166143,-9474.636058,-2960.823768,2221.676944
1282.166464,-9844.739029,-1184.329507,2068.457845
1282.166784,-9400.615463,0.000000,2298.286494
1282.167105,-9622.677246,148.041188,2145.067394
1282.167426,-10140.821405,592.164754,1225.752797
1282.167747,-10658.965565,962.267725,1149.143247
1282.168067,-10510.924376,-222.061783,689.485948
1282.168388,-7846.182985,-1776.494261,76.609550
1282.168709,-9474.636058,-2368.659014,-689.485948
1282.169029,-9326.594869,-740.205942,153.219100
1282.169350,-10214.842000,-592.164754,2068.457845
1282.169671,-9474.636058,-962.267725,2911.162892
1282.169992,-9696.697840,-1480.411884,1991.848295
1282.170312,-10066.800811,-1776.494261,1455.581446
1282.170633,-9474.636058,-2146.597232,1762.019645
1282.170954,-8438.347739,-2886.803174,1225.752797
1282.171274,-8068.244768,-1776.494261,-306.438199
1282.171595,-8660.409521,-740.205942,-766.095498
1282.171916,-8660.409521,148.041188,-306.438199
1282.172236,-9030.512492,370.102971,0.000000
1282.172557,-9918.759623,296.082377,0.000000
1282.172878,-10214.842000,1036.288319,0.000000
1282.173199,-10955.047942,1110.308913,1225.752797
1282.173519,-10881.027347,0.000000,1072.533697
1282.173840,-9474.636058,370.102971,229.828649
1282.174161,-10066.800811,0.000000,612.876398
1282.174481,-9696.697840,666.185348,842.705048
1282.174802,-9326.594869,-444.123565,1302.362347
1282.175123,-8882.471304,-1628.453072,153.219100
1282.175444,-9104.533087,-296.082377,842.705048
1282.175764,-9400.615463,-592.164754,1302.362347
1282.176085,-9178.553681,-740.205942,2068.457845
1282.176406,-9770.718434,-962.267725,1991.848295
1282.176726,-11547.212695,0.000000,1378.971896
1282.177047,-10658.965565,222.061783,2451.505594
1282.177368,-10140.821405,74.020594,2068.457845
1282.177689,-9844.739029,962.267725,1149.143247
1282.178009,-10288.862594,2590.720797,1378.971896
1282.178330,-10362.883188,2590.720797,1149.143247
1282.178651,-9326.594869,666.185348,-76.609550
1282.178971,-9326.594869,296.082377,-766.095498
1282.179292,-9474.636058,1184.329507,0.000000
1282.179613,-9992.780217,1628.453072,1225.752797
1282.179934,-10510.924376,1110.308913,3524.039291
1282.180254,-10140.821405,-888.247130,2528.115143
1282.180575,-9400.615463,-740.205942,2145.067394
1282.180896,-10362.883188,-2516.700203,2681.334243
1282.181216,-8660.409521,-2738.761985,2145.067394
1282.181537,-8438.347739,-2664.741391,612.876398
1282.181858,-8438.347739,-592.164754,76.609550
1282.182178,-8290.306550,296.082377,-153.219100
1282.182499,-8512.368333,370.102971,229.828649
1282.182820,-9252.574275,1110.308913,536.266849
1282.183141,-9992.780217,1406.391290,153.219100
1282.183461,-10658.965565,740.205942,1149.143247
1282.183782,-9918.759623,-296.082377,536.266849
1282.184103,-9696.697840,-814.226536,-76.609550
1282.184423,-10436.903782,518.144159,229.828649
1282.184744,-10140.821405,1332.370696,1762.019645
1282.185065,-9622.677246,518.144159,1991.848295
1282.185386,-9252.574275,-1554.432478,459.657299
1282.185706,-8882.471304,-1036.288319,536.266849
1282.186027,-9770.718434,-1850.514855,842.705048
1282.186348,-8660.409521,-2812.782580,766.095498
1282.186668,-8956.491898,-1924.535449,536.266849
1282.186989,-8956.491898,-592.164754,229.828649
1282.187310,-9622.677246,74.020594,383.047749
1282.187631,-10436.903782,222.061783,1149.143247
1282.187951,-9770.718434,962.267725,919.314598
1282.188272,-10807.006753,1258.350101,306.438199
1282.188593,-10807.006753,740.205942,1302.362347
1282.188913,-9548.656652,-1184.329507,0.000000
1282.189234,-9252.574275,-1184.329507,-842.705048
1282.189555,-9622.677246,1628.453072,766.095498
1282.189876,-11029.068536,666.185348,2451.505594
1282.190196,-10436.903782,0.000000,4136.915689
1282.190517,-9548.656652,-2072.576638,2451.505594
1282.190838,-9474.636058,-3923.091493,2604.724693
1282.191158,-9474.636058,-3849.070898,2681.334243
1282.191479,-9844.739029,-4589.276840,2528.115143
1282.191800,-7476.080014,-3849.070898,842.705048
1282.192120,-7105.977043,-1258.350101,-229.828649
1282.192441,-8660.409521,296.082377,0.000000
1282.192762,-8438.347739,592.164754,612.876398
1282.193083,-9104.533087,0.000000,459.657299
1282.193403,-9844.739029,0.000000,0.000000
1282.193724,-10362.883188,-296.082377,612.876398
1282.194045,-10881.027347,-1258.350101,919.314598
1282.194365,-9844.739029,-518.144159,766.095498
1282.194686,-10140.821405,296.082377,-1455.581446
1282.195007,-10436.903782,1776.494261,2068.457845
1282.195328,-9918.759623,0.000000,2528.115143
1282.195648,-9474.636058,-1924.535449,1762.019645
1282.195969,-9474.636058,-2368.659014,1532.190996
1282.196290,-9030.512492,-2738.761985,2145.067394
1282.196610,-8734.430116,-2960.823768,1915.238745
1282.196931,-8734.430116,-2442.679609,1225.752797
1282.197252,-8882.471304,-666.185348,1302.362347
1282.197573,-9474.636058,0.000000,1991.848295
1282.197893,-9474.636058,814.226536,919.314598
1282.198214,-9770.718434,1776.494261,306.438199
1282.198535,-10658.965565,3182.885551,536.266849
1282.198855,-11843.295072,2960.823768,2374.896044
1282.199176,-10214.842000,2146.597232,536.266849
1282.199497,-9252.574275,74.020594,-1378.971896
1282.199818,-9474.636058,444.123565,-2298.286494
1282.200138,-9844.739029,1554.432478,-689.485948
1282.200459,-9918.759623,148.041188,919.314598
1282.200780,-9474.636058,-148.041188,2145.067394
1282.201100,-10214.842000,-1554.432478,2374.896044
1282.201421,-11029.068536,-2368.659014,3370.820191
1282.201742,-11547.212695,-3478.967927,3983.696590
1282.202062,-9844.739029,-3775.050304,3294.210641
1282.202383,-9918.759623,-2368.659014,2451.505594
1282.202704,-9252.574275,-222.061783,1225.752797
1282.203025,-8956.491898,1554.432478,0.000000
1282.203345,-8142.265362,2220.617826,-1762.019645
1282.203666,-8216.285956,4071.132681,-1838.629195
1282.203987,-9400.615463,3627.009116,-1225.752797
1282.204307,-9178.553681,1998.556043,-1072.533697
1282.204628,-9252.574275,444.123565,-1532.190996
1282.204949,-10362.883188,1480.411884,76.609550
1282.205270,-11103.089130,1850.514855,2757.943793
1282.205590,-11251.130318,962.267725,4213.525239
1282.205911,-10140.821405,-962.267725,3983.696590
1282.206232,-9622.677246,-1554.432478,2757.943793
1282.206552,-9474.636058,-3108.864956,2681.334243
1282.206873,-8512.368333,-4293.194464,1378.971896
1282.207194,-5995.668130,-1554.432478,689.485948
1282.207515,-8512.368333,-1702.473667,0.000000
1282.207835,-7624.121203,1554.432478,1072.533697
1282.208156,-9252.574275,148.041188,1149.143247
1282.208477,-9918.759623,148.041188,1838.629195
1282.208797,-10214.842000,518.144159,383.047749
1282.209118,-11843.295072,1628.453072,1838.629195
1282.209439,-11621.233289,740.205942,1608.800546
1282.209760,-9178.553681,592.164754,-766.095498
1282.210080,-8734.430116,1406.391290,-612.876398
1282.210401,-9548.656652,2072.576638,-153.219100
1282.210722,-9770.718434,962.267725,1149.143247
1282.211042,-9622.677246,-1702.473667,1685.410096
1282.211363,-8142.265362,-2146.597232,2681.334243
1282.211684,-9548.656652,-3552.988522,1685.410096
1282.212004,-9992.780217,-4219.173869,2757.943793
1282.212325,-8956.491898,-3923.091493,2451.505594
1282.212646,-9030.512492,-2738.761985,1455.581446
1282.212967,-9474.636058,-962.267725,1302.362347
1282.213287,-9252.574275,74.020594,919.314598
1282.213608,-9474.636058,1258.350101,76.609550
1282.213929,-10436.903782,2886.803174,536.266849
1282.214249,-10955.047942,2368.659014,766.095498
1282.214570,-9400.615463,666.185348,-229.828649
1282.214891,-10214.842000,-888.247130,-1302.362347
1282.215212,-9770.718434,222.061783,-229.828649
1282.215532,-10510.924376,296.082377,536.266849
1282.215853,-10658.965565,-296.082377,3370.820191
1282.216174,-9622.677246,-2146.597232,1838.629195
1282.216494,-9252.574275,-2294.638420,1685.410096
1282.216815,-9992.780217,-3108.864956,3217.601092
1282.217136,-8586.388927,-4145.153275,3447.429741
1282.217457,-8586.388927,-4885.359217,2374.896044
1282.217777,-7698.141797,-2812.782580,1532.190996
1282.218098,-8512.368333,-1036.288319,1225.752797
1282.218419,-9622.677246,0.000000,1685.410096
1282.218739,-9252.574275,148.041188,1149.143247
1282.219060,-9696.697840,592.164754,229.828649
1282.219381,-10732.986159,1184.329507,-306.438199
1282.219702,-9918.759623,148.041188,1608.800546
1282.220022,-9918.759623,-296.082377,-536.266849
1282.220343,-9992.780217,1184.329507,153.219100
1282.220664,-10955.047942,1776.494261,1378.971896
1282.220984,-9992.780217,814.226536,2681.334243
1282.221305,-9622.677246,-1702.473667,2145.067394
1282.221626,-9252.574275,-2516.700203,2221.676944
1282.221947,-9178.553681,-2664.741391,1915.238745
1282.222267,-9104.533087,-3478.967927,2451.505594
1282.222588,-7846.182985,-3627.009116,1762.019645
1282.222909,-7846.182985,-2146.597232,689.485948
1282.223229,-9474.636058,-666.185348,1302.362347
1282.223550,-9622.677246,666.185348,1838.629195
1282.223871,-10584.944971,1036.288319,1225.752797
1282.224191,-9992.780217,1924.535449,919.314598
1282.224512,-10584.944971,2590.720797,842.705048
1282.224833,-10584.944971,2294.638420,229.828649
1282.225154,-10140.821405,1702.473667,-383.047749
1282.225474,-9992.780217,2516.700203,-689.485948
1282.225795,-10362.883188,2812.782580,383.047749
1282.226116,-10288.862594,2220.617826,2068.457845
1282.226436,-10288.862594,0.000000,1991.848295
1282.226757,-9992.780217,-814.226536,1608.800546
1282.227078,-9844.739029,-1702.473667,2221.676944
1282.227399,-9252.574275,-2738.761985,2528.115143
1282.227719,-8882.471304,-3330.926739,2068.457845
1282.228040,-9030.512492,-1628.453072,536.266849
1282.228361,-8734.430116,0.000000,1302.362347
1282.228681,-9030.512492,222.061783,766.095498
1282.229002,-9030.512492,1036.288319,0.000000
1282.229323,-9696.697840,2220.617826,229.828649
1282.229644,-10362.883188,2220.617826,-229.828649
1282.229964,-10288.862594,1480.411884,76.609550
1282.230285,-10362.883188,1110.308913,-766.095498
1282.230606,-10066.800811,1554.432478,-612.876398
1282.230926,-10288.862594,1924.535449,995.924147
1282.231247,-10288.862594,1406.391290,2298.286494
1282.231568,-9326.594869,-740.205942,1532.190996
1282.231889,-9104.533087,-1036.288319,1302.362347
1282.232209,-8290.306550,-1406.391290,2298.286494
1282.232530,-8734.430116,-3404.947333,2374.896044
1282.232851,-7698.141797,-4589.276840,1378.971896
1282.233171,-7994.224174,-3182.885551,306.438199
1282.233492,-8660.409521,-1258.350101,1378.971896
1282.233813,-8956.491898,0.000000,2145.067394
1282.234133,-10140.821405,444.123565,1838.629195
1282.234454,-10807.006753,2220.617826,1225.752797
1282.234775,-11177.109724,2220.617826,766.095498
1282.235096,-10362.883188,1036.288319,0.000000
1282.235416,-9104.533087,740.205942,-1302.362347
1282.235737,-9474.636058,1258.350101,-1762.019645
1282.236058,-10214.842000,2516.700203,0.000000
1282.236378,-10214.842000,1776.494261,229.828649
1282.236699,-10288.862594,-962.267725,1608.800546
1282.237020,-9030.512492,-1110.308913,1378.971896
1282.237341,-10955.047942,-3478.967927,2451.505594
1282.237661,-9844.739029,-3552.988522,3830.477490
1282.237982,-9104.533087,-4737.318029,2757.943793
1282.238303,-7920.203579,-4441.235652,842.705048
1282.238623,-8512.368333,-1258.350101,995.924147
1282.238944,-9030.512492,-740.205942,842.705048
1282.239265,-8586.388927,0.000000,0.000000
1282.239586,-10140.821405,1406.391290,383.047749
1282.239906,-10140.821405,1184.329507,229.828649
1282.240227,-10584.944971,444.123565,306.438199
1282.240548,-10436.903782,-1036.288319,-153.219100
1282.240868,-9844.739029,296.082377,-612.876398
1282.241189,-11029.068536,1998.556043,919.314598
1282.241510,-10732.986159,1480.411884,2604.724693
1282.241831,-9918.759623,-1110.308913,2757.943793
1282.242151,-9622.677246,-2812.782580,1991.848295
1282.242472,-8956.491898,-3552.988522,1991.848295
1282.242793,-8808.450710,-4515.256246,2604.724693
1282.243113,-8216.285956,-4441.235652,1685.410096
1282.243434,-7179.997637,-2960.823768,1072.533697
1282.243755,-8364.327145,-740.205942,1608.800546
1282.244075,-8808.450710,-592.164754,919.314598
1282.244396,-9030.512492,370.102971,459.657299
1282.244717,-10584.944971,1776.494261,76.609550
1282.245038,-10955.047942,1924.535449,842.705048
1282.245358,-10214.842000,1998.556043,1225.752797
1282.245679,-10288.862594,222.061783,-459.657299
1282.246000,-10066.800811,1924.535449,766.095498
1282.246320,-11029.068536,2072.576638,995.924147
1282.246641,-10436.903782,1258.350101,2528.115143
1282.246962,-10510.924376,-444.123565,2451.505594
1282.247283,-9474.636058,-1702.473667,1762.019645
1282.247603,-9474.636058,-1702.473667,2298.286494
1282.247924,-9326.594869,-3256.906145,3140.991542
1282.248245,-8512.368333,-3923.091493,2681.334243
1282.248565,-8142.265362,-3330.926739,1532.190996
1282.248886,-8660.409521,-1702.473667,2221.676944
1282.249207,-9104.533087,-370.102971,919.314598
1282.249528,-9030.512492,296.082377,229.828649
1282.249848,-9696.697840,1850.514855,-229.828649
1282.250169,-10436.903782,2886.803174,153.219100
1282.250490,-10955.047942,2664.741391,0.000000
1282.250810,-10881.027347,1110.308913,-459.657299
1282.251131,-10436.903782,1332.370696,-306.438199
1282.251452,-11103.089130,1110.308913,612.876398
1282.251773,-10584.944971,740.205942,1455.581446
1282.252093,-9844.739029,74.020594,1302.362347
1282.252414,-9326.594869,-1332.370696,1225.752797
1282.252735,-9030.512492,-2072.576638,1608.800546
1282.253055,-8882.471304,-3034.844362,2221.676944
1282.253376,-8364.327145,-3923.091493,1608.800546
1282.253697,-8438.347739,-2960.823768,1378.971896
1282.254017,-8660.409521,-1258.350101,1302.362347
1282.254338,-8882.471304,-592.164754,919.314598
1282.254659,-9178.553681,518.144159,766.095498
1282.254980,-9474.636058,1998.556043,459.657299
1282.255300,-10881.027347,2442.679609,536.266849
1282.255621,-9622.677246,2886.803174,229.828649
1282.255942,-10436.903782,1110.308913,-536.266849
1282.256262,-9622.677246,1924.535449,-689.485948
1282.256583,-10436.903782,2146.597232,153.219100
1282.256904,-10140.821405,962.267725,459.657299
1282.257225,-8734.430116,-666.185348,766.095498
1282.257545,-9104.533087,-2072.576638,229.828649
1282.257866,-9400.615463,-2368.659014,1838.629195
1282.258187,-8956.491898,-3849.070898,2374.896044
1282.258508,-9178.553681,-3478.967927,2528.115143
1282.258829,-8438.347739,-2516.700203,1838.629195
1282.259150,-9622.677246,-370.102971,3294.210641
1282.259470,-10066.800811,0.000000,3600.648841
1282.259791,-10066.800811,-296.082377,2451.505594
1282.260112,-9548.656652,0.000000,842.705048
1282.260433,-10658.965565,518.144159,459.657299
1282.260754,-10436.903782,666.185348,689.485948
1282.261075,-9844.739029,222.061783,-766.095498
1282.261395,-8808.450710,1184.329507,-2604.724693
1282.261716,-9474.636058,2368.659014,-1608.800546
1282.262037,-10214.842000,2146.597232,-459.657299
1282.262358,-9844.739029,518.144159,1302.362347
1282.262679,-9770.718434,-814.226536,919.314598
1282.263000,-10436.903782,-1184.329507,2374.896044
1282.263320,-9696.697840,-2368.659014,4519.963438
1282.263641,-9474.636058,-3997.112087,3217.601092
1282.263962,-8216.285956,-3997.112087,1915.238745
1282.264283,-8290.306550,-1998.556043,1225.752797
1282.264604,-8364.327145,-814.226536,1225.752797
1282.264925,-8586.388927,0.000000,383.047749
1282.265245,-8882.471304,1406.391290,0.000000
1282.265566,-9992.780217,2146.597232,306.438199
1282.265887,-10288.862594,1480.411884,766.095498
1282.266208,-10214.842000,740.205942,-306.438199
1282.266529,-10732.986159,1406.391290,459.657299
1282.266850,-10881.027347,962.267725,1608.800546
1282.267170,-10436.903782,888.247130,2528.115143
1282.267491,-10436.903782,-592.164754,1838.629195
1282.267812,-9178.553681,-1258.350101,1072.533697
1282.268133,-9178.553681,-740.205942,1915.238745
1282.268454,-8882.471304,-1628.453072,2298.286494
1282.268775,-8216.285956,-2812.782580,2145.067394
1282.269095,-7698.141797,-2368.659014,1149.143247
1282.269416,-8808.450710,-1998.556043,1302.362347
1282.269737,-9030.512492,-1850.514855,1685.410096
1282.270058,-8660.409521,-962.267725,1838.629195
1282.270379,-10066.800811,-666.185348,766.095498
1282.270700,-10066.800811,1702.473667,1685.410096
1282.271020,-10732.986159,592.164754,766.095498
1282.271341,-10066.800811,222.061783,-306.438199
1282.271662,-9992.780217,444.123565,-76.609550
1282.271983,-11177.109724,1924.535449,229.828649
1282.272304,-10732.986159,1998.556043,1762.019645
1282.272624,-10140.821405,0.000000,1378.971896
1282.272945,-10584.944971,-1924.535449,1608.800546
1282.273266,-9696.697840,-2590.720797,1608.800546
1282.273587,-9918.759623,-3849.070898,2068.457845
1282.273908,-9104.533087,-3997.112087,1685.410096
1282.274229,-8438.347739,-2738.761985,842.705048
1282.274549,-8216.285956,-1184.329507,842.705048
1282.274870,-8882.471304,296.082377,1225.752797
1282.275191,-8660.409521,222.061783,766.095498
1282.275512,-9474.636058,296.082377,0.000000
1282.275833,-10362.883188,1110.308913,1608.800546
1282.276154,-9770.718434,740.205942,0.000000
1282.276474,-9844.739029,148.041188,-76.609550
1282.276795,-9918.759623,2220.617826,0.000000
1282.277116,-11029.068536,3701.029710,1302.362347
1282.277437,-11325.150913,3404.947333,2528.115143
1282.277758,-10066.800811,1036.288319,2681.334243
1282.278079,-9770.718434,-1110.308913,1838.629195
1282.278399,-9992.780217,-1628.453072,1685.410096
1282.278720,-9252.574275,-2886.803174,2374.896044
1282.279041,-8068.244768,-3182.885551,2374.896044
1282.279362,-7920.203579,-3330.926739,1455.581446
1282.279683,-8216.285956,-2368.659014,1225.752797
1282.280004,-9178.553681,-1998.556043,919.314598
1282.280324,-9326.594869,-962.267725,1072.533697
1282.280645,-9548.656652,814.226536,919.314598
1282.280966,-10807.006753,1406.391290,919.314598
1282.281287,-10362.883188,888.247130,76.609550
1282.281608,-9918.759623,370.102971,0.000000
1282.281929,-10214.842000,148.041188,-689.485948
1282.282249,-10214.842000,1776.494261,-306.438199
1282.282570,-10436.903782,1702.473667,919.314598
1282.282891,-9622.677246,814.226536,1302.362347
1282.283212,-10066.800811,0.000000,1149.143247
1282.283533,-9622.677246,-370.102971,1532.190996
1282.283854,-9622.677246,-1850.514855,1838.629195
1282.284174,-8364.327145,-3923.091493,2528.115143
1282.284495,-8586.388927,-3552.988522,1149.143247
1282.284816,-8734.430116,-2294.638420,689.485948
1282.285137,-9030.512492,-518.144159,995.924147
1282.285458,-9252.574275,370.102971,459.657299
1282.285779,-9400.615463,2146.597232,76.609550
1282.286099,-10214.842000,2368.659014,0.000000
1282.286420,-10140.821405,1702.473667,-689.485948
1282.286741,-9992.780217,740.205942,-536.266849
1282.287062,-8956.491898,1776.494261,-995.924147
1282.287383,-11843.295072,1850.514855,1149.143247
1282.287704,-11029.068536,2146.597232,2451.505594
1282.288024,-10214.842000,-518.144159,2834.553343
1282.288345,-10066.800811,-3923.091493,1072.533697
1282.288666,-9178.553681,-2442.679609,1302.362347
1282.288987,-9770.718434,-3256.906145,2451.505594
1282.289308,-7846.182985,-3108.864956,1915.238745
1282.289629,-7328.038826,-2146.597232,766.095498
1282.289949,-8068.244768,-814.226536,153.219100
1282.290270,-8290.306550,0.000000,229.828649
1282.290591,-9178.553681,0.000000,536.266849
1282.290912,-9400.615463,1406.391290,1378.971896
1282.291233,-10510.924376,1480.411884,1838.629195
1282.291554,-11103.089130,1628.453072,1991.848295
1282.291874,-10436.903782,888.247130,1149.143247
1282.292195,-10066.800811,444.123565,459.657299
1282.292516,-10807.006753,962.267725,1302.362347
1282.292837,-10436.903782,1036.288319,2911.162892
1282.293158,-10510.924376,-1628.453072,2374.896044
1282.293479,-9030.512492,-1776.494261,1762.019645
1282.293799,-9474.636058,-2442.679609,1378.971896
1282.294120,-9548.656652,-2886.803174,2374.896044
1282.294441,-8660.409521,-3404.947333,1532.190996
1282.294762,-8216.285956,-2368.659014,1378.971896
1282.295083,-8956.491898,-592.164754,1302.362347
1282.295404,-8808.450710,-740.205942,1072.533697
1282.295724,-9770.718434,0.000000,1532.190996
1282.296045,-9918.759623,0.000000,766.095498
1282.296366,-10362.883188,1184.329507,229.828649
1282.296687,-10658.965565,888.247130,612.876398
1282.297008,-9918.759623,0.000000,0.000000
1282.297329,-9326.594869,0.000000,-842.705048
1282.297649,-10955.047942,1258.350101,229.828649
1282.297970,-10214.842000,1480.411884,1532.190996
1282.298291,-10362.883188,-444.123565,1838.629195
1282.298612,-9474.636058,-1702.473667,1302.362347
1282.298933,-9178.553681,-1998.556043,612.876398
1282.299253,-9622.677246,-1850.514855,2298.286494
1282.299574,-9326.594869,-1998.556043,2451.505594
1282.299895,-8216.285956,-2368.659014,1072.533697
1282.300216,-8364.327145,-1258.350101,689.485948
1282.300537,-8956.491898,-148.041188,612.876398
1282.300858,-8290.306550,1184.329507,459.657299
1282.301178,-9696.697840,1554.432478,229.828649
1282.301499,-10214.842000,2294.638420,229.828649
1282.301820,-10140.821405,1702.473667,-229.828649
1282.302141,-10140.821405,296.082377,-153.219100
1282.302462,-9992.780217,222.061783,-229.828649
1282.302783,-10436.903782,814.226536,459.657299
1282.303103,-10732.986159,740.205942,1838.629195
1282.303424,-9622.677246,0.000000,2451.505594
1282.303745,-10140.821405,-1628.453072,1838.629195
1282.304066,-9770.718434,-2294.638420,2221.676944
1282.304387,-9548.656652,-2812.782580,2757.943793
1282.304708,-8512.368333,-3627.009116,1762.019645
1282.305028,-6513.812290,-2368.659014,2298.286494
1282.305349,-8734.430116,-370.102971,766.095498
1282.305670,-9104.533087,1184.329507,1762.019645
1282.305991,-9622.677246,1184.329507,1608.800546
1282.306312,-8956.491898,1110.308913,2298.286494
1282.306633,-10214.842000,1036.288319,306.438199
1282.306953,-11177.109724,1628.453072,919.314598
1282.307274,-10214.842000,1480.411884,1072.533697
1282.307595,-10362.883188,1480.411884,229.828649
1282.307916,-9992.780217,2294.638420,229.828649
1282.308237,-10658.965565,1480.411884,1455.581446
1282.308558,-10140.821405,-370.102971,1991.848295
1282.308878,-9474.636058,-1480.411884,1685.410096
1282.309199,-9622.677246,-1702.473667,1915.238745
1282.309520,-9696.697840,-2516.700203,2451.505594
1282.309841,-9178.553681,-2960.823768,2145.067394
1282.310162,-8586.388927,-2886.803174,1455.581446
1282.310483,-8512.368333,-814.226536,1378.971896
1282.310803,-9030.512492,-370.102971,536.266849
1282.311124,-9252.574275,-518.144159,229.828649
1282.311445,-9548.656652,370.102971,0.000000
1282.311766,-10140.821405,1554.432478,153.219100
1282.312087,-10288.862594,1184.329507,536.266849
1282.312408,-9992.780217,-592.164754,-459.657299
1282.312728,-8882.471304,74.020594,-1532.190996
1282.313049,-10584.944971,814.226536,-306.438199
1282.313370,-9622.677246,1628.453072,2145.067394
1282.313691,-9548.656652,222.061783,2374.896044
1282.314012,-9696.697840,-1628.453072,1149.143247
1282.314333,-8512.368333,-2146.597232,612.876398
1282.314653,-8586.388927,-2590.720797,1608.800546
1282.314974,-9030.512492,-3182.885551,2068.457845
1282.315295,-7698.141797,-3182.885551,612.876398
1282.315616,-8956.491898,-1776.494261,1072.533697
1282.315937,-8956.491898,-962.267725,1072.533697
1282.316258,-9992.780217,666.185348,1225.752797
1282.316578,-10214.842000,2072.576638,2604.724693
1282.316899,-11325.150913,3034.844362,2451.505594
1282.317220,-10955.047942,2294.638420,2298.286494
1282.317541,-10658.965565,370.102971,459.657299
1282.317862,-9548.656652,-518.144159,-459.657299
1282.318183,-9178.553681,148.041188,-536.266849
1282.318503,-9474.636058,1628.453072,1378.971896
1282.318824,-9844.739029,1110.308913,1685.410096
1282.319145,-8734.430116,148.041188,1838.629195
1282.319466,-9474.636058,-1184.329507,1532.190996
1282.319787,-10214.842000,-1702.473667,3370.820191
1282.320108,-9696.697840,-3627.009116,3677.258390
1282.320428,-9252.574275,-4959.379811,2757.943793
1282.320749,-7994.224174,-2812.782580,1225.752797
1282.321070,-9400.615463,-1258.350101,536.266849
1282.321391,-9844.739029,1036.288319,1378.971896
1282.321712,-10140.821405,2664.741391,1915.238745
1282.322033,-10362.883188,2590.720797,229.828649
1282.322353,-10658.965565,2146.597232,-229.828649
1282.322674,-10288.862594,296.082377,-76.609550
1282.322995,-10436.903782,222.061783,995.924147
1282.323316,-10955.047942,1184.329507,229.828649
1282.323637,-10510.924376,1480.411884,1685.410096
1282.323958,-9992.780217,-888.247130,2451.505594
1282.324278,-9104.533087,-1924.535449,1685.410096
1282.324599,-9918.759623,-3108.864956,1302.362347
1282.324920,-9474.636058,-3256.906145,1455.581446
1282.325241,-8216.285956,-2812.782580,1225.752797
1282.325562,-7772.162391,-2812.782580,689.485948
1282.325883,-7328.038826,-296.082377,0.000000
1282.326203,-9474.636058,-296.082377,1302.362347
1282.326524,-8808.450710,148.041188,536.266849
1282.326845,-9104.533087,148.041188,153.219100
1282.327166,-10140.821405,1184.329507,1225.752797
1282.327487,-10807.006753,1850.514855,689.485948
1282.327807,-10658.965565,740.205942,229.828649
1282.328128,-9474.636058,962.267725,-153.219100
1282.328449,-9622.677246,1110.308913,0.000000
1282.328770,-10436.903782,814.226536,1762.019645
1282.329091,-10955.047942,-1258.350101,2911.162892
1282.329412,-9252.574275,-2220.617826,1608.800546
1282.329732,-9178.553681,-2960.823768,1991.848295
1282.330053,-9770.718434,-3404.947333,3294.210641
1282.330374,-8956.491898,-3552.988522,3064.381992
1282.330695,-9030.512492,-3627.009116,2298.286494
1282.331016,-8364.327145,-1998.556043,1532.190996
1282.331337,-8512.368333,-1110.308913,1378.971896
1282.331657,-9400.615463,444.123565,842.705048
1282.331978,-9548.656652,1406.391290,612.876398
1282.332299,-10510.924376,2368.659014,536.266849
1282.332620,-10214.842000,2368.659014,383.047749
1282.332941,-10140.821405,296.082377,229.828649
1282.333262,-10510.924376,-740.205942,-153.219100
1282.333582,-11251.130318,222.061783,842.705048
1282.333903,-11399.171507,1480.411884,2451.505594
1282.334224,-11029.068536,222.061783,3753.867940
1282.334545,-9992.780217,-1258.350101,2604.724693
1282.334866,-9696.697840,-1924.535449,2374.896044
1282.335187,-9696.697840,-2886.803174,2145.067394
1282.335507,-8142.265362,-3404.947333,2068.457845
1282.335828,-7772.162391,-3552.988522,689.485948
1282.336149,-7994.224174,-1850.514855,-153.219100
1282.336470,-8882.471304,0.000000,76.609550
1282.336791,-9178.553681,962.267725,842.705048
1282.337112,-9326.594869,1480.411884,383.047749
1282.337432,-10510.924376,2368.659014,153.219100
1282.337753,-11251.130318,2072.576638,153.219100
1282.338074,-10436.903782,1036.288319,536.266849
1282.338395,-10066.800811,0.000000,-153.219100
1282.338716,-9400.615463,592.164754,-306.438199
1282.339037,-9918.759623,814.226536,229.828649
1282.339357,-9178.553681,0.000000,1838.629195
1282.339678,-9030.512492,-1110.308913,2757.943793
1282.339999,-9104.533087,-2072.576638,1302.362347
1282.340320,-8586.388927,-1924.535449,1302.362347
1282.340641,-8734.430116,-2072.576638,1685.410096
1282.340962,-9030.512492,-1924.535449,1149.143247
1282.341282,-8142.265362,-370.102971,1685.410096
1282.341603,-9104.533087,-814.226536,689.485948
1282.341924,-8364.327145,740.205942,0.000000
1282.342245,-10214.842000,814.226536,689.485948
1282.342566,-10140.821405,2442.679609,536.266849
1282.342887,-11251.130318,2886.803174,995.924147
1282.343207,-10066.800811,1702.473667,76.609550
1282.343528,-9474.636058,1332.370696,-1149.143247
1282.343849,-10066.800811,1998.556043,229.828649
1282.344170,-10732.986159,1480.411884,1991.848295
1282.344491,-10288.862594,0.000000,2604.724693
1282.344812,-9770.718434,-1924.535449,2298.286494
1282.345132,-9474.636058,-2220.617826,1991.848295
1282.345453,-9992.780217,-1480.411884,2834.553343
1282.345774,-9252.574275,-2664.741391,2987.772442
1282.346095,-8512.368333,-2442.679609,1915.238745
1282.346416,-8216.285956,-1702.473667,766.095498
1282.346737,-8586.388927,74.020594,459.657299
1282.347057,-9178.553681,888.247130,1378.971896
1282.347378,-9622.677246,1554.432478,306.438199
1282.347699,-10658.965565,2442.679609,536.266849
1282.348020,-11547.212695,1406.391290,1838.629195
1282.348341,-10362.883188,370.102971,766.095498
1282.348662,-10510.924376,-518.144159,612.876398
1282.348982,-10658.965565,74.020594,1378.971896
1282.349303,-10807.006753,0.000000,2451.505594
1282.349624,-10436.903782,-740.205942,2298.286494
1282.349945,-8956.491898,-1924.535449,2221.676944
1282.350266,-9178.553681,-2960.823768,1302.362347
1282.350587,-8512.368333,-2368.659014,1991.848295
1282.350907,-8438.347739,-3478.967927,1302.362347
1282.351228,-7550.100608,-2516.700203,995.924147
1282.351549,-7846.182985,-1258.350101,0.000000
1282.351870,-9400.615463,444.123565,1225.752797
1282.352191,-9178.553681,740.205942,612.876398
1282.352512,-9474.636058,740.205942,229.828649
1282.352832,-10510.924376,1850.514855,229.828649
1282.353153,-10584.944971,1850.514855,153.219100
1282.353474,-9992.780217,666.185348,-153.219100
1282.353795,-9992.780217,-222.061783,-995.924147
1282.354116,-9474.636058,666.185348,-995.924147
1282.354437,-10288.862594,592.164754,459.657299
1282.354757,-9770.718434,-296.082377,1915.238745
1282.355078,-9548.656652,-1776.494261,1838.629195
1282.355399,-9474.636058,-3256.906145,1685.410096
1282.355720,-9622.677246,-2960.823768,2145.067394
1282.356041,-8956.491898,-2738.761985,2221.676944
1282.356361,-8808.450710,-2738.761985,2221.676944
1282.356682,-8512.368333,-1554.432478,919.314598
1282.357003,-9474.636058,-666.185348,1532.190996
1282.357324,-9252.574275,-222.061783,612.876398
1282.357645,-9252.574275,666.185348,766.095498
1282.357966,-9696.697840,1850.514855,459.657299
1282.358287,-11177.109724,2590.720797,919.314598
1282.358607,-11103.089130,1480.411884,536.266849
1282.358928,-10214.842000,1110.308913,-459.657299
1282.359249,-10584.944971,1998.556043,-153.219100
1282.359570,-11325.150913,2516.700203,1455.581446
1282.359891,-11029.068536,740.205942,2451.505594
1282.360212,-9770.718434,-666.185348,2221.676944
1282.360533,-9326.594869,-666.185348,1762.019645
1282.360854,-8808.450710,-2368.659014,1378.971896
1282.361174,-9030.512492,-4145.153275,2757.943793
1282.361495,-8068.244768,-4219.173869,1225.752797
1282.361816,-7476.080014,-2590.720797,0.000000
1282.362137,-8734.430116,296.082377,919.314598
1282.362458,-9400.615463,1110.308913,1532.190996
1282.362779,-8956.491898,1776.494261,1302.362347
1282.363100,-10214.842000,2294.638420,0.000000
1282.363420,-10658.965565,2072.576638,229.828649
1282.363741,-10362.883188,1554.432478,1685.410096
1282.364062,-9992.780217,0.000000,0.000000
1282.364383,-9548.656652,592.164754,-306.438199
1282.364704,-10066.800811,444.123565,459.657299
1282.365025,-9548.656652,-370.102971,1762.019645
1282.365346,-8956.491898,-1554.432478,1149.143247
1282.365666,-9178.553681,-2072.576638,1455.581446
1282.365987,-9400.615463,-1702.473667,2451.505594
1282.366308,-8882.471304,-2516.700203,2374.896044
1282.366629,-7698.141797,-2368.659014,2145.067394
1282.366950,-8364.327145,-2294.638420,1225.752797
1282.367271,-8660.409521,-1184.329507,1378.971896
1282.367592,-9030.512492,-370.102971,919.314598
1282.367912,-9992.780217,1036.288319,-229.828649
1282.368233,-9770.718434,2516.700203,0.000000
1282.368554,-10807.006753,2590.720797,153.219100
1282.368875,-10214.842000,1776.494261,0.000000
1282.369196,-10214.842000,814.226536,-1378.971896
1282.369517,-10436.903782,1628.453072,-689.485948
1282.369838,-10955.047942,1184.329507,536.266849
1282.370159,-10510.924376,1332.370696,2528.115143
1282.370479,-11399.171507,-1702.473667,2681.334243
1282.370800,-9030.512492,-1776.494261,2451.505594
1282.371121,-9400.615463,-3404.947333,1685.410096
1282.371442,-8956.491898,-3552.988522,2068.457845
1282.371763,-7550.100608,-3775.050304,919.314598
1282.372084,-8216.285956,-2368.659014,536.266849
1282.372405,-9104.533087,-1184.329507,1455.581446
1282.372725,-8882.471304,-222.061783,1149.143247
1282.373046,-10362.883188,888.247130,1991.848295
1282.373367,-11473.192101,888.247130,1532.190996
1282.373688,-11325.150913,1406.391290,2374.896044
1282.374009,-11621.233289,370.102971,2451.505594
1282.374330,-10436.903782,0.000000,383.047749
1282.374651,-9548.656652,1036.288319,0.000000
1282.374971,-10436.903782,1332.370696,842.705048
1282.375292,-9178.553681,740.205942,1608.800546
1282.375613,-8956.491898,-1480.411884,919.314598
1282.375934,-8586.388927,-2368.659014,153.219100
1282.376255,-8734.430116,-1776.494261,919.314598
1282.376576,-8660.409521,-4219.173869,1685.410096
1282.376897,-8068.244768,-3330.926739,2145.067394
1282.377217,-8438.347739,-2368.659014,1532.190996
1282.377538,-8586.388927,-1258.350101,1608.800546
1282.377859,-9252.574275,-592.164754,1608.800546
1282.378180,-9474.636058,-148.041188,1072.533697
1282.378501,-9474.636058,1258.350101,-229.828649
1282.378822,-11547.212695,2516.700203,766.095498
1282.379143,-10436.903782,1702.473667,-153.219100
1282.379463,-9992.780217,592.164754,-1225.752797
1282.379784,-10510.924376,814.226536,-383.047749
1282.380105,-10436.903782,1850.514855,306.438199
1282.380426,-10066.800811,1258.350101,1225.752797
1282.380747,-10584.944971,0.000000,2221.676944
1282.381068,-9622.677246,-1036.288319,1838.629195
1282.381389,-9770.718434,-2368.659014,1915.238745
1282.381710,-9252.574275,-2664.741391,2528.115143
1282.382030,-8438.347739,-2960.823768,1608.800546
1282.382351,-8364.327145,-2146.597232,1149.143247
1282.382672,-8734.430116,-962.267725,1378.971896
1282.382993,-8734.430116,0.000000,1532.190996
1282.383314,-9918.759623,-592.164754,1455.581446
1282.383635,-9696.697840,666.185348,1302.362347
1282.383956,-10732.986159,962.267725,459.657299
1282.384276,-10436.903782,888.247130,0.000000
1282.384597,-11325.150913,1184.329507,-1072.533697
1282.384918,-9696.697840,1406.391290,-689.485948
1282.385239,-10510.924376,2590.720797,306.438199
1282.385560,-10510.924376,1998.556043,1838.629195
1282.385881,-9696.697840,0.000000,1455.581446
1282.386202,-10214.842000,-1036.288319,1991.848295
1282.386522,-10066.800811,-1258.350101,2221.676944
1282.386843,-9474.636058,-2294.638420,2604.724693
1282.387164,-8512.368333,-2590.720797,842.705048
1282.387485,-7772.162391,-1480.411884,306.438199
1282.387806,-9030.512492,0.000000,229.828649
1282.388127,-8808.450710,0.000000,766.095498
1282.388448,-8734.430116,74.020594,-306.438199
1282.388768,-9400.615463,666.185348,0.000000
1282.389089,-9992.780217,1776.494261,-842.705048
1282.389410,-10362.883188,2368.659014,-153.219100
1282.389731,-10066.800811,1110.308913,-459.657299
1282.390052,-9474.636058,1406.391290,-842.705048
1282.390373,-10436.903782,2146.597232,459.657299
1282.390694,-11473.192101,740.205942,2451.505594
1282.391014,-10510.924376,-888.247130,2757.943793
1282.391335,-9918.759623,-2072.576638,2604.724693
1282.391656,-9178.553681,-2516.700203,2451.505594
1282.391977,-8512.368333,-3256.906145,2451.505594
1282.392298,-8068.244768,-3330.926739,1991.848295
1282.392619,-7179.997637,-2590.720797,1608.800546
1282.392940,-7402.059420,-1776.494261,306.438199
1282.393261,-7920.203579,-592.164754,1072.533697
1282.393581,-9622.677246,370.102971,766.095498
1282.393902,-9474.636058,3478.967927,1762.019645
1282.394223,-11843.295072,1998.556043,1532.190996
1282.394544,-10066.800811,1702.473667,2298.286494
1282.394865,-10362.883188,-888.247130,-459.657299
1282.395186,-10140.821405,370.102971,-459.657299
1282.395507,-10955.047942,1776.494261,1302.362347
1282.395827,-10881.027347,1702.473667,2298.286494
1282.396148,-9622.677246,222.061783,2221.676944
1282.396469,-9474.636058,-1480.411884,1302.362347
1282.396790,-8808.450710,-1924.535449,1838.629195
1282.397111,-9622.677246,-4293.194464,2068.457845
1282.397432,-8438.347739,-4219.173869,1532.190996
1282.397753,-7624.121203,-3330.926739,612.876398
1282.398073,-9104.533087,-1628.453072,1378.971896
1282.398394,-9104.533087,148.041188,3677.258390
1282.398715,-9326.594869,-888.247130,1685.410096
1282.399036,-9770.718434,-222.061783,766.095498
1282.399357,-10140.821405,222.061783,-229.828649
1282.399678,-10807.006753,296.082377,76.609550
1282.399999,-10140.821405,518.144159,-995.924147
1282.400319,-10066.800811,1776.494261,-229.828649
1282.400640,-10140.821405,1998.556043,612.876398
1282.400961,-10658.965565,1110.308913,1455.581446
1282.401282,-10288.862594,-1184.329507,1762.019645
1282.401603,-9918.759623,-2294.638420,766.095498
1282.401924,-9252.574275,-2368.659014,1532.190996
1282.402245,-8882.471304,-3404.947333,1685.410096
1282.402566,-7772.162391,-3182.885551,919.314598
1282.402886,-7698.141797,-2664.741391,536.266849
1282.403207,-8290.306550,-296.082377,842.705048
1282.403528,-9252.574275,888.247130,1455.581446
1282.403849,-9474.636058,1406.391290,1685.410096
1282.404170,-9696.697840,2368.659014,919.314598
1282.404491,-10807.006753,1998.556043,995.924147
1282.404812,-10288.862594,1036.288319,306.438199
1282.405132,-10214.842000,222.061783,-153.219100
1282.405453,-10214.842000,1628.453072,0.000000
1282.405774,-11843.295072,1776.494261,2221.676944
1282.406095,-11251.130318,1776.494261,3064.381992
1282.406416,-10214.842000,-1184.329507,3140.991542
1282.406737,-9178.553681,-1258.350101,3140.991542
1282.407058,-9696.697840,-2960.823768,2604.724693
1282.407378,-8586.388927,-4441.235652,2451.505594
1282.407699,-7476.080014,-3627.009116,1302.362347
1282.408020,-7254.018232,-2812.782580,383.047749
1282.408341,-8216.285956,-518.144159,1532.190996
1282.408662,-8882.471304,-222.061783,1915.238745
1282.408983,-9770.718434,0.000000,1685.410096
1282.409304,-9918.759623,296.082377,536.266849
1282.409624,-10955.047942,740.205942,1302.362347
1282.409945,-10955.047942,518.144159,689.485948
1282.410266,-10066.800811,962.267725,0.000000
1282.410587,-9770.718434,1036.288319,-229.828649
1282.410908,-10066.800811,2368.659014,2298.286494
1282.411229,-10362.883188,1036.288319,766.095498
1282.411550,-9696.697840,-222.061783,1608.800546
1282.411870,-9770.718434,-1332.370696,919.314598
1282.412191,-9400.615463,-1258.350101,1302.362347
1282.412512,-9474.636058,-2738.761985,1991.848295
1282.412833,-7846.182985,-3478.967927,1072.533697
1282.413154,-8290.306550,-2146.597232,383.047749
1282.413475,-8808.450710,-370.102971,459.657299
1282.413796,-9030.512492,-222.061783,536.266849
1282.414117,-9474.636058,1258.350101,153.219100
1282.414437,-9696.697840,1776.494261,-536.266849
1282.414758,-10732.986159,2590.720797,0.000000
1282.415079,-9918.759623,2516.700203,1378.971896
1282.415400,-10066.800811,1036.288319,-842.705048
1282.415721,-9548.656652,1406.391290,-1378.971896
1282.416042,-10584.944971,2072.576638,0.000000
1282.416363,-11029.068536,962.267725,1762.019645
1282.416683,-10214.842000,-740.205942,1915.238745
1282.417004,-9474.636058,-1998.556043,1149.143247
1282.417325,-9622.677246,-2146.597232,1532.190996
1282.417646,-9474.636058,-3404.947333,2451.505594
1282.417967,-8586.388927,-4219.173869,1378.971896
1282.418288,-7476.080014,-2960.823768,229.828649
1282.418609,-7624.121203,-814.226536,76.609550
1282.418929,-8512.368333,740.205942,1072.533697
1282.419250,-9844.739029,518.144159,1685.410096
1282.419571,-9548.656652,2072.576638,612.876398
1282.419892,-10436.903782,1628.453072,0.000000
1282.420213,-9918.759623,2886.803174,2681.334243
1282.420534,-12805.562797,518.144159,1532.190996
1282.420855,-9178.553681,74.020594,995.924147
1282.421175,-10584.944971,370.102971,842.705048
1282.421496,-10214.842000,74.020594,2681.334243
1282.421817,-8882.471304,-1924.535449,1532.190996
1282.422138,-9622.677246,-1998.556043,2681.334243
1282.422459,-8364.327145,-1924.535449,1915.238745
1282.422780,-8660.409521,-3256.906145,1838.629195
1282.423101,-8290.306550,-2960.823768,2451.505594
1282.423421,-8216.285956,-2664.741391,842.705048
1282.423742,-9400.615463,-1110.308913,1762.019645
1282.424063,-10066.800811,-296.082377,2681.334243
1282.424384,-8364.327145,148.041188,1225.752797
1282.424705,-10658.965565,1332.370696,229.828649
1282.425026,-11399.171507,2294.638420,919.314598
1282.425347,-10584.944971,1998.556043,919.314598
1282.425668,-10658.965565,518.144159,0.000000
1282.425988,-9622.677246,592.164754,-919.314598
1282.426309,-10066.800811,814.226536,229.828649
1282.426630,-10732.986159,148.041188,1378.971896
1282.426951,-10732.986159,-1998.556043,2145.067394
1282.427272,-8660.409521,-1776.494261,1302.362347
1282.427593,-9474.636058,-2960.823768,306.438199
1282.427914,-8808.450710,-2368.659014,1762.019645
1282.428234,-8882.471304,-2960.823768,1378.971896
1282.428555,-8586.388927,-2146.597232,842.705048
1282.428876,-8216.285956,0.000000,-612.876398
1282.429197,-9696.697840,74.020594,306.438199
1282.429518,-9622.677246,592.164754,612.876398
1282.429839,-9548.656652,888.247130,-229.828649
1282.430160,-11177.109724,1258.350101,0.000000
1282.430480,-10288.862594,962.267725,536.266849
1282.430801,-9770.718434,370.102971,229.828649
1282.431122,-10436.903782,666.185348,536.266849
1282.431443,-10955.047942,2442.679609,1608.800546
1282.431764,-10881.027347,1406.391290,2987.772442
1282.432085,-9918.759623,-1036.288319,3294.210641
1282.432406,-9474.636058,-2368.659014,2298.286494
1282.432726,-8882.471304,-3404.947333,1685.410096
1282.433047,-8364.327145,-3330.926739,1225.752797
1282.433368,-6883.915261,-2220.617826,919.314598
1282.433689,-7105.977043,-962.267725,-153.219100
1282.434010,-7772.162391,444.123565,306.438199
1282.434331,-8586.388927,814.226536,383.047749
1282.434652,-9030.512492,1036.288319,689.485948
1282.434973,-10584.944971,1998.556043,1149.143247
1282.435293,-11621.233289,2220.617826,2451.505594
1282.435614,-11843.295072,740.205942,2757.943793
1282.435935,-10955.047942,-888.247130,1302.362347
1282.436256,-9548.656652,-1776.494261,-612.876398
1282.436577,-9696.697840,814.226536,689.485948
1282.436898,-10362.883188,962.267725,1915.238745
1282.437219,-9474.636058,148.041188,2757.943793
1282.437539,-9030.512492,-1258.350101,1378.971896
1282.437860,-8808.450710,-1480.411884,766.095498
1282.438181,-9548.656652,-2442.679609,1685.410096
1282.438502,-9474.636058,-3256.906145,1608.800546
1282.438823,-8364.327145,-2146.597232,1532.190996
1282.439144,-9474.636058,-888.247130,919.314598
1282.439465,-9474.636058,1110.308913,1072.533697
1282.439785,-10288.862594,1776.494261,612.876398
1282.440106,-9992.780217,2812.782580,-766.095498
1282.440427,-10732.986159,2886.803174,-689.485948
1282.440748,-10140.821405,2072.576638,-383.047749
1282.441069,-9252.574275,74.020594,-2298.286494
1282.441390,-9400.615463,-222.061783,-2681.334243
1282.441711,-10140.821405,1036.288319,-306.438199
1282.442031,-10362.883188,740.205942,2298.286494
1282.442352,-10658.965565,-740.205942,3294.210641
1282.442673,-10658.965565,-2368.659014,3064.381992
1282.442994,-9770.718434,-2368.659014,2757.943793
1282.443315,-10584.944971,-3478.967927,2834.553343
1282.443636,-8882.471304,-3182.885551,2757.943793
1282.443957,-7550.100608,-2812.782580,153.219100
1282.444277,-7772.162391,-962.267725,-919.314598
1282.444598,-7698.141797,740.205942,-766.095498
1282.444919,-8956.491898,1480.411884,229.828649
1282.445240,-10214.842000,1258.350101,76.609550
1282.445561,-9548.656652,2220.617826,459.657299
1282.445882,-11177.109724,0.000000,229.828649
1282.446203,-9326.594869,0.000000,-229.828649
1282.446524,-9696.697840,-814.226536,153.219100
1282.446844,-9252.574275,666.185348,612.876398
1282.447165,-10362.883188,1036.288319,3600.648841
1282.447486,-10362.883188,-1554.432478,3600.648841
1282.447807,-8660.409521,-1998.556043,2451.505594
1282.448128,-10214.842000,-2664.741391,2834.553343
1282.448449,-9400.615463,-2664.741391,2681.334243
1282.448770,-9104.533087,-3552.988522,2987.772442
1282.449090,-8290.306550,-3108.864956,1838.629195
1282.449411,-7846.182985,-1480.411884,1072.533697
1282.449732,-8956.491898,-1406.391290,2145.067394
1282.450053,-9844.739029,-370.102971,1532.190996
1282.450374,-10140.821405,814.226536,995.924147
1282.450695,-11251.130318,1628.453072,1225.752797
1282.451016,-10436.903782,1258.350101,919.314598
1282.451336,-10288.862594,74.020594,-153.219100
1282.451657,-9844.739029,296.082377,-383.047749
1282.451978,-10510.924376,1628.453072,306.438199
1282.452299,-10584.944971,1776.494261,2298.286494
1282.452620,-9992.780217,-1036.288319,2681.334243
1282.452941,-9622.677246,-1998.556043,1455.581446
1282.453262,-9548.656652,-2442.679609,1532.190996
1282.453582,-9400.615463,-3478.967927,2221.676944
1282.453903,-8882.471304,-3775.050304,1532.190996
1282.454224,-7624.121203,-3182.885551,306.438199
1282.454545,-8438.347739,-1110.308913,0.000000
1282.454866,-9326.594869,1036.288319,689.485948
1282.455187,-9474.636058,1406.391290,383.047749
1282.455508,-9992.780217,1924.535449,-306.438199
1282.455828,-10288.862594,2368.659014,-229.828649
1282.456149,-10807.006753,1776.494261,-383.047749
1282.456470,-10881.027347,1332.370696,459.657299
1282.456791,-10436.903782,1036.288319,-689.485948
1282.457112,-10140.821405,1702.473667,0.000000
1282.457433,-10584.944971,888.247130,1455.581446
1282.457754,-9770.718434,-444.123565,2221.676944
1282.458075,-8808.450710,-2368.659014,2987.772442
1282.458395,-9104.533087,-2738.761985,1838.629195
1282.458716,-8734.430116,-3182.885551,1915.238745
1282.459037,-7994.224174,-3182.885551,1762.019645
1282.459358,-8290.306550,-2368.659014,1225.752797
1282.459679,-8364.327145,-740.205942,1378.971896
1282.459999,-8956.491898,0.000000,1378.971896
1282.460320,-9474.636058,0.000000,766.095498
1282.460641,-9548.656652,888.247130,536.266849
1282.460961,-10214.842000,1480.411884,2298.286494
1282.461282,-11103.089130,1184.329507,1608.800546
1282.461603,-10288.862594,0.000000,1225.752797
1282.461924,-9474.636058,-666.185348,-306.438199
1282.462244,-9252.574275,1184.329507,1991.848295
1282.462565,-10510.924376,1924.535449,2298.286494
1282.462886,-9844.739029,1332.370696,3217.601092
1282.463206,-9400.615463,-740.205942,2451.505594
1282.463527,-8956.491898,-1702.473667,1378.971896
1282.463848,-9400.615463,-2590.720797,2757.943793
1282.464169,-9030.512492,-4293.194464,2145.067394
1282.464489,-8438.347739,-2368.659014,1838.629195
1282.464810,-8956.491898,-296.082377,842.705048
1282.465131,-10066.800811,1850.514855,2298.286494
1282.465451,-9844.739029,1776.494261,1225.752797
1282.465772,-9548.656652,2368.659014,229.828649
1282.466093,-11103.089130,2664.741391,-306.438199
1282.466413,-11251.130318,2368.659014,-306.438199
1282.466734,-10288.862594,740.205942,-766.095498
1282.467055,-9400.615463,888.247130,-1838.629195
1282.467376,-10436.903782,2220.617826,-766.095498
1282.467696,-10807.006753,1480.411884,1072.533697
1282.468017,-10140.821405,-592.164754,1838.629195
1282.468338,-9252.574275,-2886.803174,766.095498
1282.468658,-9030.512492,-3108.864956,612.876398
1282.468979,-9326.594869,-3330.926739,2221.676944
1282.469300,-8882.471304,-3849.070898,3370.820191
1282.469621,-7254.018232,-3034.844362,1072.533697
1282.469941,-8068.244768,-2146.597232,76.609550
1282.470262,-8364.327145,-518.144159,383.047749
1282.470583,-9400.615463,-296.082377,1302.362347
1282.470903,-9770.718434,1554.432478,0.000000
1282.471224,-9992.780217,2590.720797,-229.828649
1282.471545,-10362.883188,2146.597232,0.000000
1282.471865,-9918.759623,666.185348,0.000000
1282.472186,-9474.636058,592.164754,0.000000
1282.472507,-10510.924376,740.205942,1149.143247
1282.472828,-10066.800811,222.061783,1532.190996
1282.473148,-9400.615463,-296.082377,2068.457845
1282.473469,-8956.491898,-1036.288319,2221.676944
1282.473790,-9326.594869,-666.185348,2451.505594
1282.474110,-9400.615463,-2368.659014,3907.087040
1282.474431,-8586.388927,-4885.359217,2681.334243
1282.474752,-7994.224174,-4441.235652,2145.067394
1282.475073,-9474.636058,-3108.864956,2374.896044
1282.475393,-9918.759623,-1480.411884,2834.553343
1282.475714,-9178.553681,592.164754,2145.067394
1282.476035,-10214.842000,1184.329507,766.095498
1282.476355,-9770.718434,2812.782580,766.095498
1282.476676,-11473.192101,1332.370696,919.314598
1282.476997,-10436.903782,814.226536,459.657299
1282.477317,-10214.842000,296.082377,-536.266849
1282.477638,-11103.089130,1776.494261,-383.047749
1282.477959,-10584.944971,1628.453072,2068.457845
1282.478280,-10362.883188,-666.185348,2145.067394
1282.478600,-9548.656652,-1406.391290,2068.457845
1282.478921,-10140.821405,-2516.700203,2145.067394
1282.479242,-9770.718434,-3330.926739,1225.752797
1282.479562,-9030.512492,-3330.926739,1762.019645
1282.479883,-7698.141797,-1924.535449,689.485948
1282.480204,-8068.244768,148.041188,612.876398
1282.480525,-8882.471304,1036.288319,1378.971896
1282.480845,-8956.491898,148.041188,306.438199
1282.481166,-9400.615463,444.123565,-153.219100
1282.481487,-10732.986159,666.185348,229.828649
1282.481807,-10658.965565,1554.432478,306.438199
1282.482128,-10510.924376,1036.288319,459.657299
1282.482449,-10066.800811,1258.350101,-383.047749
1282.482769,-9696.697840,2220.617826,-153.219100
1282.483090,-10881.027347,2368.659014,459.657299
1282.483411,-10140.821405,148.041188,2451.505594
1282.483732,-9178.553681,-1702.473667,995.924147
1282.484052,-8808.450710,-2072.576638,1302.362347
1282.484373,-8808.450710,-3330.926739,1608.800546
1282.484694,-7179.997637,-2516.700203,2451.505594
1282.485014,-9252.574275,-2738.761985,1685.410096
1282.485335,-7994.224174,-370.102971,1149.143247
1282.485656,-8734.430116,-518.144159,1149.143247
1282.485977,-9474.636058,-666.185348,2374.896044
1282.486297,-8882.471304,666.185348,842.705048
1282.486618,-11325.150913,1110.308913,1302.362347
1282.486939,-10288.862594,1702.473667,459.657299
1282.487259,-9696.697840,962.267725,76.609550
1282.487580,-9918.759623,1480.411884,-306.438199
1282.487901,-10510.924376,2368.659014,459.657299
1282.488221,-11029.068536,2072.576638,2221.676944
1282.488542,-10732.986159,814.226536,3064.381992
1282.488863,-9474.636058,-1184.329507,2298.286494
1282.489184,-10066.800811,-2072.576638,2757.943793
1282.489504,-10362.883188,-2960.823768,3064.381992
1282.489825,-8882.471304,-3849.070898,2757.943793
1282.490146,-7624.121203,-3627.009116,919.314598
1282.490466,-7698.141797,-1998.556043,-459.657299
1282.490787,-7994.224174,444.123565,-306.438199
1282.491108,-8956.491898,814.226536,-229.828649
1282.491429,-8290.306550,1628.453072,-1608.800546
1282.491749,-10658.965565,2738.761985,-536.266849
1282.492070,-11251.130318,2072.576638,76.609550
1282.492391,-10955.047942,666.185348,0.000000
1282.492711,-11251.130318,370.102971,0.000000
1282.493032,-11177.109724,1554.432478,229.828649
1282.493353,-11251.130318,1702.473667,1378.971896
1282.493673,-10584.944971,148.041188,1915.238745
1282.493994,-9104.533087,-1480.411884,459.657299
1282.494315,-9326.594869,-1184.329507,383.047749
1282.494636,-8734.430116,-2886.803174,689.485948
1282.494956,-7550.100608,-3849.070898,1149.143247
1282.495277,-7698.141797,-4219.173869,689.485948
1282.495598,-8216.285956,-2516.700203,612.876398
1282.495918,-9622.677246,-1480.411884,1838.629195
1282.496239,-9770.718434,-962.267725,1915.238745
1282.496560,-9474.636058,444.123565,1302.362347
1282.496881,-10807.006753,740.205942,383.047749
1282.497201,-9992.780217,2664.741391,383.047749
1282.497522,-9918.759623,740.205942,-536.266849
1282.497843,-8808.450710,1110.308913,-2221.676944
1282.498163,-9400.615463,2516.700203,-1225.752797
1282.498484,-11029.068536,1850.514855,689.485948
1282.498805,-9622.677246,74.020594,1991.848295
1282.499125,-10214.842000,-2146.597232,2757.943793
1282.499446,-10066.800811,-3330.926739,3524.039291
1282.499767,-10658.965565,-3552.988522,4826.401637
1282.500088,-9844.739029,-4441.235652,4749.792088
1282.500408,-8734.430116,-4071.132681,3294.210641
1282.500729,-8512.368333,-1924.535449,1838.629195
1282.501050,-8586.388927,-518.144159,1608.800546
1282.501370,-8142.265362,0.000000,1685.410096
1282.501691,-9178.553681,740.205942,229.828649
1282.502012,-9622.677246,1628.453072,0.000000
1282.502333,-10288.862594,1776.494261,0.000000
1282.502653,-10214.842000,888.247130,-229.828649
1282.502974,-10584.944971,592.164754,-1225.752797
1282.503295,-10732.986159,2146.597232,0.000000
1282.503615,-11103.089130,1924.535449,1762.019645
1282.503936,-10436.903782,74.020594,2604.724693
1282.504257,-10362.883188,-1924.535449,2298.286494
1282.504577,-9844.739029,-2516.700203,2374.896044
1282.504898,-9844.739029,-2738.761985,2911.162892
1282.505219,-9104.533087,-4145.153275,2911.162892
1282.505540,-7179.997637,-4145.153275,2451.505594
1282.505860,-7624.121203,-1628.453072,459.657299
1282.506181,-8438.347739,0.000000,612.876398
1282.506502,-8956.491898,1036.288319,536.266849
1282.506822,-9474.636058,1554.432478,306.438199
1282.507143,-10140.821405,1924.535449,536.266849
1282.507464,-11103.089130,2146.597232,306.438199
1282.507784,-11177.109724,962.267725,76.609550
1282.508105,-10436.903782,592.164754,-995.924147
1282.508426,-9844.739029,2368.659014,-383.047749
1282.508747,-10288.862594,2590.720797,766.095498
1282.509067,-9844.739029,1110.308913,1762.019645
1282.509388,-9474.636058,-1110.308913,1149.143247
1282.509709,-8882.471304,-2072.576638,766.095498
1282.510029,-8586.388927,-2738.761985,1455.581446
1282.510350,-8660.409521,-3923.091493,1608.800546
1282.510671,-7402.059420,-3108.864956,842.705048
1282.510992,-8068.244768,-1924.535449,842.705048
1282.511312,-8512.368333,-296.082377,1455.581446
1282.511633,-8734.430116,-518.144159,2068.457845
1282.511954,-9622.677246,-370.102971,1378.971896
1282.512274,-10362.883188,1406.391290,995.924147
1282.512595,-11473.192101,1924.535449,1455.581446
1282.512916,-9992.780217,1110.308913,229.828649
1282.513236,-9474.636058,518.144159,-689.485948
1282.513557,-9770.718434,1110.308913,-995.924147
1282.513878,-10955.047942,1924.535449,995.924147
1282.514199,-10584.944971,666.185348,2374.896044
1282.514519,-10288.862594,-1332.370696,1915.238745
1282.514840,-9770.718434,-1184.329507,1455.581446
1282.515161,-10140.821405,-1776.494261,2834.553343
1282.515481,-9252.574275,-2368.659014,1915.238745
1282.515802,-8068.244768,-2368.659014,1838.629195
1282.516123,-8660.409521,-2664.741391,536.266849
1282.516444,-8142.265362,-222.061783,1378.971896
1282.516764,-9918.759623,-666.185348,766.095498
1282.517085,-9252.574275,962.267725,919.314598
1282.517406,-10436.903782,1850.514855,612.876398
1282.517726,-11103.089130,2294.638420,995.924147
1282.518047,-11029.068536,1776.494261,612.876398
1282.518368,-11029.068536,592.164754,0.000000
1282.518688,-10436.903782,1332.370696,0.000000
1282.519009,-10807.006753,1480.411884,919.314598
1282.519330,-10214.842000,592.164754,1685.410096
1282.519651,-9252.574275,-1110.308913,1225.752797
1282.519971,-9030.512492,-1184.329507,1072.533697
1282.520292,-9252.574275,-2146.597232,1991.848295
1282.520613,-8586.388927,-3552.988522,2451.505594
1282.520933,-7105.977043,-3182.885551,2145.067394
1282.521254,-8364.327145,-2960.823768,1072.533697
1282.521575,-8808.450710,-962.267725,2221.676944
1282.521896,-9326.594869,-592.164754,2374.896044
1282.522216,-9474.636058,74.020594,1991.848295
1282.522537,-9844.739029,666.185348,842.705048
1282.522858,-10510.924376,962.267725,459.657299
1282.523178,-9992.780217,222.061783,0.000000
1282.523499,-9622.677246,518.144159,-612.876398
1282.523820,-9622.677246,1702.473667,306.438199
1282.524140,-10288.862594,1998.556043,1149.143247
1282.524461,-9918.759623,518.144159,1838.629195
1282.524782,-9770.718434,-1258.350101,1838.629195
1282.525103,-8808.450710,-2590.720797,3370.820191
1282.525423,-9548.656652,-2442.679609,2681.334243
1282.525744,-9400.615463,-3923.091493,3217.601092
1282.526065,-8068.244768,-4441.235652,1762.019645
1282.526385,-7550.100608,-3034.844362,995.924147
1282.526706,-8586.388927,-1406.391290,919.314598
1282.527027,-9548.656652,-148.041188,1302.362347
1282.527348,-9622.677246,666.185348,1072.533697
1282.527668,-10658.965565,1776.494261,459.657299
1282.527989,-10955.047942,2516.700203,-153.219100
1282.528310,-10955.047942,592.164754,689.485948
1282.528630,-10510.924376,-222.061783,0.000000
1282.528951,-10436.903782,592.164754,-153.219100
1282.529272,-11399.171507,1554.432478,689.485948
1282.529592,-10288.862594,518.144159,1685.410096
1282.529913,-9844.739029,0.000000,1225.752797
1282.530234,-9548.656652,-666.185348,689.485948
1282.530555,-9030.512492,-666.185348,1608.800546
1282.530875,-9178.553681,-2294.638420,1991.848295
1282.531196,-8882.471304,-3034.844362,1149.143247
1282.531517,-8882.471304,-1924.535449,1532.190996
1282.531837,-9770.718434,-1406.391290,1991.848295
1282.532158,-9178.553681,0.000000,2451.505594
1282.532479,-9178.553681,222.061783,919.314598
1282.532800,-10066.800811,2294.638420,612.876398
1282.533120,-9992.780217,2220.617826,306.438199
1282.533441,-9696.697840,1184.329507,-306.438199
1282.533762,-9918.759623,1406.391290,-536.266849
1282.534082,-9844.739029,1332.370696,-1149.143247
1282.534403,-10510.924376,1998.556043,1149.143247
1282.534724,-10288.862594,814.226536,2298.286494
1282.535044,-9622.677246,-592.164754,1378.971896
1282.535365,-9178.553681,-1184.329507,1838.629195
1282.535686,-9474.636058,-1850.514855,2451.505594
1282.536007,-8808.450710,-3034.844362,2298.286494
1282.536327,-7920.203579,-3330.926739,1685.410096
1282.536648,-7105.977043,-1924.535449,536.266849
1282.536969,-8734.430116,0.000000,1378.971896
1282.537289,-8956.491898,370.102971,2374.896044
1282.537610,-8142.265362,-518.144159,1762.019645
1282.537931,-9548.656652,370.102971,383.047749
1282.538252,-10955.047942,888.247130,766.095498
1282.538572,-11177.109724,1036.288319,1455.581446
1282.538893,-10658.965565,148.041188,153.219100
1282.539214,-10066.800811,1332.370696,0.000000
1282.539534,-10510.924376,1850.514855,766.095498
1282.539855,-10881.027347,666.185348,1762.019645
1282.540176,-10214.842000,-1036.288319,1838.629195
1282.540496,-9400.615463,-2072.576638,1838.629195
1282.540817,-9474.636058,-2368.659014,1072.533697
1282.541138,-8956.491898,-2368.659014,1378.971896
1282.541459,-8216.285956,-2294.638420,689.485948
1282.541779,-8586.388927,-1184.329507,2145.067394
1282.542100,-8586.388927,0.000000,76.609550
1282.542421,-9474.636058,1406.391290,459.657299
1282.542741,-9622.677246,1184.329507,153.219100
1282.543062,-9770.718434,1480.411884,229.828649
1282.543383,-10955.047942,1110.308913,383.047749
1282.543704,-10436.903782,296.082377,229.828649
1282.544024,-9548.656652,-148.041188,-1225.752797
1282.544345,-10658.965565,1332.370696,-459.657299
1282.544666,-11177.109724,2590.720797,689.485948
1282.544986,-10955.047942,1406.391290,1838.629195
1282.545307,-9252.574275,-666.185348,1532.190996
1282.545628,-9104.533087,-1702.473667,842.705048
1282.545948,-8734.430116,-2664.741391,2298.286494
1282.546269,-9326.594869,-3849.070898,2681.334243
1282.546590,-7846.182985,-4441.235652,2374.896044
1282.546911,-7624.121203,-3404.947333,1455.581446
1282.547231,-8734.430116,-1480.411884,2911.162892
1282.547552,-9326.594869,0.000000,2528.115143
1282.547873,-9104.533087,370.102971,1532.190996
1282.548193,-9474.636058,1332.370696,229.828649
1282.548514,-8586.388927,2886.803174,0.000000
1282.548835,-10436.903782,814.226536,76.609550
1282.549155,-9326.594869,296.082377,-76.609550
1282.549476,-9252.574275,74.020594,-612.876398
1282.549797,-10436.903782,740.205942,995.924147
1282.550118,-9548.656652,0.000000,3064.381992
1282.550438,-11029.068536,-1702.473667,3830.477490
1282.550759,-9696.697840,-2368.659014,2681.334243
1282.551080,-10066.800811,-2146.597232,2451.505594
1282.551400,-9104.533087,-2738.761985,2145.067394
1282.551721,-7772.162391,-2442.679609,919.314598
1282.552042,-8216.285956,-1184.329507,306.438199
1282.552363,-8216.285956,148.041188,459.657299
1282.552683,-8808.450710,296.082377,1149.143247
1282.553004,-9622.677246,0.000000,1378.971896
1282.553325,-10510.924376,296.082377,1225.752797
1282.553645,-11917.315666,888.247130,1378.971896
1282.553966,-10881.027347,-222.061783,1532.190996
1282.554287,-9844.739029,-962.267725,-919.314598
1282.554607,-9770.718434,148.041188,-1762.019645
1282.554928,-9770.718434,1998.556043,-306.438199
1282.555249,-10288.862594,2072.576638,1455.581446
1282.555570,-10140.821405,-222.061783,2298.286494
1282.555890,-10140.821405,-1628.453072,1455.581446
1282.556211,-10362.883188,-2738.761985,1915.238745
1282.556532,-10140.821405,-3923.091493,2451.505594
1282.556852,-9400.615463,-3923.091493,2451.505594
1282.557173,-8734.430116,-1850.514855,1378.971896
1282.557494,-8808.450710,-296.082377,383.047749
1282.557815,-9104.533087,1258.350101,76.609550
1282.558135,-8808.450710,1998.556043,0.000000
1282.558456,-9770.718434,2294.638420,-536.266849
1282.558777,-9844.739029,1998.556043,-689.485948
1282.559097,-9918.759623,962.267725,-459.657299
1282.559418,-9474.636058,-370.102971,-995.924147
1282.559739,-9400.615463,888.247130,-689.485948
1282.560059,-9918.759623,2146.597232,766.095498
1282.560380,-10214.842000,1776.494261,2834.553343
1282.560701,-10066.800811,222.061783,1991.848295
1282.561021,-9696.697840,-1110.308913,1915.238745
1282.561342,-9918.759623,-1924.535449,1915.238745
1282.561663,-9178.553681,-2442.679609,2987.772442
1282.561984,-8142.265362,-3627.009116,2145.067394
1282.562304,-7179.997637,-2590.720797,1455.581446
1282.562625,-7624.121203,-1184.329507,1072.533697
1282.562946,-9104.533087,-296.082377,1762.019645
1282.563266,-9474.636058,0.000000,1608.800546
1282.563587,-10066.800811,1480.411884,1532.190996
1282.563908,-11473.192101,1628.453072,2374.896044
1282.564228,-10732.986159,814.226536,2987.772442
1282.564549,-10510.924376,-1332.370696,995.924147
1282.564870,-9474.636058,-888.247130,0.000000
1282.565190,-10214.842000,148.041188,689.485948
1282.565511,-9918.759623,222.061783,1762.019645
1282.565832,-9252.574275,-148.041188,1762.019645
1282.566152,-8956.491898,-814.226536,842.705048
1282.566473,-9400.615463,-1110.308913,1378.971896
1282.566794,-9104.533087,-1924.535449,1532.190996
1282.567115,-9548.656652,-3701.029710,1455.581446
1282.567435,-8068.244768,-2294.638420,229.828649
1282.567756,-9474.636058,-666.185348,1302.362347
1282.568077,-9918.759623,-518.144159,1455.581446
1282.568397,-9252.574275,74.020594,-1072.533697
1282.568718,-10066.800811,740.205942,-459.657299
1282.569039,-10584.944971,2220.617826,0.000000
1282.569359,-11177.109724,1850.514855,76.609550
1282.569680,-10214.842000,740.205942,-306.438199
1282.570001,-9770.718434,1036.288319,-1378.971896
1282.570321,-9918.759623,2220.617826,-459.657299
1282.570642,-10658.965565,1924.535449,1302.362347
1282.570963,-10584.944971,0.000000,2145.067394
1282.571283,-9992.780217,-1184.329507,2451.505594
1282.571604,-9474.636058,-2294.638420,919.314598
1282.571925,-9474.636058,-4071.132681,1378.971896
1282.572246,-8438.347739,-3849.070898,1225.752797
1282.572566,-8512.368333,-2886.803174,1302.362347
1282.572887,-7994.224174,-814.226536,153.219100
1282.573208,-8808.450710,-222.061783,229.828649
1282.573528,-8956.491898,148.041188,536.266849
1282.573849,-9770.718434,1110.308913,153.219100
1282.574170,-11103.089130,1776.494261,919.314598
1282.574490,-10732.986159,1406.391290,1302.362347
1282.574811,-9474.636058,148.041188,306.438199
1282.575132,-10362.883188,518.144159,0.000000
1282.575452,-10658.965565,740.205942,919.314598
1282.575773,-10066.800811,444.123565,2911.162892
1282.576094,-9474.636058,-1480.411884,2604.724693
1282.576414,-8882.471304,-2368.659014,1608.800546
1282.576735,-9326.594869,-1776.494261,2681.334243
1282.577056,-8660.409521,-2664.741391,2681.334243
1282.577376,-7846.182985,-2960.823768,2451.505594
1282.577697,-7402.059420,-2220.617826,1225.752797
1282.578018,-8512.368333,-1406.391290,1532.190996
1282.578339,-9400.615463,-666.185348,2374.896044
1282.578659,-9548.656652,-296.082377,2145.067394
1282.578980,-10066.800811,1036.288319,1072.533697
1282.579301,-11251.130318,2516.700203,1302.362347
1282.579621,-11251.130318,2368.659014,2604.724693
1282.579942,-10214.842000,814.226536,842.705048
1282.580263,-9548.656652,666.185348,76.609550
1282.580583,-10288.862594,888.247130,459.657299
1282.580904,-10362.883188,0.000000,1991.848295
1282.581225,-9770.718434,-1628.453072,1455.581446
1282.581545,-9030.512492,-1332.370696,919.314598
1282.581866,-9548.656652,-1850.514855,1302.362347
1282.582187,-9104.533087,-1924.535449,2221.676944
1282.582507,-9326.594869,-3330.926739,2451.505594
1282.582828,-8586.388927,-2368.659014,766.095498
1282.583149,-9326.594869,-222.061783,995.924147
1282.583470,-9622.677246,-148.041188,766.095498
1282.583790,-8216.285956,518.144159,306.438199
1282.584111,-10362.883188,2220.617826,-229.828649
1282.584432,-10362.883188,2368.659014,0.000000
1282.584752,-10066.800811,1850.514855,-306.438199
1282.585073,-10362.883188,0.000000,-1225.752797
1282.585394,-9474.636058,814.226536,-1915.238745
1282.585714,-10510.924376,1554.432478,0.000000
1282.586035,-10436.903782,1036.288319,1378.971896
1282.586356,-9326.594869,74.020594,1838.629195
1282.586676,-9104.533087,-1924.535449,1455.581446
1282.586997,-9326.594869,-2072.576638,1838.629195
1282.587318,-9252.574275,-3478.967927,1991.848295
1282.587638,-7994.224174,-3552.988522,1302.362347
1282.587959,-7698.141797,-2220.617826,612.876398
1282.588280,-8956.491898,0.000000,1532.190996
1282.588601,-9622.677246,-518.144159,1915.238745
1282.588921,-8808.450710,0.000000,1302.362347
1282.589242,-9844.739029,962.267725,229.828649
1282.589563,-10584.944971,1702.473667,919.314598
1282.589883,-11251.130318,962.267725,2068.457845
1282.590204,-9992.780217,0.000000,459.657299
1282.590525,-9474.636058,0.000000,-612.876398
1282.590845,-9252.574275,2146.597232,383.047749
1282.591166,-10436.903782,444.123565,2451.505594
1282.591487,-9400.615463,-888.247130,2834.553343
1282.591807,-9178.553681,-2368.659014,2068.457845
1282.592128,-9474.636058,-2146.597232,1915.238745
1282.592449,-8882.471304,-2738.761985,2068.457845
1282.592769,-8956.491898,-3330.926739,1685.410096
1282.593090,-8734.430116,-1702.473667,842.705048
1282.593411,-9030.512492,0.000000,766.095498
1282.593732,-9030.512492,1332.370696,1072.533697
1282.594052,-9918.759623,1036.288319,919.314598
1282.594373,-10807.006753,1480.411884,383.047749
1282.594694,-11473.192101,1924.535449,536.266849
1282.595014,-11473.192101,1776.494261,689.485948
1282.595335,-10955.047942,518.144159,0.000000
1282.595656,-10140.821405,740.205942,-689.485948
1282.595976,-10658.965565,1406.391290,153.219100
1282.596297,-9770.718434,1480.411884,2681.334243
1282.596618,-10214.842000,-444.123565,1991.848295
1282.596938,-8956.491898,-1998.556043,1378.971896
1282.597259,-9104.533087,-2072.576638,612.876398
1282.597580,-9178.553681,-2368.659014,1915.238745
1282.597900,-7624.121203,-3478.967927,1149.143247
1282.598221,-7179.997637,-2738.761985,229.828649
1282.598542,-8364.327145,-1332.370696,383.047749
1282.598863,-9178.553681,0.000000,1302.362347
1282.599183,-9030.512492,0.000000,1915.238745
1282.599504,-10436.903782,888.247130,1149.143247
1282.599825,-9992.780217,2368.659014,612.876398
1282.600145,-10955.047942,962.267725,1072.533697
1282.600466,-10214.842000,444.123565,689.485948
1282.600787,-9030.512492,1184.329507,0.000000
1282.601107,-10732.986159,962.267725,459.657299
1282.601428,-10362.883188,1480.411884,2528.115143
1282.601749,-9548.656652,-592.164754,2451.505594
1282.602069,-9252.574275,-3108.864956,2145.067394
1282.602390,-8290.306550,-2516.700203,2221.676944
1282.602711,-9696.697840,-3627.009116,2911.162892
1282.603031,-7846.182985,-4071.132681,2145.067394
1282.603352,-7846.182985,-2368.659014,1838.629195
1282.603673,-8586.388927,-1332.370696,2374.896044
1282.603993,-9474.636058,0.000000,2834.553343
1282.604314,-10362.883188,-74.020594,2681.334243
1282.604635,-10362.883188,740.205942,1149.143247
1282.604956,-10955.047942,592.164754,766.095498
1282.605276,-10955.047942,518.144159,766.095498
1282.605597,-9844.739029,222.061783,-689.485948
1282.605918,-9474.636058,1776.494261,-1991.848295
1282.606238,-9178.553681,2590.720797,-1378.971896
1282.606559,-10362.883188,1406.391290,229.828649
1282.606880,-10066.800811,444.123565,1225.752797
1282.607200,-9770.718434,-1554.432478,919.314598
1282.607521,-10436.903782,-1850.514855,1685.410096
1282.607842,-10436.903782,-2368.659014,3064.381992
1282.608162,-9178.553681,-4071.132681,2374.896044
1282.608483,-8364.327145,-3404.947333,842.705048
1282.608804,-8808.450710,-1554.432478,-842.705048
1282.609124,-9400.615463,-888.247130,919.314598
1282.609445,-9104.533087,148.041188,306.438199
1282.609766,-9474.636058,1258.350101,-459.657299
1282.610087,-10436.903782,2738.761985,-306.438199
1282.610407,-11103.089130,2516.700203,383.047749
1282.610728,-10362.883188,962.267725,-383.047749
1282.611049,-9918.759623,962.267725,-1072.533697
1282.611369,-10436.903782,1480.411884,-612.876398
1282.611690,-10584.944971,1406.391290,1532.190996
1282.612011,-9474.636058,296.082377,1532.190996
1282.612331,-9030.512492,-296.082377,1225.752797
1282.612652,-9252.574275,-814.226536,1838.629195
1282.612973,-8586.388927,-2368.659014,3447.429741
1282.613293,-8734.430116,-4441.235652,3524.039291
1282.613614,-7698.141797,-3923.091493,2374.896044
1282.613935,-9178.553681,-2442.679609,2681.334243
1282.614255,-8882.471304,-1702.473667,2528.115143
1282.614576,-8734.430116,296.082377,1455.581446
1282.614897,-9474.636058,740.205942,919.314598
1282.615218,-10510.924376,2664.741391,842.705048
1282.615538,-11399.171507,2590.720797,1302.362347
1282.615859,-10732.986159,444.123565,612.876398
1282.616180,-9770.718434,296.082377,-689.485948
1282.616500,-10510.924376,814.226536,0.000000
1282.616821,-10807.006753,740.205942,1762.019645
1282.617142,-8882.471304,-296.082377,1685.410096
1282.617462,-8734.430116,-1998.556043,1149.143247
1282.617783,-8290.306550,-2738.761985,612.876398
1282.618104,-8734.430116,-3182.885551,1302.362347
1282.618424,-8438.347739,-2368.659014,1762.019645
1282.618745,-9474.636058,-1554.432478,1991.848295
1282.619066,-9104.533087,74.020594,1072.533697
1282.619386,-9474.636058,518.144159,2451.505594
1282.619707,-9918.759623,-1776.494261,2145.067394
1282.620028,-9770.718434,444.123565,1608.800546
1282.620349,-12435.459826,296.082377,1685.410096
1282.620669,-10955.047942,888.247130,536.266849
1282.620990,-10436.903782,1258.350101,-842.705048
1282.621311,-10362.883188,1850.514855,-1685.410096
1282.621631,-9474.636058,3849.070898,-1149.143247
1282.621952,-11103.089130,2812.782580,306.438199
1282.622273,-10362.883188,666.185348,1762.019645
1282.622593,-8956.491898,-1628.453072,612.876398
1282.622914,-10214.842000,-2960.823768,1149.143247
1282.623235,-9400.615463,-2294.638420,2298.286494
1282.623555,-9104.533087,-3552.988522,2221.676944
1282.623876,-7105.977043,-3182.885551,919.314598
1282.624197,-7550.100608,-1332.370696,0.000000
1282.624517,-8734.430116,-1184.329507,536.266849
1282.624838,-9178.553681,-666.185348,0.000000
1282.625159,-9622.677246,296.082377,459.657299
1282.625479,-9992.780217,1332.370696,0.000000
1282.625800,-10584.944971,1406.391290,689.485948
1282.626121,-11103.089130,962.267725,612.876398
1282.626442,-9844.739029,518.144159,0.000000
1282.626762,-10288.862594,1480.411884,612.876398
1282.627083,-9992.780217,888.247130,1762.019645
1282.627404,-10066.800811,-666.185348,1455.581446
1282.627724,-9326.594869,-1406.391290,1302.362347
1282.628045,-8438.347739,-1184.329507,1838.629195
1282.628366,-8956.491898,-1850.514855,2374.896044
1282.628686,-8364.327145,-3775.050304,2834.553343
1282.629007,-7698.141797,-4367.215058,1532.190996
1282.629328,-8364.327145,-2812.782580,1378.971896
1282.629648,-10140.821405,-888.247130,2528.115143
1282.629969,-9178.553681,-592.164754,2681.334243
1282.630290,-9844.739029,666.185348,1991.848295
1282.630610,-11029.068536,1628.453072,1762.019645
1282.630931,-10732.986159,1924.535449,1532.190996
1282.631252,-11029.068536,-148.041188,995.924147
1282.631573,-9918.759623,0.000000,-1302.362347
1282.631893,-10658.965565,1924.535449,-536.266849
1282.632214,-11103.089130,2516.700203,1532.190996
1282.632535,-10066.800811,518.144159,2604.724693
1282.632855,-9252.574275,-1258.350101,1532.190996
1282.633176,-10066.800811,-2294.638420,1455.581446
1282.633497,-9326.594869,-1850.514855,1838.629195
1282.633817,-9474.636058,-2368.659014,2604.724693
1282.634138,-8142.265362,-2738.761985,1608.800546
1282.634459,-8216.285956,-444.123565,689.485948
1282.634779,-9326.594869,370.102971,842.705048
1282.635100,-9326.594869,814.226536,1302.362347
1282.635421,-9548.656652,740.205942,766.095498
1282.635741,-10584.944971,740.205942,306.438199
1282.636062,-10584.944971,1776.494261,689.485948
1282.636383,-11103.089130,518.144159,76.609550
1282.636704,-9918.759623,1332.370696,-536.266849
1282.637024,-10288.862594,2368.659014,-536.266849
1282.637345,-10584.944971,2590.720797,229.828649
1282.637666,-9992.780217,1480.411884,919.314598
1282.637986,-10066.800811,-74.020594,0.000000
1282.638307,-8512.368333,-2738.761985,306.438199
1282.638628,-9178.553681,-3478.967927,1991.848295
1282.638948,-8660.409521,-4589.276840,2068.457845
1282.639269,-7328.038826,-3849.070898,1149.143247
1282.639590,-8216.285956,-2220.617826,1225.752797
1282.639910,-8142.265362,-370.102971,1762.019645
1282.640231,-8660.409521,148.041188,2221.676944
1282.640552,-9844.739029,518.144159,1378.971896
1282.640872,-9992.780217,814.226536,919.314598
1282.641193,-10510.924376,592.164754,612.876398
1282.641514,-10140.821405,-814.226536,536.266849
1282.641835,-9326.594869,0.000000,-689.485948
1282.642155,-10732.986159,1628.453072,-919.314598
1282.642476,-10362.883188,2886.803174,1838.629195
1282.642797,-10362.883188,1702.473667,2604.724693
1282.643117,-10214.842000,-518.144159,1838.629195
1282.643438,-9770.718434,-1480.411884,1685.410096
1282.643759,-9548.656652,-2812.782580,2145.067394
1282.644079,-8734.430116,-4589.276840,2298.286494
1282.644400,-7402.059420,-3849.070898,1532.190996
1282.644721,-8364.327145,-2220.617826,919.314598
1282.645041,-9252.574275,296.082377,2298.286494
1282.645362,-9696.697840,1036.288319,1685.410096
1282.645683,-9770.718434,1184.329507,1149.143247
1282.646003,-10510.924376,1776.494261,383.047749
1282.646324,-11473.192101,1480.411884,2451.505594
1282.646645,-11177.109724,1036.288319,459.657299
1282.646966,-10436.903782,962.267725,-1072.533697
1282.647286,-10510.924376,2368.659014,-306.438199
1282.647607,-10881.027347,1628.453072,229.828649
1282.647928,-9992.780217,740.205942,842.705048
1282.648248,-10140.821405,-74.020594,919.314598
1282.648569,-9548.656652,-1332.370696,383.047749
1282.648890,-9030.512492,-2220.617826,919.314598
1282.649210,-7550.100608,-3108.864956,2604.724693
1282.649531,-9474.636058,-2664.741391,1225.752797
1282.649852,-7624.121203,-2516.700203,1378.971896
1282.650172,-8660.409521,-2664.741391,919.314598
1282.650493,-7994.224174,-1110.308913,2298.286494
1282.650814,-8364.327145,-1258.350101,0.000000
1282.651134,-9844.739029,1332.370696,995.924147
1282.651455,-9696.697840,2442.679609,306.438199
1282.651776,-9474.636058,2146.597232,0.000000
1282.652096,-9770.718434,814.226536,-919.314598
1282.652417,-9622.677246,2368.659014,-612.876398
1282.652738,-11547.212695,2294.638420,1915.238745
1282.653059,-10732.986159,0.000000,2604.724693
1282.653379,-9030.512492,-814.226536,1762.019645
1282.653700,-10362.883188,-1998.556043,1991.848295
1282.654021,-8586.388927,-2146.597232,2374.896044
1282.654341,-8734.430116,-3108.864956,3217.601092
1282.654662,-6661.853478,-4367.215058,2911.162892
1282.654983,-7105.977043,-2146.597232,1072.533697
1282.655303,-8512.368333,-962.267725,1685.410096
1282.655624,-9104.533087,-148.041188,2374.896044
1282.655945,-9400.615463,740.205942,1378.971896
1282.656265,-10732.986159,1332.370696,1149.143247
1282.656586,-11251.130318,1850.514855,842.705048
1282.656907,-10955.047942,1332.370696,995.924147
1282.657227,-9992.780217,296.082377,-153.219100
1282.657548,-11473.192101,592.164754,-76.609550
1282.657869,-10658.965565,1998.556043,842.705048
1282.658190,-11325.150913,148.041188,1762.019645
1282.658510,-9992.780217,74.020594,1991.848295
1282.658831,-11029.068536,-740.205942,2451.505594
1282.659152,-10288.862594,-2368.659014,3447.429741
1282.659472,-9400.615463,-4663.297435,2374.896044
1282.659793,-7772.162391,-5477.523971,842.705048
1282.660114,-7772.162391,-3627.009116,153.219100
1282.660434,-8216.285956,-1184.329507,1302.362347
1282.660755,-9326.594869,444.123565,2374.896044
1282.661076,-9548.656652,962.267725,1838.629195
1282.661396,-9992.780217,1332.370696,766.095498
1282.661716,-11991.336260,1184.329507,842.705048
1282.662037,-10881.027347,74.020594,459.657299
1282.662358,-10214.842000,740.205942,-383.047749
1282.662679,-10214.842000,1850.514855,-919.314598
1282.662999,-9622.677246,3552.988522,-1149.143247
1282.663320,-9030.512492,2294.638420,306.438199
1282.663641,-8734.430116,222.061783,-536.266849
1282.663962,-9252.574275,-1110.308913,0.000000
1282.664282,-9548.656652,-2072.576638,1302.362347
1282.664603,-8364.327145,-3701.029710,1455.581446
1282.664924,-8290.306550,-3997.112087,1378.971896
1282.665245,-8660.409521,-2368.659014,2068.457845
1282.665566,-8808.450710,-814.226536,2374.896044
1282.665886,-8512.368333,-592.164754,2298.286494
1282.666207,-9252.574275,518.144159,1072.533697
1282.666528,-9622.677246,1406.391290,459.657299
1282.666849,-10584.944971,1406.391290,383.047749
1282.667170,-9696.697840,888.247130,0.000000
1282.667490,-9770.718434,74.020594,-1072.533697
1282.667811,-9622.677246,1036.288319,-689.485948
1282.668132,-10881.027347,740.205942,1532.190996
1282.668453,-10807.006753,-740.205942,2911.162892
1282.668773,-9770.718434,-2590.720797,1915.238745
1282.669094,-9918.759623,-1850.514855,1685.410096
1282.669415,-10362.883188,-1554.432478,2757.943793
1282.669736,-9252.574275,-2368.659014,3217.601092
1282.670057,-8142.265362,-3330.926739,2451.505594
1282.670377,-7402.059420,-2590.720797,536.266849
1282.670698,-8660.409521,-1184.329507,229.828649
1282.671019,-9252.574275,0.000000,1072.533697
1282.671340,-9474.636058,1332.370696,995.924147
1282.671660,-10436.903782,1332.370696,1302.362347
1282.671981,-10066.800811,2368.659014,612.876398
1282.672302,-11769.274478,296.082377,383.047749
1282.672623,-10436.903782,888.247130,-536.266849
1282.672944,-11177.109724,2220.617826,306.438199
1282.673264,-11251.130318,2812.782580,1685.410096
1282.673585,-10510.924376,2220.617826,2145.067394
1282.673906,-10066.800811,0.000000,1608.800546
1282.674227,-9548.656652,-1924.535449,536.266849
1282.674547,-9030.512492,-2072.576638,1455.581446
1282.674868,-9474.636058,-3256.906145,1991.848295
1282.675189,-7698.141797,-3552.988522,612.876398
1282.675510,-8512.368333,-2146.597232,76.609550
1282.675831,-8734.430116,-666.185348,919.314598
1282.676151,-9252.574275,0.000000,612.876398
1282.676472,-9770.718434,814.226536,766.095498
1282.676793,-10066.800811,1702.473667,-383.047749
1282.677114,-10214.842000,2072.576638,-459.657299
1282.677434,-10362.883188,1332.370696,-306.438199
1282.677755,-9326.594869,888.247130,-1149.143247
1282.678076,-9474.636058,1628.453072,-306.438199
1282.678397,-10066.800811,1036.288319,995.924147
1282.678718,-9992.780217,-592.164754,2068.457845
1282.679038,-9548.656652,-2368.659014,1608.800546
1282.679359,-9030.512492,-2516.700203,1991.848295
1282.679680,-9770.718434,-2368.659014,2987.772442
1282.680001,-8956.491898,-3256.906145,3140.991542
1282.680321,-7624.121203,-3923.091493,1915.238745
1282.680642,-7105.977043,-2590.720797,229.828649
1282.680963,-8290.306550,-1110.308913,919.314598
1282.681284,-9104.533087,148.041188,1838.629195
1282.681605,-9474.636058,444.123565,1455.581446
1282.681925,-9918.759623,1258.350101,689.485948
1282.682246,-11029.068536,2072.576638,1149.143247
1282.682567,-11103.089130,592.164754,2834.553343
1282.682888,-10955.047942,0.000000,1072.533697
1282.683209,-10807.006753,1258.350101,995.924147
1282.683529,-10732.986159,1702.473667,1685.410096
1282.683850,-10214.842000,814.226536,2451.505594
1282.684171,-10066.800811,-1480.411884,2068.457845
1282.684492,-8956.491898,-1628.453072,1225.752797
1282.684812,-9178.553681,-2590.720797,1072.533697
1282.685133,-8438.347739,-3108.864956,995.924147
1282.685454,-8290.306550,-2516.700203,459.657299
1282.685775,-8586.388927,-1036.288319,153.219100
1282.686096,-9696.697840,666.185348,1455.581446
1282.686416,-10288.862594,1406.391290,1838.629195
1282.686737,-9918.759623,740.205942,995.924147
1282.687058,-10510.924376,1036.288319,995.924147
1282.687379,-11769.274478,1110.308913,1149.143247
1282.687699,-10732.986159,370.102971,919.314598
1282.688020,-9696.697840,-222.061783,-229.828649
1282.688341,-9696.697840,1184.329507,-612.876398
1282.688662,-10362.883188,1332.370696,536.266849
1282.688983,-9622.677246,1036.288319,1685.410096
1282.689303,-9770.718434,-1406.391290,1532.190996
1282.689624,-8882.471304,-2516.700203,1149.143247
1282.689945,-9104.533087,-2960.823768,1072.533697
1282.690266,-9252.574275,-3108.864956,2145.067394
1282.690586,-8438.347739,-2886.803174,1685.410096
1282.690907,-8438.347739,-1258.350101,2604.724693
1282.691228,-8438.347739,740.205942,1302.362347
1282.691549,-8808.450710,740.205942,1149.143247
1282.691870,-9622.677246,740.205942,1072.533697
1282.692190,-9400.615463,1776.494261,995.924147
1282.692511,-10214.842000,518.144159,995.924147
1282.692832,-9474.636058,-962.267725,766.095498
1282.693153,-9622.677246,-1406.391290,-229.828649
1282.693473,-10140.821405,296.082377,919.314598
1282.693794,-11029.068536,1628.453072,1455.581446
1282.694115,-10955.047942,666.185348,3064.381992
1282.694436,-9474.636058,-1406.391290,2374.896044
1282.694757,-9252.574275,-1998.556043,1455.581446
1282.695077,-9844.739029,-1924.535449,1532.190996
1282.695398,-8956.491898,-2738.761985,1915.238745
1282.695719,-8290.306550,-2960.823768,1378.971896
1282.696040,-7772.162391,-1480.411884,153.219100
1282.696361,-9030.512492,-296.082377,459.657299
1282.696681,-9844.739029,444.123565,1072.533697
1282.697002,-9918.759623,1110.308913,612.876398
1282.697323,-10807.006753,1776.494261,383.047749
1282.697644,-11547.212695,2516.700203,919.314598
1282.697964,-10881.027347,1036.288319,1149.143247
1282.698285,-10955.047942,444.123565,153.219100
1282.698606,-10066.800811,888.247130,-995.924147
1282.698927,-10658.965565,1628.453072,689.485948
1282.699248,-10658.965565,518.144159,1762.019645
1282.699568,-9918.759623,-1332.370696,1762.019645
1282.699889,-9474.636058,-2294.638420,612.876398
1282.700210,-8956.491898,-2220.617826,459.657299
1282.700531,-8660.409521,-2294.638420,1302.362347
1282.700851,-8438.347739,-2368.659014,1225.752797
1282.701172,-8364.327145,-1480.411884,995.924147
1282.701493,-8956.491898,-962.267725,459.657299
1282.701814,-8734.430116,-444.123565,612.876398
1282.702135,-9252.574275,148.041188,0.000000
1282.702455,-9622.677246,1628.453072,306.438199
1282.702776,-10436.903782,2516.700203,995.924147
1282.703097,-9918.759623,2442.679609,766.095498
1282.703418,-9770.718434,740.205942,-766.095498
1282.703738,-10510.924376,-1110.308913,306.438199
1282.704059,-9696.697840,518.144159,1532.190996
1282.704380,-10955.047942,-1554.432478,2987.772442
1282.704701,-9178.553681,-962.267725,2374.896044
1282.705022,-9474.636058,-1480.411884,2374.896044
1282.705342,-9252.574275,-2072.576638,2451.505594
1282.705663,-8142.265362,-2146.597232,3524.039291
1282.705984,-8660.409521,-3627.009116,2221.676944
1282.706305,-7328.038826,-2664.741391,612.876398
1282.706625,-8956.491898,-1628.453072,76.609550
1282.706946,-8956.491898,-296.082377,995.924147
1282.707267,-9326.594869,962.267725,1378.971896
1282.707588,-10140.821405,2220.617826,612.876398
1282.707909,-11621.233289,2590.720797,1378.971896
1282.708229,-11103.089130,1036.288319,766.095498
1282.708550,-10584.944971,-814.226536,76.609550
1282.708871,-10807.006753,-444.123565,-612.876398
1282.709192,-10436.903782,1702.473667,689.485948
1282.709513,-10362.883188,740.205942,2374.896044
1282.709833,-9992.780217,-592.164754,2145.067394
1282.710154,-9474.636058,-1850.514855,1915.238745
1282.710475,-10140.821405,-2738.761985,1072.533697
1282.710796,-9252.574275,-2812.782580,1991.848295
1282.711116,-9030.512492,-3182.885551,1455.581446
1282.711437,-8290.306550,-1924.535449,689.485948
1282.711758,-8734.430116,592.164754,2451.505594
1282.712079,-9474.636058,666.185348,766.095498
1282.712400,-9474.636058,740.205942,689.485948
1282.712720,-10362.883188,888.247130,306.438199
1282.713041,-11103.089130,1628.453072,229.828649
1282.713362,-11029.068536,1184.329507,229.828649
1282.713683,-9918.759623,1184.329507,-229.828649
1282.714003,-10214.842000,1776.494261,-306.438199
1282.714324,-9844.739029,3330.926739,612.876398
1282.714645,-10214.842000,1184.329507,2068.457845
1282.714966,-9178.553681,-1776.494261,1455.581446
1282.715287,-8956.491898,-3108.864956,1225.752797
1282.715607,-9178.553681,-2516.700203,1762.019645
1282.715928,-9030.512492,-2590.720797,2068.457845
1282.716249,-7624.121203,-3108.864956,1991.848295
1282.716570,-7772.162391,-2516.700203,689.485948
1282.716890,-7846.182985,-1480.411884,0.000000
1282.717211,-8882.471304,148.041188,0.000000
1282.717532,-8956.491898,1628.453072,766.095498
1282.717853,-10140.821405,2368.659014,842.705048
1282.718174,-10510.924376,3108.864956,1685.410096
1282.718494,-11843.295072,1258.350101,2987.772442
1282.718815,-10510.924376,-962.267725,1762.019645
1282.719136,-10732.986159,-1036.288319,1225.752797
1282.719457,-10658.965565,-740.205942,2068.457845
1282.719777,-9992.780217,-1036.288319,2757.943793
1282.720098,-9326.594869,-2368.659014,2451.505594
1282.720419,-7846.182985,-1702.473667,383.047749
1282.720740,-7920.203579,-740.205942,306.438199
1282.721061,-9104.533087,-1480.411884,1072.533697
1282.721381,-7402.059420,-2294.638420,229.828649
1282.721702,-8512.368333,-2368.659014,-229.828649
1282.722023,-9252.574275,-1036.288319,76.609550
1282.722344,-9622.677246,-148.041188,995.924147
1282.722664,-10288.862594,74.020594,1378.971896
1282.722985,-11029.068536,1332.370696,383.047749
1282.723306,-11103.089130,2072.576638,153.219100
1282.723627,-11991.336260,1184.329507,536.266849
1282.723948,-9770.718434,1258.350101,-612.876398
1282.724268,-10881.027347,518.144159,-842.705048
1282.724589,-10436.903782,1628.453072,76.609550
1282.724910,-10066.800811,740.205942,1072.533697
1282.725231,-9696.697840,-1036.288319,1455.581446
1282.725552,-9474.636058,-888.247130,1455.581446
1282.725872,-11029.068536,-1406.391290,1455.581446
1282.726193,-9696.697840,-2664.741391,2298.286494
1282.726514,-7846.182985,-2886.803174,766.095498
1282.726835,-6809.894666,-1924.535449,-1378.971896
1282.727155,-7920.203579,0.000000,76.609550
1282.727476,-7624.121203,1480.411884,-919.314598
1282.727797,-8512.368333,1406.391290,-536.266849
1282.728118,-9400.615463,1924.535449,536.266849
1282.728439,-11695.253884,2072.576638,2451.505594
1282.728759,-13175.665768,518.144159,4136.915689
1282.729080,-12435.459826,-1332.370696,3294.210641
1282.729401,-10584.944971,-222.061783,2145.067394
1282.729722,-10584.944971,1406.391290,2451.505594
1282.730042,-10214.842000,814.226536,3447.429741
1282.730363,-8660.409521,-666.185348,2451.505594
1282.730684,-7624.121203,-1776.494261,536.266849
1282.731005,-7254.018232,-2146.597232,229.828649
1282.731326,-7698.141797,-2294.638420,1532.190996
1282.731646,-8068.244768,-3404.947333,2374.896044
1282.731967,-7402.059420,-2516.700203,1455.581446
1282.732288,-8882.471304,-1258.350101,1838.629195
1282.732609,-9326.594869,-444.123565,2145.067394
1282.732929,-10214.842000,0.000000,2221.676944
1282.733250,-11029.068536,1036.288319,1991.848295
1282.733571,-12139.377449,1924.535449,1915.238745
1282.733892,-11547.212695,888.247130,1072.533697
1282.734213,-9622.677246,-444.123565,0.000000
1282.734533,-10066.800811,-444.123565,-1532.190996
1282.734854,-9992.780217,814.226536,76.609550
1282.735175,-9918.759623,370.102971,1302.362347
1282.735496,-9104.533087,-1480.411884,842.705048
1282.735816,-8512.368333,-1924.535449,153.219100
1282.736137,-9622.677246,-1702.473667,1532.190996
1282.736458,-9548.656652,-2220.617826,2604.724693
1282.736779,-9400.615463,-2368.659014,2451.505594
1282.737100,-8216.285956,-2442.679609,536.266849
1282.737420,-8808.450710,-370.102971,842.705048
1282.737741,-9696.697840,518.144159,1302.362347
1282.738062,-9622.677246,1406.391290,1225.752797
1282.738383,-9992.780217,2368.659014,1225.752797
1282.738704,-10658.965565,2442.679609,0.000000
1282.739024,-10362.883188,1702.473667,0.000000
1282.739345,-10066.800811,444.123565,-842.705048
1282.739666,-9992.780217,1332.370696,-919.314598
1282.739987,-10362.883188,1258.350101,459.657299
1282.740307,-10510.924376,444.123565,1838.629195
1282.740628,-9844.739029,-1480.411884,2068.457845
1282.740949,-9474.636058,-3034.844362,1762.019645
1282.741270,-9178.553681,-3256.906145,1532.190996
1282.741591,-9030.512492,-3256.906145,2911.162892
1282.741911,-8142.265362,-3552.988522,1302.362347
1282.742232,-7179.997637,-2368.659014,383.047749
1282.742553,-8068.244768,-518.144159,229.828649
1282.742874,-8438.347739,592.164754,229.828649
1282.743194,-8956.491898,962.267725,153.219100
1282.743515,-9622.677246,1110.308913,536.266849
1282.743836,-10658.965565,444.123565,919.314598
1282.744157,-10510.924376,-740.205942,766.095498
1282.744478,-10881.027347,-1480.411884,689.485948
1282.744798,-10436.903782,0.000000,306.438199
1282.745119,-10807.006753,1924.535449,1838.629195
1282.745440,-10732.986159,1184.329507,3217.601092
1282.745761,-9252.574275,-370.102971,2681.334243
1282.746081,-9252.574275,-2294.638420,1532.190996
1282.746402,-9252.574275,-2368.659014,1378.971896
1282.746723,-8956.491898,-3182.885551,2681.334243
1282.747044,-8438.347739,-4293.194464,1762.019645
1282.747365,-7254.018232,-3108.864956,1072.533697
1282.747685,-8586.388927,-1406.391290,766.095498
1282.748006,-9326.594869,518.144159,1608.800546
1282.748327,-9918.759623,1184.329507,1608.800546
1282.748648,-10658.965565,1998.556043,995.924147
1282.748968,-11251.130318,3256.906145,459.657299
1282.749289,-11695.253884,2812.782580,229.828649
1282.749610,-10584.944971,1998.556043,76.609550
1282.749931,-10658.965565,2220.617826,-612.876398
1282.750252,-10955.047942,2812.782580,-306.438199
1282.750572,-10658.965565,1776.494261,1149.143247
1282.750893,-9770.718434,74.020594,1072.533697
1282.751214,-9548.656652,-1110.308913,1149.143247
1282.751535,-9474.636058,-1406.391290,1302.362347
1282.751855,-9030.512492,-1554.432478,2451.505594
1282.752176,-8660.409521,-2442.679609,2221.676944
1282.752497,-7105.977043,-2146.597232,536.266849
1282.752818,-7994.224174,-1554.432478,306.438199
1282.753139,-8438.347739,-1110.308913,919.314598
1282.753459,-8290.306550,222.061783,229.828649
1282.753780,-9474.636058,1258.350101,229.828649
1282.754101,-10955.047942,2516.700203,1072.533697
1282.754422,-10881.027347,1332.370696,1149.143247
1282.754743,-9992.780217,-222.061783,536.266849
1282.755063,-9918.759623,148.041188,-229.828649
1282.755384,-11325.150913,2368.659014,0.000000
1282.755705,-10140.821405,1776.494261,2528.115143
1282.756026,-9844.739029,-518.144159,2451.505594
1282.756346,-7994.224174,-1480.411884,2068.457845
1282.756667,-8882.471304,-2960.823768,1838.629195
1282.756988,-8512.368333,-4219.173869,2451.505594
1282.757309,-7550.100608,-4589.276840,2374.896044
1282.757630,-7772.162391,-3330.926739,1225.752797
1282.757950,-7920.203579,-1110.308913,1378.971896
1282.758271,-9030.512492,-370.102971,2221.676944
1282.758592,-8882.471304,74.020594,1532.190996
1282.758913,-9770.718434,740.205942,766.095498
1282.759233,-10955.047942,1406.391290,1302.362347
1282.759554,-10881.027347,1332.370696,995.924147
1282.759875,-10584.944971,740.205942,-612.876398
1282.760196,-10436.903782,2590.720797,-612.876398
1282.760517,-11843.295072,3108.864956,919.314598
1282.760837,-11103.089130,2220.617826,2451.505594
1282.761158,-11103.089130,-1480.411884,2298.286494
1282.761479,-9474.636058,-2442.679609,919.314598
1282.761799,-10436.903782,-2886.803174,842.705048
1282.762120,-9326.594869,-2146.597232,2451.505594
1282.762441,-8734.430116,-3108.864956,1532.190996
1282.762762,-7624.121203,-2738.761985,689.485948
1282.763082,-7105.977043,-1258.350101,0.000000
1282.763403,-9474.636058,-1184.329507,536.266849
1282.763724,-9104.533087,-148.041188,919.314598
1282.764044,-10288.862594,666.185348,1455.581446
1282.764365,-10658.965565,1406.391290,612.876398
1282.764686,-10807.006753,1332.370696,0.000000
1282.765007,-10955.047942,666.185348,0.000000
1282.765327,-10288.862594,1110.308913,-1072.533697
1282.765648,-10732.986159,2516.700203,-229.828649
1282.765969,-11547.212695,1998.556043,2145.067394
1282.766289,-9326.594869,444.123565,1532.190996
1282.766610,-9474.636058,-1332.370696,1378.971896
1282.766931,-9178.553681,-1628.453072,1838.629195
1282.767252,-8290.306550,-2368.659014,2987.772442
1282.767572,-8216.285956,-3997.112087,2834.553343
1282.767893,-7476.080014,-3775.050304,1378.971896
1282.768214,-7624.121203,-1702.473667,1149.143247
1282.768534,-8808.450710,-518.144159,2068.457845
1282.768855,-8734.430116,518.144159,2221.676944
1282.769176,-10214.842000,1110.308913,1762.019645
1282.769497,-10214.842000,1332.370696,1608.800546
1282.769817,-10658.965565,666.185348,1072.533697
1282.770138,-10288.862594,-740.205942,383.047749
1282.770459,-10066.800811,74.020594,-536.266849
1282.770779,-10807.006753,1924.535449,766.095498
1282.771100,-10881.027347,1924.535449,2221.676944
1282.771421,-10066.800811,-148.041188,2451.505594
1282.771742,-9622.677246,-2516.700203,1685.410096
1282.772062,-9622.677246,-3034.844362,1762.019645
1282.772383,-10510.924376,-3034.844362,2298.286494
1282.772704,-7846.182985,-3404.947333,2068.457845
1282.773024,-8142.265362,-3404.947333,1455.581446
1282.773345,-7994.224174,-1480.411884,1072.533697
1282.773666,-8586.388927,-518.144159,1149.143247
1282.773987,-10140.821405,-148.041188,1225.752797
1282.774307,-9622.677246,962.267725,229.828649
1282.774628,-11029.068536,1702.473667,459.657299
1282.774949,-11991.336260,1332.370696,1149.143247
1282.775269,-10140.821405,-148.041188,-995.924147
1282.775590,-10288.862594,518.144159,-1762.019645
1282.775911,-10288.862594,1924.535449,-995.924147
1282.776232,-10584.944971,3182.885551,995.924147
1282.776552,-12139.377449,1406.391290,2604.724693
1282.776873,-10066.800811,-222.061783,2757.943793
1282.777194,-9918.759623,-740.205942,2298.286494
1282.777514,-10140.821405,-2072.576638,3370.820191
1282.777835,-8586.388927,-3108.864956,2757.943793
1282.778156,-7994.224174,-2664.741391,1072.533697
1282.778477,-8142.265362,-1184.329507,689.485948
1282.778797,-6809.894666,1184.329507,-459.657299
1282.779118,-8438.347739,222.061783,-229.828649
1282.779439,-7772.162391,1480.411884,-1072.533697
1282.779759,-10140.821405,1702.473667,76.609550
1282.780080,-10362.883188,888.247130,536.266849
1282.780401,-10510.924376,-592.164754,766.095498
1282.780722,-8808.450710,-1554.432478,76.609550
1282.781042,-11029.068536,1406.391290,1149.143247
1282.781363,-11547.212695,1850.514855,2987.772442
1282.781684,-9992.780217,962.267725,2528.115143
1282.782004,-9992.780217,-296.082377,1991.848295
1282.782325,-9622.677246,-1406.391290,842.705048
1282.782646,-8660.409521,-2664.741391,1915.238745
1282.782967,-8364.327145,-4145.153275,1685.410096
1282.783287,-6809.894666,-3849.070898,383.047749
1282.783608,-7772.162391,-2368.659014,-383.047749
1282.783929,-8586.388927,-1110.308913,612.876398
1282.784249,-7994.224174,-592.164754,995.924147
1282.784570,-9030.512492,0.000000,0.000000
1282.784891,-9992.780217,1406.391290,-612.876398
1282.785212,-11473.192101,1554.432478,1072.533697
1282.785532,-11547.212695,296.082377,2068.457845
1282.785853,-11399.171507,-74.020594,1378.971896
1282.786174,-11399.171507,592.164754,2451.505594
1282.786494,-11473.192101,0.000000,2451.505594
1282.786815,-10807.006753,-370.102971,2298.286494
1282.787136,-9548.656652,-370.102971,1225.752797
1282.787457,-9030.512492,74.020594,842.705048
1282.787777,-8290.306550,0.000000,1149.143247
1282.788098,-7994.224174,-2294.638420,766.095498
1282.788419,-8216.285956,-3330.926739,0.000000
1282.788739,-7846.182985,-2294.638420,229.828649
1282.789060,-9252.574275,-1406.391290,1149.143247
1282.789381,-9548.656652,-222.061783,1915.238745
1282.789702,-10362.883188,1036.288319,1915.238745
1282.790022,-11177.109724,1480.411884,1302.362347
1282.790343,-10436.903782,1628.453072,1072.533697
1282.790664,-10658.965565,518.144159,0.000000
1282.790984,-10510.924376,814.226536,-459.657299
1282.791305,-11029.068536,1924.535449,-306.438199
1282.791626,-10658.965565,1332.370696,766.095498
1282.791947,-9474.636058,74.020594,766.095498
1282.792267,-9474.636058,-2146.597232,0.000000
1282.792588,-9474.636058,-1850.514855,536.266849
1282.792909,-9548.656652,-1850.514855,2528.115143
1282.793229,-8808.450710,-3108.864956,2451.505594
1282.793550,-7994.224174,-2960.823768,1685.410096
1282.793871,-8364.327145,-1850.514855,919.314598
1282.794192,-9326.594869,-444.123565,2068.457845
1282.794512,-8734.430116,296.082377,2145.067394
1282.794833,-9104.533087,814.226536,1378.971896
1282.795154,-9548.656652,1406.391290,689.485948
1282.795474,-10362.883188,1480.411884,1302.362347
1282.795795,-10658.965565,-370.102971,1608.800546
1282.796116,-9104.533087,-814.226536,76.609550
1282.796437,-9696.697840,814.226536,612.876398
1282.796757,-10510.924376,1110.308913,2068.457845
1282.797078,-10658.965565,518.144159,3140.991542
1282.797399,-10066.800811,-148.041188,2987.772442
1282.797719,-9474.636058,-1702.473667,2145.067394
1282.798040,-9548.656652,-1850.514855,2528.115143
1282.798361,-9326.594869,-3478.967927,1991.848295
1282.798682,-7846.182985,-2738.761985,766.095498
1282.799002,-8216.285956,-1406.391290,0.000000
1282.799323,-8290.306550,0.000000,229.828649
1282.799644,-9104.533087,592.164754,153.219100
1282.799964,-9622.677246,592.164754,-459.657299
1282.800285,-9992.780217,1924.535449,-383.047749
1282.800606,-11399.171507,1406.391290,612.876398
1282.800927,-10362.883188,148.041188,-229.828649
1282.801247,-10732.986159,296.082377,-842.705048
1282.801568,-11399.171507,3034.844362,0.000000
1282.801889,-11399.171507,2294.638420,1685.410096
1282.802209,-10955.047942,888.247130,2145.067394
1282.802530,-10066.800811,-1332.370696,383.047749
1282.802851,-9400.615463,-1776.494261,-306.438199
1282.803172,-9474.636058,-1850.514855,459.657299
1282.803492,-8882.471304,-2516.700203,459.657299
1282.803813,-7846.182985,-2146.597232,-459.657299
1282.804134,-7846.182985,-592.164754,-995.924147
1282.804454,-9104.533087,1184.329507,0.000000
1282.804775,-9400.615463,740.205942,842.705048
1282.805096,-10140.821405,592.164754,1378.971896
1282.805417,-10214.842000,814.226536,1225.752797
1282.805737,-11177.109724,1258.350101,1685.410096
1282.806058,-9844.739029,-962.267725,766.095498
1282.806379,-9326.594869,-444.123565,-306.438199
1282.806699,-9770.718434,1036.288319,0.000000
1282.807020,-9918.759623,1998.556043,1608.800546
1282.807341,-9326.594869,1110.308913,2374.896044
1282.807662,-9696.697840,-1258.350101,1915.238745
1282.807982,-8290.306550,-1480.411884,2068.457845
1282.808303,-9474.636058,-2516.700203,2528.115143
1282.808624,-8290.306550,-3108.864956,2911.162892
1282.808944,-8290.306550,-2812.782580,2221.676944
1282.809265,-7772.162391,-1110.308913,1378.971896
1282.809586,-8142.265362,370.102971,2145.067394
1282.809907,-8882.471304,888.247130,3370.820191
1282.810227,-9252.574275,74.020594,1225.752797
1282.810548,-10066.800811,962.267725,842.705048
1282.810869,-10732.986159,1184.329507,2068.457845
1282.811189,-10214.842000,-740.205942,1532.190996
1282.811510,-10362.883188,-888.247130,536.266849
1282.811831,-10288.862594,296.082377,536.266849
1282.812152,-10658.965565,1110.308913,1838.629195
1282.812472,-10584.944971,74.020594,3064.381992
1282.812793,-10362.883188,-1036.288319,2528.115143
1282.813114,-9918.759623,-1998.556043,1378.971896
1282.813434,-9918.759623,-2516.700203,1915.238745
1282.813755,-9326.594869,-3330.926739,1608.800546
1282.814076,-9178.553681,-2590.720797,1532.190996
1282.814397,-8216.285956,-1110.308913,0.000000
1282.814717,-9030.512492,888.247130,612.876398
1282.815038,-9474.636058,1184.329507,1225.752797
1282.815359,-9548.656652,592.164754,842.705048
1282.815679,-10362.883188,444.123565,0.000000
1282.816000,-10732.986159,962.267725,153.219100
1282.816321,-10288.862594,592.164754,766.095498
1282.816642,-10140.821405,740.205942,612.876398
1282.816962,-9918.759623,1036.288319,306.438199
1282.817283,-10214.842000,1554.432478,612.876398
1282.817604,-10658.965565,296.082377,1608.800546
1282.817924,-10214.842000,-1332.370696,1225.752797
1282.818245,-9992.780217,-814.226536,919.314598
1282.818566,-9622.677246,-1776.494261,1915.238745
1282.818887,-8512.368333,-2516.700203,995.924147
1282.819207,-7624.121203,-1776.494261,76.609550
1282.819528,-8586.388927,-592.164754,0.000000
1282.819849,-8364.327145,-296.082377,0.000000
1282.820169,-8956.491898,-370.102971,459.657299
1282.820490,-9104.533087,0.000000,383.047749
1282.820811,-9992.780217,370.102971,229.828649
1282.821132,-11103.089130,962.267725,1149.143247
1282.821452,-9992.780217,-444.123565,1302.362347
1282.821773,-9400.615463,-666.185348,0.000000
1282.822094,-9992.780217,296.082377,0.000000
1282.822414,-10658.965565,814.226536,1762.019645
1282.822735,-9770.718434,0.000000,2374.896044
1282.823056,-9548.656652,-1628.453072,2145.067394
1282.823377,-9104.533087,-2220.617826,1532.190996
1282.823697,-9030.512492,-2960.823768,1608.800546
1282.824018,-8660.409521,-3701.029710,1378.971896
1282.824339,-8142.265362,-2960.823768,842.705048
1282.824659,-8290.306550,-296.082377,612.876398
1282.824980,-9400.615463,1036.288319,919.314598
1282.825301,-9178.553681,2442.679609,1532.190996
1282.825622,-10436.903782,2146.597232,612.876398
1282.825942,-10732.986159,2368.659014,612.876398
1282.826263,-11251.130318,1924.535449,1302.362347
1282.826584,-10955.047942,0.000000,2298.286494
1282.826904,-10288.862594,-370.102971,306.438199
1282.827225,-10140.821405,814.226536,76.609550
1282.827546,-10881.027347,1998.556043,1455.581446
1282.827867,-10732.986159,1184.329507,2451.505594
1282.828187,-9992.780217,-444.123565,1991.848295
1282.828508,-9622.677246,-1480.411884,1762.019645
1282.828829,-9474.636058,-1776.494261,1915.238745
1282.829149,-9178.553681,-2368.659014,2145.067394
1282.829470,-7920.203579,-3330.926739,842.705048
1282.829791,-7994.224174,-1406.391290,-306.438199
1282.830112,-7920.203579,740.205942,0.000000
1282.830432,-9696.697840,74.020594,919.314598
1282.830753,-9400.615463,1110.308913,2911.162892
1282.831074,-10584.944971,370.102971,536.266849
1282.831394,-10584.944971,814.226536,1225.752797
1282.831715,-10436.903782,-222.061783,919.314598
1282.832036,-10214.842000,-1332.370696,383.047749
1282.832357,-9548.656652,-148.041188,229.828649
1282.832677,-9548.656652,518.144159,1072.533697
1282.832998,-9770.718434,0.000000,2374.896044
1282.833319,-9178.553681,-1110.308913,2374.896044
1282.833639,-9474.636058,-1480.411884,1225.752797
1282.833960,-9178.553681,-1036.288319,2987.772442
1282.834281,-9178.553681,-2886.803174,3370.820191
1282.834602,-8068.244768,-3330.926739,2145.067394
1282.834922,-8364.327145,-2516.700203,0.000000
1282.835243,-9178.553681,-1776.494261,995.924147
1282.835564,-8142.265362,0.000000,1072.533697
1282.835884,-9326.594869,0.000000,229.828649
1282.836205,-9178.553681,1850.514855,-612.876398
1282.836526,-9178.553681,3404.947333,-306.438199
1282.836847,-11103.089130,592.164754,0.000000
1282.837167,-8586.388927,74.020594,-1302.362347
1282.837488,-11029.068536,444.123565,0.000000
1282.837809,-10214.842000,-518.144159,1685.410096
1282.838129,-10732.986159,-444.123565,2681.334243
1282.838450,-11399.171507,-2368.659014,2757.943793
1282.838771,-9548.656652,-2294.638420,2145.067394
1282.839092,-10288.862594,-2368.659014,2221.676944
1282.839412,-9104.533087,-1406.391290,2374.896044
1282.839733,-8734.430116,-1702.473667,383.047749
1282.840054,-7994.224174,0.000000,-536.266849
1282.840374,-7772.162391,740.205942,-842.705048
1282.840695,-8216.285956,444.123565,-1455.581446
1282.841016,-8586.388927,2220.617826,-1685.410096
1282.841337,-11473.192101,1702.473667,-306.438199
1282.841657,-11325.150913,2812.782580,1149.143247
1282.841978,-11843.295072,1036.288319,1532.190996
1282.842299,-11843.295072,0.000000,1915.238745
1282.842619,-11843.295072,592.164754,2068.457845
1282.842940,-11843.295072,888.247130,3064.381992
1282.843261,-11251.130318,-148.041188,5209.449386
1282.843582,-8512.368333,-1554.432478,2221.676944
1282.843902,-8438.347739,-2368.659014,766.095498
1282.844223,-7994.224174,-1776.494261,842.705048
1282.844544,-7105.977043,-1628.453072,306.438199
1282.844864,-7550.100608,-1850.514855,229.828649
1282.845185,-7179.997637,74.020594,766.095498
1282.845506,-9696.697840,740.205942,1915.238745
1282.845827,-9770.718434,370.102971,1838.629195
1282.846147,-10955.047942,74.020594,2374.896044
1282.846468,-11177.109724,-518.144159,1532.190996
1282.846789,-9770.718434,444.123565,2068.457845
1282.847109,-10066.800811,-74.020594,536.266849
1282.847430,-9400.615463,0.000000,995.924147
1282.847751,-9696.697840,592.164754,-459.657299
1282.848072,-9918.759623,1036.288319,995.924147
1282.848392,-9844.739029,-1332.370696,1685.410096
1282.848713,-9622.677246,-2294.638420,1838.629195
1282.849034,-9474.636058,-3182.885551,1455.581446
1282.849354,-9770.718434,-2960.823768,1838.629195
1282.849675,-8808.450710,-3182.885551,2068.457845
1282.849996,-7624.121203,-2960.823768,76.609550
1282.850317,-7402.059420,-518.144159,0.000000
1282.850637,-8882.471304,666.185348,-383.047749
1282.850958,-8808.450710,962.267725,229.828649
1282.851279,-9696.697840,1036.288319,0.000000
1282.851599,-10732.986159,1924.535449,1225.752797
1282.851920,-11843.295072,2294.638420,1608.800546
1282.852241,-11843.295072,888.247130,1762.019645
1282.852562,-10807.006753,-74.020594,995.924147
1282.852882,-10510.924376,370.102971,-153.219100
1282.853203,-10658.965565,2294.638420,766.095498
1282.853524,-10732.986159,1332.370696,1532.190996
1282.853844,-9474.636058,-148.041188,1149.143247
1282.854165,-8808.450710,-1258.350101,229.828649
1282.854486,-8142.265362,-2368.659014,0.000000
1282.854807,-9030.512492,-2294.638420,1378.971896
1282.855127,-9030.512492,-2812.782580,1072.533697
1282.855448,-8882.471304,-1850.514855,1225.752797
1282.855769,-9696.697840,-814.226536,1455.581446
1282.856089,-9400.615463,148.041188,1302.362347
1282.856410,-9474.636058,888.247130,612.876398
1282.856731,-9918.759623,1480.411884,995.924147
1282.857052,-10066.800811,1110.308913,459.657299
1282.857372,-9474.636058,-518.144159,306.438199
1282.857693,-8660.409521,-1332.370696,-1225.752797
1282.858014,-9696.697840,-148.041188,-612.876398
1282.858334,-10436.903782,1036.288319,2221.676944
1282.858655,-10140.821405,0.000000,2757.943793
1282.858976,-9622.677246,-1406.391290,3140.991542
1282.859297,-9030.512492,-2146.597232,2374.896044
1282.859617,-9252.574275,-2738.761985,3217.601092
1282.859938,-9104.533087,-3701.029710,3600.648841
1282.860259,-6587.832884,-3330.926739,1762.019645
1282.860579,-7550.100608,-2220.617826,383.047749
1282.860900,-7846.182985,888.247130,1149.143247
1282.861221,-9252.574275,888.247130,1762.019645
1282.861542,-9548.656652,1258.350101,1685.410096
1282.861862,-10584.944971,2072.576638,1608.800546
1282.862183,-11473.192101,1554.432478,1685.410096
1282.862504,-10955.047942,0.000000,1532.190996
1282.862824,-11103.089130,-370.102971,0.000000
1282.863145,-9992.780217,370.102971,-536.266849
1282.863466,-10807.006753,1924.535449,1149.143247
1282.863787,-10362.883188,1184.329507,2145.067394
1282.864107,-10436.903782,-592.164754,1225.752797
1282.864428,-10436.903782,-1110.308913,1455.581446
1282.864749,-10066.800811,-1406.391290,2451.505594
1282.865070,-9992.780217,-3404.947333,2987.772442
1282.865391,-8586.388927,-3478.967927,1838.629195
1282.865712,-8290.306550,-2368.659014,-689.485948
1282.866032,-8586.388927,0.000000,-229.828649
1282.866353,-9104.533087,814.226536,153.219100
1282.866674,-9548.656652,888.247130,-153.219100
1282.866995,-10066.800811,2368.659014,-536.266849
1282.867316,-11103.089130,1702.473667,229.828649
1282.867636,-11103.089130,370.102971,689.485948
1282.867957,-10436.903782,-592.164754,-306.438199
1282.868278,-10140.821405,444.123565,-459.657299
1282.868599,-10732.986159,1628.453072,689.485948
1282.868920,-10510.924376,1184.329507,1991.848295
1282.869241,-9474.636058,-148.041188,1225.752797
1282.869561,-9548.656652,-814.226536,536.266849
1282.869882,-9326.594869,-1332.370696,1685.410096
1282.870203,-8660.409521,-2220.617826,1608.800546
1282.870524,-7994.224174,-3108.864956,1838.629195
1282.870845,-7328.038826,-1554.432478,842.705048
1282.871165,-8438.347739,-1184.329507,76.609550
1282.871486,-8882.471304,-74.020594,1608.800546
1282.871807,-9104.533087,592.164754,1762.019645
1282.872128,-9992.780217,814.226536,919.314598
1282.872449,-9992.780217,1628.453072,1455.581446
1282.872769,-9918.759623,74.020594,536.266849
1282.873090,-9400.615463,0.000000,-306.438199
1282.873411,-9548.656652,888.247130,-612.876398
1282.873732,-10214.842000,1628.453072,1072.533697
1282.874053,-10807.006753,1702.473667,2374.896044
1282.874374,-10362.883188,-1332.370696,2604.724693
1282.874694,-10436.903782,-3182.885551,2451.505594
1282.875015,-9622.677246,-3404.947333,3524.039291
1282.875336,-9844.739029,-3923.091493,3677.258390
1282.875657,-8216.285956,-4441.235652,2374.896044
1282.875978,-7624.121203,-2812.782580,536.266849
1282.876298,-8290.306550,-740.205942,0.000000
1282.876619,-7698.141797,518.144159,-766.095498
1282.876940,-9252.574275,1036.288319,-536.266849
1282.877261,-9770.718434,2886.803174,-536.266849
1282.877582,-11843.295072,2590.720797,76.609550
1282.877903,-11769.274478,2220.617826,842.705048
1282.878223,-11473.192101,1332.370696,-689.485948
1282.878544,-10807.006753,1184.329507,-306.438199
1282.878865,-11843.295072,1776.494261,1455.581446
1282.879186,-11103.089130,1406.391290,2145.067394
1282.879507,-9844.739029,0.000000,1149.143247
1282.879827,-9030.512492,-666.185348,459.657299
1282.880148,-9622.677246,-1332.370696,1149.143247
1282.880469,-9178.553681,-3108.864956,1915.238745
1282.880790,-7846.182985,-3775.050304,1225.752797
1282.881111,-8068.244768,-2664.741391,229.828649
1282.881432,-8068.244768,-814.226536,995.924147
1282.881752,-9252.574275,74.020594,1532.190996
1282.882073,-9992.780217,666.185348,1225.752797
1282.882394,-8734.430116,1332.370696,995.924147
1282.882715,-10658.965565,1702.473667,306.438199
1282.883036,-10584.944971,0.000000,459.657299
1282.883356,-10066.800811,-1480.411884,-306.438199
1282.883677,-10510.924376,-592.164754,-383.047749
1282.883998,-9474.636058,1628.453072,1225.752797
1282.884319,-10807.006753,148.041188,2145.067394
1282.884640,-9178.553681,-814.226536,2757.943793
1282.884960,-9178.553681,-2516.700203,1838.629195
1282.885281,-9030.512492,-3108.864956,2451.505594
1282.885602,-8512.368333,-3701.029710,2681.334243
1282.885923,-7624.121203,-5699.585753,1149.143247
1282.886244,-6143.709319,-1776.494261,689.485948
1282.886565,-8956.491898,-222.061783,3140.991542
1282.886885,-11399.171507,-2294.638420,2834.553343
1282.887206,-4737.318029,-666.185348,1378.971896
1282.887527,-11473.192101,518.144159,842.705048
1282.887848,-10658.965565,1554.432478,0.000000
1282.888169,-10807.006753,1406.391290,1762.019645
1282.888489,-10732.986159,1406.391290,1225.752797
