#time,accel_x,accel_y,accel_z
1044.390819,-9400.615463,-444.123565,1072.533697
1044.391139,-9474.636058,-592.164754,1149.143247
1044.391460,-9474.636058,-370.102971,919.314598
1044.391781,-9548.656652,-370.102971,1072.533697
1044.392102,-9548.656652,-444.123565,1072.533697
1044.392422,-9474.636058,-444.123565,842.705048
1044.392743,-9474.636058,-370.102971,1072.533697
1044.393064,-9696.697840,-222.061783,919.314598
1044.393385,-9696.697840,-296.082377,1072.533697
1044.393705,-9548.656652,-148.041188,1072.533697
1044.394026,-9770.718434,-370.102971,2068.457845
1044.394347,-9474.636058,-296.082377,1149.143247
1044.394668,-9548.656652,-518.144159,1608.800546
1044.394988,-9548.656652,-296.082377,1302.362347
1044.395309,-9474.636058,-370.102971,1072.533697
1044.395630,-9474.636058,-444.123565,919.314598
1044.395951,-9474.636058,-444.123565,919.314598
1044.396271,-9548.656652,-444.123565,689.485948
1044.396592,-9400.615463,0.000000,842.705048
1044.396913,-9622.677246,-444.123565,1149.143247
1044.397234,-9548.656652,-296.082377,919.314598
1044.397554,-9548.656652,-592.164754,1072.533697
1044.397875,-9770.718434,-444.123565,995.924147
1044.398196,-9474.636058,-740.205942,1685.410096
1044.398517,-9770.718434,-592.164754,1378.971896
1044.398837,-9622.677246,-370.102971,1455.581446
1044.399158,-9548.656652,-814.226536,919.314598
1044.399479,-9548.656652,0.000000,2451.505594
1044.399800,-9474.636058,-592.164754,1072.533697
1044.400120,-9548.656652,-666.185348,1149.143247
1044.400441,-9474.636058,-1184.329507,919.314598
1044.400762,-9400.615463,-1110.308913,153.219100
1044.401082,-9178.553681,-1406.391290,612.876398
1044.401403,-9622.677246,-666.185348,536.266849
1044.401724,-9548.656652,-1036.288319,229.828649
1044.402045,-9474.636058,-888.247130,0.000000
1044.402365,-8364.327145,-1184.329507,459.657299
1044.402686,-9622.677246,-666.185348,153.219100
1044.403007,-9992.780217,-962.267725,0.000000
1044.403328,-9622.677246,-962.267725,-306.438199
1044.403648,-9474.636058,-814.226536,-842.705048
1044.403969,-9474.636058,-1036.288319,-766.095498
1044.404290,-9622.677246,-1406.391290,-1072.533697
1044.404611,-9474.636058,-1554.432478,-1072.533697
1044.404931,-9622.677246,-1628.453072,-1532.190996
1044.405252,-9326.594869,-1628.453072,-1762.019645
1044.405573,-9474.636058,-1480.411884,-2374.896044
1044.405894,-9548.656652,-1406.391290,-2757.943793
1044.406214,-9548.656652,-1332.370696,-3294.210641
1044.406535,-9770.718434,-2072.576638,-4290.134789
1044.406856,-9622.677246,-2368.659014,-3907.087040
1044.407177,-9400.615463,-2738.761985,-3983.696590
1044.407497,-9548.656652,-2812.782580,-3753.867940
1044.407818,-9918.759623,-2886.803174,-3524.039291
1044.408139,-9770.718434,-2738.761985,-3140.991542
1044.408460,-9548.656652,-3552.988522,-2681.334243
1044.408780,-9548.656652,-4367.215058,-2604.724693
1044.409101,-9178.553681,-4959.379811,-2604.724693
1044.409422,-9474.636058,-5107.421000,-2221.676944
1044.409743,-9400.615463,-5403.503377,-2374.896044
1044.410063,-8956.491898,-5033.400406,-2374.896044
1044.410384,-9030.512492,-4885.359217,-2604.724693
1044.410705,-8068.244768,-4589.276840,-1532.190996
1044.411026,-9474.636058,-4145.153275,-2374.896044
1044.411346,-9548.656652,-3775.050304,-2221.676944
1044.411667,-9474.636058,-3775.050304,-1149.143247
1044.411988,-9696.697840,-4441.235652,-1685.410096
1044.412308,-9992.780217,-4663.297435,-842.705048
1044.412629,-9622.677246,-3997.112087,0.000000
1044.412950,-9770.718434,-3552.988522,612.876398
1044.413271,-9918.759623,-3256.906145,1455.581446
1044.413591,-9548.656652,-3256.906145,1455.581446
1044.413912,-9548.656652,-3627.009116,1302.362347
1044.414233,-9326.594869,-3552.988522,1225.752797
1044.414554,-9104.533087,-3775.050304,766.095498
1044.414874,-9474.636058,-3627.009116,-306.438199
1044.415195,-9030.512492,-3849.070898,-459.657299
1044.415516,-9104.533087,-3330.926739,-1072.533697
1044.415837,-9474.636058,-3108.864956,-766.095498
1044.416157,-9992.780217,-3108.864956,-766.095498
1044.416478,-10436.903782,-3627.009116,0.000000
1044.416799,-10807.006753,-3997.112087,-536.266849
1044.417120,-10584.944971,-4071.132681,-766.095498
1044.417440,-10362.883188,-3849.070898,-689.485948
1044.417761,-9770.718434,-3627.009116,229.828649
1044.418082,-9548.656652,-2960.823768,-153.219100
1044.418403,-9178.553681,-2368.659014,-459.657299
1044.418723,-9622.677246,-1554.432478,229.828649
1044.419044,-9030.512492,-1184.329507,2068.457845
1044.419365,-9622.677246,-1036.288319,536.266849
1044.419686,-9252.574275,-962.267725,0.000000
1044.420006,-9104.533087,-1480.411884,-1378.971896
1044.420327,-8586.388927,-2146.597232,-2221.676944
1044.420648,-8734.430116,-2664.741391,-2911.162892
1044.420969,-8734.430116,-2738.761985,-3983.696590
1044.421289,-9400.615463,-2812.782580,-4213.525239
1044.421610,-9696.697840,-2442.679609,-4290.134789
1044.421931,-10140.821405,-1850.514855,-4366.744339
1044.422252,-10732.986159,-1110.308913,-3370.820191
1044.422572,-10214.842000,-740.205942,-2451.505594
1044.422893,-9918.759623,-1110.308913,-2221.676944
1044.423214,-9400.615463,-296.082377,-1149.143247
1044.423534,-9696.697840,-1480.411884,-995.924147
1044.423855,-9252.574275,-1406.391290,-1225.752797
1044.424176,-8882.471304,-592.164754,-1532.190996
1044.424497,-8586.388927,518.144159,-1685.410096
1044.424817,-8586.388927,444.123565,-1762.019645
1044.425138,-8068.244768,-222.061783,-1838.629195
1044.425459,-8956.491898,-1776.494261,-2451.505594
1044.425780,-9400.615463,-2368.659014,-2604.724693
1044.426100,-9992.780217,-2738.761985,-2374.896044
1044.426421,-10510.924376,-2072.576638,-995.924147
1044.426742,-11103.089130,-1110.308913,459.657299
1044.427063,-11473.192101,-740.205942,1608.800546
1044.427383,-11251.130318,-2368.659014,689.485948
1044.427704,-10214.842000,-2368.659014,-766.095498
1044.428025,-9622.677246,-2516.700203,-1149.143247
1044.428346,-8660.409521,-2220.617826,-842.705048
1044.428666,-7994.224174,-2072.576638,-1149.143247
1044.428987,-7772.162391,-2072.576638,-1838.629195
1044.429308,-7920.203579,-2220.617826,-2681.334243
1044.429629,-8142.265362,-1480.411884,-1608.800546
1044.429949,-9326.594869,-1406.391290,-229.828649
1044.430270,-10732.986159,-1850.514855,1455.581446
1044.430591,-11399.171507,-2368.659014,2068.457845
1044.430912,-10658.965565,-3478.967927,1072.533697
1044.431232,-10807.006753,-3404.947333,459.657299
1044.431553,-9326.594869,-2812.782580,995.924147
1044.431874,-10288.862594,-3256.906145,383.047749
1044.432195,-8882.471304,-3478.967927,-1149.143247
1044.432515,-8068.244768,-3330.926739,-2451.505594
1044.432836,-8142.265362,-1924.535449,-1149.143247
1044.433157,-9548.656652,-2146.597232,0.000000
1044.433478,-9474.636058,-1998.556043,306.438199
1044.433798,-9548.656652,-2442.679609,-612.876398
1044.434119,-8808.450710,-2738.761985,-1838.629195
1044.434440,-8882.471304,-3627.009116,-1225.752797
1044.434760,-9992.780217,-4219.173869,-995.924147
1044.435081,-9992.780217,-4737.318029,-1915.238745
1044.435402,-9178.553681,-3849.070898,-4060.306139
1044.435723,-10584.944971,-2294.638420,-4136.915689
1044.436043,-10066.800811,-1998.556043,-2757.943793
1044.436364,-11251.130318,-2368.659014,-2451.505594
1044.436685,-10066.800811,-2664.741391,-3217.601092
1044.437006,-9400.615463,-3775.050304,-3830.477490
1044.437326,-8956.491898,-4145.153275,-3217.601092
1044.437647,-9252.574275,-4293.194464,-2145.067394
1044.437968,-9474.636058,-2812.782580,-1302.362347
1044.438289,-9992.780217,-1924.535449,0.000000
1044.438609,-9474.636058,-1628.453072,76.609550
1044.438930,-9992.780217,-2368.659014,-153.219100
1044.439251,-9548.656652,-2738.761985,-919.314598
1044.439572,-9622.677246,-2886.803174,-1455.581446
1044.439892,-8660.409521,-3034.844362,-1455.581446
1044.440213,-8216.285956,-2368.659014,-2834.553343
1044.440534,-8734.430116,-1554.432478,-2757.943793
1044.440855,-10362.883188,-1850.514855,-1991.848295
1044.441175,-10140.821405,-2294.638420,-459.657299
1044.441496,-10436.903782,-2516.700203,-1838.629195
1044.441817,-10732.986159,-2812.782580,-2298.286494
1044.442138,-10288.862594,-2294.638420,-1302.362347
1044.442458,-10140.821405,-1702.473667,229.828649
1044.442779,-10436.903782,-888.247130,1915.238745
1044.443100,-10066.800811,-2294.638420,1915.238745
1044.443421,-9474.636058,-3923.091493,995.924147
1044.443741,-9030.512492,-3404.947333,-306.438199
1044.444062,-8660.409521,-666.185348,0.000000
1044.444383,-9178.553681,0.000000,383.047749
1044.444704,-7994.224174,0.000000,0.000000
1044.445024,-9030.512492,-962.267725,-842.705048
1044.445345,-9622.677246,-2664.741391,-1072.533697
1044.445666,-9548.656652,-3478.967927,-919.314598
1044.445986,-10955.047942,-2960.823768,0.000000
1044.446307,-11473.192101,-2590.720797,-459.657299
1044.446628,-9400.615463,-1702.473667,-612.876398
1044.446949,-10362.883188,-1480.411884,0.000000
1044.447269,-9992.780217,-2368.659014,-459.657299
1044.447590,-8808.450710,-2664.741391,-1762.019645
1044.447911,-9770.718434,-2368.659014,-995.924147
1044.448232,-8438.347739,-2146.597232,-1608.800546
1044.448552,-9178.553681,-2516.700203,-1302.362347
1044.448873,-9474.636058,-1554.432478,383.047749
1044.449194,-8808.450710,-2442.679609,0.000000
1044.449515,-9030.512492,-4219.173869,-766.095498
1044.449834,-9770.718434,-3478.967927,-995.924147
1044.450155,-9844.739029,-2072.576638,-1685.410096
1044.450476,-9992.780217,-888.247130,-842.705048
1044.450797,-10658.965565,-296.082377,536.266849
1044.451118,-9474.636058,-296.082377,-689.485948
1044.451439,-10066.800811,-962.267725,-2604.724693
1044.451760,-9622.677246,-1110.308913,-3447.429741
1044.452081,-9548.656652,-1776.494261,-2451.505594
1044.452402,-9474.636058,-2442.679609,-2451.505594
1044.452723,-9474.636058,-1480.411884,-1302.362347
1044.453044,-10140.821405,-1924.535449,-766.095498
1044.453365,-9252.574275,-2664.741391,-1991.848295
1044.453686,-9992.780217,-2960.823768,-1532.190996
1044.454007,-9030.512492,-2146.597232,-1685.410096
1044.454328,-9548.656652,-888.247130,-842.705048
1044.454649,-8438.347739,296.082377,1455.581446
1044.454970,-10732.986159,-5773.606348,-3140.991542
1044.455291,-7105.977043,-1924.535449,-2145.067394
1044.455612,-11621.233289,-4737.318029,-1991.848295
1044.455933,-8734.430116,-2886.803174,-76.609550
1044.456254,-9918.759623,-4219.173869,-1149.143247
1044.456575,-9770.718434,-3330.926739,-153.219100
1044.456896,-8438.347739,-4589.276840,-4903.011187
1044.457217,-8882.471304,-962.267725,-842.705048
1044.457538,-11695.253884,-2516.700203,2221.676944
1044.457859,-7105.977043,-4293.194464,-1378.971896
1044.458180,-7920.203579,-4145.153275,-2604.724693
1044.458501,-8290.306550,-1776.494261,-1149.143247
1044.458822,-8216.285956,-1110.308913,-1302.362347
1044.459143,-11177.109724,-740.205942,2834.553343
1044.459464,-10584.944971,-1480.411884,1915.238745
1044.459785,-8438.347739,-3849.070898,-1915.238745
1044.460106,-10214.842000,-3108.864956,-1532.190996
1044.460427,-9992.780217,-1554.432478,536.266849
1044.460748,-9770.718434,-222.061783,-306.438199
1044.461069,-10881.027347,-1406.391290,229.828649
1044.461390,-6735.874072,-2590.720797,-4213.525239
1044.461711,-7920.203579,-2812.782580,-5439.278036
1044.462032,-10584.944971,0.000000,-1378.971896
1044.462353,-11695.253884,222.061783,2451.505594
1044.462674,-11251.130318,-222.061783,2911.162892
1044.462995,-13027.624579,-1554.432478,2604.724693
1044.463316,-11177.109724,-2960.823768,766.095498
1044.463637,-10436.903782,-740.205942,3907.087040
1044.463958,-11547.212695,-1702.473667,4903.011187
1044.464279,-8364.327145,-1406.391290,1378.971896
1044.464600,-7698.141797,-1924.535449,-2681.334243
1044.464921,-6661.853478,74.020594,-3447.429741
1044.465242,-6735.874072,1036.288319,-842.705048
1044.465563,-10362.883188,-1776.494261,612.876398
1044.465884,-9474.636058,-3330.926739,1225.752797
1044.466205,-8586.388927,-4293.194464,-3447.429741
1044.466526,-10140.821405,-2220.617826,-1072.533697
1044.466847,-13027.624579,-740.205942,3370.820191
1044.467168,-11843.295072,-1110.308913,3370.820191
1044.467489,-9992.780217,-2220.617826,0.000000
1044.467810,-8364.327145,-1480.411884,-3677.258390
1044.468131,-8216.285956,666.185348,-1532.190996
1044.468452,-11473.192101,-1184.329507,766.095498
1044.468773,-8364.327145,370.102971,1915.238745
1044.469094,-7402.059420,-1332.370696,-1762.019645
1044.469415,-7698.141797,-1628.453072,-1915.238745
1044.469736,-7846.182985,-296.082377,919.314598
1044.470057,-11473.192101,-1628.453072,1072.533697
1044.470378,-9474.636058,-1480.411884,2298.286494
1044.470699,-9400.615463,-592.164754,-1149.143247
1044.471020,-8364.327145,1924.535449,-1762.019645
1044.471341,-10362.883188,1924.535449,229.828649
1044.471662,-9844.739029,1332.370696,1302.362347
1044.471983,-9400.615463,-518.144159,-1225.752797
1044.472304,-9622.677246,518.144159,-1838.629195
1044.472625,-10140.821405,222.061783,459.657299
1044.472946,-12213.398043,-666.185348,2604.724693
1044.473267,-12879.583391,-370.102971,5209.449386
1044.473588,-10214.842000,-1702.473667,1915.238745
1044.473909,-8734.430116,592.164754,1149.143247
1044.474230,-10362.883188,1480.411884,2068.457845
1044.474551,-8956.491898,518.144159,1302.362347
1044.474872,-8364.327145,-370.102971,-766.095498
1044.475193,-7402.059420,1628.453072,-1455.581446
1044.475514,-7772.162391,1110.308913,76.609550
1044.475835,-10881.027347,-592.164754,1762.019645
1044.476156,-10658.965565,-296.082377,3064.381992
1044.476477,-10881.027347,-962.267725,995.924147
1044.476798,-11103.089130,1258.350101,2068.457845
1044.477119,-11547.212695,1702.473667,3294.210641
1044.477440,-11251.130318,1184.329507,4903.011187
1044.477761,-10140.821405,-3627.009116,919.314598
1044.478082,-7105.977043,-1332.370696,-229.828649
1044.478403,-7550.100608,-2294.638420,1685.410096
1044.478724,-9178.553681,-2072.576638,1915.238745
1044.479045,-8808.450710,-444.123565,2374.896044
1044.479366,-8956.491898,222.061783,2068.457845
1044.479687,-8882.471304,0.000000,4290.134789
1044.480008,-8882.471304,1998.556043,4213.525239
1044.480329,-11991.336260,-1258.350101,4366.744339
1044.480650,-9252.574275,-1998.556043,1072.533697
1044.480971,-8068.244768,-1776.494261,919.314598
1044.481292,-8438.347739,0.000000,1915.238745
1044.481613,-8142.265362,-296.082377,1608.800546
1044.481934,-9252.574275,-666.185348,229.828649
1044.482255,-9474.636058,-1480.411884,-1072.533697
1044.482576,-8364.327145,-1110.308913,-2374.896044
1044.482897,-11103.089130,666.185348,1838.629195
1044.483218,-10658.965565,-592.164754,2068.457845
1044.483539,-10214.842000,-1110.308913,-536.266849
1044.483860,-9992.780217,-740.205942,1072.533697
1044.484181,-9400.615463,-1924.535449,459.657299
1044.484502,-10362.883188,-1110.308913,1378.971896
1044.484823,-11325.150913,-1554.432478,536.266849
1044.485144,-8512.368333,-962.267725,-1378.971896
1044.485465,-8586.388927,1036.288319,-1149.143247
1044.485786,-10881.027347,-444.123565,0.000000
1044.486107,-10288.862594,-666.185348,-76.609550
1044.486428,-10214.842000,-2516.700203,-2374.896044
1044.486749,-9844.739029,-2812.782580,-842.705048
1044.487070,-9178.553681,148.041188,-536.266849
1044.487391,-13027.624579,-518.144159,1762.019645
1044.487712,-10658.965565,222.061783,383.047749
1044.488033,-9844.739029,1998.556043,-1991.848295
1044.488354,-10658.965565,2368.659014,919.314598
1044.488675,-10881.027347,444.123565,1838.629195
1044.488996,-9696.697840,0.000000,1915.238745
1044.489317,-9548.656652,-1628.453072,0.000000
1044.489638,-8882.471304,962.267725,689.485948
1044.489959,-9844.739029,0.000000,2374.896044
1044.490280,-9474.636058,1036.288319,2681.334243
1044.490601,-9030.512492,1406.391290,1838.629195
1044.490922,-9474.636058,444.123565,2528.115143
1044.491243,-9030.512492,-444.123565,4136.915689
1044.491564,-10732.986159,-1702.473667,5439.278036
1044.491885,-10584.944971,-5403.503377,3677.258390
1044.492206,-7550.100608,-3256.906145,229.828649
1044.492527,-8660.409521,666.185348,1072.533697
1044.492848,-7698.141797,1406.391290,459.657299
1044.493169,-9474.636058,1924.535449,2298.286494
1044.493490,-8364.327145,0.000000,229.828649
1044.493811,-7179.997637,-518.144159,-612.876398
1044.494132,-9474.636058,-3256.906145,766.095498
1044.494453,-8216.285956,-2146.597232,2834.553343
1044.494774,-10288.862594,-3701.029710,2604.724693
1044.495095,-9696.697840,-222.061783,1915.238745
1044.495416,-9770.718434,1332.370696,4060.306139
1044.495737,-9844.739029,1184.329507,4673.182538
1044.496058,-11547.212695,-296.082377,2911.162892
1044.496379,-9474.636058,-444.123565,229.828649
1044.496700,-9474.636058,-370.102971,0.000000
1044.497021,-8808.450710,-592.164754,-459.657299
1044.497342,-9844.739029,0.000000,919.314598
1044.497663,-9844.739029,-962.267725,-459.657299
1044.497984,-8734.430116,296.082377,-1838.629195
1044.498305,-10658.965565,1258.350101,689.485948
1044.498626,-11103.089130,1036.288319,2221.676944
1044.498947,-11473.192101,444.123565,2298.286494
1044.499268,-11029.068536,0.000000,-383.047749
1044.499589,-9696.697840,296.082377,0.000000
1044.499910,-9252.574275,1332.370696,919.314598
1044.500231,-10732.986159,740.205942,1608.800546
1044.500552,-8586.388927,592.164754,76.609550
1044.500873,-8734.430116,148.041188,-2528.115143
1044.501194,-9252.574275,1776.494261,1302.362347
1044.501515,-11103.089130,-296.082377,1685.410096
1044.501836,-11251.130318,-518.144159,2068.457845
1044.502157,-9992.780217,-592.164754,-842.705048
1044.502478,-8142.265362,222.061783,-383.047749
1044.502799,-9400.615463,-1036.288319,919.314598
1044.503120,-9400.615463,-1702.473667,1685.410096
1044.503441,-8808.450710,-2664.741391,0.000000
1044.503762,-8956.491898,0.000000,-995.924147
1044.504083,-9474.636058,1628.453072,2145.067394
1044.504404,-11399.171507,74.020594,4136.915689
1044.504725,-10881.027347,-814.226536,3447.429741
1044.505046,-9622.677246,-1036.288319,689.485948
1044.505367,-7476.080014,-74.020594,1302.362347
1044.505688,-8808.450710,-222.061783,1915.238745
1044.506009,-9770.718434,-444.123565,3677.258390
1044.506330,-8438.347739,-2664.741391,612.876398
1044.506651,-7031.956449,-592.164754,-229.828649
1044.506972,-8512.368333,-370.102971,1455.581446
1044.507293,-9770.718434,1110.308913,3677.258390
1044.507614,-12583.501014,518.144159,4903.011187
1044.507935,-9548.656652,0.000000,1072.533697
1044.508256,-10436.903782,-592.164754,1225.752797
1044.508577,-9992.780217,-148.041188,3064.381992
1044.508898,-12213.398043,-1480.411884,4903.011187
1044.509219,-11251.130318,-3627.009116,2145.067394
1044.509540,-8586.388927,1184.329507,536.266849
1044.509861,-9104.533087,0.000000,0.000000
1044.510182,-7105.977043,2516.700203,995.924147
1044.510503,-8660.409521,-592.164754,-459.657299
1044.510824,-8438.347739,444.123565,-153.219100
1044.511145,-6809.894666,74.020594,-229.828649
1044.511466,-11325.150913,-2812.782580,1149.143247
1044.511787,-11103.089130,-740.205942,4136.915689
1044.512108,-10658.965565,-3997.112087,842.705048
1044.512429,-11177.109724,370.102971,1455.581446
1044.512750,-9918.759623,814.226536,1762.019645
1044.513071,-10066.800811,148.041188,1225.752797
1044.513392,-10066.800811,-296.082377,229.828649
1044.513713,-8956.491898,-1776.494261,-2681.334243
1044.514034,-7624.121203,0.000000,-1378.971896
1044.514355,-10214.842000,-666.185348,-459.657299
1044.514676,-10066.800811,-1258.350101,1225.752797
1044.514997,-8512.368333,-1628.453072,-2451.505594
1044.515318,-8956.491898,1036.288319,-383.047749
1044.515639,-9844.739029,1332.370696,1225.752797
1044.515960,-10881.027347,1184.329507,3677.258390
1044.516281,-11103.089130,-296.082377,1532.190996
1044.516602,-8586.388927,-1998.556043,-1991.848295
1044.516923,-7994.224174,-370.102971,-459.657299
1044.517244,-9400.615463,-296.082377,1072.533697
1044.517565,-9326.594869,740.205942,1685.410096
1044.517886,-9474.636058,74.020594,-612.876398
1044.518207,-8290.306550,1776.494261,-536.266849
1044.518528,-8882.471304,2294.638420,459.657299
1044.518849,-11991.336260,1702.473667,2298.286494
1044.519170,-10214.842000,0.000000,1532.190996
1044.519491,-9548.656652,-518.144159,536.266849
1044.519812,-8956.491898,-296.082377,1991.848295
1044.520133,-9844.739029,-1850.514855,2834.553343
1044.520454,-10658.965565,-2368.659014,3907.087040
1044.520775,-9326.594869,-1776.494261,1378.971896
1044.521096,-8882.471304,888.247130,1149.143247
1044.521417,-10066.800811,666.185348,2834.553343
1044.521738,-10066.800811,666.185348,4060.306139
1044.522059,-10214.842000,-1184.329507,1608.800546
1044.522380,-9104.533087,-962.267725,1762.019645
1044.522701,-8882.471304,-2368.659014,2757.943793
1044.523022,-9400.615463,-1702.473667,4443.353888
1044.523343,-10955.047942,-2886.803174,2834.553343
1044.523664,-9030.512492,-1332.370696,229.828649
1044.523985,-6809.894666,666.185348,-536.266849
1044.524306,-8290.306550,592.164754,76.609550
1044.524627,-9992.780217,0.000000,1915.238745
1044.524948,-8586.388927,-888.247130,229.828649
1044.525269,-9326.594869,-814.226536,306.438199
1044.525590,-9178.553681,-518.144159,1302.362347
1044.525911,-11547.212695,-592.164754,3907.087040
1044.526232,-11251.130318,-1258.350101,2604.724693
1044.526553,-9030.512492,-296.082377,-1149.143247
1044.526874,-7402.059420,666.185348,-1532.190996
1044.527195,-7624.121203,222.061783,459.657299
1044.527516,-8438.347739,222.061783,-229.828649
1044.527837,-10658.965565,-1036.288319,-919.314598
1044.528158,-8364.327145,1406.391290,0.000000
1044.528479,-11251.130318,-222.061783,1455.581446
1044.528800,-11769.274478,0.000000,3830.477490
1044.529121,-11917.315666,-1776.494261,2528.115143
1044.529442,-11547.212695,-1258.350101,306.438199
1044.529763,-9104.533087,0.000000,153.219100
1044.530084,-9178.553681,666.185348,0.000000
1044.530405,-9992.780217,1036.288319,919.314598
1044.530726,-9178.553681,-1110.308913,-1455.581446
1044.531047,-7550.100608,1036.288319,-1149.143247
1044.531368,-8808.450710,-592.164754,306.438199
1044.531689,-9844.739029,962.267725,2145.067394
1044.532010,-11473.192101,-370.102971,2451.505594
1044.532331,-11843.295072,-1628.453072,1378.971896
1044.532652,-8290.306550,592.164754,1225.752797
1044.532973,-10584.944971,-518.144159,2528.115143
1044.533294,-10140.821405,-518.144159,1991.848295
1044.533615,-9252.574275,888.247130,459.657299
1044.533936,-8660.409521,1776.494261,459.657299
1044.534257,-8438.347739,2812.782580,1455.581446
1044.534578,-9178.553681,2072.576638,1608.800546
1044.534899,-9844.739029,-1258.350101,306.438199
1044.535220,-8216.285956,-1110.308913,-536.266849
1044.535541,-9474.636058,-1258.350101,2757.943793
1044.535862,-10362.883188,-1776.494261,4213.525239
1044.536183,-10732.986159,-2072.576638,3600.648841
1044.536504,-10214.842000,-74.020594,2221.676944
1044.536825,-9992.780217,1850.514855,3064.381992
1044.537146,-9992.780217,888.247130,2987.772442
1044.537467,-10436.903782,-592.164754,3677.258390
1044.537788,-8882.471304,-2368.659014,459.657299
1044.538109,-7402.059420,-1702.473667,-536.266849
1044.538430,-8068.244768,222.061783,1915.238745
1044.538751,-9622.677246,0.000000,2528.115143
1044.539072,-8660.409521,-888.247130,459.657299
1044.539393,-8956.491898,-1406.391290,-536.266849
1044.539714,-9770.718434,-370.102971,153.219100
1044.540035,-9696.697840,-1480.411884,1302.362347
1044.540356,-12435.459826,-2220.617826,2604.724693
1044.540677,-9918.759623,-2442.679609,1532.190996
1044.540998,-9104.533087,-1184.329507,76.609550
1044.541319,-9104.533087,-444.123565,612.876398
1044.541640,-9104.533087,296.082377,536.266849
1044.541961,-9770.718434,296.082377,-1302.362347
1044.542282,-8216.285956,-222.061783,-1915.238745
1044.542603,-8290.306550,0.000000,-766.095498
1044.542924,-10362.883188,-148.041188,306.438199
1044.543245,-10732.986159,-1184.329507,1608.800546
1044.543566,-9696.697840,-518.144159,766.095498
1044.543887,-12139.377449,-1998.556043,-612.876398
1044.544208,-7179.997637,370.102971,2145.067394
1044.544529,-12213.398043,-148.041188,1149.143247
1044.544850,-10807.006753,1998.556043,1915.238745
1044.545171,-7994.224174,666.185348,-1302.362347
1044.545492,-10214.842000,2886.803174,1072.533697
1044.545813,-10066.800811,2960.823768,612.876398
1044.546134,-11843.295072,148.041188,3677.258390
1044.546455,-10066.800811,-1036.288319,1149.143247
1044.546776,-7476.080014,-222.061783,-1072.533697
1044.547097,-11029.068536,0.000000,1762.019645
1044.547418,-9992.780217,-740.205942,3830.477490
1044.547739,-8956.491898,-2442.679609,306.438199
1044.548060,-9548.656652,-1554.432478,919.314598
1044.548381,-8438.347739,222.061783,1072.533697
1044.548702,-10436.903782,2146.597232,3294.210641
1044.549023,-11695.253884,814.226536,5439.278036
1044.549344,-9104.533087,-2442.679609,1072.533697
1044.549664,-8068.244768,74.020594,766.095498
1044.549985,-9474.636058,-2368.659014,1838.629195
1044.550306,-9770.718434,-1480.411884,1991.848295
1044.550627,-9548.656652,-518.144159,2298.286494
1044.550947,-8734.430116,-444.123565,919.314598
1044.551268,-7772.162391,1036.288319,3064.381992
1044.551589,-10066.800811,-148.041188,2604.724693
1044.551910,-10881.027347,-962.267725,3753.867940
1044.552230,-9474.636058,-1554.432478,1149.143247
1044.552551,-8808.450710,-1110.308913,2451.505594
1044.552872,-9696.697840,-1480.411884,2451.505594
1044.553192,-9622.677246,-814.226536,1685.410096
1044.553513,-10362.883188,-592.164754,229.828649
1044.553834,-8142.265362,1998.556043,-459.657299
1044.554155,-9696.697840,0.000000,536.266849
1044.554475,-10584.944971,-222.061783,2068.457845
1044.554796,-10955.047942,-1332.370696,1225.752797
1044.555117,-8660.409521,-2368.659014,-1915.238745
1044.555438,-8142.265362,-1110.308913,0.000000
1044.555758,-9178.553681,-370.102971,-459.657299
1044.556079,-10362.883188,1406.391290,229.828649
1044.556400,-9770.718434,1480.411884,-1378.971896
1044.556720,-9474.636058,2516.700203,842.705048
1044.557041,-9178.553681,518.144159,-383.047749
1044.557362,-12435.459826,-1184.329507,612.876398
1044.557683,-10732.986159,-666.185348,766.095498
1044.558003,-9696.697840,-370.102971,-383.047749
1044.558324,-9770.718434,370.102971,2068.457845
1044.558645,-10732.986159,-296.082377,1608.800546
1044.558966,-9474.636058,-592.164754,-383.047749
1044.559286,-8882.471304,-1480.411884,-2987.772442
1044.559607,-6439.791695,1776.494261,-2681.334243
1044.559928,-9844.739029,1332.370696,0.000000
1044.560249,-9548.656652,2368.659014,3370.820191
1044.560569,-11399.171507,-1258.350101,1608.800546
1044.560890,-9030.512492,-1554.432478,0.000000
1044.561211,-8734.430116,-1628.453072,2451.505594
1044.561531,-10881.027347,-962.267725,3753.867940
1044.561852,-10807.006753,518.144159,3753.867940
1044.562173,-9030.512492,1554.432478,1532.190996
1044.562494,-6957.935855,2368.659014,229.828649
1044.562814,-7772.162391,1036.288319,689.485948
1044.563135,-9918.759623,-74.020594,3064.381992
1044.563456,-9326.594869,-2516.700203,1685.410096
1044.563777,-8068.244768,-814.226536,-612.876398
1044.564097,-8660.409521,1036.288319,3140.991542
1044.564418,-11103.089130,-1110.308913,3830.477490
1044.564739,-10436.903782,-666.185348,3524.039291
1044.565059,-9918.759623,-1702.473667,1762.019645
1044.565380,-7402.059420,592.164754,1225.752797
1044.565701,-8660.409521,-222.061783,1685.410096
1044.566022,-11473.192101,-370.102971,3983.696590
1044.566342,-9474.636058,-740.205942,995.924147
1044.566663,-8216.285956,518.144159,306.438199
1044.566984,-9474.636058,814.226536,2681.334243
1044.567305,-10140.821405,-1480.411884,2145.067394
1044.567625,-10510.924376,-1628.453072,766.095498
1044.567946,-8882.471304,-296.082377,-995.924147
1044.568267,-8438.347739,296.082377,-229.828649
1044.568587,-9622.677246,-962.267725,919.314598
1044.568908,-10510.924376,-1184.329507,1915.238745
1044.569229,-10807.006753,-3182.885551,-1225.752797
1044.569550,-9252.574275,-1110.308913,459.657299
1044.569870,-11399.171507,-444.123565,2681.334243
1044.570191,-11621.233289,148.041188,2757.943793
1044.570512,-12287.418637,-1184.329507,2374.896044
1044.570833,-9252.574275,-2072.576638,-842.705048
1044.571153,-7328.038826,-1036.288319,-2298.286494
1044.571474,-8808.450710,-1702.473667,-1455.581446
1044.571795,-9178.553681,-444.123565,383.047749
1044.572116,-8438.347739,-370.102971,-3064.381992
1044.572436,-9252.574275,2960.823768,-1685.410096
1044.572757,-9474.636058,2220.617826,306.438199
1044.573078,-10955.047942,888.247130,2374.896044
1044.573398,-11621.233289,-2886.803174,2451.505594
1044.573719,-9622.677246,-2220.617826,153.219100
1044.574040,-10066.800811,518.144159,1378.971896
1044.574361,-10732.986159,814.226536,1685.410096
1044.574681,-10584.944971,1850.514855,2068.457845
1044.575002,-9030.512492,444.123565,-2221.676944
1044.575323,-6587.832884,1184.329507,-2451.505594
1044.575644,-7698.141797,-592.164754,-1149.143247
1044.575964,-8660.409521,-962.267725,1378.971896
1044.576285,-11177.109724,-2664.741391,1072.533697
1044.576606,-9770.718434,-2146.597232,1762.019645
1044.576926,-8660.409521,-1406.391290,2451.505594
1044.577247,-11177.109724,-740.205942,4443.353888
1044.577568,-10288.862594,-444.123565,5975.544884
1044.577889,-9622.677246,0.000000,1915.238745
1044.578209,-9474.636058,1036.288319,2451.505594
1044.578530,-8734.430116,-666.185348,1072.533697
1044.578851,-8364.327145,-2072.576638,1685.410096
1044.579172,-9252.574275,-3552.988522,306.438199
1044.579492,-7994.224174,-1554.432478,-842.705048
1044.579813,-8438.347739,740.205942,2298.286494
1044.580134,-10732.986159,148.041188,3677.258390
1044.580454,-10658.965565,-370.102971,3370.820191
1044.580775,-10807.006753,-962.267725,1608.800546
1044.581096,-9696.697840,0.000000,1991.848295
1044.581417,-9622.677246,74.020594,2604.724693
1044.581737,-10955.047942,-370.102971,3524.039291
1044.582058,-9622.677246,-1554.432478,383.047749
1044.582379,-7994.224174,0.000000,-1455.581446
1044.582700,-7920.203579,-148.041188,-1225.752797
1044.583020,-9918.759623,1110.308913,1149.143247
1044.583341,-10066.800811,0.000000,0.000000
1044.583662,-10436.903782,-666.185348,-842.705048
1044.583982,-9696.697840,1776.494261,766.095498
1044.584303,-11621.233289,-1036.288319,1991.848295
1044.584624,-10288.862594,-814.226536,1991.848295
1044.584945,-10658.965565,-2516.700203,-689.485948
1044.585265,-7772.162391,888.247130,-1838.629195
1044.585586,-9548.656652,1184.329507,-459.657299
1044.585907,-9622.677246,3404.947333,1225.752797
1044.586228,-10584.944971,1184.329507,689.485948
1044.586548,-9474.636058,148.041188,-1685.410096
1044.586869,-8882.471304,1036.288319,383.047749
1044.587190,-10140.821405,-814.226536,1378.971896
1044.587511,-10510.924376,-888.247130,3830.477490
1044.587831,-9992.780217,-1702.473667,689.485948
1044.588152,-8734.430116,1036.288319,1225.752797
1044.588473,-9326.594869,-296.082377,1608.800546
1044.588793,-9400.615463,888.247130,-1225.752797
1044.589114,-8734.430116,-962.267725,-995.924147
1044.589435,-8142.265362,-1850.514855,-2374.896044
1044.589756,-6513.812290,2590.720797,-995.924147
1044.590076,-11547.212695,-814.226536,2528.115143
1044.590397,-10362.883188,-1184.329507,3294.210641
1044.590718,-9770.718434,-2516.700203,919.314598
1044.591039,-9252.574275,-1924.535449,1225.752797
1044.591359,-8142.265362,-740.205942,1225.752797
1044.591680,-10214.842000,-592.164754,3140.991542
1044.592001,-7476.080014,518.144159,-383.047749
1044.592321,-8142.265362,666.185348,-76.609550
1044.592642,-8068.244768,1628.453072,1608.800546
1044.592963,-9326.594869,148.041188,4826.401637
1044.593284,-11251.130318,-2442.679609,3140.991542
1044.593604,-9696.697840,-1850.514855,1915.238745
1044.593925,-9844.739029,-592.164754,2911.162892
1044.594246,-10732.986159,74.020594,3830.477490
1044.594567,-9622.677246,444.123565,3370.820191
1044.594887,-9918.759623,-1184.329507,612.876398
1044.595208,-7476.080014,-74.020594,-689.485948
1044.595529,-8956.491898,-148.041188,229.828649
1044.595849,-11251.130318,888.247130,2145.067394
1044.596170,-10658.965565,-518.144159,2528.115143
1044.596491,-9918.759623,-296.082377,229.828649
1044.596812,-10140.821405,0.000000,1532.190996
1044.597132,-10140.821405,-1850.514855,459.657299
1044.597453,-10658.965565,-592.164754,3217.601092
1044.597774,-10066.800811,-3108.864956,-153.219100
1044.598095,-8142.265362,-1258.350101,-536.266849
1044.598415,-9326.594869,-518.144159,0.000000
1044.598736,-10214.842000,-222.061783,1455.581446
1044.599057,-10510.924376,-2072.576638,995.924147
1044.599378,-9474.636058,-962.267725,-536.266849
1044.599698,-9474.636058,-962.267725,76.609550
1044.600019,-10510.924376,0.000000,-306.438199
1044.600340,-10362.883188,-148.041188,1685.410096
1044.600660,-9104.533087,-2442.679609,-2068.457845
1044.600981,-7846.182985,-370.102971,-2987.772442
1044.601302,-10732.986159,296.082377,-3217.601092
1044.601623,-9696.697840,1776.494261,689.485948
1044.601943,-11251.130318,0.000000,1378.971896
1044.602264,-10584.944971,74.020594,612.876398
1044.602585,-9918.759623,814.226536,1991.848295
1044.602906,-9918.759623,-1184.329507,689.485948
1044.603226,-9992.780217,0.000000,2145.067394
1044.603547,-8660.409521,74.020594,-383.047749
1044.603868,-8364.327145,2368.659014,153.219100
1044.604188,-9030.512492,2368.659014,919.314598
1044.604509,-9474.636058,666.185348,1608.800546
1044.604830,-10584.944971,-1258.350101,306.438199
1044.605151,-10362.883188,-1406.391290,536.266849
1044.605471,-9622.677246,-444.123565,1302.362347
1044.605792,-11917.315666,370.102971,5209.449386
1044.606113,-11473.192101,-1110.308913,5209.449386
1044.606434,-8586.388927,-2072.576638,0.000000
1044.606754,-8216.285956,0.000000,536.266849
1044.607075,-8290.306550,1480.411884,459.657299
1044.607396,-9326.594869,-1998.556043,2528.115143
1044.607716,-8142.265362,-1628.453072,-1455.581446
1044.608037,-7698.141797,-1110.308913,-536.266849
1044.608358,-8956.491898,-1332.370696,2298.286494
1044.608679,-10436.903782,-888.247130,4443.353888
1044.608999,-13027.624579,-814.226536,4903.011187
1044.609320,-11399.171507,-814.226536,3983.696590
1044.609641,-7994.224174,518.144159,3370.820191
1044.609962,-11769.274478,222.061783,3907.087040
1044.610282,-8068.244768,-962.267725,3294.210641
1044.610603,-9326.594869,-1924.535449,-995.924147
1044.610924,-7624.121203,222.061783,-306.438199
1044.611244,-6883.915261,-296.082377,-766.095498
1044.611565,-9696.697840,74.020594,1302.362347
1044.611886,-12213.398043,-1998.556043,2451.505594
1044.612207,-8586.388927,-2072.576638,-383.047749
1044.612527,-8882.471304,222.061783,2145.067394
1044.612848,-11177.109724,-518.144159,2221.676944
1044.613169,-11251.130318,-740.205942,3830.477490
1044.613490,-11251.130318,-2812.782580,1302.362347
1044.613810,-7550.100608,222.061783,0.000000
1044.614131,-8734.430116,0.000000,-842.705048
1044.614452,-10658.965565,148.041188,919.314598
1044.614773,-10881.027347,148.041188,306.438199
1044.615093,-9178.553681,740.205942,-2374.896044
1044.615414,-8956.491898,2294.638420,-1225.752797
1044.615735,-11325.150913,148.041188,1149.143247
1044.616055,-11251.130318,74.020594,689.485948
1044.616376,-11621.233289,-1258.350101,0.000000
1044.616697,-8364.327145,740.205942,612.876398
1044.617018,-9622.677246,-444.123565,-383.047749
1044.617338,-11029.068536,296.082377,1378.971896
1044.617659,-9474.636058,-296.082377,-536.266849
1044.617980,-8586.388927,814.226536,-1838.629195
1044.618301,-8808.450710,1628.453072,229.828649
1044.618621,-10584.944971,222.061783,1072.533697
1044.618942,-9992.780217,222.061783,2834.553343
1044.619263,-10288.862594,-3256.906145,383.047749
1044.619583,-7476.080014,814.226536,1072.533697
1044.619904,-10732.986159,-2146.597232,2681.334243
1044.620225,-8956.491898,1110.308913,4673.182538
1044.620546,-11473.192101,-1480.411884,2987.772442
1044.620866,-6735.874072,-1332.370696,306.438199
1044.621187,-6883.915261,0.000000,-842.705048
1044.621508,-8290.306550,666.185348,1149.143247
1044.621829,-8438.347739,296.082377,1915.238745
1044.622149,-9252.574275,0.000000,1072.533697
1044.622470,-8660.409521,0.000000,2451.505594
1044.622791,-8068.244768,-1998.556043,1378.971896
1044.623111,-11029.068536,-1110.308913,4136.915689
1044.623432,-9622.677246,-1628.453072,1608.800546
1044.623753,-8586.388927,962.267725,153.219100
1044.624074,-8808.450710,3182.885551,2987.772442
1044.624394,-9992.780217,296.082377,3217.601092
1044.624715,-9992.780217,-962.267725,2757.943793
1044.625036,-11325.150913,-2812.782580,-306.438199
1044.625357,-8586.388927,-1332.370696,1072.533697
1044.625677,-10362.883188,-1184.329507,2451.505594
1044.625998,-11473.192101,-370.102971,3677.258390
1044.626319,-9918.759623,-296.082377,1225.752797
1044.626640,-9104.533087,-296.082377,-1072.533697
1044.626960,-8438.347739,-296.082377,0.000000
1044.627281,-9844.739029,-1332.370696,689.485948
1044.627602,-10658.965565,-1480.411884,459.657299
1044.627922,-10362.883188,-666.185348,0.000000
1044.628243,-9474.636058,1184.329507,1455.581446
1044.628564,-11547.212695,-1184.329507,2068.457845
1044.628885,-10881.027347,-1184.329507,2451.505594
1044.629205,-10732.986159,-2146.597232,-1302.362347
1044.629526,-8882.471304,-888.247130,-1608.800546
1044.629847,-9844.739029,1110.308913,76.609550
1044.630168,-10584.944971,1924.535449,1915.238745
1044.630488,-10510.924376,74.020594,459.657299
1044.630809,-9252.574275,296.082377,-1762.019645
1044.631130,-7846.182985,814.226536,-536.266849
1044.631450,-9400.615463,-1480.411884,153.219100
1044.631771,-9770.718434,444.123565,1762.019645
1044.632092,-9992.780217,518.144159,153.219100
1044.632413,-8734.430116,2368.659014,-306.438199
1044.632733,-9474.636058,2368.659014,153.219100
1044.633054,-9400.615463,1332.370696,2221.676944
1044.633375,-9992.780217,-1110.308913,1608.800546
1044.633696,-8586.388927,-1702.473667,0.000000
1044.634016,-9178.553681,-1258.350101,1225.752797
1044.634337,-10066.800811,-1850.514855,2451.505594
1044.634658,-10658.965565,-1332.370696,4060.306139
1044.634978,-9622.677246,-2368.659014,1532.190996
1044.635299,-8364.327145,0.000000,383.047749
1044.635620,-8438.347739,1554.432478,2145.067394
1044.635941,-10066.800811,-296.082377,3064.381992
1044.636261,-9178.553681,-1924.535449,1762.019645
1044.636582,-8216.285956,-2146.597232,76.609550
1044.636903,-7994.224174,-1702.473667,229.828649
1044.637224,-10288.862594,-814.226536,2298.286494
1044.637544,-11843.295072,-1554.432478,4903.011187
1044.637865,-9474.636058,-1258.350101,1455.581446
1044.638186,-10658.965565,74.020594,2757.943793
1044.638506,-11029.068536,0.000000,2298.286494
1044.638827,-9992.780217,-1332.370696,2145.067394
1044.639148,-9178.553681,-3775.050304,-1072.533697
1044.639469,-7846.182985,-296.082377,-2068.457845
1044.639789,-7994.224174,888.247130,-1225.752797
1044.640110,-10140.821405,-444.123565,1608.800546
1044.640431,-10658.965565,-592.164754,1149.143247
1044.640752,-11029.068536,-1554.432478,0.000000
1044.641072,-9844.739029,-962.267725,1455.581446
1044.641393,-12287.418637,0.000000,2757.943793
1044.641714,-11769.274478,2590.720797,4749.792088
1044.642035,-12805.562797,-4515.256246,1991.848295
1044.642355,-5921.647536,1036.288319,-1685.410096
1044.642676,-9400.615463,-1998.556043,-2528.115143
1044.642997,-9104.533087,2886.803174,76.609550
1044.643317,-9104.533087,3701.029710,-229.828649
1044.643638,-10436.903782,1924.535449,-995.924147
1044.643959,-9400.615463,2516.700203,153.219100
1044.644280,-9696.697840,-1258.350101,-383.047749
1044.644600,-12805.562797,-370.102971,4596.572988
1044.644921,-9844.739029,-3478.967927,689.485948
1044.645242,-9622.677246,148.041188,0.000000
1044.645563,-9178.553681,-370.102971,1149.143247
1044.645883,-7254.018232,1554.432478,-842.705048
1044.646204,-8808.450710,-518.144159,-536.266849
1044.646525,-10066.800811,-296.082377,-306.438199
1044.646845,-7031.956449,962.267725,0.000000
1044.647166,-10732.986159,-2072.576638,1302.362347
1044.647487,-9548.656652,-1332.370696,2604.724693
1044.647808,-8660.409521,-1702.473667,306.438199
1044.648128,-8660.409521,-444.123565,1225.752797
1044.648449,-9252.574275,592.164754,2834.553343
1044.648770,-9178.553681,0.000000,2911.162892
1044.649091,-9400.615463,-1258.350101,1225.752797
1044.649411,-8512.368333,0.000000,76.609550
1044.649732,-7550.100608,444.123565,1302.362347
1044.650053,-10288.862594,0.000000,3370.820191
1044.650374,-9770.718434,0.000000,3907.087040
1044.650695,-9474.636058,-2146.597232,766.095498
1044.651015,-9548.656652,-296.082377,2451.505594
1044.651336,-9696.697840,-1036.288319,3447.429741
1044.651657,-10066.800811,592.164754,4443.353888
1044.651978,-11769.274478,-740.205942,2145.067394
1044.652299,-7624.121203,222.061783,0.000000
1044.652619,-8882.471304,666.185348,0.000000
1044.652940,-9400.615463,296.082377,1685.410096
1044.653261,-9548.656652,592.164754,2068.457845
1044.653582,-9992.780217,-1332.370696,-306.438199
1044.653902,-8660.409521,0.000000,153.219100
1044.654223,-8882.471304,-1036.288319,689.485948
1044.654544,-12879.583391,-1332.370696,3677.258390
1044.654865,-11769.274478,-3701.029710,2145.067394
1044.655186,-9252.574275,-1850.514855,-1072.533697
1044.655506,-7624.121203,-1702.473667,-1915.238745
1044.655827,-9326.594869,-1850.514855,-1378.971896
1044.656148,-8586.388927,-296.082377,-689.485948
1044.656469,-9474.636058,-740.205942,-2221.676944
1044.656790,-8956.491898,666.185348,-459.657299
1044.657110,-10288.862594,222.061783,1991.848295
1044.657431,-13989.892304,-3034.844362,4519.963438
1044.657752,-11251.130318,-2960.823768,1455.581446
1044.658073,-10436.903782,-666.185348,612.876398
1044.658394,-9844.739029,1554.432478,1072.533697
1044.658714,-9548.656652,2590.720797,1378.971896
1044.659035,-9474.636058,1924.535449,459.657299
1044.659356,-8882.471304,370.102971,-2374.896044
1044.659677,-6513.812290,962.267725,-2221.676944
1044.659997,-9918.759623,-148.041188,-995.924147
1044.660318,-10140.821405,666.185348,2374.896044
1044.660639,-10288.862594,148.041188,1149.143247
1044.660960,-10362.883188,1998.556043,1685.410096
1044.661281,-10510.924376,1184.329507,2757.943793
1044.661601,-10214.842000,-592.164754,2834.553343
1044.661922,-10881.027347,-1258.350101,2451.505594
1044.662243,-9104.533087,-962.267725,-153.219100
1044.662564,-8068.244768,518.144159,153.219100
1044.662885,-7994.224174,-666.185348,1532.190996
1044.663205,-8808.450710,-444.123565,2068.457845
1044.663526,-9474.636058,-2738.761985,-306.438199
1044.663847,-8142.265362,666.185348,995.924147
1044.664168,-9622.677246,-1702.473667,2068.457845
1044.664488,-10584.944971,-1554.432478,3294.210641
1044.664809,-10214.842000,-2146.597232,3064.381992
1044.665130,-8808.450710,-1628.453072,1149.143247
1044.665451,-9992.780217,814.226536,3447.429741
1044.665772,-11547.212695,148.041188,5286.058936
1044.666092,-10584.944971,-1924.535449,4213.525239
1044.666413,-9548.656652,-3108.864956,0.000000
1044.666734,-8734.430116,-222.061783,1072.533697
1044.667055,-9104.533087,0.000000,1072.533697
1044.667376,-9400.615463,518.144159,2068.457845
1044.667696,-8882.471304,-1702.473667,-766.095498
1044.668017,-6661.853478,0.000000,-2604.724693
1044.668338,-8364.327145,1110.308913,689.485948
1044.668659,-10584.944971,148.041188,1838.629195
1044.668979,-11399.171507,0.000000,2987.772442
1044.669300,-10807.006753,-2220.617826,0.000000
1044.669621,-7402.059420,740.205942,76.609550
1044.669942,-10881.027347,-666.185348,536.266849
1044.670263,-9992.780217,888.247130,2528.115143
1044.670583,-9770.718434,-1480.411884,-459.657299
1044.670904,-8438.347739,888.247130,-1149.143247
1044.671225,-10362.883188,-444.123565,306.438199
1044.671546,-10658.965565,222.061783,536.266849
1044.671867,-12731.542202,0.000000,2298.286494
1044.672187,-9844.739029,1184.329507,-536.266849
1044.672508,-9548.656652,2072.576638,1149.143247
1044.672829,-10658.965565,-1332.370696,766.095498
1044.673150,-10140.821405,-444.123565,536.266849
1044.673471,-8956.491898,-2516.700203,-1762.019645
1044.673791,-7179.997637,148.041188,-1762.019645
1044.674112,-7105.977043,1184.329507,-1149.143247
1044.674433,-10066.800811,2220.617826,2145.067394
1044.674754,-9622.677246,-1036.288319,1762.019645
1044.675074,-8956.491898,-1258.350101,-153.219100
1044.675395,-10807.006753,-888.247130,2298.286494
1044.675716,-9992.780217,222.061783,2911.162892
1044.676037,-11325.150913,-296.082377,4596.572988
1044.676358,-10288.862594,-1184.329507,2298.286494
1044.676678,-7920.203579,370.102971,306.438199
1044.676999,-7476.080014,-962.267725,0.000000
1044.677320,-9844.739029,222.061783,2528.115143
1044.677641,-9992.780217,-592.164754,2451.505594
1044.677962,-9252.574275,-888.247130,-229.828649
1044.678282,-7994.224174,1702.473667,2451.505594
1044.678603,-9844.739029,0.000000,3370.820191
1044.678924,-9548.656652,-962.267725,3677.258390
1044.679245,-10436.903782,-2664.741391,1225.752797
1044.679565,-7179.997637,-518.144159,689.485948
1044.679886,-8956.491898,148.041188,2068.457845
1044.680207,-10881.027347,888.247130,4596.572988
1044.680528,-9696.697840,-370.102971,2604.724693
1044.680849,-7846.182985,148.041188,1991.848295
1044.681169,-7772.162391,1184.329507,1532.190996
1044.681490,-10658.965565,-814.226536,2068.457845
1044.681811,-9992.780217,1110.308913,3600.648841
1044.682132,-12139.377449,-4441.235652,153.219100
1044.682453,-7624.121203,814.226536,842.705048
1044.682773,-10658.965565,-3256.906145,1072.533697
1044.683094,-11621.233289,-888.247130,3140.991542
1044.683415,-10066.800811,-1702.473667,1072.533697
1044.683736,-9918.759623,-1258.350101,-2681.334243
1044.684056,-8216.285956,814.226536,0.000000
1044.684377,-8216.285956,-1184.329507,-2298.286494
1044.684698,-11177.109724,444.123565,1225.752797
1044.685019,-8142.265362,-814.226536,-2145.067394
1044.685340,-8956.491898,296.082377,-2068.457845
1044.685660,-10362.883188,-296.082377,689.485948
1044.685981,-10658.965565,0.000000,612.876398
1044.686302,-11177.109724,-518.144159,459.657299
1044.686623,-11029.068536,444.123565,306.438199
1044.686944,-9252.574275,148.041188,306.438199
1044.687264,-9622.677246,-592.164754,-995.924147
1044.687585,-9474.636058,-222.061783,-919.314598
1044.687906,-8068.244768,1406.391290,-3294.210641
1044.688227,-9104.533087,3552.988522,-919.314598
1044.688548,-9474.636058,1258.350101,229.828649
1044.688868,-9400.615463,814.226536,2604.724693
1044.689189,-11325.150913,-2590.720797,1225.752797
1044.689510,-10658.965565,0.000000,1225.752797
1044.689831,-9770.718434,666.185348,3217.601092
1044.690151,-11325.150913,0.000000,3140.991542
1044.690472,-8808.450710,666.185348,2911.162892
1044.690793,-8068.244768,-1332.370696,-459.657299
1044.691114,-7550.100608,-444.123565,-459.657299
1044.691435,-8216.285956,-370.102971,1378.971896
1044.691755,-9474.636058,-148.041188,3294.210641
1044.692076,-10362.883188,-1924.535449,2298.286494
1044.692397,-8142.265362,222.061783,2221.676944
1044.692718,-10214.842000,-1776.494261,3217.601092
1044.693039,-10066.800811,-2220.617826,3217.601092
1044.693359,-9252.574275,-1998.556043,4366.744339
1044.693680,-10658.965565,-3701.029710,1455.581446
1044.694001,-7031.956449,0.000000,1608.800546
1044.694322,-8808.450710,370.102971,2451.505594
1044.694642,-9918.759623,-296.082377,3983.696590
1044.694963,-8734.430116,-814.226536,1608.800546
1044.695284,-9326.594869,518.144159,2374.896044
1044.695605,-9474.636058,-1110.308913,1455.581446
1044.695926,-9474.636058,-1406.391290,2451.505594
1044.696246,-10584.944971,-2886.803174,1302.362347
1044.696567,-8364.327145,-1850.514855,-1378.971896
1044.696888,-8068.244768,296.082377,-536.266849
1044.697209,-10066.800811,666.185348,1838.629195
1044.697530,-9104.533087,74.020594,2451.505594
1044.697850,-11473.192101,-1776.494261,842.705048
1044.698171,-9918.759623,-1110.308913,-153.219100
1044.698492,-9918.759623,1036.288319,1455.581446
1044.698813,-11917.315666,-740.205942,2068.457845
1044.699133,-10807.006753,0.000000,1072.533697
1044.699454,-9030.512492,148.041188,-1608.800546
1044.699775,-7698.141797,-666.185348,-2374.896044
1044.700096,-9326.594869,-370.102971,-1302.362347
1044.700417,-11399.171507,-1924.535449,459.657299
1044.700737,-9326.594869,-2368.659014,-2221.676944
1044.701058,-9474.636058,3034.844362,-383.047749
1044.701379,-11177.109724,2368.659014,2068.457845
1044.701700,-11695.253884,1406.391290,2834.553343
1044.702021,-10658.965565,0.000000,229.828649
1044.702341,-8216.285956,0.000000,-2757.943793
1044.702662,-8364.327145,740.205942,-1532.190996
1044.702983,-9622.677246,-592.164754,-153.219100
1044.703304,-10436.903782,-370.102971,842.705048
1044.703625,-8956.491898,-370.102971,-2068.457845
1044.703945,-8142.265362,-592.164754,76.609550
1044.704266,-9770.718434,-296.082377,1302.362347
1044.704587,-11621.233289,-222.061783,3677.258390
1044.704908,-12287.418637,-1776.494261,3447.429741
1044.705228,-7550.100608,740.205942,2068.457845
1044.705549,-8882.471304,-2294.638420,1225.752797
1044.705870,-8438.347739,814.226536,2451.505594
1044.706191,-10214.842000,-148.041188,2911.162892
1044.706512,-8438.347739,370.102971,1608.800546
1044.706832,-8364.327145,1036.288319,1455.581446
1044.707153,-8660.409521,148.041188,1685.410096
1044.707474,-9622.677246,666.185348,2681.334243
1044.707795,-11177.109724,-1332.370696,1915.238745
1044.708116,-8364.327145,-740.205942,1838.629195
1044.708436,-9178.553681,-1776.494261,1915.238745
1044.708757,-9474.636058,-1110.308913,2911.162892
1044.709078,-9918.759623,148.041188,3447.429741
1044.709399,-9622.677246,1036.288319,2604.724693
1044.709719,-9326.594869,1924.535449,3677.258390
1044.710040,-10881.027347,74.020594,3064.381992
1044.710361,-10288.862594,-222.061783,2911.162892
1044.710682,-10658.965565,-2146.597232,995.924147
1044.711003,-9696.697840,370.102971,2834.553343
1044.711323,-9918.759623,-1110.308913,2911.162892
1044.711644,-10066.800811,-370.102971,2451.505594
1044.711965,-9030.512492,-1850.514855,-612.876398
1044.712286,-8956.491898,-1258.350101,-2451.505594
1044.712607,-8364.327145,518.144159,-306.438199
1044.712927,-9548.656652,-370.102971,383.047749
1044.713248,-10584.944971,-1110.308913,842.705048
1044.713569,-10807.006753,-2812.782580,-1378.971896
1044.713890,-9622.677246,-962.267725,0.000000
1044.714210,-11547.212695,-1776.494261,995.924147
1044.714531,-11547.212695,-888.247130,1915.238745
1044.714852,-10732.986159,-1850.514855,-229.828649
1044.715173,-8290.306550,370.102971,-1915.238745
1044.715494,-9918.759623,1406.391290,76.609550
1044.715814,-10214.842000,-222.061783,995.924147
1044.716135,-9400.615463,-1332.370696,536.266849
1044.716456,-9252.574275,-1110.308913,-2374.896044
1044.716777,-7920.203579,-370.102971,-1378.971896
1044.717098,-8142.265362,-1036.288319,0.000000
1044.717418,-10807.006753,-518.144159,1378.971896
1044.717739,-9474.636058,-814.226536,0.000000
1044.718060,-9696.697840,-148.041188,-383.047749
1044.718381,-9178.553681,1480.411884,1378.971896
1044.718702,-10955.047942,296.082377,1455.581446
1044.719022,-10436.903782,370.102971,2451.505594
1044.719343,-9178.553681,148.041188,0.000000
1044.719664,-7624.121203,-518.144159,306.438199
1044.719985,-8808.450710,-1628.453072,612.876398
1044.720305,-9178.553681,-740.205942,2528.115143
1044.720626,-8956.491898,-3330.926739,-1532.190996
1044.720947,-6291.750507,1850.514855,-766.095498
1044.721268,-9474.636058,2072.576638,1762.019645
1044.721589,-11251.130318,740.205942,4749.792088
1044.721909,-10140.821405,1628.453072,3753.867940
1044.722230,-12509.480420,-1554.432478,3677.258390
1044.722551,-9474.636058,-1332.370696,3217.601092
1044.722872,-10658.965565,-2294.638420,4673.182538
1044.723193,-9696.697840,-2220.617826,4673.182538
1044.723513,-9992.780217,-2146.597232,1838.629195
1044.723834,-8734.430116,666.185348,2145.067394
1044.724155,-9474.636058,592.164754,2298.286494
1044.724476,-9326.594869,666.185348,2145.067394
1044.724796,-10214.842000,-1850.514855,1685.410096
1044.725117,-8586.388927,-2146.597232,0.000000
1044.725438,-8808.450710,-1850.514855,-229.828649
1044.725759,-9622.677246,-1184.329507,1608.800546
1044.726080,-11177.109724,-444.123565,3294.210641
1044.726400,-10214.842000,-1554.432478,1838.629195
1044.726721,-8956.491898,74.020594,1072.533697
1044.727042,-10732.986159,518.144159,2221.676944
1044.727363,-11177.109724,-518.144159,1149.143247
1044.727684,-10436.903782,-1702.473667,0.000000
1044.728004,-9178.553681,-1554.432478,-1838.629195
1044.728325,-5403.503377,-370.102971,-1915.238745
1044.728646,-10140.821405,-1036.288319,-995.924147
1044.728967,-9844.739029,-222.061783,612.876398
1044.729287,-10066.800811,-1332.370696,-1149.143247
1044.729608,-10214.842000,1406.391290,1149.143247
1044.729929,-11843.295072,1776.494261,2681.334243
1044.730250,-12435.459826,2220.617826,4673.182538
1044.730571,-11695.253884,148.041188,1149.143247
1044.730891,-7846.182985,444.123565,-1991.848295
1044.731212,-6883.915261,370.102971,-2374.896044
1044.731533,-8142.265362,0.000000,-2528.115143
1044.731854,-8956.491898,888.247130,-459.657299
1044.732175,-8068.244768,-1776.494261,-2451.505594
1044.732495,-7402.059420,-296.082377,-1762.019645
1044.732816,-10140.821405,-148.041188,-306.438199
1044.733137,-10955.047942,1924.535449,2757.943793
1044.733458,-12657.521608,518.144159,3217.601092
1044.733779,-9178.553681,444.123565,1455.581446
1044.734099,-9474.636058,-592.164754,842.705048
1044.734420,-9548.656652,-2368.659014,1838.629195
1044.734741,-8882.471304,-2146.597232,2068.457845
1044.735062,-9030.512492,-2886.803174,-919.314598
1044.735382,-7550.100608,1184.329507,0.000000
1044.735703,-9400.615463,1776.494261,1302.362347
1044.736024,-9696.697840,518.144159,3370.820191
1044.736345,-9992.780217,-1332.370696,1838.629195
1044.736666,-9696.697840,-1406.391290,1532.190996
1044.736986,-9252.574275,-1924.535449,2221.676944
1044.737307,-10436.903782,-1332.370696,2911.162892
1044.737628,-11621.233289,-1628.453072,4519.963438
1044.737949,-9030.512492,-962.267725,1302.362347
1044.738270,-8586.388927,2516.700203,2987.772442
1044.738590,-9326.594869,222.061783,2068.457845
1044.738911,-8734.430116,2442.679609,2681.334243
1044.739232,-11843.295072,-592.164754,1302.362347
1044.739553,-7772.162391,1776.494261,919.314598
1044.739873,-9622.677246,962.267725,1915.238745
1044.740194,-10140.821405,296.082377,3600.648841
1044.740515,-9918.759623,-2294.638420,1762.019645
1044.740836,-8290.306550,-1184.329507,0.000000
1044.741157,-9474.636058,296.082377,1762.019645
1044.741477,-8956.491898,-370.102971,2145.067394
1044.741798,-10658.965565,-370.102971,2757.943793
1044.742119,-10066.800811,-2590.720797,459.657299
1044.742440,-9326.594869,74.020594,76.609550
1044.742761,-11399.171507,-296.082377,2145.067394
1044.743081,-9918.759623,-518.144159,1762.019645
1044.743402,-9696.697840,-592.164754,0.000000
1044.743723,-9326.594869,0.000000,-1991.848295
1044.744044,-7476.080014,444.123565,-1072.533697
1044.744364,-9474.636058,-2738.761985,-536.266849
1044.744685,-8068.244768,-1850.514855,-766.095498
1044.745006,-9474.636058,-666.185348,-2221.676944
1044.745327,-9326.594869,1480.411884,459.657299
1044.745648,-10658.965565,0.000000,1378.971896
1044.745968,-10658.965565,-222.061783,2834.553343
1044.746289,-10510.924376,-3404.947333,0.000000
1044.746610,-8438.347739,-1036.288319,-1608.800546
1044.746931,-9770.718434,-518.144159,536.266849
1044.747252,-9992.780217,-296.082377,995.924147
1044.747572,-9252.574275,1258.350101,995.924147
1044.747893,-9252.574275,222.061783,-612.876398
1044.748214,-8882.471304,2368.659014,459.657299
1044.748535,-10066.800811,-814.226536,1072.533697
1044.748856,-10066.800811,0.000000,3064.381992
1044.749176,-10140.821405,-1184.329507,1532.190996
1044.749497,-9400.615463,0.000000,919.314598
1044.749818,-9992.780217,-370.102971,2374.896044
1044.750139,-10510.924376,-592.164754,1685.410096
1044.750459,-10066.800811,-370.102971,2068.457845
1044.750780,-8660.409521,0.000000,153.219100
1044.751101,-9178.553681,296.082377,919.314598
1044.751422,-9622.677246,-148.041188,1838.629195
1044.751743,-10732.986159,-1184.329507,3677.258390
1044.752063,-9252.574275,-3108.864956,1378.971896
1044.752384,-9252.574275,-1332.370696,1378.971896
1044.752705,-9104.533087,-740.205942,1838.629195
1044.753026,-9770.718434,-1480.411884,1072.533697
1044.753347,-9326.594869,-518.144159,2374.896044
1044.753667,-9696.697840,-1998.556043,0.000000
1044.753988,-8216.285956,-518.144159,459.657299
1044.754309,-11399.171507,-1036.288319,2068.457845
1044.754630,-10436.903782,74.020594,3447.429741
1044.754951,-10807.006753,-1702.473667,1915.238745
1044.755272,-9696.697840,-296.082377,919.314598
1044.755592,-9622.677246,0.000000,1378.971896
1044.755913,-9844.739029,-148.041188,1991.848295
1044.756234,-9992.780217,-962.267725,1915.238745
1044.756555,-9474.636058,-1554.432478,2681.334243
1044.756876,-9326.594869,-222.061783,1991.848295
1044.757196,-10510.924376,-2220.617826,1608.800546
1044.757517,-8438.347739,148.041188,536.266849
1044.757838,-9548.656652,-888.247130,-2068.457845
1044.758159,-6809.894666,3627.009116,-1455.581446
1044.758480,-9326.594869,2294.638420,76.609550
1044.758800,-9178.553681,1776.494261,1378.971896
1044.759121,-10658.965565,-592.164754,612.876398
1044.759442,-7920.203579,-1628.453072,-383.047749
1044.759763,-9548.656652,962.267725,1378.971896
1044.760084,-11029.068536,0.000000,2374.896044
1044.760404,-10288.862594,1332.370696,2604.724693
1044.760725,-9844.739029,-1406.391290,-383.047749
1044.761046,-7698.141797,296.082377,-1532.190996
1044.761367,-7772.162391,-444.123565,-1532.190996
1044.761688,-10807.006753,370.102971,459.657299
1044.762009,-8290.306550,1776.494261,76.609550
1044.762329,-8956.491898,0.000000,766.095498
1044.762650,-8364.327145,1332.370696,1608.800546
1044.762971,-11621.233289,-888.247130,3907.087040
1044.763292,-11843.295072,-2368.659014,3907.087040
1044.763613,-11029.068536,-1554.432478,2374.896044
1044.763933,-9400.615463,148.041188,1685.410096
1044.764254,-10288.862594,518.144159,2145.067394
1044.764575,-9104.533087,1332.370696,2451.505594
1044.764896,-8364.327145,74.020594,0.000000
1044.765217,-7105.977043,370.102971,-842.705048
1044.765537,-7402.059420,-1184.329507,-306.438199
1044.765858,-9622.677246,-1850.514855,1378.971896
1044.766179,-10732.986159,-2590.720797,1991.848295
1044.766500,-9474.636058,-444.123565,2528.115143
1044.766821,-10066.800811,1924.535449,3677.258390
1044.767142,-10510.924376,814.226536,3370.820191
1044.767462,-10436.903782,1406.391290,3983.696590
1044.767783,-10140.821405,-1850.514855,383.047749
1044.768104,-8660.409521,0.000000,153.219100
1044.768425,-9178.553681,-666.185348,842.705048
1044.768746,-8734.430116,1036.288319,1532.190996
1044.769066,-9992.780217,0.000000,919.314598
1044.769387,-8660.409521,518.144159,229.828649
1044.769708,-8586.388927,444.123565,1455.581446
1044.770029,-11103.089130,-1554.432478,1991.848295
1044.770350,-10584.944971,-1332.370696,2374.896044
1044.770670,-10955.047942,-3108.864956,-229.828649
1044.770991,-9030.512492,-1628.453072,536.266849
1044.771312,-9030.512492,-296.082377,1072.533697
1044.771633,-10584.944971,-370.102971,2068.457845
1044.771954,-9252.574275,-814.226536,612.876398
1044.772274,-9030.512492,-592.164754,-1915.238745
1044.772595,-9474.636058,0.000000,383.047749
1044.772916,-10214.842000,-148.041188,1762.019645
1044.773237,-11325.150913,-814.226536,2681.334243
1044.773558,-10288.862594,-1776.494261,383.047749
1044.773879,-9178.553681,-1184.329507,-459.657299
1044.774199,-10436.903782,-814.226536,1455.581446
1044.774520,-11843.295072,0.000000,4366.744339
1044.774841,-12213.398043,-3478.967927,1455.581446
1044.775162,-7846.182985,-1036.288319,-1225.752797
1044.775483,-7624.121203,-4145.153275,-2911.162892
1044.775803,-6883.915261,962.267725,-1302.362347
1044.776124,-10140.821405,2516.700203,306.438199
1044.776445,-10066.800811,2368.659014,459.657299
1044.776766,-6439.791695,3701.029710,-995.924147
1044.777087,-13397.727550,-2664.741391,1455.581446
1044.777407,-10732.986159,-962.267725,3677.258390
1044.777728,-11843.295072,-3627.009116,1378.971896
1044.778049,-12657.521608,518.144159,3677.258390
1044.778370,-6143.709319,1406.391290,1455.581446
1044.778691,-9770.718434,-444.123565,1762.019645
1044.779011,-10732.986159,-296.082377,2987.772442
1044.779332,-5551.544565,-1554.432478,-3217.601092
1044.779653,-9474.636058,2590.720797,2681.334243
1044.779974,-8512.368333,-2738.761985,842.705048
1044.780295,-7772.162391,-888.247130,1149.143247
1044.780616,-12435.459826,-2960.823768,2834.553343
1044.780936,-7179.997637,-1332.370696,229.828649
1044.781257,-10288.862594,-444.123565,2604.724693
1044.781578,-12509.480420,-1110.308913,4290.134789
1044.781899,-8734.430116,-666.185348,1685.410096
1044.782220,-11029.068536,-370.102971,459.657299
1044.782540,-8438.347739,0.000000,459.657299
1044.782861,-8364.327145,-296.082377,153.219100
1044.783182,-9918.759623,-592.164754,2068.457845
1044.783503,-9474.636058,-2738.761985,-919.314598
1044.783824,-8216.285956,666.185348,383.047749
1044.784144,-9252.574275,-1998.556043,-306.438199
1044.784465,-8734.430116,-666.185348,536.266849
1044.784786,-9622.677246,-444.123565,-306.438199
1044.785107,-8364.327145,-592.164754,-1838.629195
1044.785428,-10807.006753,1184.329507,2068.457845
1044.785748,-9548.656652,296.082377,2145.067394
1044.786069,-13545.768739,-2368.659014,4290.134789
1044.786390,-10955.047942,-1332.370696,1608.800546
1044.786711,-9770.718434,-444.123565,919.314598
1044.787032,-10732.986159,444.123565,1838.629195
1044.787353,-7846.182985,2812.782580,1838.629195
1044.787673,-10658.965565,962.267725,1072.533697
1044.787994,-9548.656652,1258.350101,306.438199
1044.788315,-7920.203579,1036.288319,383.047749
1044.788636,-9770.718434,-814.226536,1685.410096
1044.788957,-10362.883188,222.061783,2145.067394
1044.789277,-8882.471304,-814.226536,76.609550
1044.789598,-7920.203579,1998.556043,0.000000
1044.789919,-10066.800811,1776.494261,2681.334243
1044.790240,-10362.883188,-518.144159,1685.410096
1044.790561,-7920.203579,1184.329507,766.095498
1044.790881,-11695.253884,-2368.659014,-306.438199
1044.791202,-7994.224174,1850.514855,1455.581446
1044.791523,-12583.501014,-2368.659014,2911.162892
1044.791844,-9474.636058,-1850.514855,4060.306139
1044.792165,-9326.594869,-3034.844362,-536.266849
1044.792485,-9770.718434,-370.102971,1378.971896
1044.792806,-9178.553681,-666.185348,1225.752797
1044.793127,-9474.636058,592.164754,2451.505594
1044.793448,-10214.842000,-1184.329507,1685.410096
1044.793769,-6513.812290,-1110.308913,-229.828649
1044.794090,-8882.471304,-592.164754,-306.438199
1044.794410,-10362.883188,-888.247130,1762.019645
1044.794731,-10807.006753,-370.102971,2987.772442
1044.795052,-10881.027347,-666.185348,2604.724693
1044.795373,-10436.903782,0.000000,2451.505594
1044.795694,-10807.006753,1332.370696,919.314598
1044.796014,-9918.759623,1332.370696,2604.724693
1044.796335,-10066.800811,-1110.308913,-459.657299
1044.796656,-7328.038826,1850.514855,-306.438199
1044.796977,-8808.450710,962.267725,-459.657299
1044.797298,-8808.450710,814.226536,689.485948
1044.797618,-9696.697840,-1184.329507,306.438199
1044.797939,-10066.800811,-2590.720797,-306.438199
1044.798260,-9622.677246,-740.205942,1532.190996
1044.798581,-11029.068536,-2146.597232,1915.238745
1044.798902,-10658.965565,0.000000,2987.772442
1044.799222,-9918.759623,-1702.473667,306.438199
1044.799543,-8438.347739,-148.041188,-1532.190996
1044.799864,-9992.780217,-370.102971,995.924147
1044.800185,-9474.636058,-888.247130,1378.971896
1044.800506,-9844.739029,-2368.659014,0.000000
1044.800827,-9326.594869,-2146.597232,-1378.971896
1044.801147,-8364.327145,222.061783,-153.219100
1044.801468,-11103.089130,-222.061783,1685.410096
1044.801789,-11547.212695,-592.164754,4060.306139
1044.802110,-9696.697840,-3330.926739,536.266849
1044.802431,-8512.368333,-1776.494261,-1149.143247
1044.802751,-10066.800811,-1850.514855,536.266849
1044.803072,-8882.471304,518.144159,1685.410096
1044.803393,-10658.965565,814.226536,2145.067394
1044.803714,-8586.388927,740.205942,-459.657299
1044.804035,-7994.224174,0.000000,0.000000
1044.804355,-10436.903782,-1480.411884,1455.581446
1044.804676,-10584.944971,-592.164754,3370.820191
1044.804997,-11177.109724,-2220.617826,766.095498
1044.805318,-8956.491898,740.205942,1225.752797
1044.805639,-8142.265362,296.082377,459.657299
1044.805959,-8956.491898,962.267725,2068.457845
1044.806280,-10510.924376,-1628.453072,2221.676944
1044.806601,-9030.512492,-1036.288319,383.047749
1044.806922,-9696.697840,74.020594,1302.362347
1044.807243,-11843.295072,370.102971,3064.381992
1044.807564,-11473.192101,1110.308913,5209.449386
1044.807884,-10732.986159,-370.102971,2528.115143
1044.808205,-8808.450710,1406.391290,689.485948
1044.808526,-9030.512492,-444.123565,995.924147
1044.808847,-9622.677246,-296.082377,1149.143247
1044.809168,-9992.780217,-2220.617826,0.000000
1044.809488,-7994.224174,1036.288319,-1762.019645
1044.809809,-8660.409521,1258.350101,459.657299
1044.810130,-9548.656652,-296.082377,842.705048
1044.810451,-10510.924376,666.185348,2451.505594
1044.810772,-12287.418637,-444.123565,2374.896044
1044.811092,-10510.924376,0.000000,1915.238745
1044.811413,-10362.883188,-1628.453072,1685.410096
1044.811734,-10436.903782,-1110.308913,1991.848295
1044.812055,-10140.821405,-1776.494261,-383.047749
1044.812376,-8290.306550,666.185348,0.000000
1044.812696,-7846.182985,740.205942,0.000000
1044.813017,-8734.430116,-518.144159,536.266849
1044.813338,-9696.697840,-740.205942,459.657299
1044.813659,-10881.027347,-2368.659014,-1072.533697
1044.813980,-7402.059420,0.000000,842.705048
1044.814301,-9622.677246,-740.205942,153.219100
1044.814621,-10140.821405,1332.370696,2911.162892
1044.814942,-10732.986159,-1258.350101,153.219100
1044.815263,-9030.512492,74.020594,536.266849
1044.815584,-9252.574275,1406.391290,0.000000
1044.815905,-8956.491898,2294.638420,1225.752797
1044.816225,-11399.171507,0.000000,1149.143247
1044.816546,-8660.409521,1258.350101,-1532.190996
1044.816867,-7698.141797,370.102971,153.219100
1044.817188,-9400.615463,-1776.494261,0.000000
1044.817509,-8586.388927,1554.432478,1838.629195
1044.817829,-12361.439231,-2590.720797,536.266849
1044.818150,-7550.100608,2368.659014,612.876398
1044.818471,-10807.006753,-222.061783,1762.019645
1044.818792,-8882.471304,0.000000,536.266849
1044.819113,-8956.491898,-1036.288319,-689.485948
1044.819433,-8216.285956,-370.102971,-842.705048
1044.819754,-9474.636058,1036.288319,1762.019645
1044.820075,-9918.759623,148.041188,3140.991542
1044.820396,-11177.109724,-2146.597232,4596.572988
1044.820717,-9548.656652,-2886.803174,2221.676944
1044.821038,-10955.047942,-740.205942,3447.429741
1044.821358,-10807.006753,-1628.453072,3064.381992
1044.821679,-10140.821405,962.267725,4060.306139
1044.822000,-9622.677246,-1480.411884,842.705048
1044.822321,-6957.935855,-444.123565,-1149.143247
1044.822642,-8808.450710,-888.247130,153.219100
1044.822962,-9178.553681,-1702.473667,1149.143247
1044.823283,-10066.800811,-1480.411884,2757.943793
1044.823604,-9548.656652,-1628.453072,2757.943793
1044.823925,-9918.759623,814.226536,3600.648841
1044.824246,-12509.480420,-814.226536,5132.839837
1044.824566,-10584.944971,-222.061783,6588.421283
1044.824887,-11843.295072,-2220.617826,3064.381992
1044.825208,-8956.491898,-370.102971,153.219100
1044.825529,-7550.100608,1110.308913,-1532.190996
1044.825850,-7920.203579,1628.453072,-842.705048
1044.826170,-7031.956449,592.164754,-919.314598
1044.826491,-8068.244768,-1258.350101,-2451.505594
1044.826812,-7105.977043,-888.247130,-1378.971896
1044.827133,-9474.636058,-2442.679609,-383.047749
1044.827454,-11103.089130,-1554.432478,2374.896044
1044.827775,-12361.439231,-1924.535449,2298.286494
1044.828095,-10436.903782,666.185348,1991.848295
1044.828416,-9474.636058,222.061783,1455.581446
1044.828737,-9992.780217,444.123565,2451.505594
1044.829058,-10510.924376,-888.247130,1915.238745
1044.829379,-9400.615463,-2738.761985,-1149.143247
1044.829699,-8512.368333,444.123565,-536.266849
1044.830020,-9400.615463,-518.144159,-1225.752797
1044.830341,-9548.656652,148.041188,919.314598
1044.830662,-10066.800811,-1332.370696,229.828649
1044.830983,-8068.244768,888.247130,-1378.971896
1044.831303,-10066.800811,444.123565,-612.876398
1044.831624,-9918.759623,888.247130,919.314598
1044.831945,-10584.944971,-1332.370696,919.314598
1044.832266,-9770.718434,-814.226536,459.657299
1044.832587,-9178.553681,-370.102971,995.924147
1044.832907,-9992.780217,-1036.288319,383.047749
1044.833228,-9474.636058,-222.061783,1149.143247
1044.833549,-9474.636058,-592.164754,0.000000
1044.833870,-9030.512492,1554.432478,1225.752797
1044.834191,-9474.636058,74.020594,689.485948
1044.834512,-9696.697840,740.205942,2451.505594
1044.834832,-9400.615463,-1036.288319,612.876398
1044.835153,-9548.656652,-1332.370696,1072.533697
1044.835474,-8956.491898,-1036.288319,2145.067394
1044.835795,-9252.574275,-1184.329507,1455.581446
1044.836116,-10140.821405,518.144159,4366.744339
1044.836436,-9918.759623,-444.123565,1072.533697
1044.836757,-8734.430116,2146.597232,2604.724693
1044.837078,-11103.089130,-1184.329507,2528.115143
1044.837399,-9178.553681,444.123565,3524.039291
1044.837720,-10288.862594,-1554.432478,2834.553343
1044.838040,-8808.450710,-2146.597232,383.047749
1044.838361,-7920.203579,222.061783,1685.410096
1044.838682,-10658.965565,-296.082377,2757.943793
1044.839003,-8956.491898,0.000000,1991.848295
1044.839324,-9844.739029,-1702.473667,1225.752797
1044.839644,-9030.512492,-1332.370696,1532.190996
1044.839965,-9030.512492,-1776.494261,612.876398
1044.840286,-11325.150913,0.000000,3217.601092
1044.840607,-9918.759623,-1258.350101,2145.067394
1044.840928,-9474.636058,222.061783,842.705048
1044.841249,-10288.862594,-740.205942,2068.457845
1044.841569,-10955.047942,-1406.391290,1072.533697
1044.841890,-11029.068536,-148.041188,3600.648841
1044.842211,-11251.130318,-1258.350101,1302.362347
1044.842532,-10066.800811,-296.082377,842.705048
1044.842853,-7994.224174,-3404.947333,0.000000
1044.843173,-9178.553681,-148.041188,-2528.115143
1044.843494,-10214.842000,-814.226536,-2145.067394
1044.843815,-7698.141797,1110.308913,-2604.724693
1044.844136,-9770.718434,2664.741391,1302.362347
1044.844457,-9474.636058,-296.082377,-2528.115143
1044.844777,-9918.759623,148.041188,1149.143247
1044.845098,-11917.315666,-1110.308913,1072.533697
1044.845419,-9918.759623,296.082377,919.314598
1044.845740,-10436.903782,-740.205942,1225.752797
1044.846061,-9622.677246,592.164754,1838.629195
1044.846381,-8660.409521,-444.123565,-995.924147
1044.846702,-9474.636058,1480.411884,612.876398
1044.847023,-8068.244768,1110.308913,919.314598
1044.847344,-8660.409521,888.247130,995.924147
1044.847665,-10436.903782,0.000000,1302.362347
1044.847986,-8882.471304,-666.185348,-536.266849
1044.848306,-8882.471304,1850.514855,1685.410096
1044.848627,-10955.047942,-2220.617826,4673.182538
1044.848948,-8734.430116,0.000000,2604.724693
1044.849269,-10881.027347,-1332.370696,2298.286494
1044.849590,-9696.697840,-1924.535449,842.705048
1044.849910,-7920.203579,2812.782580,2451.505594
1044.850231,-11103.089130,-888.247130,3140.991542
1044.850552,-7550.100608,370.102971,536.266849
1044.850873,-8142.265362,296.082377,0.000000
1044.851194,-7846.182985,-1776.494261,-536.266849
1044.851514,-6809.894666,-740.205942,-1072.533697
1044.851835,-9992.780217,0.000000,1532.190996
1044.852156,-10436.903782,-1332.370696,2068.457845
1044.852477,-9400.615463,1702.473667,4290.134789
1044.852798,-12805.562797,-1702.473667,5132.839837
1044.853118,-10436.903782,-1110.308913,4826.401637
1044.853439,-10807.006753,-1850.514855,3447.429741
1044.853760,-10066.800811,-814.226536,1762.019645
1044.854081,-9548.656652,1628.453072,1378.971896
1044.854402,-8734.430116,1480.411884,-76.609550
1044.854722,-7920.203579,1776.494261,76.609550
1044.855043,-8882.471304,518.144159,-1762.019645
1044.855364,-8808.450710,1036.288319,-689.485948
1044.855685,-10732.986159,-740.205942,2068.457845
1044.856005,-10140.821405,-1332.370696,2757.943793
1044.856326,-11177.109724,-2368.659014,2604.724693
1044.856647,-11547.212695,-666.185348,2374.896044
1044.856968,-9844.739029,592.164754,2604.724693
1044.857288,-9844.739029,-814.226536,459.657299
1044.857609,-7846.182985,-444.123565,153.219100
1044.857930,-7772.162391,-666.185348,-3600.648841
1044.858250,-8216.285956,666.185348,-1378.971896
1044.858571,-10510.924376,2146.597232,-229.828649
1044.858892,-9918.759623,1110.308913,2068.457845
1044.859213,-9696.697840,-1480.411884,-383.047749
1044.859533,-9918.759623,-1184.329507,536.266849
1044.859854,-8660.409521,-1628.453072,-459.657299
1044.860175,-10881.027347,-1406.391290,766.095498
1044.860496,-10066.800811,0.000000,1532.190996
1044.860816,-9622.677246,148.041188,0.000000
1044.861137,-10066.800811,1702.473667,2374.896044
1044.861458,-11473.192101,-592.164754,3140.991542
1044.861779,-9400.615463,-1628.453072,2374.896044
1044.862099,-10955.047942,-2516.700203,153.219100
1044.862420,-7994.224174,-222.061783,-306.438199
1044.862741,-8586.388927,148.041188,612.876398
1044.863062,-9178.553681,1702.473667,1149.143247
1044.863382,-7698.141797,0.000000,-842.705048
1044.863703,-7624.121203,-1184.329507,-1302.362347
1044.864024,-9622.677246,-1184.329507,1762.019645
1044.864345,-11103.089130,-2368.659014,1915.238745
1044.864665,-10658.965565,-592.164754,4213.525239
1044.864986,-10584.944971,-2516.700203,919.314598
1044.865307,-7254.018232,1702.473667,2145.067394
1044.865627,-10658.965565,-296.082377,1532.190996
1044.865948,-9696.697840,1036.288319,2528.115143
1044.866269,-9252.574275,-740.205942,612.876398
1044.866590,-9104.533087,-1998.556043,-612.876398
1044.866910,-8142.265362,888.247130,612.876398
1044.867231,-10214.842000,-740.205942,1762.019645
1044.867552,-9992.780217,-666.185348,3294.210641
1044.867873,-10436.903782,-1776.494261,2221.676944
1044.868193,-9030.512492,-1184.329507,1072.533697
1044.868514,-10362.883188,-1998.556043,1455.581446
1044.868835,-11177.109724,-296.082377,2911.162892
1044.869156,-10214.842000,-1702.473667,1532.190996
1044.869476,-8734.430116,-444.123565,-766.095498
1044.869797,-9030.512492,1184.329507,-766.095498
1044.870118,-9918.759623,148.041188,76.609550
1044.870439,-10658.965565,148.041188,2068.457845
1044.870759,-11177.109724,-2146.597232,689.485948
1044.871080,-9326.594869,-1480.411884,842.705048
1044.871401,-10436.903782,-2072.576638,842.705048
1044.871722,-10214.842000,-444.123565,1991.848295
1044.872042,-10214.842000,-1036.288319,689.485948
1044.872363,-7772.162391,2590.720797,2451.505594
1044.872684,-12361.439231,-1554.432478,-995.924147
1044.873004,-4737.318029,1850.514855,919.314598
1044.873325,-12583.501014,-3330.926739,-383.047749
1044.873646,-9696.697840,1776.494261,1915.238745
1044.873967,-9400.615463,1554.432478,-1225.752797
1044.874287,-11325.150913,1184.329507,3217.601092
1044.874608,-8882.471304,814.226536,1532.190996
1044.874929,-10362.883188,-2886.803174,-153.219100
1044.875250,-9992.780217,1110.308913,3217.601092
1044.875570,-8364.327145,0.000000,153.219100
1044.875891,-10362.883188,2368.659014,1685.410096
1044.876212,-8586.388927,1110.308913,1608.800546
1044.876533,-6957.935855,666.185348,-2374.896044
1044.876853,-9474.636058,1258.350101,536.266849
1044.877174,-9918.759623,-1184.329507,1302.362347
1044.877495,-8216.285956,666.185348,2451.505594
1044.877816,-11843.295072,-2368.659014,919.314598
1044.878136,-8290.306550,2294.638420,2604.724693
1044.878457,-10140.821405,2072.576638,2757.943793
1044.878778,-11103.089130,148.041188,3907.087040
1044.879099,-9178.553681,0.000000,1838.629195
1044.879419,-8734.430116,-1480.411884,-306.438199
1044.879740,-8438.347739,-1480.411884,-612.876398
1044.880061,-9474.636058,444.123565,919.314598
1044.880381,-9548.656652,370.102971,1915.238745
1044.880702,-9104.533087,-592.164754,0.000000
1044.881023,-8142.265362,666.185348,612.876398
1044.881344,-10658.965565,-1480.411884,383.047749
1044.881664,-11029.068536,-444.123565,3370.820191
1044.881985,-10362.883188,-370.102971,2528.115143
1044.882306,-10881.027347,-2072.576638,842.705048
1044.882627,-9844.739029,0.000000,383.047749
1044.882947,-9326.594869,-296.082377,995.924147
1044.883268,-9548.656652,-2590.720797,459.657299
1044.883589,-7994.224174,148.041188,-995.924147
1044.883910,-9770.718434,0.000000,689.485948
1044.884230,-9252.574275,-1776.494261,-995.924147
1044.884551,-9400.615463,1258.350101,1149.143247
1044.884872,-11399.171507,-2072.576638,2068.457845
1044.885193,-7624.121203,-518.144159,842.705048
1044.885513,-10955.047942,-1258.350101,536.266849
1044.885834,-8586.388927,-1702.473667,-1225.752797
1044.886155,-7105.977043,-888.247130,-2068.457845
1044.886476,-8216.285956,-1332.370696,-229.828649
1044.886796,-8956.491898,2442.679609,1225.752797
1044.887117,-10732.986159,1406.391290,2681.334243
1044.887438,-11991.336260,-1184.329507,3217.601092
1044.887759,-10066.800811,-1554.432478,1072.533697
1044.888079,-11991.336260,-2220.617826,2528.115143
1044.888400,-9696.697840,-2220.617826,2145.067394
1044.888721,-9400.615463,-444.123565,2451.505594
1044.889041,-8068.244768,-2960.823768,-766.095498
1044.889362,-7179.997637,-814.226536,-3064.381992
1044.889683,-8438.347739,666.185348,-306.438199
1044.890004,-9770.718434,-1110.308913,383.047749
1044.890324,-10140.821405,740.205942,3294.210641
1044.890645,-10288.862594,-1702.473667,536.266849
1044.890966,-9252.574275,-888.247130,1762.019645
1044.891287,-11399.171507,0.000000,3524.039291
1044.891607,-10955.047942,-1184.329507,3907.087040
1044.891928,-9696.697840,-1554.432478,2604.724693
1044.892249,-8216.285956,-962.267725,76.609550
1044.892570,-7920.203579,-222.061783,0.000000
1044.892890,-9770.718434,1036.288319,689.485948
1044.893211,-10510.924376,2146.597232,3524.039291
1044.893532,-9030.512492,-222.061783,1302.362347
1044.893853,-7846.182985,666.185348,-459.657299
1044.894173,-11547.212695,-1998.556043,2451.505594
1044.894494,-9918.759623,-1184.329507,2374.896044
1044.894815,-10732.986159,-1702.473667,4903.011187
1044.895136,-9474.636058,-1184.329507,536.266849
1044.895456,-8512.368333,1998.556043,1225.752797
1044.895777,-10510.924376,1184.329507,229.828649
1044.896098,-8956.491898,2368.659014,1915.238745
1044.896418,-10510.924376,74.020594,612.876398
1044.896739,-8142.265362,74.020594,766.095498
1044.897060,-9992.780217,-2442.679609,1225.752797
1044.897381,-10510.924376,-1406.391290,1455.581446
1044.897701,-10732.986159,-1332.370696,1685.410096
1044.898022,-9696.697840,-222.061783,612.876398
1044.898343,-7994.224174,2072.576638,383.047749
1044.898664,-9770.718434,-148.041188,-229.828649
1044.898984,-9104.533087,-148.041188,0.000000
1044.899305,-9326.594869,-1184.329507,-842.705048
1044.899626,-8956.491898,-592.164754,229.828649
1044.899947,-10584.944971,-1628.453072,766.095498
1044.900267,-9474.636058,1036.288319,2757.943793
1044.900588,-10955.047942,-1184.329507,1608.800546
1044.900909,-8512.368333,2590.720797,1915.238745
1044.901230,-9548.656652,2368.659014,2298.286494
1044.901550,-10362.883188,666.185348,2068.457845
1044.901871,-9474.636058,740.205942,2068.457845
1044.902192,-9622.677246,-1850.514855,-919.314598
1044.902513,-8068.244768,666.185348,306.438199
1044.902833,-10288.862594,518.144159,2681.334243
1044.903154,-10881.027347,1110.308913,4673.182538
1044.903475,-9918.759623,370.102971,2528.115143
1044.903795,-9326.594869,-148.041188,-229.828649
1044.904116,-9326.594869,1332.370696,1072.533697
1044.904437,-9992.780217,1776.494261,2145.067394
1044.904758,-9474.636058,1998.556043,2374.896044
1044.905078,-9844.739029,1184.329507,1685.410096
1044.905399,-9178.553681,888.247130,1608.800546
1044.905720,-9326.594869,148.041188,2911.162892
1044.906041,-11325.150913,-740.205942,2834.553343
1044.906361,-10584.944971,1332.370696,3140.991542
1044.906682,-11103.089130,1628.453072,2451.505594
1044.907003,-8512.368333,5033.400406,3447.429741
1044.907324,-11695.253884,4219.173869,3294.210641
1044.907644,-10955.047942,3108.864956,5745.716235
1044.907965,-10214.842000,-1036.288319,3370.820191
1044.908286,-8364.327145,-1110.308913,1225.752797
1044.908607,-8808.450710,-518.144159,2911.162892
1044.908927,-9770.718434,74.020594,4903.011187
1044.909248,-10066.800811,2220.617826,6205.373534
1044.909569,-10510.924376,148.041188,3983.696590
1044.909890,-8142.265362,2738.761985,2757.943793
1044.910210,-10214.842000,2220.617826,3677.258390
1044.910531,-11251.130318,2516.700203,5132.839837
1044.910852,-10066.800811,2146.597232,4903.011187
1044.911173,-8068.244768,370.102971,1685.410096
1044.911493,-6957.935855,1184.329507,0.000000
1044.911814,-8956.491898,592.164754,1455.581446
1044.912135,-9992.780217,740.205942,3524.039291
1044.912455,-9474.636058,1110.308913,4366.744339
1044.912776,-9844.739029,-444.123565,1685.410096
1044.913097,-7920.203579,2738.761985,2451.505594
1044.913418,-11399.171507,518.144159,4826.401637
1044.913738,-11029.068536,1924.535449,6052.154434
1044.914059,-10066.800811,1332.370696,4903.011187
1044.914380,-7476.080014,-740.205942,1072.533697
1044.914701,-7624.121203,3182.885551,1225.752797
1044.915021,-10362.883188,2516.700203,3524.039291
1044.915342,-9030.512492,3404.947333,4596.572988
1044.915663,-9252.574275,3775.050304,2987.772442
1044.915984,-8586.388927,592.164754,612.876398
1044.916304,-8068.244768,1702.473667,536.266849
1044.916625,-10955.047942,1110.308913,3447.429741
1044.916946,-10807.006753,1258.350101,5362.668486
1044.917267,-11103.089130,740.205942,4749.792088
1044.917587,-9474.636058,-518.144159,1149.143247
1044.917908,-9474.636058,2072.576638,536.266849
1044.918229,-10732.986159,3478.967927,3600.648841
1044.918550,-10066.800811,3256.906145,5286.058936
1044.918870,-10955.047942,2886.803174,4673.182538
1044.919191,-9104.533087,1406.391290,1915.238745
1044.919512,-9326.594869,1036.288319,536.266849
1044.919832,-10807.006753,2664.741391,2911.162892
1044.920153,-9474.636058,1554.432478,1991.848295
1044.920474,-8586.388927,4737.318029,2757.943793
1044.920795,-9104.533087,4885.359217,3600.648841
1044.921115,-9770.718434,1776.494261,3447.429741
1044.921436,-11103.089130,1480.411884,5056.230287
1044.921757,-11251.130318,-148.041188,4443.353888
1044.922078,-9844.739029,296.082377,3677.258390
1044.922398,-9548.656652,1998.556043,4596.572988
1044.922719,-9770.718434,148.041188,4213.525239
1044.923040,-9622.677246,888.247130,2757.943793
1044.923361,-9178.553681,1554.432478,2757.943793
1044.923681,-9622.677246,1110.308913,2374.896044
1044.924002,-8142.265362,3034.844362,2374.896044
1044.924323,-9474.636058,2516.700203,4519.963438
1044.924644,-9696.697840,1406.391290,6358.592633
1044.924964,-9474.636058,0.000000,4443.353888
1044.925285,-9474.636058,-740.205942,3370.820191
1044.925606,-9104.533087,1554.432478,3600.648841
1044.925927,-9326.594869,1406.391290,3370.820191
1044.926247,-9992.780217,2220.617826,4519.963438
1044.926568,-8660.409521,3552.988522,4596.572988
1044.926889,-9548.656652,2294.638420,3140.991542
1044.927209,-9548.656652,1184.329507,2834.553343
1044.927530,-9474.636058,1332.370696,3370.820191
1044.927851,-9992.780217,296.082377,2068.457845
1044.928172,-9178.553681,2442.679609,2374.896044
1044.928492,-9030.512492,4071.132681,3524.039291
1044.928813,-9770.718434,2886.803174,3753.867940
1044.929134,-10955.047942,2590.720797,4749.792088
1044.929455,-10732.986159,1406.391290,4443.353888
1044.929775,-10066.800811,1480.411884,1991.848295
1044.930096,-10584.944971,1332.370696,2528.115143
1044.930417,-8882.471304,1110.308913,2604.724693
1044.930738,-8882.471304,0.000000,1532.190996
1044.931058,-9400.615463,888.247130,3524.039291
1044.931379,-9548.656652,1110.308913,1378.971896
1044.931700,-10584.944971,1628.453072,2374.896044
1044.932021,-10658.965565,2590.720797,2911.162892
1044.932341,-11103.089130,2368.659014,3064.381992
1044.932662,-10436.903782,2368.659014,3064.381992
1044.932983,-8956.491898,1628.453072,2068.457845
1044.933304,-9474.636058,1702.473667,2604.724693
1044.933624,-9696.697840,888.247130,4136.915689
1044.933945,-10066.800811,296.082377,4213.525239
1044.934266,-9474.636058,296.082377,3217.601092
1044.934586,-8068.244768,1110.308913,1915.238745
1044.934907,-9104.533087,2220.617826,2987.772442
1044.935228,-9326.594869,3182.885551,3140.991542
1044.935549,-8660.409521,2294.638420,2834.553343
1044.935869,-9326.594869,1628.453072,2528.115143
1044.936190,-9326.594869,1406.391290,3217.601092
1044.936511,-10658.965565,444.123565,4903.011187
1044.936832,-11251.130318,370.102971,5439.278036
1044.937152,-10732.986159,1406.391290,5439.278036
1044.937473,-9844.739029,3478.967927,4060.306139
1044.937794,-9548.656652,3552.988522,4060.306139
1044.938115,-9030.512492,2368.659014,3294.210641
1044.938435,-8068.244768,1036.288319,2451.505594
1044.938756,-8290.306550,888.247130,2374.896044
1044.939077,-8438.347739,1628.453072,2681.334243
1044.939398,-9474.636058,2516.700203,4903.011187
1044.939718,-9844.739029,2294.638420,4519.963438
1044.940039,-10066.800811,2590.720797,3524.039291
1044.940360,-9918.759623,3330.926739,3447.429741
1044.940681,-9696.697840,2886.803174,3753.867940
1044.941001,-10510.924376,1850.514855,3524.039291
1044.941322,-10436.903782,1110.308913,3217.601092
1044.941643,-9622.677246,444.123565,2374.896044
1044.941964,-9326.594869,1998.556043,2374.896044
1044.942284,-10066.800811,3552.988522,3524.039291
1044.942605,-10807.006753,2960.823768,4979.620737
1044.942926,-10066.800811,2146.597232,4903.011187
1044.943246,-10140.821405,1776.494261,4213.525239
1044.943567,-10066.800811,2960.823768,4979.620737
1044.943888,-10362.883188,1628.453072,4596.572988
1044.944209,-9992.780217,1332.370696,4826.401637
1044.944529,-8956.491898,518.144159,2757.943793
1044.944850,-8660.409521,1036.288319,1149.143247
1044.945171,-9030.512492,2294.638420,1072.533697
1044.945492,-9400.615463,2664.741391,1991.848295
1044.945812,-10436.903782,2812.782580,3524.039291
1044.946133,-10362.883188,2146.597232,3600.648841
1044.946454,-10214.842000,666.185348,2374.896044
1044.946775,-10066.800811,740.205942,2757.943793
1044.947095,-9918.759623,592.164754,2834.553343
1044.947416,-9326.594869,814.226536,3064.381992
1044.947737,-8438.347739,444.123565,2681.334243
1044.948058,-8438.347739,1036.288319,1302.362347
1044.948378,-8660.409521,1036.288319,919.314598
1044.948699,-9178.553681,740.205942,2068.457845
1044.949020,-9770.718434,666.185348,2834.553343
1044.949341,-9252.574275,1480.411884,2528.115143
1044.949661,-9326.594869,1924.535449,3217.601092
1044.949982,-9622.677246,1998.556043,4290.134789
1044.950303,-10584.944971,1480.411884,5132.839837
1044.950623,-10955.047942,888.247130,4136.915689
1044.950944,-9992.780217,1110.308913,3907.087040
1044.951265,-9548.656652,1554.432478,2604.724693
1044.951586,-9400.615463,2072.576638,2834.553343
1044.951906,-9178.553681,1776.494261,2681.334243
1044.952227,-9104.533087,1110.308913,2451.505594
1044.952548,-9252.574275,518.144159,1838.629195
1044.952869,-9252.574275,222.061783,1991.848295
1044.953189,-10288.862594,0.000000,2451.505594
1044.953510,-10658.965565,1110.308913,4749.792088
1044.953831,-10436.903782,1258.350101,3983.696590
1044.954152,-10214.842000,2368.659014,4596.572988
1044.954472,-10140.821405,2072.576638,4519.963438
1044.954793,-9992.780217,2072.576638,4979.620737
1044.955114,-10214.842000,1480.411884,5439.278036
1044.955434,-10214.842000,1850.514855,5515.887586
1044.955755,-9918.759623,1998.556043,5132.839837
1044.956076,-9548.656652,2442.679609,4596.572988
1044.956397,-9104.533087,2886.803174,3677.258390
1044.956717,-8956.491898,2590.720797,2528.115143
1044.957038,-9030.512492,2146.597232,1991.848295
1044.957359,-8808.450710,1110.308913,995.924147
1044.957680,-9104.533087,444.123565,0.000000
1044.958000,-9844.739029,296.082377,1072.533697
1044.958321,-10066.800811,740.205942,1378.971896
1044.958642,-10436.903782,1332.370696,2221.676944
1044.958962,-10732.986159,1628.453072,3140.991542
1044.959283,-11621.233289,1628.453072,3064.381992
1044.959604,-10214.842000,962.267725,4060.306139
1044.959925,-10362.883188,1110.308913,4443.353888
1044.960245,-9252.574275,1776.494261,4443.353888
1044.960566,-8290.306550,1850.514855,3140.991542
1044.960887,-8142.265362,1776.494261,3524.039291
1044.961208,-7994.224174,1702.473667,2221.676944
1044.961528,-8586.388927,1776.494261,2528.115143
1044.961849,-9326.594869,2072.576638,2604.724693
1044.962170,-9474.636058,1924.535449,3064.381992
1044.962490,-10066.800811,2072.576638,3447.429741
1044.962811,-10362.883188,2220.617826,3677.258390
1044.963132,-10436.903782,2590.720797,3907.087040
1044.963453,-10881.027347,2220.617826,3064.381992
1044.963773,-9622.677246,2442.679609,3370.820191
1044.964094,-9548.656652,2442.679609,3217.601092
1044.964415,-9548.656652,2294.638420,3524.039291
1044.964736,-9326.594869,2368.659014,4136.915689
1044.965056,-9474.636058,2368.659014,4136.915689
1044.965377,-9474.636058,2146.597232,3983.696590
1044.965698,-9474.636058,1628.453072,3983.696590
1044.966018,-9622.677246,1554.432478,4213.525239
1044.966339,-9918.759623,1184.329507,3140.991542
1044.966660,-9844.739029,1998.556043,2987.772442
1044.966981,-9696.697840,1776.494261,2528.115143
1044.967301,-9770.718434,1776.494261,2145.067394
1044.967622,-10214.842000,2072.576638,2451.505594
1044.967943,-10066.800811,1998.556043,1991.848295
1044.968264,-9918.759623,1850.514855,2221.676944
1044.968584,-9696.697840,1628.453072,2451.505594
1044.968905,-9844.739029,1258.350101,2757.943793
1044.969226,-9696.697840,962.267725,2834.553343
1044.969546,-9844.739029,1332.370696,3294.210641
1044.969867,-9696.697840,888.247130,2987.772442
1044.970188,-9326.594869,740.205942,3064.381992
1044.970509,-8586.388927,370.102971,2528.115143
1044.970829,-9326.594869,-740.205942,1378.971896
1044.971150,-7920.203579,518.144159,459.657299
1044.971471,-9474.636058,222.061783,919.314598
1044.971792,-8956.491898,222.061783,0.000000
1044.972112,-9474.636058,222.061783,1378.971896
1044.972433,-10584.944971,370.102971,1302.362347
1044.972754,-10214.842000,444.123565,1608.800546
1044.973074,-10288.862594,814.226536,2068.457845
1044.973395,-9992.780217,1036.288319,2221.676944
1044.973716,-8956.491898,740.205942,1072.533697
1044.974037,-9030.512492,1110.308913,612.876398
1044.974357,-8586.388927,1110.308913,919.314598
1044.974678,-8734.430116,592.164754,1072.533697
1044.974999,-9696.697840,1406.391290,1838.629195
1044.975320,-9548.656652,1480.411884,2298.286494
1044.975640,-9548.656652,1406.391290,2298.286494
1044.975961,-10140.821405,1406.391290,2911.162892
1044.976282,-9992.780217,1036.288319,3370.820191
1044.976602,-9918.759623,1036.288319,3370.820191
1044.976923,-9992.780217,1184.329507,3140.991542
1044.977244,-9696.697840,1184.329507,3064.381992
1044.977565,-9844.739029,1480.411884,3447.429741
1044.977885,-10362.883188,1776.494261,3983.696590
1044.978206,-10066.800811,2072.576638,4673.182538
1044.978527,-9918.759623,1776.494261,4903.011187
1044.978848,-10214.842000,2368.659014,4979.620737
1044.979168,-9992.780217,1850.514855,5669.106685
1044.979489,-9918.759623,1406.391290,6052.154434
1044.979810,-9918.759623,1406.391290,6511.811733
1044.980130,-8734.430116,1332.370696,5515.887586
1044.980451,-9474.636058,1554.432478,6205.373534
1044.980772,-9400.615463,2072.576638,6205.373534
1044.981093,-9178.553681,2146.597232,6511.811733
1044.981413,-9474.636058,1998.556043,6205.373534
1044.981734,-9696.697840,2516.700203,6281.983084
1044.982055,-9548.656652,2516.700203,6665.030833
1044.982376,-9696.697840,2590.720797,6665.030833
1044.982696,-9474.636058,3108.864956,6971.469032
1044.983017,-9992.780217,3552.988522,6665.030833
1044.983338,-9548.656652,3627.009116,6588.421283
1044.983658,-9474.636058,3552.988522,5975.544884
1044.983979,-9252.574275,3627.009116,5592.497135
1044.984300,-9104.533087,3552.988522,5592.497135
1044.984621,-8808.450710,3256.906145,4136.915689
1044.984941,-8660.409521,2886.803174,3294.210641
1044.985262,-8882.471304,2664.741391,2911.162892
1044.985583,-8956.491898,2664.741391,2374.896044
1044.985904,-9474.636058,2812.782580,2221.676944
1044.986224,-9844.739029,2590.720797,1762.019645
1044.986545,-9844.739029,2590.720797,1225.752797
1044.986866,-10066.800811,2516.700203,229.828649
1044.987186,-9030.512492,1702.473667,0.000000
1044.987507,-9548.656652,1850.514855,-919.314598
1044.987828,-9400.615463,1998.556043,-536.266849
1044.988149,-10140.821405,1776.494261,306.438199
1044.988469,-10658.965565,2072.576638,2068.457845
1044.988790,-10510.924376,1850.514855,2145.067394
1044.989111,-10584.944971,2442.679609,2757.943793
1044.989432,-10288.862594,2146.597232,2911.162892
1044.989752,-9918.759623,2220.617826,2987.772442
1044.990073,-9474.636058,2220.617826,2298.286494
1044.990394,-9104.533087,2294.638420,1838.629195
1044.990714,-9474.636058,2146.597232,1685.410096
1044.991035,-9178.553681,1776.494261,1608.800546
1044.991356,-10066.800811,1406.391290,1532.190996
1044.991677,-9474.636058,1702.473667,383.047749
1044.991997,-9474.636058,1702.473667,306.438199
1044.992318,-10066.800811,1406.391290,1072.533697
1044.992639,-9474.636058,1480.411884,2987.772442
1044.992960,-10288.862594,518.144159,2834.553343
1044.993280,-10214.842000,370.102971,4136.915689
1044.993601,-10510.924376,74.020594,5286.058936
1044.993922,-10510.924376,740.205942,6511.811733
1044.994242,-10436.903782,1258.350101,7277.907231
1044.994563,-9696.697840,1776.494261,7431.126331
1044.994884,-9400.615463,2220.617826,7660.954980
1044.995205,-9252.574275,1480.411884,7124.688131
1044.995525,-8956.491898,0.000000,6511.811733
1044.995846,-8512.368333,-740.205942,3677.258390
1044.996167,-8068.244768,-518.144159,2528.115143
1044.996488,-8364.327145,222.061783,2528.115143
1044.996808,-8956.491898,74.020594,842.705048
1044.997129,-9548.656652,296.082377,2681.334243
1044.997450,-10510.924376,-296.082377,2681.334243
1044.997770,-10584.944971,-148.041188,3294.210641
1044.998091,-11029.068536,518.144159,4903.011187
1044.998412,-11251.130318,1110.308913,6511.811733
1044.998733,-10362.883188,518.144159,7124.688131
1044.999053,-9622.677246,148.041188,6435.202183
1044.999374,-8808.450710,-444.123565,4979.620737
1044.999695,-8142.265362,-444.123565,3447.429741
1045.000016,-8068.244768,444.123565,3140.991542
1045.000336,-8586.388927,1702.473667,3677.258390
1045.000657,-8660.409521,2368.659014,3524.039291
1045.000978,-9252.574275,1850.514855,2681.334243
1045.001298,-9474.636058,1776.494261,2911.162892
1045.001619,-10436.903782,2072.576638,3064.381992
1045.001940,-11473.192101,2220.617826,2757.943793
1045.002261,-10807.006753,2960.823768,1838.629195
1045.002581,-10436.903782,2886.803174,0.000000
1045.002902,-9178.553681,3108.864956,-995.924147
1045.003223,-9326.594869,2812.782580,-229.828649
1045.003544,-9474.636058,2442.679609,612.876398
1045.003864,-9474.636058,1406.391290,383.047749
1045.004185,-9474.636058,2146.597232,842.705048
1045.004506,-9770.718434,2442.679609,2987.772442
1045.004826,-10510.924376,2886.803174,5362.668486
1045.005147,-11251.130318,1628.453072,5439.278036
1045.005468,-9992.780217,1628.453072,3600.648841
1045.005789,-9400.615463,1406.391290,1915.238745
1045.006109,-8956.491898,2664.741391,1991.848295
1045.006430,-9770.718434,3849.070898,2681.334243
1045.006751,-9326.594869,4071.132681,2145.067394
1045.007072,-8882.471304,4515.256246,1762.019645
1045.007392,-9178.553681,4293.194464,1149.143247
1045.007713,-10288.862594,3997.112087,2757.943793
1045.008034,-11843.295072,3256.906145,3140.991542
1045.008354,-10436.903782,2442.679609,3830.477490
1045.008675,-9474.636058,1406.391290,3370.820191
1045.008996,-9104.533087,444.123565,3294.210641
1045.009317,-9104.533087,444.123565,3753.867940
1045.009637,-9844.739029,666.185348,4826.401637
1045.009958,-9696.697840,1776.494261,5286.058936
1045.010279,-9696.697840,296.082377,5286.058936
1045.010600,-8882.471304,222.061783,4519.963438
1045.010920,-9474.636058,888.247130,4213.525239
1045.011241,-9548.656652,2368.659014,5515.887586
1045.011562,-10066.800811,2294.638420,6894.859482
1045.011882,-9474.636058,1480.411884,6205.373534
1045.012203,-9474.636058,1998.556043,4366.744339
1045.012524,-10066.800811,1258.350101,4826.401637
1045.012845,-9400.615463,2072.576638,3983.696590
1045.013165,-8882.471304,3478.967927,4213.525239
1045.013486,-8956.491898,3552.988522,3524.039291
1045.013807,-7846.182985,2294.638420,2221.676944
1045.014128,-8364.327145,1184.329507,2834.553343
1045.014448,-9400.615463,592.164754,2757.943793
1045.014769,-10362.883188,0.000000,2681.334243
1045.015090,-10066.800811,1184.329507,2757.943793
1045.015410,-9474.636058,1184.329507,3217.601092
1045.015731,-10214.842000,1480.411884,2987.772442
1045.016052,-10658.965565,1554.432478,3907.087040
1045.016373,-8734.430116,2072.576638,4366.744339
1045.016693,-10584.944971,888.247130,3140.991542
1045.017014,-9474.636058,1184.329507,1915.238745
1045.017335,-9474.636058,2368.659014,2451.505594
1045.017656,-9992.780217,3552.988522,2987.772442
1045.017976,-10288.862594,3108.864956,2681.334243
1045.018297,-9030.512492,3701.029710,2221.676944
1045.018618,-9992.780217,2368.659014,1072.533697
1045.018938,-10658.965565,1480.411884,306.438199
1045.019259,-10584.944971,2220.617826,919.314598
1045.019580,-9400.615463,2220.617826,1455.581446
1045.019901,-10288.862594,1406.391290,1608.800546
1045.020221,-10288.862594,1406.391290,2298.286494
1045.020542,-10807.006753,74.020594,2911.162892
1045.020863,-10066.800811,-888.247130,1378.971896
1045.021184,-9400.615463,444.123565,1532.190996
1045.021504,-9548.656652,1776.494261,1915.238745
1045.021825,-8882.471304,2294.638420,2911.162892
1045.022146,-9474.636058,2590.720797,3677.258390
1045.022466,-9770.718434,592.164754,3907.087040
1045.022787,-8660.409521,-1702.473667,2528.115143
1045.023108,-9844.739029,-1628.453072,2757.943793
1045.023429,-10436.903782,740.205942,4519.963438
1045.023749,-10066.800811,962.267725,5439.278036
1045.024070,-9474.636058,2072.576638,5209.449386
1045.024391,-9030.512492,814.226536,3830.477490
1045.024712,-7402.059420,-296.082377,995.924147
1045.025032,-8142.265362,1628.453072,2604.724693
1045.025353,-8660.409521,1702.473667,4290.134789
1045.025674,-9030.512492,814.226536,4443.353888
1045.025994,-9992.780217,222.061783,4749.792088
1045.026315,-8956.491898,-740.205942,3370.820191
1045.026636,-9326.594869,296.082377,3447.429741
1045.026957,-10807.006753,2368.659014,6894.859482
1045.027277,-10288.862594,1332.370696,6741.640382
1045.027598,-9770.718434,3034.844362,5669.106685
1045.027919,-10436.903782,1406.391290,3830.477490
1045.028240,-8290.306550,2664.741391,2681.334243
1045.028560,-10510.924376,2072.576638,4060.306139
1045.028881,-9178.553681,3552.988522,5132.839837
1045.029202,-9030.512492,2516.700203,2911.162892
1045.029522,-9918.759623,592.164754,1608.800546
1045.029843,-9474.636058,370.102971,766.095498
1045.030164,-11325.150913,2590.720797,4826.401637
1045.030485,-10436.903782,2590.720797,5209.449386
1045.030805,-11547.212695,962.267725,4749.792088
1045.031126,-9400.615463,2812.782580,3370.820191
1045.031447,-10881.027347,1332.370696,1838.629195
1045.031768,-10955.047942,4737.318029,3677.258390
1045.032088,-11177.109724,3849.070898,5822.325785
1045.032409,-9770.718434,1332.370696,2298.286494
1045.032730,-8586.388927,3256.906145,229.828649
1045.033050,-10066.800811,1110.308913,-766.095498
1045.033371,-8660.409521,2960.823768,1608.800546
1045.033692,-11399.171507,2738.761985,3677.258390
1045.034013,-9918.759623,1406.391290,919.314598
1045.034333,-8512.368333,2812.782580,0.000000
1045.034654,-9400.615463,0.000000,-612.876398
1045.034975,-9400.615463,888.247130,1532.190996
1045.035296,-9918.759623,1628.453072,2451.505594
1045.035616,-9770.718434,370.102971,459.657299
1045.035937,-7698.141797,1184.329507,-229.828649
1045.036258,-8068.244768,1406.391290,-919.314598
1045.036578,-9030.512492,1628.453072,2298.286494
1045.036899,-10436.903782,1110.308913,4213.525239
1045.037220,-9844.739029,1036.288319,2757.943793
1045.037541,-8512.368333,-740.205942,842.705048
1045.037861,-9104.533087,-518.144159,2221.676944
1045.038182,-9104.533087,518.144159,4903.011187
1045.038503,-10658.965565,-1702.473667,3907.087040
1045.038824,-7254.018232,888.247130,1838.629195
1045.039144,-7624.121203,-444.123565,-1302.362347
1045.039465,-8068.244768,1406.391290,612.876398
1045.039786,-10214.842000,1036.288319,2145.067394
1045.040106,-10288.862594,1184.329507,1838.629195
1045.040427,-9770.718434,1332.370696,1455.581446
1045.040748,-9326.594869,296.082377,459.657299
1045.041069,-10584.944971,74.020594,3907.087040
1045.041389,-13027.624579,-2220.617826,2757.943793
1045.041710,-10436.903782,-1258.350101,2757.943793
1045.042031,-9326.594869,-1924.535449,229.828649
1045.042352,-8068.244768,1332.370696,2757.943793
1045.042672,-10732.986159,-740.205942,3447.429741
1045.042993,-9104.533087,-962.267725,766.095498
1045.043314,-8068.244768,-1036.288319,-995.924147
1045.043634,-8364.327145,592.164754,-1532.190996
1045.043955,-10807.006753,1480.411884,3370.820191
1045.044276,-13175.665768,-962.267725,5132.839837
1045.044597,-11843.295072,-1480.411884,5592.497135
1045.044917,-12731.542202,-4737.318029,2757.943793
1045.045238,-9992.780217,-2960.823768,2145.067394
1045.045559,-9030.512492,-2072.576638,1838.629195
1045.045880,-10140.821405,222.061783,612.876398
1045.046200,-7105.977043,962.267725,-1991.848295
1045.046521,-5921.647536,0.000000,-3753.867940
1045.046842,-6439.791695,-1036.288319,-1685.410096
1045.047162,-9770.718434,-4737.318029,-1378.971896
1045.047483,-9844.739029,-2886.803174,1302.362347
1045.047804,-10584.944971,-3108.864956,536.266849
1045.048125,-10066.800811,444.123565,2451.505594
1045.048445,-11621.233289,148.041188,3753.867940
1045.048766,-10658.965565,-1480.411884,2221.676944
1045.049087,-9030.512492,-1184.329507,-766.095498
1045.049408,-8438.347739,222.061783,-2298.286494
1045.049728,-6587.832884,222.061783,-2451.505594
1045.050049,-9030.512492,-1332.370696,-2145.067394
1045.050370,-7031.956449,0.000000,-1991.848295
1045.050690,-8956.491898,-1850.514855,-2145.067394
1045.051011,-8438.347739,-148.041188,1149.143247
1045.051332,-11251.130318,-888.247130,1915.238745
1045.051653,-11843.295072,-666.185348,2911.162892
1045.051973,-10881.027347,-888.247130,1072.533697
1045.052294,-10436.903782,1776.494261,1762.019645
1045.052615,-10066.800811,1702.473667,2374.896044
1045.052936,-10658.965565,518.144159,1072.533697
1045.053256,-9400.615463,1110.308913,306.438199
1045.053577,-9252.574275,1110.308913,-995.924147
1045.053898,-9696.697840,592.164754,689.485948
1045.054218,-9400.615463,1776.494261,1991.848295
1045.054539,-10436.903782,666.185348,1685.410096
1045.054860,-9992.780217,-518.144159,229.828649
1045.055180,-11621.233289,-3478.967927,-1685.410096
1045.055501,-7476.080014,2738.761985,3217.601092
1045.055822,-13841.851115,-4959.379811,1225.752797
1045.056143,-6217.729913,2368.659014,4060.306139
1045.056463,-12805.562797,-1554.432478,1532.190996
1045.056784,-11695.253884,1332.370696,6205.373534
1045.057105,-9918.759623,-666.185348,1915.238745
1045.057425,-11769.274478,2072.576638,4826.401637
1045.057746,-9918.759623,592.164754,2681.334243
1045.058067,-6291.750507,148.041188,153.219100
1045.058388,-11547.212695,-1110.308913,4136.915689
1045.058708,-5847.626942,-2368.659014,229.828649
1045.059029,-8364.327145,-962.267725,-766.095498
1045.059350,-10510.924376,222.061783,2298.286494
1045.059670,-6735.874072,1480.411884,3524.039291
1045.059991,-9992.780217,-1332.370696,3600.648841
1045.060312,-9548.656652,-962.267725,2987.772442
1045.060632,-8956.491898,-814.226536,1072.533697
1045.060953,-10658.965565,666.185348,2451.505594
1045.061274,-9696.697840,-444.123565,2374.896044
1045.061595,-7846.182985,370.102971,229.828649
1045.061915,-7994.224174,296.082377,-1225.752797
1045.062236,-7772.162391,740.205942,-1838.629195
1045.062557,-8216.285956,814.226536,76.609550
1045.062877,-9622.677246,-1702.473667,-689.485948
1045.063198,-10510.924376,-296.082377,536.266849
1045.063519,-9770.718434,-1628.453072,-919.314598
1045.063840,-9326.594869,0.000000,1302.362347
1045.064160,-11029.068536,-1480.411884,2374.896044
1045.064481,-9770.718434,-1480.411884,-306.438199
1045.064802,-9918.759623,-1258.350101,-1608.800546
1045.065122,-8808.450710,814.226536,229.828649
1045.065443,-9844.739029,1628.453072,-536.266849
1045.065764,-11843.295072,296.082377,0.000000
1045.066084,-9548.656652,370.102971,0.000000
1045.066405,-9844.739029,-1332.370696,-1225.752797
1045.066726,-10214.842000,-1480.411884,919.314598
1045.067047,-11103.089130,-2368.659014,1225.752797
1045.067367,-11177.109724,-2146.597232,995.924147
1045.067688,-9844.739029,-1480.411884,-612.876398
1045.068009,-9252.574275,148.041188,0.000000
1045.068329,-9918.759623,222.061783,1762.019645
1045.068650,-11325.150913,-814.226536,2374.896044
1045.068971,-9770.718434,-148.041188,536.266849
1045.069292,-9992.780217,-2590.720797,0.000000
1045.069612,-9030.512492,-1850.514855,995.924147
1045.069933,-10658.965565,-3404.947333,1762.019645
1045.070254,-8660.409521,-2072.576638,1378.971896
1045.070574,-8586.388927,-2072.576638,842.705048
1045.070895,-7994.224174,370.102971,1149.143247
1045.071216,-9548.656652,-592.164754,3524.039291
1045.071536,-10066.800811,-1776.494261,2451.505594
1045.071857,-8068.244768,-1406.391290,1915.238745
1045.072178,-8364.327145,-1480.411884,842.705048
1045.072499,-8734.430116,666.185348,3753.867940
1045.072819,-9474.636058,-2294.638420,3524.039291
1045.073140,-9326.594869,-2072.576638,2374.896044
1045.073461,-8586.388927,-1776.494261,842.705048
1045.073781,-8512.368333,1406.391290,2604.724693
1045.074102,-10066.800811,-592.164754,4290.134789
1045.074423,-10436.903782,0.000000,2987.772442
1045.074743,-8808.450710,222.061783,689.485948
1045.075064,-8660.409521,0.000000,-766.095498
1045.075385,-8364.327145,1480.411884,2068.457845
1045.075706,-10510.924376,0.000000,2068.457845
1045.076026,-9622.677246,1110.308913,1532.190996
1045.076347,-9104.533087,222.061783,153.219100
1045.076668,-8882.471304,1184.329507,1455.581446
1045.076988,-11473.192101,0.000000,3370.820191
1045.077309,-11769.274478,0.000000,1149.143247
1045.077630,-10436.903782,888.247130,-383.047749
1045.077951,-9844.739029,2220.617826,-1838.629195
1045.078271,-10066.800811,3997.112087,1685.410096
1045.078592,-11473.192101,222.061783,612.876398
1045.078913,-9770.718434,592.164754,-1225.752797
1045.079233,-9548.656652,-740.205942,-3140.991542
1045.079554,-7328.038826,3552.988522,-1149.143247
1045.079875,-11843.295072,2072.576638,3064.381992
1045.080195,-12583.501014,3330.926739,4826.401637
1045.080516,-12731.542202,-296.082377,3600.648841
1045.080837,-9548.656652,-2072.576638,842.705048
1045.081158,-9326.594869,-1036.288319,-536.266849
1045.081478,-10510.924376,-1184.329507,-1225.752797
1045.081799,-7698.141797,2590.720797,-1225.752797
1045.082120,-6883.915261,2072.576638,-1762.019645
1045.082440,-6661.853478,2664.741391,-1915.238745
1045.082761,-8808.450710,-740.205942,0.000000
1045.083082,-11547.212695,-2590.720797,1149.143247
1045.083403,-11473.192101,-1776.494261,2757.943793
1045.083723,-9770.718434,-1184.329507,2068.457845
1045.084044,-9400.615463,0.000000,2451.505594
1045.084365,-8882.471304,-1554.432478,383.047749
1045.084685,-7550.100608,-1110.308913,689.485948
1045.085006,-8364.327145,-2072.576638,612.876398
1045.085327,-8438.347739,296.082377,2681.334243
1045.085647,-10510.924376,-2516.700203,2604.724693
1045.085968,-10732.986159,-666.185348,1915.238745
1045.086289,-9548.656652,518.144159,3600.648841
1045.086610,-9770.718434,-370.102971,3294.210641
1045.086930,-9992.780217,-888.247130,4213.525239
1045.087251,-8364.327145,-3330.926739,919.314598
1045.087572,-7179.997637,-3330.926739,229.828649
1045.087892,-8512.368333,-740.205942,-1685.410096
1045.088213,-9400.615463,3182.885551,2374.896044
1045.088534,-10955.047942,962.267725,2987.772442
1045.088855,-8216.285956,1924.535449,1225.752797
1045.089175,-10288.862594,-592.164754,1762.019645
1045.089496,-11399.171507,-1776.494261,2528.115143
1045.089817,-12065.356855,-1258.350101,4060.306139
1045.090137,-12065.356855,-2368.659014,2757.943793
1045.090458,-8660.409521,-1036.288319,-383.047749
1045.090779,-8660.409521,-740.205942,-1072.533697
1045.091099,-9104.533087,148.041188,1149.143247
1045.091420,-9696.697840,-296.082377,306.438199
1045.091741,-9548.656652,-518.144159,0.000000
1045.092062,-9400.615463,-2368.659014,-1608.800546
1045.092382,-9400.615463,148.041188,766.095498
1045.092703,-12361.439231,-1554.432478,3294.210641
1045.093024,-9844.739029,-444.123565,2528.115143
1045.093344,-9622.677246,-1480.411884,536.266849
1045.093665,-9178.553681,-1628.453072,-1455.581446
1045.093986,-9030.512492,370.102971,1149.143247
1045.094307,-11473.192101,-1258.350101,919.314598
1045.094627,-9104.533087,518.144159,383.047749
1045.094948,-8660.409521,-592.164754,-1225.752797
1045.095269,-7402.059420,444.123565,-306.438199
1045.095589,-9696.697840,-1628.453072,1378.971896
1045.095910,-10584.944971,-962.267725,1225.752797
1045.096231,-9030.512492,-888.247130,306.438199
1045.096551,-8660.409521,-296.082377,229.828649
1045.096872,-7846.182985,888.247130,1225.752797
1045.097193,-10066.800811,-1258.350101,612.876398
1045.097514,-8290.306550,740.205942,0.000000
1045.097834,-8216.285956,814.226536,-536.266849
1045.098155,-9030.512492,518.144159,2757.943793
1045.098476,-11103.089130,-3478.967927,3524.039291
1045.098796,-11103.089130,-3997.112087,3217.601092
1045.099117,-9622.677246,-3404.947333,383.047749
1045.099438,-9030.512492,1628.453072,1991.848295
1045.099759,-10066.800811,3330.926739,4443.353888
1045.100079,-9696.697840,1776.494261,3370.820191
1045.100400,-8290.306550,1998.556043,919.314598
1045.100721,-8438.347739,-370.102971,-766.095498
1045.101041,-8882.471304,-592.164754,995.924147
1045.101362,-11103.089130,-2368.659014,1838.629195
1045.101683,-10140.821405,222.061783,1991.848295
1045.102003,-10288.862594,222.061783,1149.143247
1045.102324,-9474.636058,2220.617826,2757.943793
1045.102645,-11621.233289,1628.453072,3370.820191
1045.102966,-11991.336260,1036.288319,2451.505594
1045.103286,-10807.006753,1036.288319,1149.143247
1045.103607,-9844.739029,666.185348,-153.219100
1045.103928,-9030.512492,1258.350101,536.266849
1045.104248,-9400.615463,-666.185348,1991.848295
1045.104569,-9622.677246,-518.144159,0.000000
1045.104890,-8956.491898,-592.164754,-1532.190996
1045.105210,-9400.615463,740.205942,459.657299
1045.105531,-11917.315666,-222.061783,2221.676944
1045.105852,-11621.233289,222.061783,2451.505594
1045.106173,-10436.903782,0.000000,1608.800546
1045.106493,-9104.533087,-518.144159,-612.876398
1045.106814,-8216.285956,444.123565,1072.533697
1045.107135,-10214.842000,-1924.535449,-689.485948
1045.107455,-7846.182985,592.164754,-689.485948
1045.107776,-8882.471304,-1110.308913,-2757.943793
1045.108097,-7254.018232,1554.432478,-153.219100
1045.108418,-9326.594869,0.000000,2145.067394
1045.108738,-11621.233289,-1036.288319,1762.019645
1045.109059,-9844.739029,888.247130,2374.896044
1045.109380,-9770.718434,-1702.473667,1225.752797
1045.109700,-7994.224174,-1628.453072,1225.752797
1045.110021,-9844.739029,-2368.659014,1915.238745
1045.110342,-9474.636058,-1924.535449,153.219100
1045.110662,-7105.977043,-592.164754,-612.876398
1045.110983,-7476.080014,518.144159,536.266849
1045.111304,-9474.636058,-2294.638420,-153.219100
1045.111625,-9400.615463,-1480.411884,229.828649
1045.111945,-10658.965565,-666.185348,2068.457845
1045.112266,-9770.718434,-666.185348,3677.258390
1045.112587,-11103.089130,-2442.679609,4903.011187
1045.112907,-11103.089130,-4145.153275,2834.553343
1045.113228,-9030.512492,-2220.617826,-306.438199
1045.113549,-9178.553681,-814.226536,-995.924147
1045.113870,-7179.997637,2368.659014,1149.143247
1045.114190,-7994.224174,-740.205942,1532.190996
1045.114511,-9622.677246,-1924.535449,-536.266849
1045.114832,-7846.182985,148.041188,-459.657299
1045.115152,-11547.212695,-814.226536,1302.362347
1045.115473,-11325.150913,-74.020594,3217.601092
1045.115794,-11103.089130,-222.061783,3524.039291
1045.116114,-10436.903782,-444.123565,1685.410096
1045.116435,-9622.677246,-296.082377,1302.362347
1045.116756,-11473.192101,-296.082377,5132.839837
1045.117077,-13027.624579,-4663.297435,4903.011187
1045.117397,-8290.306550,-592.164754,689.485948
1045.117718,-11251.130318,-2294.638420,-383.047749
1045.118039,-7698.141797,1998.556043,-383.047749
1045.118359,-11547.212695,1628.453072,2911.162892
1045.118680,-10584.944971,-962.267725,2451.505594
1045.119001,-6883.915261,-1702.473667,-1225.752797
1045.119322,-11029.068536,-2368.659014,-689.485948
1045.119642,-8586.388927,0.000000,1225.752797
1045.119963,-10732.986159,-2368.659014,919.314598
1045.120284,-8364.327145,222.061783,-306.438199
1045.120604,-7105.977043,666.185348,-2528.115143
1045.120925,-7698.141797,2368.659014,-1302.362347
1045.121246,-9622.677246,518.144159,3370.820191
1045.121566,-9770.718434,-1036.288319,306.438199
1045.121887,-10066.800811,-1924.535449,-536.266849
1045.122208,-8586.388927,-592.164754,-995.924147
1045.122529,-9030.512492,1480.411884,2528.115143
1045.122849,-10732.986159,74.020594,2987.772442
1045.123170,-10362.883188,-888.247130,1225.752797
1045.123491,-6217.729913,-1998.556043,-612.876398
1045.123811,-9992.780217,370.102971,-1072.533697
1045.124132,-10362.883188,1776.494261,2298.286494
1045.124453,-10510.924376,-814.226536,995.924147
1045.124774,-9252.574275,444.123565,1225.752797
1045.125094,-7179.997637,888.247130,-766.095498
1045.125415,-9770.718434,962.267725,2451.505594
1045.125736,-11473.192101,-2146.597232,2757.943793
1045.126056,-9252.574275,-1628.453072,1302.362347
1045.126377,-9474.636058,-2442.679609,-612.876398
1045.126698,-7698.141797,1480.411884,919.314598
1045.127018,-10881.027347,888.247130,2451.505594
1045.127339,-11473.192101,1850.514855,4136.915689
1045.127660,-9622.677246,888.247130,1838.629195
1045.127981,-9252.574275,888.247130,1685.410096
1045.128301,-10510.924376,-1036.288319,3753.867940
1045.128622,-10955.047942,-2960.823768,2374.896044
1045.128943,-9622.677246,-74.020594,1225.752797
1045.129263,-8364.327145,888.247130,-995.924147
1045.129584,-7179.997637,3849.070898,919.314598
1045.129905,-11399.171507,2146.597232,3370.820191
1045.130226,-10658.965565,814.226536,3524.039291
1045.130546,-11399.171507,-1702.473667,2757.943793
1045.130867,-10955.047942,-2738.761985,1991.848295
1045.131188,-11251.130318,-592.164754,3370.820191
1045.131508,-11177.109724,-370.102971,3294.210641
1045.131829,-9030.512492,1924.535449,1685.410096
1045.132150,-8660.409521,1258.350101,0.000000
1045.132470,-6883.915261,888.247130,-306.438199
1045.132791,-9770.718434,-2368.659014,-1072.533697
1045.133112,-9770.718434,-740.205942,0.000000
1045.133433,-9622.677246,-1184.329507,-383.047749
1045.133753,-9104.533087,0.000000,383.047749
1045.134074,-9918.759623,0.000000,2298.286494
1045.134395,-10807.006753,-1850.514855,919.314598
1045.134715,-9770.718434,-296.082377,842.705048
1045.135036,-9474.636058,-1184.329507,-383.047749
1045.135357,-7994.224174,444.123565,459.657299
1045.135677,-10510.924376,-888.247130,-306.438199
1045.135998,-9104.533087,518.144159,-1762.019645
1045.136319,-7254.018232,-296.082377,-2451.505594
1045.136640,-7179.997637,0.000000,459.657299
1045.136960,-9252.574275,-1480.411884,689.485948
1045.137281,-10955.047942,-2220.617826,306.438199
1045.137602,-10955.047942,-740.205942,1225.752797
1045.137922,-9030.512492,74.020594,1149.143247
1045.138243,-9178.553681,740.205942,1991.848295
1045.138564,-11473.192101,370.102971,2374.896044
1045.138885,-8882.471304,296.082377,-383.047749
1045.139205,-8438.347739,-222.061783,0.000000
1045.139526,-9548.656652,-296.082377,1762.019645
1045.139847,-9326.594869,-2220.617826,1149.143247
1045.140167,-11547.212695,-1628.453072,1838.629195
1045.140488,-10066.800811,-1110.308913,995.924147
1045.140809,-7254.018232,518.144159,536.266849
1045.141129,-10658.965565,-1554.432478,2681.334243
1045.141450,-10436.903782,-1998.556043,1762.019645
1045.141771,-10066.800811,-740.205942,1455.581446
1045.142092,-10214.842000,-1998.556043,1455.581446
1045.142412,-8142.265362,444.123565,2451.505594
1045.142733,-11473.192101,-1924.535449,2757.943793
1045.143054,-10362.883188,0.000000,1608.800546
1045.143374,-9622.677246,592.164754,2374.896044
1045.143695,-9178.553681,444.123565,1302.362347
1045.144016,-9104.533087,-222.061783,2451.505594
1045.144337,-10955.047942,-2220.617826,1532.190996
1045.144657,-9252.574275,-1258.350101,306.438199
1045.144978,-9548.656652,-1036.288319,-383.047749
1045.145299,-8586.388927,-370.102971,2374.896044
1045.145619,-10066.800811,-3182.885551,2298.286494
1045.145940,-9474.636058,-1850.514855,536.266849
1045.146261,-8216.285956,2294.638420,1378.971896
1045.146581,-11769.274478,2146.597232,4213.525239
1045.146902,-10584.944971,1332.370696,6511.811733
1045.147223,-10955.047942,-3256.906145,1762.019645
1045.147544,-7698.141797,-2664.741391,-2757.943793
1045.147864,-7624.121203,-296.082377,-2834.553343
1045.148185,-7624.121203,2368.659014,0.000000
1045.148506,-9548.656652,962.267725,76.609550
1045.148826,-7624.121203,1110.308913,-1455.581446
1045.149147,-7846.182985,-296.082377,-2911.162892
1045.149468,-10066.800811,-148.041188,0.000000
1045.149789,-11917.315666,-1184.329507,2757.943793
1045.150109,-10807.006753,-1332.370696,2221.676944
1045.150430,-8956.491898,0.000000,995.924147
1045.150751,-9696.697840,-888.247130,-383.047749
1045.151071,-9030.512492,1184.329507,1685.410096
1045.151392,-10732.986159,-1036.288319,536.266849
1045.151713,-8586.388927,740.205942,-689.485948
1045.152033,-8216.285956,740.205942,-1685.410096
1045.152354,-9400.615463,1702.473667,-306.438199
1045.152675,-9770.718434,74.020594,2374.896044
1045.152996,-10881.027347,-1406.391290,383.047749
1045.153317,-10214.842000,-592.164754,2911.162892
1045.153637,-11991.336260,-1924.535449,1915.238745
1045.153958,-11621.233289,592.164754,4903.011187
1045.154279,-13397.727550,-666.185348,4596.572988
1045.154600,-9548.656652,1184.329507,1915.238745
1045.154920,-8364.327145,-1036.288319,-1685.410096
1045.155241,-6587.832884,888.247130,-1991.848295
1045.155562,-7550.100608,-666.185348,-612.876398
1045.155883,-7105.977043,-1184.329507,-2374.896044
1045.156204,-8734.430116,-962.267725,-383.047749
1045.156524,-8142.265362,296.082377,1991.848295
1045.156845,-11621.233289,592.164754,5209.449386
1045.157166,-13915.871710,222.061783,7431.126331
1045.157487,-11103.089130,518.144159,4979.620737
1045.157808,-10510.924376,814.226536,2834.553343
1045.158128,-8660.409521,1702.473667,2757.943793
1045.158449,-8956.491898,-1184.329507,2221.676944
1045.158770,-7550.100608,-1850.514855,-766.095498
1045.159091,-6513.812290,-888.247130,-2145.067394
1045.159411,-6809.894666,222.061783,-1149.143247
1045.159732,-9548.656652,740.205942,2911.162892
1045.160053,-11769.274478,-592.164754,3524.039291
1045.160374,-11547.212695,444.123565,3753.867940
1045.160695,-10214.842000,-370.102971,2451.505594
1045.161015,-9918.759623,0.000000,3830.477490
1045.161336,-11029.068536,-2146.597232,2528.115143
1045.161657,-7920.203579,-1480.411884,689.485948
1045.161978,-6217.729913,-2146.597232,-4060.306139
1045.162298,-5847.626942,592.164754,-4060.306139
1045.162619,-8956.491898,1998.556043,-1685.410096
1045.162940,-11621.233289,1998.556043,1225.752797
1045.163261,-10732.986159,1480.411884,2911.162892
1045.163582,-11695.253884,-1702.473667,2374.896044
1045.163902,-11695.253884,-2146.597232,3294.210641
1045.164223,-13101.645173,-4367.215058,2068.457845
1045.164544,-10362.883188,-814.226536,1378.971896
1045.164865,-9030.512492,-1406.391290,-842.705048
1045.165185,-6365.771101,1776.494261,-1608.800546
1045.165506,-7624.121203,962.267725,-1685.410096
1045.165827,-9696.697840,0.000000,-1991.848295
1045.166148,-9474.636058,1924.535449,-919.314598
1045.166469,-9622.677246,0.000000,0.000000
1045.166789,-9474.636058,814.226536,2757.943793
1045.167110,-12213.398043,-2294.638420,2451.505594
1045.167431,-9918.759623,-1776.494261,1685.410096
1045.167752,-9326.594869,-962.267725,1072.533697
1045.168072,-9030.512492,1110.308913,1532.190996
1045.168393,-9992.780217,74.020594,2374.896044
1045.168714,-10510.924376,-518.144159,153.219100
1045.169035,-8142.265362,-740.205942,-995.924147
1045.169356,-8364.327145,-518.144159,-306.438199
1045.169676,-8882.471304,-592.164754,2987.772442
1045.169997,-10288.862594,-3701.029710,995.924147
1045.170318,-8734.430116,-1110.308913,919.314598
1045.170639,-9326.594869,-962.267725,842.705048
1045.170959,-9622.677246,222.061783,3140.991542
1045.171280,-11251.130318,-296.082377,4213.525239
1045.171601,-10732.986159,-592.164754,2068.457845
1045.171922,-8808.450710,888.247130,153.219100
1045.172243,-7772.162391,1258.350101,1991.848295
1045.172563,-10214.842000,-2738.761985,3140.991542
1045.172884,-8068.244768,-3108.864956,1302.362347
1045.173205,-9030.512492,-2368.659014,0.000000
1045.173526,-9252.574275,-1702.473667,-306.438199
