#time,accel_x,accel_y,accel_z
888.606911,-9622.677246,-2442.679609,-459.657299
888.607232,-9770.718434,-2442.679609,-229.828649
888.607553,-9696.697840,-2220.617826,229.828649
888.607874,-10214.842000,-1850.514855,0.000000
888.608195,-10066.800811,-740.205942,76.609550
888.608516,-10436.903782,74.020594,612.876398
888.608837,-10732.986159,222.061783,1072.533697
888.609158,-10066.800811,444.123565,689.485948
888.609479,-9770.718434,-296.082377,689.485948
888.609800,-9548.656652,-740.205942,536.266849
888.610121,-9400.615463,-888.247130,842.705048
888.610442,-9400.615463,-1110.308913,842.705048
888.610762,-9252.574275,-1554.432478,1072.533697
888.611083,-8290.306550,-1702.473667,842.705048
888.611404,-9400.615463,-1850.514855,612.876398
888.611725,-9622.677246,-1702.473667,1149.143247
888.612046,-10066.800811,-1554.432478,995.924147
888.612367,-9844.739029,-1406.391290,919.314598
888.612688,-9992.780217,-1406.391290,536.266849
888.613009,-9770.718434,-1036.288319,919.314598
888.613330,-9844.739029,-814.226536,612.876398
888.613651,-9622.677246,-888.247130,383.047749
888.613972,-9252.574275,-1406.391290,-306.438199
888.614293,-9030.512492,-1628.453072,-612.876398
888.614614,-8882.471304,-1702.473667,-919.314598
888.614935,-8882.471304,-1480.411884,-919.314598
888.615256,-8882.471304,-1628.453072,-76.609550
888.615577,-8734.430116,-1554.432478,-1685.410096
888.615898,-9104.533087,-2368.659014,-2221.676944
888.616219,-9326.594869,-2368.659014,-2374.896044
888.616540,-9622.677246,-2886.803174,-2604.724693
888.616861,-9548.656652,-3404.947333,-2911.162892
888.617182,-9622.677246,-3330.926739,-3294.210641
888.617503,-9622.677246,-3552.988522,-4060.306139
888.617824,-9474.636058,-3923.091493,-4596.572988
888.618144,-8882.471304,-3627.009116,-4826.401637
888.618465,-9400.615463,-3923.091493,-5362.668486
888.618786,-9326.594869,-4293.194464,-5515.887586
888.619107,-9178.553681,-4367.215058,-5898.935335
888.619428,-9326.594869,-4071.132681,-5975.544884
888.619749,-9474.636058,-3923.091493,-5515.887586
888.620070,-9548.656652,-3997.112087,-4826.401637
888.620391,-9770.718434,-3552.988522,-3677.258390
888.620712,-10362.883188,-3849.070898,-3370.820191
888.621033,-10214.842000,-3478.967927,-3217.601092
888.621354,-9918.759623,-4219.173869,-3064.381992
888.621675,-9844.739029,-3849.070898,-2911.162892
888.621996,-9474.636058,-3701.029710,-2757.943793
888.622317,-9178.553681,-3997.112087,-3217.601092
888.622638,-9548.656652,-4293.194464,-2451.505594
888.622959,-9400.615463,-4515.256246,-2298.286494
888.623280,-9844.739029,-4367.215058,-1149.143247
888.623601,-9548.656652,-3849.070898,229.828649
888.623922,-10362.883188,-3478.967927,1378.971896
888.624243,-10658.965565,-3552.988522,2221.676944
888.624564,-10140.821405,-3849.070898,2757.943793
888.624885,-10140.821405,-4219.173869,2451.505594
888.625206,-9918.759623,-4293.194464,1915.238745
888.625527,-9326.594869,-3923.091493,1608.800546
888.625847,-8882.471304,-3627.009116,459.657299
888.626168,-8660.409521,-3849.070898,-153.219100
888.626489,-8660.409521,-3627.009116,-1532.190996
888.626810,-9252.574275,-4071.132681,-459.657299
888.627131,-9400.615463,-4589.276840,0.000000
888.627452,-9992.780217,-4811.338623,0.000000
888.627773,-10066.800811,-4515.256246,383.047749
888.628094,-10436.903782,-3701.029710,1225.752797
888.628415,-10214.842000,-3182.885551,1762.019645
888.628736,-10214.842000,-2220.617826,2298.286494
888.629057,-10066.800811,-1554.432478,2681.334243
888.629378,-9770.718434,-1258.350101,2374.896044
888.629699,-9844.739029,-1258.350101,2451.505594
888.630020,-9252.574275,-1554.432478,1072.533697
888.630341,-8438.347739,-1554.432478,-689.485948
888.630662,-7402.059420,-1406.391290,-2145.067394
888.630982,-7846.182985,-1184.329507,-3217.601092
888.631303,-8216.285956,-1258.350101,-4596.572988
888.631624,-9178.553681,-1554.432478,-4443.353888
888.631945,-9548.656652,-888.247130,-4443.353888
888.632266,-10881.027347,-666.185348,-4673.182538
888.632587,-11769.274478,-148.041188,-3753.867940
888.632907,-11769.274478,370.102971,-2528.115143
888.633228,-11547.212695,0.000000,-1225.752797
888.633549,-10510.924376,-888.247130,-995.924147
888.633870,-10510.924376,-518.144159,-1302.362347
888.634191,-9548.656652,-444.123565,-1608.800546
888.634511,-8586.388927,0.000000,-2681.334243
888.634832,-7846.182985,592.164754,-3983.696590
888.635153,-7624.121203,592.164754,-3217.601092
888.635474,-7698.141797,-296.082377,-3753.867940
888.635795,-8364.327145,-1258.350101,-4443.353888
888.636116,-8956.491898,-1702.473667,-4290.134789
888.636436,-10362.883188,-1480.411884,-2528.115143
888.636757,-11251.130318,-296.082377,-766.095498
888.637078,-12213.398043,-222.061783,842.705048
888.637399,-11769.274478,-148.041188,1455.581446
888.637720,-10732.986159,-1332.370696,1225.752797
888.638040,-10362.883188,-1332.370696,153.219100
888.638361,-9844.739029,-1702.473667,459.657299
888.638682,-8512.368333,-518.144159,612.876398
888.639003,-8216.285956,-296.082377,229.828649
888.639324,-7254.018232,-592.164754,-306.438199
888.639645,-7550.100608,-888.247130,0.000000
888.639965,-8068.244768,-888.247130,1608.800546
888.640286,-9178.553681,-1480.411884,2757.943793
888.640607,-9844.739029,-1924.535449,3600.648841
888.640928,-11399.171507,-2960.823768,4213.525239
888.641249,-10436.903782,-2368.659014,3370.820191
888.641569,-11547.212695,-1332.370696,2911.162892
888.641890,-10955.047942,-1110.308913,2221.676944
888.642211,-10510.924376,-1702.473667,1915.238745
888.642532,-9474.636058,-2294.638420,-612.876398
888.642853,-8882.471304,-1406.391290,-1225.752797
888.643174,-9474.636058,-518.144159,76.609550
888.643494,-9474.636058,-888.247130,1915.238745
888.643815,-9696.697840,-1850.514855,2298.286494
888.644136,-8586.388927,-1776.494261,1685.410096
888.644457,-8586.388927,-2368.659014,1455.581446
888.644778,-9030.512492,-2294.638420,3140.991542
888.645098,-10807.006753,-4663.297435,3217.601092
888.645419,-7402.059420,-3108.864956,1072.533697
888.645740,-9770.718434,-3478.967927,-1072.533697
888.646061,-8660.409521,666.185348,-612.876398
888.646382,-9696.697840,-370.102971,0.000000
888.646703,-10955.047942,518.144159,1915.238745
888.647023,-10658.965565,-814.226536,0.000000
888.647344,-9770.718434,-2442.679609,-2451.505594
888.647665,-9992.780217,-1850.514855,-1072.533697
888.647986,-9474.636058,-1628.453072,-1149.143247
888.648307,-10288.862594,-740.205942,-229.828649
888.648627,-9104.533087,-148.041188,-919.314598
888.648948,-8142.265362,148.041188,-2221.676944
888.649269,-9622.677246,1332.370696,0.000000
888.649590,-10140.821405,1184.329507,1685.410096
888.649911,-10362.883188,0.000000,1455.581446
888.650231,-10955.047942,-222.061783,-1225.752797
888.650552,-8660.409521,592.164754,-1378.971896
888.650873,-8808.450710,962.267725,-766.095498
888.651194,-9770.718434,148.041188,76.609550
888.651515,-9548.656652,-962.267725,-459.657299
888.651836,-8882.471304,-1628.453072,-2834.553343
888.652156,-9104.533087,-1480.411884,-1991.848295
888.652477,-10955.047942,-814.226536,1302.362347
888.652798,-11843.295072,-1628.453072,3064.381992
888.653119,-11177.109724,-1332.370696,3447.429741
888.653440,-10066.800811,-962.267725,3064.381992
888.653760,-9918.759623,-814.226536,3370.820191
888.654081,-10807.006753,-370.102971,4366.744339
888.654402,-8660.409521,-592.164754,2987.772442
888.654723,-7105.977043,-222.061783,383.047749
888.655044,-6661.853478,1554.432478,612.876398
888.655365,-8512.368333,962.267725,1378.971896
888.655685,-7105.977043,1554.432478,2451.505594
888.656006,-10732.986159,-1110.308913,2987.772442
888.656327,-8734.430116,296.082377,2681.334243
888.656648,-9918.759623,-296.082377,2757.943793
888.656969,-11251.130318,814.226536,5362.668486
888.657289,-11103.089130,-370.102971,3983.696590
888.657610,-10362.883188,-296.082377,2374.896044
888.657931,-9844.739029,592.164754,2068.457845
888.658252,-8734.430116,1332.370696,1455.581446
888.658573,-11251.130318,1184.329507,2834.553343
888.658894,-9474.636058,444.123565,2451.505594
888.659214,-8660.409521,296.082377,536.266849
888.659535,-9030.512492,814.226536,919.314598
888.659856,-9252.574275,296.082377,2221.676944
888.660177,-9326.594869,-666.185348,1685.410096
888.660498,-9770.718434,-962.267725,383.047749
888.660818,-9326.594869,222.061783,0.000000
888.661139,-9696.697840,1406.391290,919.314598
888.661460,-10658.965565,1332.370696,1378.971896
888.661781,-10732.986159,74.020594,1149.143247
888.662102,-9474.636058,-1036.288319,-1378.971896
888.662423,-9622.677246,-814.226536,-1685.410096
888.662743,-8956.491898,-666.185348,0.000000
888.663064,-10881.027347,-888.247130,0.000000
888.663385,-9918.759623,-740.205942,-612.876398
888.663706,-9030.512492,222.061783,-1838.629195
888.664027,-9622.677246,1184.329507,-383.047749
888.664347,-10732.986159,1628.453072,1685.410096
888.664668,-10288.862594,0.000000,1532.190996
888.664989,-9474.636058,-1332.370696,0.000000
888.665310,-8586.388927,-962.267725,-766.095498
888.665631,-8808.450710,-518.144159,76.609550
888.665951,-9474.636058,-814.226536,766.095498
888.666272,-9474.636058,-1406.391290,-153.219100
888.666593,-8438.347739,-296.082377,-1455.581446
888.666914,-9548.656652,888.247130,-1225.752797
888.667235,-10584.944971,1110.308913,1685.410096
888.667556,-10436.903782,0.000000,2528.115143
888.667876,-9918.759623,-2294.638420,459.657299
888.668197,-8216.285956,-2220.617826,-229.828649
888.668518,-8660.409521,-2146.597232,306.438199
888.668839,-9474.636058,-1850.514855,1991.848295
888.669160,-9474.636058,-2368.659014,1991.848295
888.669480,-8586.388927,-2368.659014,995.924147
888.669801,-8882.471304,-1258.350101,919.314598
888.670122,-10140.821405,370.102971,3447.429741
888.670443,-11695.253884,-518.144159,4903.011187
888.670764,-10214.842000,-1924.535449,3064.381992
888.671085,-8956.491898,-1702.473667,459.657299
888.671405,-8216.285956,-2294.638420,919.314598
888.671726,-9104.533087,-2220.617826,1762.019645
888.672047,-9474.636058,-1406.391290,1991.848295
888.672368,-9178.553681,-592.164754,766.095498
888.672689,-8808.450710,888.247130,919.314598
888.673009,-10584.944971,1332.370696,2911.162892
888.673330,-11769.274478,222.061783,4903.011187
888.673651,-11547.212695,-1258.350101,4290.134789
888.673972,-9918.759623,-1184.329507,2451.505594
888.674293,-9178.553681,-1184.329507,1608.800546
888.674614,-9326.594869,-148.041188,1378.971896
888.674934,-9696.697840,0.000000,1838.629195
888.675255,-8808.450710,0.000000,0.000000
888.675576,-8290.306550,296.082377,-612.876398
888.675897,-9474.636058,740.205942,536.266849
888.676218,-10955.047942,740.205942,1915.238745
888.676538,-11473.192101,0.000000,2145.067394
888.676859,-9548.656652,-740.205942,919.314598
888.677180,-9474.636058,-222.061783,229.828649
888.677501,-9770.718434,0.000000,995.924147
888.677822,-10214.842000,-592.164754,766.095498
888.678143,-10066.800811,-592.164754,76.609550
888.678463,-8734.430116,-666.185348,-1838.629195
888.678784,-9252.574275,740.205942,-612.876398
888.679105,-10658.965565,1110.308913,995.924147
888.679426,-10881.027347,0.000000,1149.143247
888.679747,-9844.739029,-1554.432478,-536.266849
888.680067,-8586.388927,-1480.411884,-1532.190996
888.680388,-8882.471304,-592.164754,-766.095498
888.680709,-9844.739029,-222.061783,1225.752797
888.681030,-9696.697840,-814.226536,2145.067394
888.681351,-9548.656652,-370.102971,306.438199
888.681672,-8882.471304,444.123565,0.000000
888.681992,-9992.780217,666.185348,995.924147
888.682313,-10807.006753,444.123565,2145.067394
888.682634,-9770.718434,-296.082377,995.924147
888.682955,-8586.388927,74.020594,536.266849
888.683276,-8512.368333,-296.082377,0.000000
888.683596,-9474.636058,-740.205942,766.095498
888.683917,-9252.574275,-592.164754,689.485948
888.684238,-9030.512492,-222.061783,-766.095498
888.684559,-8956.491898,1258.350101,1225.752797
888.684880,-9844.739029,888.247130,2451.505594
888.685200,-10584.944971,666.185348,2068.457845
888.685521,-10140.821405,-1406.391290,1685.410096
888.685842,-9474.636058,-1628.453072,919.314598
888.686163,-9252.574275,-1110.308913,1762.019645
888.686484,-10214.842000,-1110.308913,2681.334243
888.686805,-9992.780217,-1628.453072,2068.457845
888.687125,-8956.491898,-1184.329507,0.000000
888.687446,-8882.471304,74.020594,229.828649
888.687767,-10214.842000,740.205942,2374.896044
888.688088,-10732.986159,444.123565,4903.011187
888.688409,-10436.903782,-296.082377,2298.286494
888.688729,-9548.656652,-296.082377,1149.143247
888.689050,-9030.512492,148.041188,1149.143247
888.689371,-9474.636058,148.041188,3524.039291
888.689692,-9992.780217,-592.164754,1838.629195
888.690013,-8734.430116,-592.164754,0.000000
888.690334,-8586.388927,74.020594,76.609550
888.690654,-10066.800811,444.123565,1991.848295
888.690975,-11473.192101,444.123565,2451.505594
888.691296,-10732.986159,-740.205942,1762.019645
888.691617,-9400.615463,-1184.329507,-383.047749
888.691938,-8586.388927,-962.267725,-612.876398
888.692258,-9030.512492,-888.247130,1149.143247
888.692579,-9252.574275,-1332.370696,919.314598
888.692900,-8956.491898,-1480.411884,-612.876398
888.693221,-9178.553681,-222.061783,-842.705048
888.693542,-8956.491898,1184.329507,536.266849
888.693863,-10881.027347,888.247130,2911.162892
888.694183,-10807.006753,518.144159,2068.457845
888.694504,-9548.656652,-740.205942,229.828649
888.694825,-8882.471304,-1332.370696,-689.485948
888.695146,-8512.368333,-888.247130,229.828649
888.695467,-9326.594869,-1480.411884,459.657299
888.695787,-8438.347739,-962.267725,-536.266849
888.696108,-8882.471304,0.000000,-766.095498
888.696429,-8438.347739,1110.308913,1072.533697
888.696750,-10881.027347,1258.350101,2451.505594
888.697071,-11621.233289,370.102971,3140.991542
888.697392,-10362.883188,-592.164754,1532.190996
888.697712,-9474.636058,-518.144159,536.266849
888.698033,-9474.636058,-444.123565,1838.629195
888.698354,-9474.636058,-1110.308913,2145.067394
888.698675,-9474.636058,-1554.432478,612.876398
888.698996,-8512.368333,-814.226536,-536.266849
888.699316,-7920.203579,592.164754,-229.828649
888.699637,-10214.842000,962.267725,2604.724693
888.699958,-11325.150913,0.000000,3907.087040
888.700279,-10807.006753,-1850.514855,2298.286494
888.700600,-9474.636058,-1924.535449,919.314598
888.700920,-9326.594869,-1184.329507,1225.752797
888.701241,-9622.677246,-370.102971,2528.115143
888.701562,-10214.842000,-888.247130,1991.848295
888.701883,-8364.327145,-148.041188,0.000000
888.702204,-8808.450710,1036.288319,0.000000
888.702525,-9844.739029,666.185348,1915.238745
888.702845,-11177.109724,-666.185348,3217.601092
888.703166,-10510.924376,-1554.432478,2298.286494
888.703487,-9622.677246,-1110.308913,612.876398
888.703808,-8660.409521,-518.144159,1072.533697
888.704129,-8882.471304,-666.185348,1915.238745
888.704449,-9696.697840,-666.185348,1915.238745
888.704770,-9104.533087,74.020594,-689.485948
888.705091,-8808.450710,1110.308913,-306.438199
888.705412,-9770.718434,2072.576638,1455.581446
888.705733,-11177.109724,1258.350101,2911.162892
888.706054,-10881.027347,-296.082377,2221.676944
888.706374,-9548.656652,-888.247130,459.657299
888.706695,-8808.450710,-370.102971,0.000000
888.707016,-9474.636058,-370.102971,612.876398
888.707337,-9326.594869,-370.102971,459.657299
888.707658,-9252.574275,0.000000,-536.266849
888.707978,-7994.224174,1110.308913,-1532.190996
888.708299,-9104.533087,1258.350101,-153.219100
888.708620,-9918.759623,1036.288319,2374.896044
888.708941,-11621.233289,-1776.494261,2374.896044
888.709262,-9992.780217,-2368.659014,689.485948
888.709583,-9770.718434,-1776.494261,76.609550
888.709903,-9622.677246,-1184.329507,1685.410096
888.710224,-10510.924376,-1480.411884,1838.629195
888.710545,-8808.450710,-740.205942,383.047749
888.710866,-9252.574275,-1628.453072,-1455.581446
888.711187,-8216.285956,74.020594,-995.924147
888.711507,-10066.800811,666.185348,1378.971896
888.711828,-10436.903782,-148.041188,2911.162892
888.712149,-10066.800811,-1702.473667,1378.971896
888.712470,-9104.533087,-1332.370696,536.266849
888.712791,-9548.656652,-962.267725,1532.190996
888.713112,-9844.739029,-740.205942,2298.286494
888.713432,-9326.594869,518.144159,2681.334243
888.713753,-10214.842000,1036.288319,1762.019645
888.714074,-8364.327145,1406.391290,2298.286494
888.714395,-9622.677246,0.000000,2681.334243
888.714716,-10214.842000,-1850.514855,2528.115143
888.715036,-9178.553681,-2516.700203,0.000000
888.715357,-8142.265362,148.041188,-1685.410096
888.715678,-7624.121203,518.144159,-612.876398
888.715999,-8438.347739,1036.288319,1455.581446
888.716320,-11325.150913,-1036.288319,2068.457845
888.716641,-10214.842000,-2294.638420,612.876398
888.716961,-9622.677246,-1332.370696,-536.266849
888.717282,-10807.006753,296.082377,1608.800546
888.717603,-11473.192101,0.000000,3370.820191
888.717924,-11029.068536,0.000000,2757.943793
888.718245,-9770.718434,0.000000,76.609550
888.718565,-8068.244768,444.123565,-383.047749
888.718886,-9548.656652,444.123565,459.657299
888.719207,-9992.780217,148.041188,1455.581446
888.719528,-9252.574275,592.164754,536.266849
888.719849,-8438.347739,1480.411884,229.828649
888.720169,-7402.059420,1850.514855,76.609550
888.720490,-9992.780217,370.102971,1762.019645
888.720811,-9992.780217,-814.226536,766.095498
888.721132,-8956.491898,-1036.288319,0.000000
888.721453,-8882.471304,-888.247130,842.705048
888.721774,-9548.656652,-296.082377,1225.752797
888.722094,-10362.883188,-814.226536,1762.019645
888.722415,-10288.862594,-296.082377,766.095498
888.722736,-9326.594869,1036.288319,459.657299
888.723057,-9622.677246,1258.350101,2145.067394
888.723378,-10436.903782,444.123565,3217.601092
888.723698,-10214.842000,-1110.308913,2145.067394
888.724019,-9104.533087,-1776.494261,612.876398
888.724340,-7920.203579,-1332.370696,229.828649
888.724661,-8586.388927,0.000000,1455.581446
888.724982,-9326.594869,0.000000,1991.848295
888.725303,-8956.491898,74.020594,612.876398
888.725623,-8808.450710,962.267725,1225.752797
888.725944,-9992.780217,1702.473667,1991.848295
888.726265,-11621.233289,962.267725,4366.744339
888.726586,-11399.171507,-666.185348,3370.820191
888.726907,-10362.883188,-1850.514855,1302.362347
888.727227,-9178.553681,-1110.308913,306.438199
888.727548,-9326.594869,-666.185348,383.047749
888.727869,-9844.739029,0.000000,1532.190996
888.728190,-9474.636058,-222.061783,306.438199
888.728511,-8734.430116,-74.020594,-1149.143247
888.728832,-9104.533087,-444.123565,0.000000
888.729152,-10066.800811,-592.164754,1991.848295
888.729473,-10807.006753,-1554.432478,3370.820191
888.729794,-9992.780217,-2072.576638,2145.067394
888.730115,-9474.636058,-888.247130,306.438199
888.730436,-8956.491898,-666.185348,1762.019645
888.730757,-9844.739029,-592.164754,1455.581446
888.731077,-8956.491898,-962.267725,383.047749
888.731398,-8586.388927,-1258.350101,-1225.752797
888.731719,-8290.306550,148.041188,-536.266849
888.732040,-9992.780217,296.082377,1378.971896
888.732361,-11177.109724,-444.123565,2604.724693
888.732682,-10436.903782,-1850.514855,1149.143247
888.733003,-9030.512492,-2664.741391,0.000000
888.733324,-8882.471304,-1480.411884,0.000000
888.733644,-9992.780217,-1332.370696,766.095498
888.733965,-9770.718434,-740.205942,995.924147
888.734286,-8882.471304,-1110.308913,-229.828649
888.734607,-8364.327145,0.000000,-995.924147
888.734928,-9918.759623,74.020594,919.314598
888.735249,-11177.109724,-370.102971,2604.724693
888.735570,-10288.862594,-814.226536,1838.629195
888.735890,-9474.636058,-1184.329507,1072.533697
888.736211,-8808.450710,-444.123565,842.705048
888.736532,-9474.636058,-962.267725,1455.581446
888.736853,-9474.636058,-1406.391290,1072.533697
888.737174,-9252.574275,-1184.329507,-229.828649
888.737495,-8290.306550,-370.102971,-612.876398
888.737816,-9770.718434,-518.144159,1225.752797
888.738137,-10955.047942,-370.102971,2834.553343
888.738457,-10732.986159,-1776.494261,1915.238745
888.738778,-9252.574275,-1776.494261,766.095498
888.739099,-9178.553681,-962.267725,229.828649
888.739420,-9770.718434,-740.205942,1302.362347
888.739741,-10066.800811,-1332.370696,1762.019645
888.740062,-8660.409521,-814.226536,-153.219100
888.740383,-8660.409521,-666.185348,-536.266849
888.740704,-9548.656652,740.205942,919.314598
888.741024,-10732.986159,1110.308913,3140.991542
888.741345,-10140.821405,296.082377,3217.601092
888.741666,-9844.739029,-740.205942,1225.752797
888.741987,-8882.471304,-1258.350101,1302.362347
888.742308,-9474.636058,-1332.370696,1838.629195
888.742629,-10066.800811,-1776.494261,1762.019645
888.742950,-9474.636058,-666.185348,1149.143247
888.743270,-9178.553681,592.164754,-153.219100
888.743591,-9252.574275,1924.535449,842.705048
888.743912,-11029.068536,1850.514855,2374.896044
888.744233,-11399.171507,74.020594,2374.896044
888.744554,-10066.800811,-1036.288319,689.485948
888.744875,-9252.574275,0.000000,-306.438199
888.745196,-9622.677246,444.123565,766.095498
888.745517,-9474.636058,740.205942,1532.190996
888.745837,-9696.697840,888.247130,459.657299
888.746158,-8586.388927,1406.391290,-536.266849
888.746479,-9474.636058,2072.576638,459.657299
888.746800,-10732.986159,1998.556043,2834.553343
888.747121,-12065.356855,1036.288319,3140.991542
888.747442,-10066.800811,-666.185348,1762.019645
888.747763,-9030.512492,-592.164754,919.314598
888.748083,-9252.574275,1110.308913,1149.143247
888.748404,-9326.594869,1702.473667,2298.286494
888.748725,-9696.697840,0.000000,1072.533697
888.749046,-7550.100608,370.102971,-306.438199
888.749367,-8660.409521,888.247130,-306.438199
888.749688,-9918.759623,1258.350101,1685.410096
888.750009,-10510.924376,222.061783,2681.334243
888.750330,-9918.759623,-888.247130,2374.896044
888.750650,-8808.450710,-888.247130,383.047749
888.750971,-8808.450710,222.061783,459.657299
888.751292,-9696.697840,-296.082377,2451.505594
888.751613,-9326.594869,-1110.308913,1225.752797
888.751934,-8660.409521,-1406.391290,-1149.143247
888.752255,-7994.224174,-148.041188,-1532.190996
888.752576,-9474.636058,1036.288319,76.609550
888.752897,-10510.924376,814.226536,2681.334243
888.753217,-10881.027347,-148.041188,2451.505594
888.753538,-9696.697840,-888.247130,1072.533697
888.753859,-9252.574275,-518.144159,383.047749
888.754180,-9992.780217,-740.205942,919.314598
888.754501,-9992.780217,-740.205942,1762.019645
888.754822,-9104.533087,-1110.308913,459.657299
888.755143,-8290.306550,1332.370696,995.924147
888.755463,-9992.780217,814.226536,306.438199
888.755784,-8586.388927,2072.576638,3524.039291
888.756105,-12509.480420,-1110.308913,2528.115143
888.756426,-9252.574275,-592.164754,1378.971896
888.756747,-8660.409521,-1924.535449,-1455.581446
888.757068,-10140.821405,-296.082377,1991.848295
888.757389,-9474.636058,-1850.514855,306.438199
888.757710,-9696.697840,-2442.679609,306.438199
888.758030,-9326.594869,-1998.556043,-766.095498
888.758351,-9252.574275,-814.226536,-1072.533697
888.758672,-11177.109724,-222.061783,1838.629195
888.758993,-10881.027347,-518.144159,2911.162892
888.759314,-10066.800811,-1850.514855,306.438199
888.759635,-10214.842000,-370.102971,1225.752797
888.759956,-9104.533087,-1554.432478,1685.410096
888.760276,-9474.636058,-1480.411884,2145.067394
888.760597,-9548.656652,-1628.453072,1072.533697
888.760918,-7994.224174,-148.041188,-153.219100
888.761239,-8586.388927,1628.453072,919.314598
888.761560,-10362.883188,1258.350101,2528.115143
888.761881,-10214.842000,-222.061783,2604.724693
888.762202,-9844.739029,-2294.638420,995.924147
888.762523,-9104.533087,-1628.453072,536.266849
888.762843,-8956.491898,-814.226536,536.266849
888.763164,-9548.656652,-444.123565,1455.581446
888.763485,-9400.615463,-592.164754,842.705048
888.763806,-7402.059420,370.102971,-229.828649
888.764127,-8734.430116,-666.185348,-766.095498
888.764448,-10288.862594,-222.061783,1685.410096
888.764769,-11029.068536,-592.164754,2757.943793
888.765090,-10584.944971,-1332.370696,2145.067394
888.765410,-8808.450710,-888.247130,1149.143247
888.765731,-8512.368333,-518.144159,995.924147
888.766052,-9844.739029,-740.205942,2068.457845
888.766373,-8808.450710,-1332.370696,919.314598
888.766694,-8364.327145,-1480.411884,-1225.752797
888.767015,-8364.327145,-296.082377,-459.657299
888.767336,-9992.780217,1258.350101,1762.019645
888.767656,-11843.295072,888.247130,3064.381992
888.767977,-11177.109724,296.082377,2145.067394
888.768298,-9622.677246,-962.267725,459.657299
888.768619,-9104.533087,-888.247130,0.000000
888.768940,-9918.759623,-444.123565,612.876398
888.769261,-10510.924376,0.000000,2068.457845
888.769582,-9474.636058,0.000000,-153.219100
888.769903,-9030.512492,592.164754,-612.876398
888.770223,-10288.862594,1184.329507,766.095498
888.770544,-11325.150913,1332.370696,2528.115143
888.770865,-11399.171507,0.000000,2528.115143
888.771186,-9770.718434,-518.144159,1608.800546
888.771507,-8956.491898,0.000000,766.095498
888.771828,-9844.739029,148.041188,1838.629195
888.772149,-9844.739029,814.226536,2298.286494
888.772469,-8882.471304,-740.205942,612.876398
888.772790,-8364.327145,0.000000,-306.438199
888.773111,-8882.471304,1184.329507,229.828649
888.773432,-10584.944971,1110.308913,2374.896044
888.773753,-10732.986159,740.205942,1838.629195
888.774074,-9326.594869,0.000000,0.000000
888.774395,-8438.347739,0.000000,-612.876398
888.774716,-8438.347739,-222.061783,306.438199
888.775036,-9474.636058,-1036.288319,1072.533697
888.775357,-9104.533087,-1036.288319,459.657299
888.775678,-8956.491898,-814.226536,459.657299
888.775999,-9252.574275,296.082377,1532.190996
888.776320,-10362.883188,222.061783,3447.429741
888.776641,-11103.089130,-1332.370696,3830.477490
888.776962,-9474.636058,-2146.597232,2145.067394
888.777283,-8586.388927,-1628.453072,459.657299
888.777603,-8216.285956,518.144159,306.438199
888.777924,-9400.615463,0.000000,1532.190996
888.778245,-8586.388927,666.185348,689.485948
888.778566,-8882.471304,814.226536,-229.828649
888.778887,-8290.306550,962.267725,229.828649
888.779208,-10881.027347,1036.288319,2987.772442
888.779529,-11399.171507,592.164754,3677.258390
888.779849,-11251.130318,-518.144159,2451.505594
888.780170,-9474.636058,0.000000,1072.533697
888.780491,-9178.553681,592.164754,2145.067394
888.780812,-9918.759623,-296.082377,1608.800546
888.781133,-9474.636058,-962.267725,842.705048
888.781454,-8586.388927,-814.226536,-995.924147
888.781775,-8216.285956,148.041188,-1455.581446
888.782096,-10066.800811,666.185348,1149.143247
888.782416,-11547.212695,0.000000,2911.162892
888.782737,-11251.130318,-1110.308913,2528.115143
888.783058,-10066.800811,-1998.556043,995.924147
888.783379,-9474.636058,-1332.370696,842.705048
888.783700,-10066.800811,-2294.638420,1532.190996
888.784021,-9918.759623,-1998.556043,1072.533697
888.784342,-8956.491898,-1110.308913,-536.266849
888.784662,-7994.224174,888.247130,-1225.752797
888.784983,-9178.553681,1924.535449,536.266849
888.785304,-11251.130318,1184.329507,2911.162892
888.785625,-10658.965565,-814.226536,2298.286494
888.785946,-10066.800811,-1702.473667,842.705048
888.786267,-8882.471304,-1850.514855,-76.609550
888.786588,-9326.594869,-1628.453072,919.314598
888.786909,-9622.677246,-1480.411884,1302.362347
888.787229,-8882.471304,-962.267725,-306.438199
888.787550,-8512.368333,0.000000,-1149.143247
888.787871,-9178.553681,444.123565,153.219100
888.788192,-10658.965565,0.000000,2451.505594
888.788513,-11029.068536,-1110.308913,2528.115143
888.788834,-9252.574275,-1554.432478,1915.238745
888.789155,-8512.368333,-1036.288319,766.095498
888.789476,-8660.409521,0.000000,1455.581446
888.789796,-9844.739029,-1184.329507,2145.067394
888.790117,-9326.594869,-1480.411884,383.047749
888.790438,-8068.244768,0.000000,-612.876398
888.790759,-8734.430116,740.205942,153.219100
888.791080,-9992.780217,1036.288319,2451.505594
888.791401,-10658.965565,-370.102971,2987.772442
888.791722,-9918.759623,-1628.453072,1455.581446
888.792042,-8808.450710,-1554.432478,612.876398
888.792363,-9992.780217,-740.205942,1915.238745
888.792684,-10807.006753,-592.164754,2451.505594
888.793005,-10288.862594,-592.164754,1762.019645
888.793326,-9252.574275,-148.041188,306.438199
888.793647,-9400.615463,962.267725,153.219100
888.793968,-10510.924376,1184.329507,1915.238745
888.794289,-10510.924376,370.102971,3370.820191
888.794609,-10362.883188,-1258.350101,689.485948
888.794930,-8586.388927,-740.205942,-153.219100
888.795251,-8660.409521,74.020594,0.000000
888.795572,-9622.677246,0.000000,2757.943793
888.795893,-9696.697840,-222.061783,995.924147
888.796214,-9326.594869,0.000000,0.000000
888.796535,-9252.574275,592.164754,383.047749
888.796855,-10584.944971,814.226536,2604.724693
888.797176,-11177.109724,0.000000,3217.601092
888.797497,-10066.800811,-1184.329507,1378.971896
888.797818,-8956.491898,-962.267725,0.000000
888.798139,-8438.347739,-296.082377,306.438199
888.798460,-9252.574275,-740.205942,766.095498
888.798781,-9696.697840,-1332.370696,689.485948
888.799102,-8586.388927,-1554.432478,-1072.533697
888.799422,-8882.471304,-222.061783,-383.047749
888.799743,-9992.780217,740.205942,1378.971896
888.800064,-10955.047942,1036.288319,2757.943793
888.800385,-10732.986159,-518.144159,1838.629195
888.800706,-9030.512492,-962.267725,-153.219100
888.801027,-8956.491898,-592.164754,-306.438199
888.801348,-9844.739029,-296.082377,1455.581446
888.801669,-10288.862594,0.000000,1608.800546
888.801989,-9474.636058,-148.041188,153.219100
888.802310,-8808.450710,592.164754,0.000000
888.802631,-9104.533087,666.185348,919.314598
888.802952,-10881.027347,0.000000,2834.553343
888.803273,-10658.965565,-1628.453072,2451.505594
888.803594,-9474.636058,-1776.494261,306.438199
888.803915,-8882.471304,-962.267725,612.876398
888.804235,-8956.491898,-296.082377,766.095498
888.804556,-9918.759623,-666.185348,2145.067394
888.804877,-8882.471304,-888.247130,306.438199
888.805198,-8734.430116,-296.082377,-842.705048
888.805519,-9622.677246,518.144159,689.485948
888.805840,-10881.027347,222.061783,2911.162892
888.806161,-10807.006753,-296.082377,2681.334243
888.806482,-10066.800811,-888.247130,1685.410096
888.806802,-8438.347739,0.000000,919.314598
888.807123,-9030.512492,-370.102971,1838.629195
888.807444,-9770.718434,-370.102971,2451.505594
888.807765,-9326.594869,-888.247130,1149.143247
888.808086,-8586.388927,962.267725,153.219100
888.808407,-8956.491898,1554.432478,1378.971896
888.808728,-10510.924376,1628.453072,3140.991542
888.809049,-10955.047942,444.123565,3830.477490
888.809369,-10140.821405,-1184.329507,2298.286494
888.809690,-8808.450710,-1406.391290,612.876398
888.810011,-9178.553681,-1036.288319,689.485948
888.810332,-9474.636058,-740.205942,1455.581446
888.810653,-9178.553681,-740.205942,612.876398
888.810974,-8142.265362,74.020594,-1608.800546
888.811295,-8956.491898,888.247130,-306.438199
888.811615,-9844.739029,666.185348,995.924147
888.811936,-11325.150913,-148.041188,2604.724693
888.812257,-10807.006753,-2294.638420,2145.067394
888.812578,-9844.739029,-1850.514855,689.485948
888.812899,-8882.471304,-592.164754,1149.143247
888.813220,-9844.739029,-888.247130,1532.190996
888.813541,-8734.430116,148.041188,1225.752797
888.813862,-9400.615463,0.000000,0.000000
888.814182,-8586.388927,888.247130,-76.609550
888.814503,-9918.759623,740.205942,995.924147
888.814824,-10807.006753,-296.082377,2604.724693
888.815145,-10214.842000,-1702.473667,306.438199
888.815466,-9474.636058,-1184.329507,-689.485948
888.815787,-9474.636058,0.000000,0.000000
888.816108,-9992.780217,222.061783,1149.143247
888.816428,-10510.924376,296.082377,842.705048
888.816749,-10066.800811,-740.205942,0.000000
888.817070,-9104.533087,518.144159,-153.219100
888.817391,-10066.800811,1406.391290,1072.533697
888.817712,-10732.986159,888.247130,2374.896044
888.818033,-9844.739029,-370.102971,1838.629195
888.818354,-8364.327145,-1480.411884,0.000000
888.818675,-7550.100608,-518.144159,-383.047749
888.818995,-9474.636058,-518.144159,1225.752797
888.819316,-9474.636058,-1480.411884,2451.505594
888.819637,-9252.574275,-1184.329507,842.705048
888.819958,-8956.491898,-370.102971,0.000000
888.820279,-9548.656652,1036.288319,1302.362347
888.820600,-11103.089130,370.102971,3830.477490
888.820921,-11177.109724,-1184.329507,3524.039291
888.821242,-9548.656652,-2664.741391,689.485948
888.821562,-8660.409521,-2590.720797,-459.657299
888.821883,-8808.450710,-1924.535449,153.219100
888.822204,-9326.594869,-1406.391290,1608.800546
888.822525,-9252.574275,-888.247130,995.924147
888.822846,-8586.388927,222.061783,0.000000
888.823167,-9252.574275,962.267725,919.314598
888.823488,-10955.047942,1184.329507,2834.553343
888.823808,-11399.171507,-518.144159,3294.210641
888.824129,-10066.800811,-1480.411884,1685.410096
888.824450,-8882.471304,-1406.391290,306.438199
888.824771,-9104.533087,592.164754,0.000000
888.825092,-9474.636058,148.041188,1608.800546
888.825413,-9474.636058,-222.061783,1302.362347
888.825734,-9104.533087,-222.061783,-306.438199
888.826055,-9030.512492,148.041188,0.000000
888.826375,-10955.047942,148.041188,2068.457845
888.826696,-11177.109724,-1036.288319,3140.991542
888.827017,-10658.965565,-2368.659014,1532.190996
888.827338,-8438.347739,-1850.514855,229.828649
888.827659,-8808.450710,-888.247130,-306.438199
888.827980,-9400.615463,-888.247130,919.314598
888.828301,-9622.677246,-740.205942,612.876398
888.828621,-8882.471304,-370.102971,-689.485948
888.828942,-7772.162391,-518.144159,612.876398
888.829263,-10066.800811,888.247130,1378.971896
888.829584,-11473.192101,222.061783,3064.381992
888.829905,-10436.903782,-962.267725,2068.457845
888.830226,-9548.656652,-1036.288319,1302.362347
888.830547,-9178.553681,-1184.329507,0.000000
888.830867,-9326.594869,-444.123565,919.314598
888.831188,-10140.821405,-740.205942,689.485948
888.831509,-8660.409521,0.000000,-919.314598
888.831830,-8660.409521,1332.370696,-1072.533697
888.832151,-9696.697840,1184.329507,536.266849
888.832471,-10955.047942,740.205942,2298.286494
888.832792,-11177.109724,-962.267725,1838.629195
888.833113,-8956.491898,-1332.370696,1378.971896
888.833434,-8512.368333,-592.164754,153.219100
888.833755,-9622.677246,0.000000,1302.362347
888.834076,-9622.677246,0.000000,1532.190996
888.834396,-9178.553681,74.020594,306.438199
888.834717,-8290.306550,0.000000,-689.485948
888.835038,-8956.491898,888.247130,919.314598
888.835359,-10807.006753,222.061783,3064.381992
888.835680,-10881.027347,-740.205942,3064.381992
888.836001,-9918.759623,0.000000,1149.143247
888.836321,-8660.409521,-444.123565,1072.533697
888.836642,-9474.636058,-148.041188,1915.238745
888.836963,-9992.780217,-148.041188,2068.457845
888.837284,-9548.656652,-148.041188,842.705048
888.837605,-8512.368333,740.205942,-306.438199
888.837925,-9178.553681,1480.411884,612.876398
888.838246,-10214.842000,1184.329507,2221.676944
888.838567,-10584.944971,0.000000,2145.067394
888.838888,-9474.636058,-1702.473667,459.657299
888.839209,-8660.409521,-1110.308913,-306.438199
888.839530,-9104.533087,-740.205942,1225.752797
888.839850,-10140.821405,-592.164754,2374.896044
888.840171,-9696.697840,666.185348,2068.457845
888.840492,-9770.718434,-296.082377,842.705048
888.840813,-9030.512492,1036.288319,1455.581446
888.841134,-11029.068536,444.123565,2911.162892
888.841455,-11325.150913,-1036.288319,4136.915689
888.841775,-9918.759623,-666.185348,1762.019645
888.842096,-9400.615463,-888.247130,536.266849
888.842417,-8586.388927,148.041188,383.047749
888.842738,-9622.677246,0.000000,1149.143247
888.843059,-9474.636058,222.061783,842.705048
888.843380,-8586.388927,-444.123565,-229.828649
888.843700,-9178.553681,370.102971,0.000000
888.844021,-10436.903782,296.082377,1991.848295
888.844342,-11399.171507,-666.185348,3524.039291
888.844663,-10658.965565,-1332.370696,1991.848295
888.844984,-9474.636058,-1036.288319,995.924147
888.845304,-9178.553681,-296.082377,1225.752797
888.845625,-9696.697840,-148.041188,1225.752797
888.845946,-9992.780217,-592.164754,1225.752797
888.846267,-8438.347739,-1036.288319,-612.876398
888.846588,-7994.224174,-518.144159,-1455.581446
888.846909,-9474.636058,74.020594,459.657299
888.847229,-9622.677246,-370.102971,1532.190996
888.847550,-9918.759623,-814.226536,1072.533697
888.847871,-8956.491898,-1110.308913,306.438199
888.848192,-8586.388927,-888.247130,229.828649
888.848513,-10140.821405,-814.226536,1838.629195
888.848834,-9770.718434,-962.267725,1685.410096
888.849154,-9252.574275,-740.205942,383.047749
888.849475,-9104.533087,222.061783,-306.438199
888.849796,-9326.594869,1406.391290,1225.752797
888.850117,-11325.150913,518.144159,2757.943793
888.850438,-10436.903782,-1258.350101,2068.457845
888.850759,-9474.636058,-1850.514855,229.828649
888.851079,-8586.388927,-1480.411884,-383.047749
888.851400,-9326.594869,-296.082377,1072.533697
888.851721,-9992.780217,-740.205942,2068.457845
888.852042,-9400.615463,-592.164754,536.266849
888.852363,-8808.450710,148.041188,-689.485948
888.852683,-9326.594869,740.205942,536.266849
888.853004,-10955.047942,296.082377,2604.724693
888.853325,-11695.253884,-740.205942,3217.601092
888.853646,-9844.739029,-1258.350101,1915.238745
888.853967,-8808.450710,-740.205942,1455.581446
888.854288,-9474.636058,-1258.350101,1149.143247
888.854608,-9770.718434,-1258.350101,1455.581446
888.854929,-9326.594869,-1628.453072,459.657299
888.855250,-8660.409521,-592.164754,-842.705048
888.855571,-9178.553681,888.247130,0.000000
888.855892,-10807.006753,518.144159,2298.286494
888.856213,-11103.089130,-518.144159,3064.381992
888.856533,-10436.903782,-1406.391290,1685.410096
888.856854,-9030.512492,-1406.391290,-306.438199
888.857175,-8586.388927,-444.123565,229.828649
888.857496,-9622.677246,0.000000,1378.971896
888.857817,-9326.594869,518.144159,536.266849
888.858137,-9030.512492,-370.102971,383.047749
888.858458,-8364.327145,888.247130,-229.828649
888.858779,-9622.677246,1258.350101,919.314598
888.859100,-11177.109724,-222.061783,3064.381992
888.859421,-10066.800811,-1332.370696,2145.067394
888.859742,-9104.533087,-888.247130,766.095498
888.860062,-8956.491898,-888.247130,1072.533697
888.860383,-9252.574275,-740.205942,1532.190996
888.860704,-10066.800811,-1480.411884,1685.410096
888.861025,-9104.533087,-1480.411884,-229.828649
888.861346,-8882.471304,0.000000,306.438199
888.861667,-10436.903782,444.123565,1838.629195
888.861987,-11251.130318,0.000000,2834.553343
888.862308,-10732.986159,-1110.308913,306.438199
888.862629,-9622.677246,-814.226536,0.000000
888.862950,-8142.265362,-296.082377,-459.657299
888.863271,-9400.615463,-444.123565,459.657299
888.863592,-9622.677246,-1036.288319,919.314598
888.863912,-9030.512492,-1258.350101,-612.876398
888.864233,-8364.327145,148.041188,-919.314598
888.864554,-9696.697840,1776.494261,536.266849
888.864875,-10881.027347,2368.659014,2681.334243
888.865196,-11769.274478,1480.411884,3600.648841
888.865516,-10066.800811,814.226536,1915.238745
888.865837,-9400.615463,444.123565,919.314598
888.866158,-9696.697840,-222.061783,1455.581446
888.866479,-9030.512492,-1776.494261,2987.772442
888.866800,-9178.553681,-962.267725,612.876398
888.867121,-8142.265362,296.082377,0.000000
888.867441,-8882.471304,1776.494261,1225.752797
888.867762,-10510.924376,1332.370696,4519.963438
888.868083,-10584.944971,-518.144159,2604.724693
888.868404,-9252.574275,-1480.411884,766.095498
888.868725,-8586.388927,-1184.329507,383.047749
888.869046,-8882.471304,-962.267725,1225.752797
888.869366,-9622.677246,-1702.473667,1915.238745
888.869687,-9326.594869,-1850.514855,1149.143247
888.870008,-8142.265362,-740.205942,-536.266849
888.870329,-9030.512492,222.061783,459.657299
888.870650,-10066.800811,666.185348,3677.258390
888.870970,-11547.212695,-296.082377,3524.039291
888.871291,-9474.636058,-814.226536,1532.190996
888.871612,-8956.491898,-740.205942,1149.143247
888.871933,-9252.574275,-518.144159,1838.629195
888.872254,-9548.656652,-666.185348,2451.505594
888.872575,-9474.636058,-592.164754,1378.971896
888.872895,-7772.162391,1406.391290,0.000000
888.873216,-9474.636058,1480.411884,0.000000
888.873537,-10214.842000,2442.679609,2604.724693
888.873858,-11325.150913,74.020594,2528.115143
888.874179,-10140.821405,-2072.576638,689.485948
888.874500,-8882.471304,-1702.473667,-459.657299
888.874820,-8512.368333,-1406.391290,536.266849
888.875141,-9844.739029,-1110.308913,1149.143247
888.875462,-10288.862594,-1480.411884,919.314598
888.875783,-8956.491898,-1480.411884,-995.924147
888.876104,-8956.491898,-296.082377,-1225.752797
888.876425,-10658.965565,1110.308913,1378.971896
888.876745,-11251.130318,148.041188,3294.210641
888.877066,-10807.006753,-814.226536,2221.676944
888.877387,-9252.574275,-518.144159,766.095498
888.877708,-8068.244768,-666.185348,536.266849
888.878029,-9696.697840,-518.144159,1915.238745
888.878349,-9548.656652,-888.247130,1762.019645
888.878670,-8956.491898,-814.226536,-229.828649
888.878991,-7550.100608,0.000000,-612.876398
888.879312,-9548.656652,518.144159,1072.533697
888.879633,-11103.089130,296.082377,2681.334243
888.879954,-11103.089130,-1776.494261,1378.971896
888.880274,-9030.512492,-1924.535449,-536.266849
888.880595,-9178.553681,-740.205942,-919.314598
888.880916,-10066.800811,-296.082377,612.876398
888.881237,-10510.924376,-962.267725,1991.848295
888.881558,-9770.718434,-1036.288319,919.314598
888.881879,-9104.533087,-1480.411884,229.828649
888.882199,-9770.718434,74.020594,1838.629195
888.882520,-10658.965565,-518.144159,2681.334243
888.882841,-9548.656652,-592.164754,1762.019645
888.883162,-8808.450710,-148.041188,-1455.581446
888.883483,-7179.997637,518.144159,-1378.971896
888.883803,-8142.265362,888.247130,76.609550
888.884124,-9622.677246,592.164754,1991.848295
888.884445,-9474.636058,-888.247130,919.314598
888.884766,-8660.409521,-888.247130,-153.219100
888.885087,-10288.862594,222.061783,1532.190996
888.885408,-11103.089130,-814.226536,2987.772442
888.885728,-11399.171507,-1036.288319,3600.648841
888.886049,-9918.759623,-1554.432478,1302.362347
888.886370,-8438.347739,-592.164754,0.000000
888.886691,-9104.533087,0.000000,459.657299
888.887012,-9400.615463,-592.164754,1378.971896
888.887333,-8660.409521,-1184.329507,1149.143247
888.887653,-8586.388927,-2294.638420,-612.876398
888.887974,-8586.388927,-962.267725,0.000000
888.888295,-10288.862594,-444.123565,2681.334243
888.888616,-11621.233289,-888.247130,4749.792088
888.888937,-10066.800811,-888.247130,2681.334243
888.889258,-9178.553681,-444.123565,995.924147
888.889578,-9104.533087,222.061783,919.314598
888.889899,-9696.697840,74.020594,1915.238745
888.890220,-9252.574275,-1332.370696,919.314598
888.890541,-8438.347739,-1184.329507,-842.705048
888.890862,-8586.388927,0.000000,-306.438199
888.891182,-9918.759623,518.144159,1455.581446
888.891503,-11103.089130,666.185348,3447.429741
888.891824,-10881.027347,-370.102971,1838.629195
888.892145,-9622.677246,-148.041188,76.609550
888.892466,-9104.533087,518.144159,229.828649
888.892787,-9696.697840,518.144159,1455.581446
888.893107,-9992.780217,-296.082377,1378.971896
888.893428,-8882.471304,-888.247130,-306.438199
888.893749,-8290.306550,222.061783,-842.705048
888.894070,-9992.780217,1480.411884,536.266849
888.894391,-11251.130318,1036.288319,3064.381992
888.894712,-10881.027347,222.061783,2528.115143
888.895032,-9622.677246,0.000000,1225.752797
888.895353,-8808.450710,518.144159,919.314598
888.895674,-9918.759623,1110.308913,1838.629195
888.895995,-10362.883188,-370.102971,1915.238745
888.896316,-9030.512492,-444.123565,383.047749
888.896637,-8512.368333,370.102971,-229.828649
888.896957,-9178.553681,1628.453072,-306.438199
888.897278,-11325.150913,1184.329507,3370.820191
888.897599,-10807.006753,0.000000,2374.896044
888.897920,-9252.574275,-518.144159,459.657299
888.898241,-8290.306550,444.123565,-306.438199
888.898561,-9474.636058,296.082377,995.924147
888.898882,-9696.697840,-296.082377,1455.581446
888.899203,-8956.491898,-888.247130,0.000000
888.899524,-7772.162391,-1184.329507,-1149.143247
888.899845,-9104.533087,-518.144159,-229.828649
888.900166,-10732.986159,148.041188,2451.505594
888.900486,-11177.109724,-296.082377,3294.210641
888.900807,-9770.718434,-888.247130,1915.238745
888.901128,-8216.285956,-148.041188,2911.162892
888.901449,-9918.759623,-888.247130,3064.381992
888.901770,-9622.677246,-1998.556043,1532.190996
888.902091,-7994.224174,-1110.308913,383.047749
888.902411,-9622.677246,518.144159,-306.438199
888.902732,-8290.306550,2664.741391,1225.752797
888.903053,-10510.924376,1776.494261,2757.943793
888.903374,-11695.253884,888.247130,3907.087040
888.903695,-9178.553681,-1776.494261,76.609550
888.904015,-10214.842000,-1332.370696,536.266849
888.904336,-8808.450710,-370.102971,919.314598
888.904657,-10140.821405,-370.102971,1225.752797
888.904978,-9400.615463,-1036.288319,842.705048
888.905299,-7624.121203,-2442.679609,-2451.505594
888.905620,-8142.265362,-814.226536,-2451.505594
888.905940,-10732.986159,74.020594,766.095498
888.906261,-10510.924376,-296.082377,1991.848295
888.906582,-10510.924376,-1332.370696,1455.581446
888.906903,-9622.677246,-2072.576638,383.047749
888.907224,-8808.450710,-1480.411884,842.705048
888.907545,-10362.883188,-2220.617826,2451.505594
888.907865,-10140.821405,-2072.576638,2757.943793
888.908186,-9622.677246,-2072.576638,1072.533697
888.908507,-8882.471304,-592.164754,1072.533697
888.908828,-10362.883188,148.041188,2528.115143
888.909149,-10288.862594,222.061783,3140.991542
888.909470,-10140.821405,-1332.370696,1685.410096
888.909790,-8882.471304,-444.123565,842.705048
888.910111,-8438.347739,-296.082377,229.828649
888.910432,-9400.615463,-1258.350101,1838.629195
888.910753,-9918.759623,-1924.535449,1685.410096
888.911074,-8734.430116,-1850.514855,0.000000
888.911394,-9252.574275,-740.205942,-229.828649
888.911715,-9770.718434,666.185348,1302.362347
888.912036,-10658.965565,1110.308913,2451.505594
888.912357,-11029.068536,-370.102971,2834.553343
888.912678,-8808.450710,-888.247130,0.000000
888.912999,-8512.368333,-1258.350101,-842.705048
888.913319,-8808.450710,-1184.329507,536.266849
888.913640,-9326.594869,-1110.308913,2374.896044
888.913961,-9178.553681,-1110.308913,153.219100
888.914282,-9030.512492,-444.123565,383.047749
888.914603,-9770.718434,0.000000,1762.019645
888.914924,-11103.089130,148.041188,4903.011187
888.915244,-11695.253884,-1332.370696,3064.381992
888.915565,-9918.759623,-1702.473667,919.314598
888.915886,-8956.491898,-1332.370696,-229.828649
888.916207,-9030.512492,-370.102971,153.219100
888.916528,-9326.594869,-444.123565,153.219100
888.916848,-9104.533087,-740.205942,-842.705048
888.917169,-8586.388927,-296.082377,-1302.362347
888.917490,-9326.594869,148.041188,-383.047749
888.917811,-10288.862594,1258.350101,1991.848295
888.918132,-11769.274478,-74.020594,3064.381992
888.918453,-10140.821405,-222.061783,2068.457845
888.918773,-9770.718434,0.000000,1225.752797
888.919094,-9474.636058,296.082377,1762.019645
888.919415,-9770.718434,-296.082377,1915.238745
888.919736,-9252.574275,-592.164754,766.095498
888.920057,-8216.285956,0.000000,-995.924147
888.920378,-8956.491898,1554.432478,0.000000
888.920698,-9622.677246,1998.556043,2451.505594
888.921019,-11103.089130,1258.350101,2987.772442
888.921340,-9696.697840,518.144159,1608.800546
888.921661,-9622.677246,-666.185348,76.609550
888.921982,-8364.327145,-666.185348,1685.410096
888.922303,-9770.718434,-962.267725,1302.362347
888.922623,-9622.677246,-1036.288319,842.705048
888.922944,-8660.409521,-666.185348,-306.438199
888.923265,-8586.388927,74.020594,-1762.019645
888.923586,-10066.800811,1036.288319,1685.410096
888.923907,-10881.027347,666.185348,2987.772442
888.924227,-10658.965565,0.000000,2681.334243
888.924548,-9474.636058,0.000000,1685.410096
888.924869,-8808.450710,74.020594,995.924147
888.925190,-9696.697840,296.082377,2298.286494
888.925511,-9252.574275,222.061783,1915.238745
888.925832,-8586.388927,148.041188,229.828649
888.926152,-8142.265362,1776.494261,842.705048
888.926473,-9844.739029,2146.597232,2145.067394
888.926794,-10732.986159,1628.453072,3524.039291
888.927115,-11177.109724,148.041188,2911.162892
888.927436,-9992.780217,148.041188,2221.676944
888.927757,-9326.594869,-370.102971,842.705048
888.928077,-10214.842000,-444.123565,1991.848295
888.928398,-10066.800811,-962.267725,1915.238745
888.928719,-8808.450710,0.000000,0.000000
888.929040,-9178.553681,0.000000,-612.876398
888.929361,-8364.327145,1184.329507,153.219100
888.929681,-11177.109724,592.164754,2451.505594
888.930002,-10066.800811,-1036.288319,1915.238745
888.930323,-8808.450710,-2812.782580,-536.266849
888.930644,-8364.327145,-2146.597232,76.609550
888.930965,-9030.512492,-1776.494261,612.876398
888.931286,-9252.574275,-1628.453072,1685.410096
888.931606,-8956.491898,74.020594,1149.143247
888.931927,-8734.430116,0.000000,-919.314598
888.932248,-9030.512492,592.164754,0.000000
888.932569,-9918.759623,222.061783,1762.019645
888.932889,-10510.924376,-1036.288319,2068.457845
888.933210,-9474.636058,-2072.576638,153.219100
888.933530,-8808.450710,-1628.453072,-459.657299
888.933851,-9474.636058,0.000000,612.876398
888.934172,-9992.780217,-518.144159,2145.067394
888.934492,-10658.965565,-1110.308913,536.266849
888.934813,-8216.285956,-1332.370696,-383.047749
888.935134,-8956.491898,-592.164754,-842.705048
888.935454,-9992.780217,888.247130,1762.019645
888.935775,-11399.171507,74.020594,3370.820191
888.936096,-9844.739029,-1184.329507,1915.238745
888.936416,-8808.450710,-962.267725,459.657299
888.936737,-9252.574275,-444.123565,612.876398
888.937057,-10066.800811,-592.164754,1838.629195
888.937378,-9844.739029,-1258.350101,1302.362347
888.937699,-9474.636058,-74.020594,536.266849
888.938019,-9104.533087,1036.288319,612.876398
888.938340,-10881.027347,740.205942,2298.286494
888.938661,-11325.150913,-592.164754,2757.943793
888.938981,-10066.800811,-2294.638420,1608.800546
888.939302,-9326.594869,-1924.535449,0.000000
888.939622,-8660.409521,-296.082377,459.657299
888.939943,-9696.697840,0.000000,1685.410096
888.940264,-9622.677246,-814.226536,1608.800546
888.940584,-9030.512492,-1184.329507,-306.438199
888.940905,-9178.553681,-444.123565,0.000000
888.941226,-9992.780217,-592.164754,2145.067394
888.941546,-11251.130318,-814.226536,3524.039291
888.941867,-10807.006753,-1480.411884,2298.286494
888.942188,-9030.512492,-962.267725,306.438199
888.942508,-8586.388927,0.000000,153.219100
888.942829,-9400.615463,-370.102971,1302.362347
888.943149,-9178.553681,-1406.391290,612.876398
888.943470,-8882.471304,-1554.432478,-229.828649
888.943791,-8290.306550,-888.247130,-919.314598
888.944111,-9474.636058,-148.041188,1149.143247
888.944432,-10881.027347,-592.164754,3370.820191
888.944753,-10807.006753,-296.082377,2604.724693
888.945073,-9622.677246,0.000000,689.485948
888.945394,-9178.553681,518.144159,76.609550
888.945715,-9178.553681,1036.288319,995.924147
888.946035,-9548.656652,0.000000,306.438199
888.946356,-8660.409521,-296.082377,-536.266849
888.946676,-8438.347739,-444.123565,-1225.752797
888.946997,-9178.553681,296.082377,0.000000
888.947318,-10732.986159,1332.370696,1608.800546
888.947638,-11399.171507,814.226536,2298.286494
888.947959,-10584.944971,888.247130,1302.362347
888.948280,-9622.677246,444.123565,766.095498
888.948600,-9474.636058,0.000000,995.924147
888.948921,-9770.718434,-740.205942,536.266849
888.949242,-9474.636058,-1406.391290,383.047749
888.949562,-8586.388927,-666.185348,-306.438199
888.949883,-9178.553681,814.226536,919.314598
888.950203,-10658.965565,1554.432478,2834.553343
888.950524,-10510.924376,0.000000,3140.991542
888.950845,-10066.800811,-814.226536,1455.581446
888.951165,-9400.615463,-592.164754,612.876398
888.951486,-9474.636058,-444.123565,1149.143247
888.951807,-9696.697840,-74.020594,1991.848295
888.952127,-9400.615463,-518.144159,1225.752797
888.952448,-8882.471304,0.000000,-306.438199
888.952768,-9252.574275,666.185348,536.266849
888.953089,-10362.883188,444.123565,2221.676944
888.953410,-10362.883188,-370.102971,2528.115143
888.953730,-9770.718434,-1628.453072,1608.800546
888.954051,-9400.615463,-1036.288319,1149.143247
888.954372,-9474.636058,-370.102971,919.314598
888.954692,-9770.718434,-148.041188,3753.867940
888.955013,-9622.677246,-814.226536,1685.410096
888.955334,-8586.388927,-296.082377,-383.047749
888.955654,-9178.553681,518.144159,459.657299
888.955975,-10214.842000,888.247130,2298.286494
888.956295,-10732.986159,222.061783,2681.334243
888.956616,-10066.800811,-1110.308913,1455.581446
888.956937,-9252.574275,-962.267725,0.000000
888.957257,-9326.594869,-148.041188,76.609550
888.957578,-9622.677246,-222.061783,1532.190996
888.957899,-9252.574275,-962.267725,842.705048
888.958219,-8512.368333,-1406.391290,-612.876398
888.958540,-8956.491898,-814.226536,-612.876398
888.958861,-10288.862594,740.205942,919.314598
888.959181,-10214.842000,592.164754,3370.820191
888.959502,-10955.047942,0.000000,2451.505594
888.959822,-9474.636058,-740.205942,1225.752797
888.960143,-9030.512492,-962.267725,0.000000
888.960464,-9474.636058,-1110.308913,1072.533697
888.960784,-9030.512492,-1480.411884,1455.581446
888.961105,-9030.512492,-1998.556043,0.000000
888.961426,-8660.409521,-888.247130,-459.657299
888.961746,-9548.656652,370.102971,1532.190996
888.962067,-11177.109724,0.000000,3677.258390
888.962387,-11103.089130,-1036.288319,3600.648841
888.962708,-9696.697840,-1776.494261,1149.143247
888.963029,-8734.430116,-1554.432478,-229.828649
888.963349,-7698.141797,-740.205942,-306.438199
888.963670,-9696.697840,-370.102971,1149.143247
888.963991,-9400.615463,-814.226536,0.000000
888.964311,-8882.471304,-444.123565,-766.095498
888.964632,-9844.739029,444.123565,766.095498
888.964953,-11325.150913,814.226536,2987.772442
888.965273,-11695.253884,0.000000,3907.087040
888.965594,-10140.821405,-444.123565,2604.724693
888.965914,-8734.430116,-814.226536,612.876398
888.966235,-8956.491898,-888.247130,689.485948
888.966556,-8438.347739,-518.144159,995.924147
888.966876,-8956.491898,-1110.308913,0.000000
888.967197,-7624.121203,0.000000,-689.485948
888.967518,-7920.203579,2146.597232,-306.438199
888.967838,-11029.068536,1110.308913,3370.820191
888.968159,-11399.171507,-740.205942,3677.258390
888.968480,-10881.027347,-1924.535449,2298.286494
888.968800,-9918.759623,-1554.432478,1225.752797
888.969121,-8734.430116,-296.082377,689.485948
888.969441,-9770.718434,-666.185348,2221.676944
888.969762,-8956.491898,-1110.308913,766.095498
888.970083,-8068.244768,-518.144159,-1532.190996
888.970403,-8734.430116,222.061783,-383.047749
888.970724,-9844.739029,1036.288319,1225.752797
888.971045,-11473.192101,444.123565,2987.772442
888.971365,-11399.171507,0.000000,2604.724693
888.971686,-9030.512492,-592.164754,459.657299
888.972007,-9400.615463,-1110.308913,1149.143247
888.972327,-9474.636058,-592.164754,1302.362347
888.972648,-9622.677246,-1332.370696,76.609550
888.972968,-8290.306550,0.000000,-919.314598
888.973289,-7772.162391,1184.329507,-1072.533697
888.973610,-9252.574275,2294.638420,306.438199
888.973930,-10584.944971,592.164754,1685.410096
888.974251,-10658.965565,-888.247130,1302.362347
888.974572,-9400.615463,-1258.350101,76.609550
888.974892,-9770.718434,-1406.391290,689.485948
888.975213,-10584.944971,-1258.350101,2528.115143
888.975533,-10140.821405,-2220.617826,1685.410096
888.975854,-9252.574275,-1406.391290,-383.047749
888.976175,-8512.368333,-296.082377,-1072.533697
888.976495,-9622.677246,1036.288319,612.876398
888.976816,-10510.924376,888.247130,2757.943793
888.977137,-10436.903782,-148.041188,2451.505594
888.977457,-9326.594869,-1628.453072,689.485948
888.977778,-8734.430116,-1480.411884,383.047749
888.978099,-9770.718434,-888.247130,1302.362347
888.978419,-9770.718434,-592.164754,2145.067394
888.978740,-9474.636058,-814.226536,1608.800546
888.979060,-8660.409521,148.041188,0.000000
888.979381,-9474.636058,592.164754,459.657299
888.979702,-10881.027347,370.102971,2528.115143
888.980022,-11029.068536,-962.267725,2681.334243
888.980343,-9474.636058,-1332.370696,689.485948
888.980664,-8956.491898,-518.144159,-306.438199
888.980984,-8956.491898,296.082377,536.266849
888.981305,-9844.739029,222.061783,2221.676944
888.981626,-9474.636058,-740.205942,766.095498
888.981946,-8586.388927,-1036.288319,-306.438199
888.982267,-9104.533087,-222.061783,153.219100
888.982587,-10807.006753,74.020594,2528.115143
888.982908,-10658.965565,0.000000,3064.381992
888.983229,-10584.944971,-370.102971,2528.115143
888.983549,-8808.450710,-666.185348,536.266849
888.983870,-8734.430116,-592.164754,612.876398
888.984191,-9474.636058,-1258.350101,1149.143247
888.984511,-9326.594869,-1406.391290,689.485948
888.984832,-8512.368333,0.000000,-842.705048
888.985152,-9326.594869,1184.329507,306.438199
888.985473,-10362.883188,1258.350101,1915.238745
888.985794,-11103.089130,148.041188,2298.286494
888.986114,-10584.944971,-962.267725,1149.143247
888.986435,-9104.533087,-814.226536,0.000000
888.986756,-9400.615463,-296.082377,0.000000
888.987076,-9770.718434,592.164754,1762.019645
888.987397,-9918.759623,444.123565,1149.143247
888.987718,-8882.471304,740.205942,153.219100
888.988038,-9474.636058,1406.391290,0.000000
888.988359,-9844.739029,1258.350101,1455.581446
888.988679,-10732.986159,444.123565,2911.162892
888.989000,-10362.883188,-444.123565,2451.505594
888.989321,-8882.471304,-1036.288319,459.657299
888.989641,-9326.594869,-370.102971,536.266849
888.989962,-9918.759623,0.000000,1455.581446
888.990283,-9474.636058,0.000000,2834.553343
888.990603,-9400.615463,-1110.308913,229.828649
888.990924,-8808.450710,74.020594,306.438199
888.991245,-9844.739029,1184.329507,1225.752797
888.991565,-10658.965565,0.000000,3370.820191
888.991886,-10510.924376,-1850.514855,1838.629195
888.992206,-8364.327145,-2072.576638,229.828649
888.992527,-8660.409521,-2738.761985,-306.438199
888.992848,-8512.368333,-296.082377,1762.019645
888.993168,-10214.842000,-1258.350101,2911.162892
888.993489,-9252.574275,-222.061783,1762.019645
888.993810,-9474.636058,222.061783,1762.019645
888.994130,-9844.739029,1184.329507,2681.334243
888.994451,-12139.377449,1850.514855,6894.859482
888.994772,-11177.109724,-814.226536,3600.648841
888.995092,-9252.574275,-1702.473667,1149.143247
888.995413,-8364.327145,-296.082377,-536.266849
888.995733,-7994.224174,444.123565,-76.609550
888.996054,-8068.244768,592.164754,229.828649
888.996375,-8364.327145,296.082377,-1149.143247
888.996695,-8142.265362,222.061783,-2068.457845
888.997016,-9622.677246,1110.308913,0.000000
888.997337,-11621.233289,148.041188,2987.772442
888.997657,-11843.295072,-1036.288319,3677.258390
888.997978,-11103.089130,-2072.576638,1685.410096
888.998298,-9326.594869,-1554.432478,229.828649
888.998619,-8956.491898,0.000000,919.314598
888.998940,-9622.677246,-518.144159,612.876398
888.999260,-8956.491898,-518.144159,-919.314598
888.999581,-8364.327145,0.000000,-2451.505594
888.999902,-8956.491898,1036.288319,-1149.143247
889.000222,-10362.883188,1184.329507,1378.971896
889.000543,-11621.233289,296.082377,2757.943793
889.000864,-11177.109724,-1406.391290,2145.067394
889.001184,-9474.636058,-1776.494261,766.095498
889.001505,-9474.636058,-1702.473667,1455.581446
889.001825,-9918.759623,-1036.288319,1838.629195
889.002146,-9548.656652,-962.267725,536.266849
889.002467,-8364.327145,296.082377,-689.485948
889.002787,-8142.265362,592.164754,-842.705048
889.003108,-9548.656652,814.226536,1302.362347
889.003429,-11251.130318,-740.205942,2298.286494
889.003749,-10510.924376,-2294.638420,1608.800546
889.004070,-9326.594869,-2368.659014,153.219100
889.004391,-9474.636058,-1332.370696,536.266849
889.004711,-9844.739029,-518.144159,1838.629195
889.005032,-9770.718434,-518.144159,1685.410096
889.005352,-8882.471304,-1110.308913,0.000000
889.005673,-8660.409521,0.000000,-1378.971896
889.005994,-9252.574275,148.041188,536.266849
889.006314,-10807.006753,0.000000,2451.505594
889.006635,-10436.903782,-740.205942,2757.943793
889.006956,-8142.265362,-1924.535449,2298.286494
889.007276,-8808.450710,-888.247130,766.095498
889.007597,-9622.677246,-148.041188,2374.896044
889.007918,-9918.759623,-1110.308913,2451.505594
889.008238,-8882.471304,-1036.288319,1302.362347
889.008559,-8364.327145,0.000000,459.657299
889.008879,-8882.471304,518.144159,919.314598
889.009200,-10140.821405,666.185348,3064.381992
889.009521,-10510.924376,-666.185348,2145.067394
889.009841,-9400.615463,-888.247130,153.219100
889.010162,-9400.615463,-740.205942,842.705048
889.010483,-9474.636058,-444.123565,1838.629195
889.010803,-10362.883188,-962.267725,2374.896044
889.011124,-9474.636058,-962.267725,153.219100
889.011444,-8438.347739,0.000000,-689.485948
889.011765,-9474.636058,1480.411884,306.438199
889.012086,-9992.780217,1776.494261,2987.772442
889.012406,-11029.068536,814.226536,3370.820191
889.012727,-10140.821405,-296.082377,1991.848295
889.013048,-9252.574275,-888.247130,306.438199
889.013368,-9770.718434,-444.123565,1455.581446
889.013689,-9844.739029,-444.123565,1991.848295
889.014010,-9770.718434,-592.164754,689.485948
889.014330,-8956.491898,592.164754,-229.828649
889.014651,-8586.388927,1924.535449,-306.438199
889.014971,-10436.903782,1998.556043,1991.848295
889.015292,-11325.150913,888.247130,1685.410096
889.015613,-10214.842000,-296.082377,842.705048
889.015933,-9030.512492,-592.164754,-995.924147
889.016254,-9400.615463,370.102971,229.828649
889.016575,-9622.677246,666.185348,1378.971896
889.016895,-10066.800811,0.000000,842.705048
889.017216,-8956.491898,-148.041188,-919.314598
889.017537,-9178.553681,740.205942,-1149.143247
889.017857,-10214.842000,1406.391290,1685.410096
889.018178,-11177.109724,444.123565,2298.286494
889.018498,-9844.739029,-296.082377,1991.848295
889.018819,-9030.512492,-1406.391290,766.095498
889.019140,-8290.306550,-1184.329507,612.876398
889.019460,-9474.636058,-1036.288319,1072.533697
889.019781,-9474.636058,-814.226536,1838.629195
889.020102,-8586.388927,-222.061783,229.828649
889.020422,-8142.265362,1036.288319,536.266849
889.020743,-10066.800811,1110.308913,1838.629195
889.021063,-10732.986159,444.123565,2834.553343
889.021384,-10288.862594,-1480.411884,1608.800546
889.021705,-8956.491898,-1480.411884,0.000000
889.022025,-8586.388927,-222.061783,0.000000
889.022346,-9326.594869,0.000000,1685.410096
889.022667,-9622.677246,-444.123565,1608.800546
889.022987,-9474.636058,-814.226536,0.000000
889.023308,-8586.388927,-592.164754,0.000000
889.023629,-9696.697840,518.144159,2681.334243
889.023949,-11843.295072,-592.164754,3830.477490
889.024270,-11103.089130,-2072.576638,3217.601092
889.024590,-9252.574275,-2294.638420,1072.533697
889.024911,-8364.327145,-1406.391290,689.485948
889.025232,-9104.533087,-888.247130,1762.019645
889.025552,-9474.636058,-740.205942,2068.457845
889.025873,-9252.574275,-1110.308913,536.266849
889.026194,-8364.327145,-444.123565,-229.828649
889.026514,-9622.677246,148.041188,1838.629195
889.026835,-11103.089130,-444.123565,2911.162892
889.027156,-11251.130318,-1554.432478,3140.991542
889.027476,-10066.800811,-1998.556043,1149.143247
889.027797,-8882.471304,-1628.453072,0.000000
889.028117,-9474.636058,-888.247130,459.657299
889.028438,-9844.739029,-592.164754,1149.143247
889.028759,-9548.656652,-1332.370696,0.000000
889.029079,-8660.409521,-740.205942,-1225.752797
889.029400,-9252.574275,-148.041188,-459.657299
889.029721,-10214.842000,-592.164754,1685.410096
889.030041,-11177.109724,-1036.288319,3140.991542
889.030362,-10807.006753,-1776.494261,1838.629195
889.030683,-8808.450710,-370.102971,1685.410096
889.031003,-10140.821405,0.000000,1685.410096
889.031324,-10066.800811,74.020594,1915.238745
889.031644,-9548.656652,0.000000,1072.533697
889.031965,-8216.285956,0.000000,-2528.115143
889.032286,-7550.100608,370.102971,-1685.410096
889.032606,-9178.553681,740.205942,0.000000
889.032927,-10807.006753,222.061783,1762.019645
889.033248,-9622.677246,-1406.391290,612.876398
889.033568,-9252.574275,-666.185348,306.438199
889.033889,-9474.636058,-592.164754,612.876398
889.034209,-9770.718434,-666.185348,1532.190996
889.034530,-10140.821405,-296.082377,1302.362347
889.034851,-9474.636058,-444.123565,1915.238745
889.035171,-8956.491898,518.144159,1302.362347
889.035492,-10436.903782,-1110.308913,919.314598
889.035813,-9030.512492,74.020594,2451.505594
889.036133,-10955.047942,-1184.329507,1302.362347
889.036454,-8438.347739,222.061783,1685.410096
889.036774,-8660.409521,222.061783,919.314598
889.037095,-10584.944971,1332.370696,3140.991542
889.037416,-9252.574275,-370.102971,995.924147
889.037736,-9252.574275,-148.041188,1149.143247
889.038057,-8956.491898,148.041188,1225.752797
889.038378,-9474.636058,888.247130,1149.143247
889.038698,-11177.109724,1776.494261,3600.648841
889.039019,-10807.006753,666.185348,2145.067394
889.039339,-8956.491898,518.144159,-306.438199
889.039660,-9622.677246,666.185348,536.266849
889.039981,-8586.388927,-222.061783,229.828649
889.040301,-9474.636058,-1110.308913,153.219100
889.040622,-9400.615463,-1184.329507,-766.095498
889.040943,-7846.182985,-296.082377,-1455.581446
889.041263,-9474.636058,1332.370696,766.095498
889.041584,-11473.192101,1850.514855,3753.867940
889.041904,-11399.171507,296.082377,3677.258390
889.042225,-10881.027347,-592.164754,2528.115143
889.042546,-9548.656652,-666.185348,1991.848295
889.042866,-10510.924376,-1184.329507,2298.286494
889.043187,-9548.656652,-1480.411884,1532.190996
889.043508,-9252.574275,148.041188,612.876398
889.043828,-7846.182985,1776.494261,-995.924147
889.044149,-8660.409521,2368.659014,0.000000
889.044470,-10510.924376,1998.556043,2221.676944
889.044790,-10807.006753,370.102971,2451.505594
889.045111,-10362.883188,-962.267725,536.266849
889.045431,-9474.636058,-444.123565,536.266849
889.045752,-8882.471304,-370.102971,1149.143247
889.046073,-9474.636058,-1628.453072,1302.362347
889.046393,-9548.656652,-1702.473667,995.924147
889.046714,-8216.285956,-2368.659014,-1378.971896
889.047035,-8956.491898,-1702.473667,-919.314598
889.047355,-9548.656652,-592.164754,2221.676944
889.047676,-10584.944971,-370.102971,1915.238745
889.047996,-10140.821405,-592.164754,1762.019645
889.048317,-8882.471304,-1480.411884,229.828649
889.048638,-8734.430116,-1924.535449,919.314598
889.048958,-9770.718434,-2960.823768,1608.800546
889.049279,-9474.636058,-1924.535449,1378.971896
889.049600,-9326.594869,-962.267725,459.657299
889.049920,-8882.471304,1554.432478,612.876398
889.050241,-10436.903782,2072.576638,3140.991542
889.050561,-11399.171507,-444.123565,3447.429741
889.050882,-9992.780217,-1406.391290,1838.629195
889.051203,-9104.533087,-2812.782580,-383.047749
889.051523,-7254.018232,-1332.370696,0.000000
889.051844,-9474.636058,-962.267725,995.924147
889.052165,-9252.574275,-444.123565,1072.533697
889.052485,-8882.471304,-444.123565,229.828649
889.052806,-9030.512492,0.000000,76.609550
889.053126,-10288.862594,740.205942,2068.457845
889.053447,-12139.377449,-148.041188,3600.648841
889.053768,-11695.253884,-1184.329507,3753.867940
889.054088,-9770.718434,-1406.391290,1608.800546
889.054409,-9104.533087,-1110.308913,689.485948
889.054730,-9252.574275,-666.185348,1225.752797
889.055050,-9474.636058,-592.164754,995.924147
889.055371,-9178.553681,0.000000,-153.219100
889.055691,-9030.512492,1850.514855,-995.924147
889.056012,-9770.718434,2072.576638,1225.752797
889.056333,-11325.150913,962.267725,2987.772442
889.056653,-10881.027347,-740.205942,2451.505594
889.056974,-9770.718434,-2516.700203,76.609550
889.057295,-8956.491898,-1406.391290,-306.438199
889.057615,-9400.615463,-444.123565,1072.533697
889.057936,-9992.780217,-740.205942,2451.505594
889.058257,-9104.533087,-666.185348,536.266849
889.058577,-8882.471304,-444.123565,-842.705048
889.058898,-9178.553681,296.082377,306.438199
889.059218,-10658.965565,-148.041188,2528.115143
889.059539,-11325.150913,-814.226536,3524.039291
889.059860,-9474.636058,-962.267725,1302.362347
889.060180,-8882.471304,-888.247130,612.876398
889.060501,-9474.636058,0.000000,1302.362347
889.060822,-9474.636058,740.205942,1838.629195
889.061142,-9178.553681,518.144159,229.828649
889.061463,-7846.182985,1110.308913,-1072.533697
889.061783,-8290.306550,1554.432478,-612.876398
889.062104,-9844.739029,740.205942,1455.581446
889.062425,-11103.089130,-888.247130,2451.505594
889.062745,-9178.553681,-2072.576638,1455.581446
889.063066,-9030.512492,-1258.350101,-536.266849
889.063387,-9400.615463,0.000000,612.876398
889.063707,-9770.718434,0.000000,1685.410096
889.064028,-9548.656652,-740.205942,1225.752797
889.064348,-8956.491898,-444.123565,-1455.581446
889.064669,-8586.388927,0.000000,-1225.752797
889.064990,-10807.006753,222.061783,1378.971896
889.065310,-10807.006753,0.000000,2834.553343
889.065631,-10510.924376,-1184.329507,1762.019645
889.065952,-8734.430116,-592.164754,995.924147
889.066272,-9326.594869,-370.102971,612.876398
889.066593,-9622.677246,0.000000,1685.410096
889.066913,-9770.718434,-296.082377,1838.629195
889.067234,-8512.368333,0.000000,459.657299
889.067555,-8438.347739,962.267725,459.657299
889.067875,-10214.842000,592.164754,1991.848295
889.068196,-10881.027347,1110.308913,3753.867940
889.068517,-10658.965565,-592.164754,2145.067394
889.068837,-9474.636058,-814.226536,995.924147
889.069158,-8808.450710,-444.123565,536.266849
889.069478,-9844.739029,-740.205942,1302.362347
889.069799,-9622.677246,-814.226536,1072.533697
889.070120,-8956.491898,-740.205942,229.828649
889.070440,-8956.491898,-222.061783,0.000000
889.070761,-9696.697840,222.061783,1378.971896
889.071082,-10732.986159,814.226536,3524.039291
889.071402,-10658.965565,-888.247130,3140.991542
889.071723,-9622.677246,-962.267725,1915.238745
889.072044,-9178.553681,-1036.288319,1302.362347
889.072364,-9622.677246,74.020594,2145.067394
889.072685,-9474.636058,-740.205942,2221.676944
889.073005,-8660.409521,-1036.288319,1072.533697
889.073326,-8290.306550,-740.205942,0.000000
889.073647,-9326.594869,222.061783,1302.362347
889.073967,-10214.842000,-74.020594,2604.724693
889.074288,-10732.986159,-1184.329507,2528.115143
889.074609,-9844.739029,-1332.370696,1225.752797
889.074929,-9030.512492,-222.061783,383.047749
889.075250,-9252.574275,-148.041188,306.438199
889.075570,-9474.636058,0.000000,1225.752797
889.075891,-9548.656652,-666.185348,76.609550
889.076212,-8956.491898,0.000000,-1532.190996
889.076532,-9992.780217,1776.494261,-229.828649
889.076853,-10881.027347,888.247130,2221.676944
889.077174,-10955.047942,-666.185348,2681.334243
889.077494,-9992.780217,-2368.659014,995.924147
889.077815,-8216.285956,-814.226536,536.266849
889.078135,-9548.656652,-518.144159,1302.362347
889.078456,-9548.656652,-370.102971,1455.581446
889.078777,-9548.656652,0.000000,536.266849
889.079097,-8660.409521,148.041188,-383.047749
889.079418,-9030.512492,1776.494261,-536.266849
889.079739,-10732.986159,1628.453072,2298.286494
889.080059,-11621.233289,74.020594,2987.772442
889.080380,-10436.903782,-592.164754,1378.971896
889.080700,-9400.615463,-962.267725,689.485948
889.081021,-9252.574275,-370.102971,306.438199
889.081342,-9844.739029,-444.123565,1378.971896
889.081662,-9548.656652,-888.247130,842.705048
889.081983,-8808.450710,-814.226536,-1838.629195
889.082304,-8734.430116,0.000000,-612.876398
889.082624,-9918.759623,444.123565,1378.971896
889.082945,-11399.171507,222.061783,3370.820191
889.083265,-10658.965565,-814.226536,2604.724693
889.083586,-9474.636058,-1110.308913,995.924147
889.083907,-8808.450710,-1406.391290,919.314598
889.084227,-9326.594869,-1702.473667,1378.971896
889.084548,-9474.636058,-1702.473667,1455.581446
889.084869,-8586.388927,-1110.308913,0.000000
889.085189,-8068.244768,0.000000,-229.828649
889.085510,-9474.636058,592.164754,1838.629195
889.085830,-10510.924376,592.164754,3217.601092
889.086151,-10807.006753,-370.102971,3370.820191
889.086472,-9474.636058,-814.226536,1072.533697
889.086792,-8290.306550,-222.061783,689.485948
889.087113,-9622.677246,-444.123565,1608.800546
889.087434,-9326.594869,-962.267725,1532.190996
889.087754,-8734.430116,-1702.473667,229.828649
889.088075,-8364.327145,-888.247130,-995.924147
889.088396,-9400.615463,518.144159,842.705048
889.088716,-11251.130318,296.082377,2604.724693
889.089037,-10881.027347,-592.164754,2451.505594
889.089357,-9770.718434,-888.247130,536.266849
889.089678,-8660.409521,-370.102971,76.609550
889.089999,-9992.780217,148.041188,1532.190996
889.090319,-10288.862594,-370.102971,1991.848295
889.090640,-9252.574275,-592.164754,919.314598
889.090961,-9326.594869,-74.020594,-383.047749
889.091281,-9252.574275,518.144159,383.047749
889.091602,-10955.047942,0.000000,2221.676944
889.091922,-11547.212695,-1258.350101,2451.505594
889.092243,-9770.718434,-1480.411884,536.266849
889.092564,-9326.594869,-1258.350101,-612.876398
889.092884,-9030.512492,0.000000,612.876398
889.093205,-9918.759623,-518.144159,2068.457845
889.093526,-9622.677246,-888.247130,689.485948
889.093846,-8586.388927,-1184.329507,-1149.143247
889.094167,-9030.512492,370.102971,-153.219100
889.094487,-11251.130318,0.000000,1225.752797
889.094808,-11029.068536,-296.082377,2681.334243
889.095129,-9918.759623,-1628.453072,919.314598
889.095449,-8660.409521,-814.226536,76.609550
889.095770,-9030.512492,-814.226536,766.095498
889.096091,-9696.697840,-814.226536,1608.800546
889.096411,-9252.574275,-1554.432478,612.876398
889.096732,-8290.306550,-814.226536,-1149.143247
889.097052,-8290.306550,740.205942,-459.657299
889.097373,-10140.821405,1702.473667,1608.800546
889.097694,-11251.130318,1036.288319,3217.601092
889.098014,-10436.903782,-222.061783,2145.067394
889.098335,-9474.636058,-740.205942,766.095498
889.098656,-8882.471304,-1702.473667,766.095498
889.098976,-9622.677246,-962.267725,1762.019645
889.099297,-9474.636058,-814.226536,612.876398
889.099617,-8216.285956,-296.082377,-919.314598
889.099938,-7550.100608,814.226536,-995.924147
889.100259,-9252.574275,962.267725,306.438199
889.100579,-10881.027347,962.267725,2451.505594
889.100900,-10362.883188,-444.123565,1685.410096
889.101221,-10214.842000,-592.164754,1685.410096
889.101541,-9770.718434,740.205942,1838.629195
889.101862,-10881.027347,740.205942,3447.429741
889.102183,-10658.965565,518.144159,3600.648841
889.102503,-9474.636058,148.041188,1072.533697
889.102824,-9326.594869,1110.308913,766.095498
889.103144,-9622.677246,1480.411884,1762.019645
889.103465,-10732.986159,1036.288319,3217.601092
889.103786,-10510.924376,-370.102971,2451.505594
889.104106,-8438.347739,-518.144159,76.609550
889.104427,-8586.388927,74.020594,0.000000
889.104748,-9252.574275,592.164754,766.095498
889.105068,-9918.759623,0.000000,1838.629195
889.105389,-8660.409521,-740.205942,76.609550
889.105709,-8586.388927,-1258.350101,-995.924147
889.106030,-8956.491898,-518.144159,306.438199
889.106351,-10658.965565,-962.267725,2451.505594
889.106671,-10881.027347,-1480.411884,2604.724693
889.106992,-9770.718434,-1554.432478,1685.410096
889.107313,-9030.512492,-1480.411884,995.924147
889.107633,-9548.656652,-814.226536,2298.286494
889.107954,-9474.636058,-2146.597232,1532.190996
889.108274,-8438.347739,-1554.432478,459.657299
889.108595,-8734.430116,-148.041188,-383.047749
889.108916,-8364.327145,1998.556043,0.000000
889.109236,-10214.842000,2294.638420,2911.162892
889.109557,-11103.089130,0.000000,2604.724693
889.109878,-8438.347739,-740.205942,766.095498
889.110198,-8734.430116,-1332.370696,-536.266849
889.110519,-8660.409521,0.000000,689.485948
889.110839,-10214.842000,0.000000,1991.848295
889.111160,-9252.574275,-518.144159,842.705048
889.111481,-8660.409521,0.000000,-383.047749
889.111801,-9178.553681,666.185348,-689.485948
889.112122,-10362.883188,740.205942,1455.581446
889.112443,-11769.274478,-296.082377,3294.210641
889.112763,-10214.842000,-814.226536,1838.629195
889.113084,-9400.615463,-1110.308913,842.705048
889.113404,-9474.636058,-962.267725,1149.143247
889.113725,-10288.862594,-888.247130,2068.457845
889.114046,-10140.821405,-888.247130,1762.019645
889.114366,-9326.594869,-592.164754,0.000000
889.114687,-8734.430116,1258.350101,0.000000
889.115008,-10288.862594,1110.308913,1608.800546
889.115328,-11177.109724,444.123565,2911.162892
889.115649,-10214.842000,-1332.370696,1685.410096
889.115970,-9252.574275,-1998.556043,153.219100
889.116290,-8956.491898,-1110.308913,0.000000
889.116611,-9696.697840,-1036.288319,842.705048
889.116931,-10140.821405,-592.164754,1762.019645
889.117252,-9474.636058,-666.185348,612.876398
889.117573,-8808.450710,0.000000,-536.266849
889.117893,-9622.677246,222.061783,995.924147
889.118214,-10955.047942,-666.185348,3370.820191
889.118535,-10732.986159,-1480.411884,2757.943793
889.118855,-9474.636058,-1850.514855,1302.362347
889.119176,-8216.285956,-1184.329507,612.876398
889.119496,-9474.636058,-666.185348,1455.581446
889.119817,-9622.677246,-962.267725,1532.190996
889.120138,-8734.430116,-814.226536,-153.219100
889.120458,-8216.285956,370.102971,-1149.143247
889.120779,-9104.533087,1036.288319,1072.533697
889.121100,-10584.944971,592.164754,2145.067394
889.121420,-10955.047942,-666.185348,2451.505594
889.121741,-9474.636058,-962.267725,536.266849
889.122061,-8660.409521,-592.164754,0.000000
889.122382,-9252.574275,0.000000,766.095498
889.122703,-9770.718434,-518.144159,1455.581446
889.123023,-9400.615463,-740.205942,76.609550
889.123344,-8142.265362,0.000000,-995.924147
889.123665,-9770.718434,518.144159,0.000000
889.123985,-10066.800811,518.144159,2145.067394
889.124306,-10955.047942,-666.185348,2681.334243
889.124626,-10214.842000,-1184.329507,1532.190996
889.124947,-9104.533087,-444.123565,2374.896044
889.125268,-10214.842000,-296.082377,1838.629195
889.125588,-10732.986159,-370.102971,2145.067394
889.125909,-10066.800811,-518.144159,995.924147
889.126230,-9178.553681,518.144159,153.219100
889.126550,-9178.553681,1184.329507,76.609550
889.126871,-10436.903782,1184.329507,2451.505594
889.127191,-11325.150913,-222.061783,2604.724693
889.127512,-9844.739029,-1554.432478,1072.533697
889.127833,-8734.430116,-814.226536,-842.705048
889.128153,-9474.636058,-370.102971,153.219100
889.128474,-9030.512492,370.102971,1225.752797
889.128795,-9548.656652,0.000000,919.314598
889.129115,-9474.636058,888.247130,0.000000
889.129436,-8586.388927,296.082377,-383.047749
889.129756,-9992.780217,740.205942,1302.362347
889.130077,-10955.047942,666.185348,3140.991542
889.130398,-10214.842000,0.000000,1991.848295
889.130718,-9030.512492,0.000000,842.705048
889.131039,-8438.347739,222.061783,1072.533697
889.131360,-9252.574275,-296.082377,1302.362347
889.131681,-9474.636058,-1702.473667,1072.533697
889.132002,-8438.347739,-2294.638420,0.000000
889.132322,-8364.327145,-296.082377,-536.266849
889.132643,-9992.780217,444.123565,1608.800546
889.132964,-10955.047942,444.123565,3140.991542
889.133285,-9696.697840,-1332.370696,3064.381992
889.133605,-9030.512492,-1332.370696,383.047749
889.133926,-8808.450710,-814.226536,459.657299
889.134247,-9030.512492,-740.205942,1608.800546
889.134568,-9918.759623,-814.226536,2298.286494
889.134889,-8512.368333,-296.082377,0.000000
889.135209,-8660.409521,444.123565,-612.876398
889.135530,-9104.533087,1776.494261,919.314598
889.135851,-10732.986159,1036.288319,3064.381992
889.136172,-10362.883188,-444.123565,2221.676944
889.136492,-9918.759623,-1332.370696,1991.848295
889.136813,-9474.636058,-1924.535449,689.485948
889.137134,-9770.718434,-370.102971,1838.629195
889.137455,-10436.903782,-740.205942,2298.286494
889.137776,-9178.553681,-592.164754,306.438199
889.138096,-8586.388927,370.102971,-766.095498
889.138417,-9548.656652,1258.350101,689.485948
889.138738,-11251.130318,962.267725,2911.162892
889.139059,-11473.192101,74.020594,3217.601092
889.139379,-10362.883188,-592.164754,1302.362347
889.139700,-9030.512492,-148.041188,76.609550
889.140021,-9252.574275,0.000000,842.705048
889.140342,-9474.636058,74.020594,1455.581446
889.140663,-9252.574275,-814.226536,0.000000
889.140983,-8290.306550,-296.082377,-995.924147
889.141304,-9104.533087,0.000000,-229.828649
889.141625,-10510.924376,370.102971,3294.210641
889.141946,-11843.295072,-740.205942,3294.210641
889.142267,-9696.697840,-1036.288319,2374.896044
889.142587,-9030.512492,-1850.514855,1072.533697
889.142908,-9030.512492,-1036.288319,1225.752797
889.143229,-9400.615463,-1480.411884,2374.896044
889.143550,-9030.512492,-1702.473667,689.485948
889.143870,-8512.368333,-1184.329507,-766.095498
889.144191,-8142.265362,148.041188,-459.657299
889.144512,-9474.636058,888.247130,2681.334243
889.144833,-10658.965565,-370.102971,2451.505594
889.145154,-9918.759623,-1480.411884,1302.362347
889.145474,-9104.533087,-1850.514855,0.000000
889.145795,-8882.471304,-1480.411884,-229.828649
889.146116,-9474.636058,-518.144159,1225.752797
889.146437,-9548.656652,-222.061783,1149.143247
889.146757,-9252.574275,-370.102971,0.000000
889.147078,-8216.285956,0.000000,-919.314598
889.147399,-10214.842000,-222.061783,919.314598
889.147720,-10584.944971,-222.061783,2221.676944
889.148041,-10732.986159,-740.205942,2145.067394
889.148361,-9844.739029,-444.123565,1149.143247
889.148682,-9252.574275,296.082377,2221.676944
889.149003,-10140.821405,-518.144159,2528.115143
889.149324,-10288.862594,-1480.411884,1685.410096
889.149644,-9400.615463,-1406.391290,0.000000
889.149965,-8586.388927,148.041188,0.000000
889.150286,-9474.636058,518.144159,842.705048
889.150607,-11177.109724,-222.061783,2451.505594
889.150928,-10510.924376,-1258.350101,1838.629195
889.151248,-9844.739029,-1702.473667,-229.828649
889.151569,-8660.409521,-888.247130,0.000000
889.151890,-9696.697840,-740.205942,1225.752797
889.152211,-10436.903782,-740.205942,1838.629195
889.152532,-9548.656652,-1184.329507,153.219100
889.152852,-8956.491898,-740.205942,-1149.143247
889.153173,-9252.574275,-370.102971,229.828649
889.153494,-10510.924376,-592.164754,2068.457845
889.153815,-11251.130318,-518.144159,2681.334243
889.154135,-9474.636058,-518.144159,612.876398
889.154456,-8808.450710,0.000000,766.095498
889.154777,-9474.636058,222.061783,1608.800546
889.155098,-9918.759623,-148.041188,2068.457845
889.155419,-9548.656652,-518.144159,383.047749
889.155739,-7772.162391,-296.082377,-995.924147
889.156060,-8438.347739,518.144159,0.000000
889.156381,-10066.800811,666.185348,2451.505594
889.156702,-10807.006753,0.000000,3064.381992
889.157022,-9918.759623,-962.267725,1302.362347
889.157343,-9030.512492,-962.267725,76.609550
889.157664,-9030.512492,-518.144159,459.657299
889.157985,-9696.697840,-592.164754,1608.800546
889.158306,-9548.656652,-592.164754,2068.457845
889.158626,-8660.409521,-148.041188,-153.219100
889.158947,-8586.388927,296.082377,-153.219100
889.159268,-10066.800811,740.205942,1838.629195
889.159589,-11177.109724,-296.082377,3064.381992
889.159910,-10288.862594,-666.185348,2451.505594
889.160230,-9252.574275,-370.102971,1149.143247
889.160551,-8808.450710,370.102971,1455.581446
889.160872,-9918.759623,814.226536,2221.676944
889.161193,-10214.842000,222.061783,2374.896044
889.161513,-9178.553681,666.185348,229.828649
889.161834,-8808.450710,1628.453072,0.000000
889.162155,-10436.903782,1628.453072,1685.410096
889.162476,-11103.089130,1406.391290,2451.505594
889.162797,-11103.089130,296.082377,1302.362347
889.163117,-9696.697840,888.247130,153.219100
889.163438,-9400.615463,518.144159,153.219100
889.163759,-10140.821405,-296.082377,1685.410096
889.164080,-9918.759623,-1332.370696,842.705048
889.164400,-8956.491898,-1776.494261,-459.657299
889.164721,-8142.265362,-74.020594,-995.924147
889.165042,-8808.450710,1480.411884,1149.143247
889.165363,-9622.677246,296.082377,2681.334243
889.165684,-9770.718434,444.123565,2145.067394
889.166004,-8586.388927,-1480.411884,383.047749
889.166325,-8216.285956,-1184.329507,459.657299
889.166646,-9474.636058,0.000000,1838.629195
889.166967,-9918.759623,-1554.432478,2911.162892
889.167287,-8956.491898,-1258.350101,1378.971896
889.167608,-8586.388927,0.000000,919.314598
889.167929,-9400.615463,740.205942,2451.505594
889.168250,-10214.842000,-148.041188,3370.820191
889.168571,-10362.883188,-1110.308913,2298.286494
889.168891,-9696.697840,-1258.350101,229.828649
889.169212,-7105.977043,962.267725,-536.266849
889.169533,-9622.677246,0.000000,842.705048
889.169854,-9030.512492,222.061783,2068.457845
889.170175,-9548.656652,-1998.556043,1302.362347
889.170495,-9474.636058,-2886.803174,-459.657299
889.170816,-8956.491898,-666.185348,689.485948
889.171137,-11917.315666,74.020594,3524.039291
889.171458,-11103.089130,0.000000,3907.087040
889.171778,-10584.944971,-444.123565,1915.238745
889.172099,-8290.306550,0.000000,1302.362347
889.172420,-9178.553681,0.000000,689.485948
889.172741,-9548.656652,-444.123565,1532.190996
889.173062,-9474.636058,-1406.391290,536.266849
889.173382,-8956.491898,-296.082377,-995.924147
889.173703,-9104.533087,888.247130,306.438199
889.174024,-10732.986159,296.082377,1915.238745
889.174345,-11843.295072,-1036.288319,2681.334243
889.174665,-10288.862594,-1998.556043,306.438199
889.174986,-9400.615463,-1184.329507,-1378.971896
889.175307,-8586.388927,-1036.288319,-1378.971896
889.175628,-8956.491898,-740.205942,-383.047749
889.175949,-9622.677246,-592.164754,-153.219100
889.176269,-7994.224174,518.144159,-3140.991542
889.176590,-9030.512492,0.000000,-766.095498
889.176911,-9844.739029,888.247130,1378.971896
889.177232,-11695.253884,-296.082377,3677.258390
889.177552,-11695.253884,-1184.329507,3294.210641
889.177873,-9252.574275,-666.185348,1455.581446
889.178194,-9400.615463,-666.185348,1608.800546
889.178515,-9474.636058,-592.164754,1838.629195
889.178836,-8808.450710,-1036.288319,919.314598
889.179156,-8290.306550,-1258.350101,-153.219100
889.179477,-7550.100608,0.000000,-1225.752797
889.179798,-9178.553681,814.226536,842.705048
889.180119,-10584.944971,444.123565,2528.115143
889.180440,-10362.883188,-1702.473667,3064.381992
889.180760,-9178.553681,-1480.411884,383.047749
889.181081,-9178.553681,-962.267725,459.657299
889.181402,-10066.800811,-740.205942,2068.457845
889.181723,-10066.800811,-1110.308913,1685.410096
889.182043,-9474.636058,-962.267725,689.485948
889.182364,-8290.306550,74.020594,-612.876398
889.182685,-9178.553681,222.061783,229.828649
889.183006,-10436.903782,814.226536,3064.381992
889.183327,-9918.759623,-296.082377,2604.724693
889.183647,-9992.780217,-296.082377,1838.629195
889.183968,-9400.615463,0.000000,1225.752797
889.184289,-9622.677246,-444.123565,2068.457845
889.184610,-10140.821405,-1110.308913,4136.915689
889.184930,-9696.697840,-1036.288319,1225.752797
889.185251,-9030.512492,-444.123565,229.828649
889.185572,-9474.636058,666.185348,995.924147
889.185893,-10584.944971,666.185348,2987.772442
889.186214,-11251.130318,-296.082377,2681.334243
889.186534,-9474.636058,-148.041188,919.314598
889.186855,-9252.574275,-518.144159,536.266849
889.187176,-8734.430116,444.123565,689.485948
889.187497,-10584.944971,-666.185348,1378.971896
889.187818,-9178.553681,-222.061783,766.095498
889.188138,-8956.491898,0.000000,-536.266849
889.188459,-9104.533087,222.061783,383.047749
889.188780,-10066.800811,444.123565,3600.648841
889.189101,-10658.965565,-296.082377,2451.505594
889.189421,-10140.821405,-1036.288319,1532.190996
889.189742,-8512.368333,-444.123565,0.000000
889.190063,-9400.615463,444.123565,766.095498
889.190384,-9474.636058,888.247130,1532.190996
889.190705,-9474.636058,444.123565,1149.143247
889.191025,-8364.327145,0.000000,-459.657299
889.191346,-8438.347739,1110.308913,-612.876398
889.191667,-9696.697840,666.185348,1608.800546
889.191988,-10807.006753,-222.061783,2911.162892
889.192308,-10510.924376,-1628.453072,2068.457845
889.192629,-8956.491898,-1776.494261,306.438199
889.192950,-8956.491898,-1480.411884,-383.047749
889.193271,-9992.780217,-444.123565,2221.676944
889.193592,-9992.780217,-1184.329507,1608.800546
889.193912,-8882.471304,-1184.329507,-536.266849
889.194233,-8512.368333,0.000000,-1302.362347
889.194554,-9252.574275,888.247130,306.438199
889.194875,-11029.068536,74.020594,1915.238745
889.195195,-10510.924376,-666.185348,1762.019645
889.195516,-9252.574275,-1332.370696,-306.438199
889.195837,-8512.368333,-518.144159,76.609550
889.196158,-9474.636058,-148.041188,1072.533697
889.196479,-9696.697840,-296.082377,2221.676944
889.196799,-9030.512492,-888.247130,536.266849
889.197120,-8512.368333,592.164754,383.047749
889.197441,-9770.718434,222.061783,1915.238745
889.197762,-11103.089130,-296.082377,3907.087040
889.198083,-11399.171507,-962.267725,3370.820191
889.198403,-9992.780217,-148.041188,1838.629195
889.198724,-9474.636058,888.247130,766.095498
889.199045,-10066.800811,1184.329507,1685.410096
889.199366,-10362.883188,74.020594,1838.629195
889.199686,-9400.615463,-1332.370696,0.000000
889.200007,-8882.471304,-1184.329507,-1225.752797
889.200328,-8956.491898,0.000000,0.000000
889.200649,-10362.883188,0.000000,1838.629195
889.200970,-10288.862594,-148.041188,2681.334243
889.201290,-9474.636058,-518.144159,536.266849
889.201611,-8290.306550,-444.123565,229.828649
889.201932,-9252.574275,-444.123565,1455.581446
889.202253,-9770.718434,-1036.288319,2298.286494
889.202573,-9104.533087,-1480.411884,1072.533697
889.202894,-8438.347739,-962.267725,383.047749
889.203215,-8660.409521,0.000000,995.924147
889.203536,-9918.759623,0.000000,2451.505594
889.203857,-10732.986159,-1406.391290,3064.381992
889.204177,-9252.574275,-2072.576638,536.266849
889.204498,-8586.388927,-1554.432478,-229.828649
889.204819,-8956.491898,-740.205942,-153.219100
889.205140,-9474.636058,-222.061783,995.924147
889.205460,-9844.739029,-444.123565,-1225.752797
889.205781,-8364.327145,-518.144159,-995.924147
889.206102,-8956.491898,74.020594,-383.047749
889.206423,-10288.862594,74.020594,1302.362347
889.206744,-11325.150913,-518.144159,1378.971896
889.207064,-10658.965565,-740.205942,1838.629195
889.207385,-9400.615463,-370.102971,1149.143247
889.207706,-9548.656652,-888.247130,995.924147
889.208027,-9474.636058,-222.061783,2068.457845
889.208348,-9770.718434,-1184.329507,842.705048
889.208668,-9030.512492,-592.164754,-306.438199
889.208989,-8808.450710,888.247130,153.219100
889.209310,-10510.924376,1406.391290,2451.505594
889.209631,-11843.295072,592.164754,3447.429741
889.209951,-10510.924376,-740.205942,1455.581446
889.210272,-9548.656652,-962.267725,-306.438199
889.210593,-9252.574275,-222.061783,0.000000
889.210914,-9548.656652,0.000000,1455.581446
889.211235,-9844.739029,-888.247130,1225.752797
889.211555,-8734.430116,-1406.391290,-536.266849
889.211876,-8586.388927,-1110.308913,-1532.190996
889.212197,-9918.759623,0.000000,842.705048
889.212518,-10807.006753,-444.123565,2911.162892
889.212838,-10955.047942,-888.247130,2987.772442
889.213159,-9696.697840,-1628.453072,1685.410096
889.213480,-8660.409521,-962.267725,1072.533697
889.213801,-9696.697840,-888.247130,1838.629195
889.214122,-9622.677246,-888.247130,2451.505594
889.214442,-8882.471304,-222.061783,612.876398
889.214763,-8290.306550,814.226536,0.000000
889.215084,-8734.430116,1480.411884,1149.143247
889.215405,-10362.883188,1554.432478,2528.115143
889.215726,-10510.924376,0.000000,1991.848295
889.216046,-9326.594869,-370.102971,536.266849
889.216367,-8438.347739,-222.061783,-76.609550
889.216688,-9474.636058,-222.061783,689.485948
889.217009,-9474.636058,0.000000,1378.971896
889.217329,-9326.594869,-740.205942,-153.219100
889.217650,-8586.388927,222.061783,-919.314598
889.217971,-9474.636058,518.144159,0.000000
889.218292,-10214.842000,444.123565,1838.629195
889.218613,-11473.192101,-1110.308913,2374.896044
889.218933,-9622.677246,-1480.411884,1762.019645
889.219254,-9326.594869,-1332.370696,766.095498
889.219575,-9400.615463,-740.205942,1455.581446
889.219896,-9918.759623,-814.226536,1608.800546
889.220216,-9548.656652,-296.082377,1072.533697
889.220537,-8660.409521,222.061783,0.000000
889.220858,-9104.533087,1406.391290,306.438199
889.221179,-10881.027347,1036.288319,2451.505594
889.221500,-10955.047942,0.000000,2681.334243
889.221820,-10140.821405,-666.185348,1072.533697
889.222141,-8660.409521,-444.123565,76.609550
889.222462,-9474.636058,1110.308913,459.657299
889.222783,-10214.842000,814.226536,1378.971896
889.223103,-9918.759623,0.000000,383.047749
889.223424,-9178.553681,-444.123565,-995.924147
889.223745,-9252.574275,74.020594,-536.266849
889.224066,-10510.924376,0.000000,1455.581446
889.224387,-11029.068536,-592.164754,3064.381992
889.224707,-10436.903782,-1628.453072,1685.410096
889.225028,-9030.512492,-592.164754,689.485948
889.225349,-9474.636058,0.000000,1608.800546
889.225670,-9400.615463,0.000000,2145.067394
889.225991,-9474.636058,-814.226536,2145.067394
889.226311,-8364.327145,-962.267725,306.438199
889.226632,-8068.244768,-592.164754,0.000000
889.226953,-9178.553681,-518.144159,1608.800546
889.227274,-9992.780217,-962.267725,2987.772442
889.227594,-9918.759623,-1924.535449,2451.505594
889.227915,-9326.594869,-1554.432478,689.485948
889.228236,-8290.306550,0.000000,919.314598
889.228557,-10214.842000,-888.247130,1225.752797
889.228878,-8882.471304,-518.144159,1838.629195
889.229198,-9622.677246,-1258.350101,459.657299
889.229519,-8956.491898,74.020594,76.609550
889.229840,-10436.903782,1184.329507,2374.896044
889.230161,-11103.089130,444.123565,3370.820191
889.230481,-10288.862594,-888.247130,3140.991542
889.230802,-8882.471304,-2738.761985,76.609550
889.231123,-7846.182985,0.000000,-1225.752797
889.231444,-9622.677246,-740.205942,153.219100
889.231765,-8586.388927,148.041188,766.095498
889.232085,-9400.615463,296.082377,689.485948
889.232406,-9030.512492,-148.041188,-536.266849
889.232727,-10140.821405,888.247130,1225.752797
889.233048,-11843.295072,1258.350101,3600.648841
889.233368,-12287.418637,-370.102971,3294.210641
889.233689,-9992.780217,-1184.329507,766.095498
889.234010,-9252.574275,-1184.329507,-536.266849
889.234331,-8142.265362,-222.061783,-459.657299
889.234652,-9992.780217,-814.226536,689.485948
889.234972,-8512.368333,-888.247130,-919.314598
889.235293,-8956.491898,-592.164754,-1685.410096
889.235614,-9400.615463,962.267725,0.000000
889.235935,-11325.150913,1776.494261,2681.334243
889.236255,-12287.418637,0.000000,3830.477490
889.236576,-10436.903782,-962.267725,3830.477490
889.236897,-9178.553681,-1332.370696,306.438199
889.237218,-9252.574275,-1110.308913,459.657299
889.237538,-9844.739029,-740.205942,1915.238745
889.237859,-9326.594869,-1184.329507,536.266849
889.238180,-7994.224174,222.061783,-689.485948
889.238501,-8660.409521,1036.288319,-383.047749
889.238821,-10140.821405,1036.288319,1991.848295
889.239142,-11399.171507,-74.020594,2987.772442
889.239463,-11029.068536,-962.267725,2145.067394
889.239784,-8882.471304,-1110.308913,536.266849
889.240104,-8808.450710,-888.247130,459.657299
889.240425,-8956.491898,-740.205942,1149.143247
889.240746,-8956.491898,-1258.350101,459.657299
889.241067,-7846.182985,-888.247130,-1762.019645
889.241387,-7254.018232,0.000000,-2451.505594
889.241708,-9326.594869,1110.308913,-229.828649
889.242029,-10955.047942,1036.288319,2681.334243
889.242350,-10807.006753,0.000000,3064.381992
889.242670,-9992.780217,-1184.329507,1762.019645
889.242991,-9622.677246,-2294.638420,1762.019645
889.243312,-10066.800811,-1850.514855,2911.162892
889.243633,-10955.047942,-3108.864956,2834.553343
889.243953,-8882.471304,-1554.432478,766.095498
889.244274,-8142.265362,-222.061783,-306.438199
889.244595,-9252.574275,1036.288319,842.705048
889.244916,-10140.821405,1184.329507,2681.334243
889.245236,-10510.924376,-444.123565,2145.067394
889.245557,-9104.533087,-1258.350101,612.876398
889.245878,-8512.368333,-444.123565,76.609550
889.246199,-9770.718434,-222.061783,1685.410096
889.246520,-10288.862594,222.061783,2145.067394
889.246840,-9696.697840,74.020594,1378.971896
889.247161,-8956.491898,148.041188,229.828649
889.247482,-9696.697840,740.205942,612.876398
889.247803,-10955.047942,1036.288319,4060.306139
889.248123,-11251.130318,-518.144159,2298.286494
889.248444,-9844.739029,-518.144159,459.657299
889.248765,-8808.450710,0.000000,-153.219100
889.249086,-8956.491898,222.061783,536.266849
889.249406,-10288.862594,-296.082377,1302.362347
889.249727,-9548.656652,-444.123565,1225.752797
889.250048,-9474.636058,0.000000,76.609550
889.250369,-9474.636058,962.267725,919.314598
889.250689,-11251.130318,1628.453072,2528.115143
889.251010,-11325.150913,-370.102971,3524.039291
889.251331,-9844.739029,-1332.370696,1072.533697
889.251652,-8660.409521,-888.247130,-612.876398
889.251972,-8586.388927,296.082377,1762.019645
889.252293,-9326.594869,0.000000,1072.533697
889.252614,-9548.656652,-296.082377,1225.752797
889.252935,-8660.409521,-222.061783,-1149.143247
889.253255,-8438.347739,962.267725,0.000000
889.253576,-10362.883188,666.185348,1378.971896
889.253897,-11103.089130,222.061783,3064.381992
889.254218,-10584.944971,-1406.391290,2374.896044
889.254538,-8734.430116,-2220.617826,689.485948
889.254859,-8290.306550,-1702.473667,1149.143247
889.255180,-9326.594869,-1258.350101,1608.800546
889.255501,-9474.636058,-1036.288319,1455.581446
889.255821,-8512.368333,370.102971,459.657299
889.256142,-8364.327145,962.267725,-229.828649
889.256463,-9696.697840,888.247130,1915.238745
889.256784,-11103.089130,-666.185348,3217.601092
889.257104,-10288.862594,-1924.535449,1608.800546
889.257425,-9252.574275,-962.267725,459.657299
889.257746,-8586.388927,-444.123565,689.485948
889.258067,-9696.697840,0.000000,2145.067394
889.258387,-10362.883188,-592.164754,2451.505594
889.258708,-9474.636058,-740.205942,0.000000
889.259029,-9474.636058,370.102971,0.000000
889.259350,-10362.883188,1850.514855,1225.752797
889.259671,-11695.253884,1554.432478,3064.381992
889.259991,-10658.965565,222.061783,1685.410096
889.260312,-8808.450710,0.000000,0.000000
889.260633,-8734.430116,-222.061783,-383.047749
889.260954,-8956.491898,-592.164754,383.047749
889.261274,-9474.636058,-666.185348,1225.752797
889.261595,-9326.594869,-814.226536,0.000000
889.261916,-8438.347739,296.082377,76.609550
889.262237,-9992.780217,296.082377,1378.971896
889.262557,-11029.068536,148.041188,3983.696590
889.262878,-11399.171507,-1628.453072,3600.648841
889.263199,-10140.821405,-2442.679609,919.314598
889.263520,-9252.574275,-1776.494261,536.266849
889.263840,-9622.677246,-1332.370696,689.485948
889.264161,-10066.800811,-1184.329507,1455.581446
889.264482,-8808.450710,-1258.350101,919.314598
889.264803,-8216.285956,-370.102971,-1455.581446
889.265123,-9400.615463,592.164754,-383.047749
889.265444,-10288.862594,1258.350101,1838.629195
889.265765,-10955.047942,-1258.350101,2298.286494
889.266086,-9400.615463,-1702.473667,919.314598
889.266406,-8660.409521,-1850.514855,76.609550
889.266727,-8882.471304,-1480.411884,842.705048
889.267048,-9474.636058,-666.185348,1608.800546
889.267369,-9104.533087,-1184.329507,229.828649
889.267689,-7920.203579,0.000000,-995.924147
889.268010,-8734.430116,888.247130,-842.705048
889.268331,-10362.883188,592.164754,1915.238745
889.268652,-10955.047942,-888.247130,2987.772442
889.268972,-10214.842000,-2294.638420,536.266849
889.269293,-8956.491898,-1628.453072,-383.047749
889.269614,-9548.656652,-962.267725,0.000000
889.269935,-9178.553681,740.205942,3294.210641
889.270255,-11547.212695,-3034.844362,995.924147
889.270576,-6809.894666,-592.164754,-766.095498
889.270897,-9474.636058,-1998.556043,-1762.019645
889.271218,-9844.739029,296.082377,1685.410096
889.271538,-10510.924376,-296.082377,2987.772442
889.271859,-11473.192101,-592.164754,3677.258390
889.272180,-8808.450710,-1184.329507,536.266849
889.272501,-8882.471304,-592.164754,76.609550
889.272822,-11029.068536,-1110.308913,2145.067394
889.273142,-9252.574275,-962.267725,1378.971896
889.273463,-9622.677246,0.000000,229.828649
889.273784,-8808.450710,74.020594,306.438199
889.274105,-8734.430116,296.082377,306.438199
889.274425,-11769.274478,-148.041188,2374.896044
889.274746,-10658.965565,-592.164754,1685.410096
889.275067,-9178.553681,0.000000,229.828649
889.275388,-9548.656652,740.205942,306.438199
889.275708,-9474.636058,740.205942,1378.971896
889.276029,-9918.759623,0.000000,1762.019645
889.276350,-9326.594869,-666.185348,842.705048
889.276671,-8216.285956,148.041188,153.219100
889.276991,-9770.718434,1554.432478,612.876398
889.277312,-10732.986159,296.082377,2834.553343
889.277633,-10658.965565,0.000000,2834.553343
889.277954,-8808.450710,-444.123565,1072.533697
889.278274,-8956.491898,296.082377,1072.533697
889.278595,-8734.430116,518.144159,1455.581446
889.278916,-9548.656652,-518.144159,1149.143247
889.279237,-9622.677246,-666.185348,995.924147
889.279557,-8364.327145,-296.082377,0.000000
889.279878,-9326.594869,518.144159,842.705048
889.280199,-11177.109724,1184.329507,2451.505594
889.280520,-10807.006753,888.247130,2374.896044
889.280840,-10140.821405,592.164754,1072.533697
889.281161,-9178.553681,1332.370696,689.485948
889.281482,-8808.450710,1480.411884,612.876398
889.281803,-10140.821405,296.082377,1378.971896
889.282123,-9474.636058,0.000000,919.314598
889.282444,-8586.388927,666.185348,-2221.676944
889.282765,-8956.491898,0.000000,0.000000
889.283086,-9918.759623,814.226536,2145.067394
889.283406,-10955.047942,222.061783,2757.943793
889.283727,-10510.924376,-296.082377,1685.410096
889.284048,-8734.430116,444.123565,766.095498
889.284369,-9178.553681,0.000000,995.924147
889.284689,-10066.800811,-814.226536,1608.800546
889.285010,-9696.697840,-1406.391290,1149.143247
889.285331,-9104.533087,-666.185348,-689.485948
889.285652,-9104.533087,-74.020594,76.609550
889.285973,-9918.759623,222.061783,1915.238745
889.286293,-10881.027347,-296.082377,2911.162892
889.286614,-10066.800811,-222.061783,2757.943793
889.286935,-8882.471304,-1332.370696,612.876398
889.287256,-8882.471304,-1184.329507,229.828649
889.287576,-8660.409521,-148.041188,1532.190996
889.287897,-9918.759623,-1554.432478,1072.533697
889.288218,-7698.141797,-888.247130,0.000000
889.288539,-8734.430116,-740.205942,0.000000
889.288859,-9548.656652,148.041188,1608.800546
889.289180,-11621.233289,-296.082377,3524.039291
889.289501,-11177.109724,-148.041188,3064.381992
889.289822,-9474.636058,-222.061783,1991.848295
889.290142,-9178.553681,-1110.308913,842.705048
889.290463,-9474.636058,-888.247130,1149.143247
889.290784,-9918.759623,-2368.659014,1532.190996
889.291105,-8290.306550,-1924.535449,-383.047749
889.291425,-8438.347739,74.020594,76.609550
889.291746,-9770.718434,518.144159,1762.019645
889.292067,-11029.068536,370.102971,3294.210641
889.292388,-10807.006753,-1036.288319,2451.505594
889.292708,-9400.615463,-888.247130,612.876398
889.293029,-9326.594869,0.000000,229.828649
889.293350,-9844.739029,-518.144159,1225.752797
889.293671,-9622.677246,-666.185348,1455.581446
889.293991,-9178.553681,-1776.494261,-536.266849
889.294312,-8438.347739,-1406.391290,-1762.019645
889.294633,-9992.780217,-592.164754,0.000000
889.294954,-10955.047942,0.000000,2834.553343
889.295274,-11399.171507,-296.082377,2681.334243
889.295595,-10362.883188,-592.164754,1378.971896
889.295916,-9178.553681,-518.144159,459.657299
889.296237,-9474.636058,-296.082377,1072.533697
889.296557,-9844.739029,-1332.370696,1072.533697
889.296878,-8882.471304,-666.185348,536.266849
889.297199,-8586.388927,-592.164754,-459.657299
889.297520,-8956.491898,222.061783,229.828649
889.297840,-10807.006753,592.164754,2911.162892
889.298161,-11251.130318,-740.205942,2987.772442
889.298482,-9844.739029,-1110.308913,689.485948
889.298803,-9326.594869,-370.102971,0.000000
889.299124,-8512.368333,518.144159,1149.143247
889.299444,-9548.656652,-370.102971,1072.533697
889.299765,-9474.636058,-1184.329507,459.657299
889.300086,-8586.388927,-814.226536,-919.314598
889.300407,-8734.430116,592.164754,-306.438199
889.300727,-10436.903782,1110.308913,2298.286494
889.301048,-11177.109724,592.164754,3370.820191
889.301369,-9844.739029,0.000000,2221.676944
889.301690,-9326.594869,0.000000,1149.143247
889.302010,-9326.594869,-74.020594,1455.581446
889.302331,-9474.636058,-370.102971,2068.457845
889.302652,-9400.615463,-1628.453072,1072.533697
889.302973,-8290.306550,-370.102971,-306.438199
889.303293,-8660.409521,814.226536,919.314598
889.303614,-9770.718434,1480.411884,2221.676944
889.303935,-10955.047942,814.226536,3140.991542
889.304256,-10584.944971,0.000000,1838.629195
889.304576,-9178.553681,-518.144159,1685.410096
889.304897,-8808.450710,0.000000,612.876398
889.305218,-10362.883188,-592.164754,1608.800546
889.305539,-9770.718434,-444.123565,1532.190996
889.305859,-8808.450710,-740.205942,-153.219100
889.306180,-8142.265362,222.061783,-306.438199
889.306501,-9992.780217,370.102971,766.095498
889.306822,-10288.862594,370.102971,2451.505594
889.307142,-10214.842000,-666.185348,1455.581446
889.307463,-9326.594869,370.102971,-689.485948
889.307784,-8512.368333,888.247130,766.095498
889.308105,-10362.883188,740.205942,1838.629195
889.308425,-10066.800811,222.061783,2221.676944
889.308746,-9770.718434,-962.267725,1302.362347
889.309067,-9474.636058,370.102971,1072.533697
889.309388,-10436.903782,814.226536,1991.848295
889.309708,-11473.192101,0.000000,3753.867940
889.310029,-10436.903782,-962.267725,3064.381992
889.310350,-9252.574275,-1998.556043,153.219100
889.310671,-8364.327145,-962.267725,-842.705048
889.310991,-9030.512492,-444.123565,229.828649
889.311312,-9252.574275,-592.164754,383.047749
889.311633,-8882.471304,-814.226536,-306.438199
889.311954,-8586.388927,-296.082377,-995.924147
889.312275,-9474.636058,592.164754,536.266849
889.312595,-11621.233289,666.185348,3294.210641
889.312916,-11547.212695,0.000000,3600.648841
889.313237,-10436.903782,-1480.411884,2681.334243
889.313558,-9548.656652,-1702.473667,1149.143247
889.313878,-8808.450710,-1776.494261,766.095498
889.314199,-8882.471304,-1480.411884,919.314598
889.314520,-8364.327145,-1480.411884,76.609550
889.314841,-7402.059420,-592.164754,-1225.752797
889.315161,-8808.450710,148.041188,-766.095498
889.315482,-9918.759623,-148.041188,1149.143247
889.315803,-11029.068536,-592.164754,2681.334243
889.316124,-10584.944971,-2738.761985,1302.362347
889.316444,-9474.636058,-1998.556043,153.219100
889.316765,-9622.677246,-1110.308913,842.705048
889.317086,-9252.574275,-814.226536,1915.238745
889.317407,-9474.636058,-444.123565,766.095498
889.317727,-8956.491898,-888.247130,-459.657299
889.318048,-8512.368333,-148.041188,-766.095498
889.318369,-9992.780217,518.144159,1072.533697
889.318690,-11251.130318,370.102971,2451.505594
889.319010,-10881.027347,-592.164754,1608.800546
889.319331,-9104.533087,222.061783,1302.362347
889.319652,-9548.656652,-666.185348,1762.019645
889.319973,-9474.636058,74.020594,1915.238745
889.320293,-10214.842000,-1184.329507,2068.457845
889.320614,-9030.512492,-1702.473667,0.000000
889.320935,-8808.450710,518.144159,-229.828649
889.321256,-9770.718434,1258.350101,1915.238745
889.321576,-10584.944971,444.123565,2145.067394
889.321897,-10214.842000,-888.247130,1608.800546
889.322218,-9622.677246,-1850.514855,153.219100
889.322539,-9252.574275,-1036.288319,0.000000
889.322859,-9844.739029,-592.164754,1302.362347
889.323180,-9770.718434,-962.267725,1685.410096
889.323501,-8956.491898,-962.267725,0.000000
889.323822,-8512.368333,-222.061783,-306.438199
889.324143,-9104.533087,592.164754,459.657299
889.324463,-10214.842000,888.247130,2987.772442
889.324784,-11029.068536,-148.041188,3064.381992
889.325105,-9400.615463,0.000000,2145.067394
889.325426,-9252.574275,-370.102971,1149.143247
889.325746,-9178.553681,-370.102971,1302.362347
889.326067,-9178.553681,-518.144159,1225.752797
889.326388,-8808.450710,-296.082377,0.000000
889.326709,-8290.306550,444.123565,-766.095498
889.327029,-8808.450710,1184.329507,229.828649
889.327350,-10214.842000,1332.370696,2298.286494
889.327671,-10510.924376,0.000000,2374.896044
889.327992,-9548.656652,-296.082377,1149.143247
889.328312,-9474.636058,-592.164754,459.657299
889.328633,-9548.656652,-370.102971,1608.800546
889.328954,-10214.842000,-740.205942,2298.286494
889.329275,-9844.739029,-1480.411884,995.924147
889.329595,-9178.553681,-1036.288319,612.876398
889.329916,-9770.718434,814.226536,306.438199
889.330237,-10807.006753,1258.350101,2451.505594
889.330558,-10732.986159,740.205942,2298.286494
889.330878,-9992.780217,0.000000,1149.143247
889.331199,-8882.471304,-222.061783,0.000000
889.331520,-9252.574275,-888.247130,459.657299
889.331841,-10066.800811,-1480.411884,1302.362347
889.332161,-9696.697840,-1702.473667,612.876398
889.332482,-8734.430116,-814.226536,0.000000
889.332803,-9400.615463,370.102971,459.657299
889.333125,-10658.965565,1406.391290,2298.286494
889.333445,-11399.171507,814.226536,3217.601092
889.333766,-10288.862594,-296.082377,2911.162892
889.334087,-9030.512492,-666.185348,76.609550
889.334408,-8734.430116,-962.267725,-536.266849
889.334728,-8882.471304,-962.267725,229.828649
889.335049,-9178.553681,-444.123565,536.266849
889.335370,-8512.368333,-666.185348,-306.438199
889.335690,-8808.450710,0.000000,459.657299
889.336011,-10510.924376,-1184.329507,2451.505594
889.336332,-11769.274478,-1480.411884,2757.943793
889.336653,-9844.739029,-814.226536,2528.115143
889.336973,-9918.759623,-444.123565,1378.971896
889.337294,-8882.471304,0.000000,1991.848295
889.337615,-9030.512492,-888.247130,1378.971896
889.337935,-8290.306550,-666.185348,2145.067394
889.338256,-7994.224174,-740.205942,-842.705048
889.338577,-8734.430116,222.061783,306.438199
889.338897,-10658.965565,1184.329507,2604.724693
889.339218,-11103.089130,962.267725,3524.039291
889.339539,-10732.986159,-1036.288319,2451.505594
889.339860,-9104.533087,-740.205942,383.047749
889.340180,-9104.533087,0.000000,0.000000
889.340501,-9992.780217,296.082377,995.924147
889.340822,-9474.636058,1184.329507,1455.581446
889.341142,-8734.430116,0.000000,0.000000
889.341463,-9104.533087,148.041188,-1072.533697
889.341784,-9474.636058,814.226536,76.609550
889.342105,-10955.047942,222.061783,1915.238745
889.342425,-11177.109724,-666.185348,2987.772442
889.342746,-9918.759623,-814.226536,1532.190996
889.343067,-9474.636058,-1110.308913,919.314598
889.343387,-9474.636058,-296.082377,2221.676944
889.343708,-10214.842000,-962.267725,2451.505594
889.344029,-8734.430116,-1480.411884,536.266849
889.344349,-8142.265362,-740.205942,0.000000
889.344670,-8660.409521,-148.041188,153.219100
889.344991,-9770.718434,0.000000,2145.067394
889.345312,-10807.006753,-592.164754,2681.334243
889.345632,-9474.636058,-1184.329507,689.485948
889.345953,-9104.533087,-296.082377,76.609550
889.346274,-9844.739029,0.000000,459.657299
889.346594,-9400.615463,-370.102971,1685.410096
889.346915,-10214.842000,-2220.617826,0.000000
889.347236,-8956.491898,-1776.494261,-919.314598
889.347557,-8438.347739,-666.185348,-459.657299
889.347877,-10214.842000,-666.185348,1685.410096
889.348198,-10066.800811,148.041188,2298.286494
889.348519,-9918.759623,-740.205942,1608.800546
889.348839,-8068.244768,0.000000,0.000000
889.349160,-9474.636058,814.226536,1072.533697
889.349481,-9918.759623,148.041188,2298.286494
889.349801,-9548.656652,-518.144159,1608.800546
889.350122,-9252.574275,-1110.308913,76.609550
889.350443,-8142.265362,74.020594,-842.705048
889.350764,-10510.924376,592.164754,2451.505594
889.351084,-11103.089130,74.020594,3370.820191
889.351405,-10288.862594,74.020594,1991.848295
889.351726,-9252.574275,-222.061783,689.485948
889.352046,-8660.409521,74.020594,0.000000
889.352367,-9770.718434,-740.205942,995.924147
889.352688,-9844.739029,-1702.473667,766.095498
889.353009,-8956.491898,-1554.432478,-766.095498
889.353329,-9474.636058,-296.082377,-995.924147
889.353650,-10362.883188,444.123565,1455.581446
889.353971,-11547.212695,444.123565,3064.381992
889.354291,-11251.130318,-370.102971,2451.505594
889.354612,-9400.615463,-1554.432478,383.047749
889.354933,-9252.574275,-370.102971,689.485948
889.355253,-9844.739029,-592.164754,1302.362347
889.355574,-9622.677246,-518.144159,1455.581446
889.355895,-8808.450710,-1110.308913,-229.828649
889.356216,-8364.327145,-592.164754,-919.314598
889.356536,-9030.512492,518.144159,995.924147
889.356857,-10362.883188,148.041188,2604.724693
889.357178,-11177.109724,-666.185348,2834.553343
889.357498,-9030.512492,-592.164754,1762.019645
889.357819,-8956.491898,-296.082377,76.609550
889.358140,-9252.574275,0.000000,689.485948
889.358461,-9474.636058,-888.247130,1455.581446
889.358781,-9252.574275,-1406.391290,766.095498
889.359102,-8734.430116,-1332.370696,-612.876398
889.359423,-9104.533087,-814.226536,0.000000
889.359743,-10214.842000,148.041188,2221.676944
889.360064,-10955.047942,-740.205942,2834.553343
889.360385,-9474.636058,-444.123565,1762.019645
889.360705,-8734.430116,0.000000,1225.752797
889.361026,-8956.491898,-592.164754,1302.362347
889.361347,-9178.553681,-1480.411884,1685.410096
889.361668,-8586.388927,-666.185348,2451.505594
889.361988,-8364.327145,-518.144159,0.000000
889.362309,-8734.430116,592.164754,536.266849
889.362630,-10807.006753,1110.308913,3140.991542
889.362950,-10955.047942,222.061783,3830.477490
889.363271,-10881.027347,-666.185348,2374.896044
889.363592,-9770.718434,-814.226536,1149.143247
889.363913,-9030.512492,-592.164754,459.657299
889.364233,-9770.718434,-888.247130,459.657299
889.364554,-8882.471304,-740.205942,842.705048
889.364875,-8586.388927,-370.102971,-1378.971896
889.365195,-8882.471304,444.123565,-995.924147
889.365516,-10066.800811,222.061783,229.828649
889.365837,-11103.089130,-148.041188,2451.505594
889.366157,-10658.965565,-1036.288319,1532.190996
889.366478,-9770.718434,-444.123565,842.705048
889.366799,-9474.636058,148.041188,1225.752797
889.367120,-9770.718434,0.000000,1838.629195
889.367440,-9474.636058,-148.041188,1302.362347
889.367761,-9622.677246,148.041188,306.438199
889.368082,-9474.636058,1406.391290,766.095498
889.368402,-9992.780217,1332.370696,1915.238745
889.368723,-11029.068536,518.144159,2528.115143
889.369044,-10214.842000,-962.267725,995.924147
889.369365,-9030.512492,-666.185348,0.000000
889.369685,-8882.471304,-148.041188,0.000000
889.370006,-9474.636058,592.164754,1149.143247
889.370327,-10214.842000,-222.061783,1378.971896
889.370647,-9326.594869,-444.123565,459.657299
889.370968,-9178.553681,518.144159,76.609550
889.371289,-10066.800811,444.123565,1302.362347
889.371609,-10584.944971,666.185348,2757.943793
889.371930,-9992.780217,-888.247130,1762.019645
889.372251,-8734.430116,-740.205942,0.000000
889.372572,-7994.224174,-740.205942,-612.876398
889.372892,-8512.368333,-962.267725,1302.362347
889.373213,-8660.409521,-370.102971,383.047749
889.373534,-9104.533087,-962.267725,-153.219100
889.373854,-8364.327145,222.061783,76.609550
889.374175,-9548.656652,518.144159,3140.991542
889.374496,-11103.089130,0.000000,3600.648841
889.374817,-11325.150913,-2294.638420,3524.039291
889.375137,-9844.739029,-2368.659014,1991.848295
889.375458,-9326.594869,-2146.597232,1072.533697
889.375779,-9252.574275,-148.041188,1838.629195
889.376099,-9770.718434,-444.123565,1532.190996
889.376420,-8956.491898,-370.102971,306.438199
889.376741,-8142.265362,0.000000,-1608.800546
889.377061,-8586.388927,666.185348,153.219100
889.377382,-10214.842000,666.185348,2374.896044
889.377703,-10807.006753,-1110.308913,3370.820191
889.378024,-10288.862594,-1998.556043,1991.848295
889.378344,-9400.615463,-1406.391290,766.095498
889.378665,-9622.677246,-888.247130,1608.800546
889.378986,-10510.924376,74.020594,3370.820191
889.379306,-10288.862594,0.000000,2221.676944
889.379627,-8956.491898,444.123565,-229.828649
889.379948,-8882.471304,1258.350101,306.438199
889.380269,-10436.903782,1110.308913,2298.286494
889.380589,-10807.006753,-296.082377,2987.772442
889.380910,-10362.883188,-1406.391290,1532.190996
889.381231,-9474.636058,-814.226536,-229.828649
889.381551,-9474.636058,-740.205942,306.438199
889.381872,-9992.780217,0.000000,2145.067394
889.382193,-10288.862594,-888.247130,1608.800546
889.382513,-9474.636058,0.000000,-1072.533697
889.382834,-9326.594869,74.020594,-459.657299
889.383155,-9992.780217,592.164754,919.314598
889.383476,-10732.986159,0.000000,1838.629195
889.383796,-10732.986159,-1258.350101,1838.629195
889.384117,-8364.327145,-962.267725,0.000000
889.384438,-8734.430116,-592.164754,0.000000
889.384758,-9622.677246,-370.102971,1302.362347
889.385079,-9474.636058,-888.247130,459.657299
889.385400,-9252.574275,-814.226536,-612.876398
889.385720,-8216.285956,444.123565,-306.438199
889.386041,-9474.636058,518.144159,1225.752797
889.386362,-10510.924376,-222.061783,2834.553343
889.386683,-10214.842000,-2072.576638,2757.943793
889.387003,-9252.574275,-1406.391290,612.876398
889.387324,-8586.388927,-1036.288319,229.828649
889.387645,-9326.594869,-444.123565,995.924147
889.387965,-9326.594869,-296.082377,842.705048
889.388286,-8808.450710,-518.144159,-459.657299
889.388607,-8068.244768,-444.123565,-1302.362347
889.388928,-8956.491898,-74.020594,0.000000
889.389248,-10955.047942,0.000000,2068.457845
889.389569,-11177.109724,-296.082377,2451.505594
889.389890,-9770.718434,-592.164754,1455.581446
889.390210,-9474.636058,-740.205942,383.047749
889.390531,-9400.615463,74.020594,919.314598
889.390852,-10658.965565,-1258.350101,1915.238745
889.391172,-9178.553681,-962.267725,229.828649
889.391493,-8586.388927,0.000000,-383.047749
889.391814,-9770.718434,1258.350101,612.876398
889.392135,-11029.068536,1702.473667,2911.162892
889.392455,-11621.233289,222.061783,2834.553343
889.392776,-9844.739029,-296.082377,1072.533697
889.393097,-9178.553681,74.020594,76.609550
889.393417,-9030.512492,296.082377,842.705048
889.393738,-9474.636058,-296.082377,1991.848295
889.394059,-9696.697840,-1258.350101,766.095498
889.394380,-8512.368333,-962.267725,-229.828649
889.394700,-9548.656652,74.020594,459.657299
889.395021,-11103.089130,296.082377,1991.848295
889.395342,-11473.192101,0.000000,3370.820191
889.395662,-11251.130318,-518.144159,2221.676944
889.395983,-9104.533087,0.000000,1455.581446
889.396304,-9474.636058,-518.144159,459.657299
889.396624,-9696.697840,-1628.453072,1685.410096
889.396945,-8956.491898,-2294.638420,0.000000
889.397266,-7994.224174,-1184.329507,-1302.362347
889.397587,-7994.224174,1184.329507,-306.438199
889.397907,-10066.800811,1998.556043,2068.457845
889.398228,-11029.068536,1406.391290,3600.648841
889.398549,-10955.047942,222.061783,2604.724693
889.398869,-9770.718434,-148.041188,1532.190996
889.399190,-10140.821405,0.000000,1302.362347
889.399511,-10066.800811,0.000000,2451.505594
889.399832,-9326.594869,-370.102971,1302.362347
889.400152,-8364.327145,-518.144159,-383.047749
889.400473,-7402.059420,0.000000,-1149.143247
889.400794,-8216.285956,0.000000,-689.485948
889.401114,-10658.965565,74.020594,1072.533697
889.401435,-10436.903782,0.000000,2068.457845
889.401756,-9548.656652,-296.082377,1685.410096
889.402076,-9474.636058,-592.164754,1915.238745
889.402397,-9844.739029,-962.267725,2604.724693
889.402718,-10214.842000,-1924.535449,2987.772442
889.403039,-8956.491898,-2146.597232,689.485948
889.403359,-7994.224174,-740.205942,-306.438199
889.403680,-9252.574275,444.123565,919.314598
889.404001,-10140.821405,222.061783,2068.457845
889.404321,-10436.903782,-444.123565,1915.238745
889.404642,-9474.636058,-888.247130,-76.609550
889.404963,-8586.388927,-444.123565,-459.657299
889.405284,-9622.677246,-296.082377,612.876398
889.405604,-9622.677246,74.020594,1455.581446
889.405925,-10732.986159,-1628.453072,689.485948
889.406246,-8068.244768,-370.102971,0.000000
889.406566,-9622.677246,74.020594,229.828649
889.406887,-11029.068536,296.082377,2374.896044
889.407208,-10732.986159,296.082377,2987.772442
889.407528,-9844.739029,-370.102971,2374.896044
889.407849,-8586.388927,-444.123565,-153.219100
889.408170,-9030.512492,-1036.288319,612.876398
889.408491,-9622.677246,-1258.350101,1455.581446
889.408811,-9400.615463,-1850.514855,459.657299
889.409132,-8808.450710,-592.164754,-612.876398
889.409453,-8586.388927,1406.391290,306.438199
889.409773,-10881.027347,1110.308913,2604.724693
889.410094,-11251.130318,0.000000,2834.553343
889.410415,-10066.800811,-222.061783,1225.752797
889.410736,-9326.594869,-370.102971,0.000000
889.411056,-8586.388927,-592.164754,-153.219100
889.411377,-10066.800811,-296.082377,1149.143247
889.411698,-9548.656652,-592.164754,229.828649
889.412018,-8512.368333,-740.205942,-995.924147
889.412339,-9252.574275,222.061783,-536.266849
889.412660,-10140.821405,296.082377,1149.143247
889.412980,-11177.109724,74.020594,4136.915689
889.413301,-10362.883188,-444.123565,1838.629195
889.413622,-9326.594869,-370.102971,1072.533697
889.413943,-9326.594869,-740.205942,536.266849
