#time,accel_x,accel_y,accel_z
713.319281,-10436.903782,-1776.494261,229.828649
713.319602,-10066.800811,-1702.473667,0.000000
713.319923,-9770.718434,-1702.473667,-306.438199
713.320243,-9770.718434,-814.226536,459.657299
713.320564,-9622.677246,-1480.411884,0.000000
713.320885,-9400.615463,-592.164754,919.314598
713.321206,-9252.574275,-444.123565,919.314598
713.321527,-9474.636058,-888.247130,842.705048
713.321848,-9474.636058,-740.205942,1838.629195
713.322169,-9474.636058,-814.226536,459.657299
713.322489,-9474.636058,-518.144159,383.047749
713.322810,-9474.636058,-444.123565,612.876398
713.323131,-9918.759623,-148.041188,306.438199
713.323452,-9844.739029,0.000000,995.924147
713.323773,-10140.821405,518.144159,689.485948
713.324094,-10288.862594,814.226536,1149.143247
713.324414,-10288.862594,296.082377,1302.362347
713.324735,-9992.780217,74.020594,1378.971896
713.325056,-9696.697840,-148.041188,995.924147
713.325377,-9252.574275,-740.205942,995.924147
713.325698,-8882.471304,-1258.350101,766.095498
713.326019,-8882.471304,-1110.308913,383.047749
713.326339,-9030.512492,-1480.411884,995.924147
713.326660,-8808.450710,-1406.391290,919.314598
713.326981,-9252.574275,-1480.411884,1685.410096
713.327302,-9770.718434,-1480.411884,1685.410096
713.327623,-9844.739029,-740.205942,1838.629195
713.327944,-9844.739029,-814.226536,1685.410096
713.328264,-9548.656652,0.000000,1532.190996
713.328585,-9918.759623,0.000000,1149.143247
713.328906,-9474.636058,222.061783,306.438199
713.329227,-9622.677246,296.082377,766.095498
713.329548,-9474.636058,148.041188,842.705048
713.329869,-9400.615463,0.000000,229.828649
713.330189,-9178.553681,-666.185348,919.314598
713.330510,-9104.533087,-962.267725,536.266849
713.330831,-9326.594869,-962.267725,919.314598
713.331152,-9474.636058,-1332.370696,1455.581446
713.331473,-9474.636058,-1554.432478,1149.143247
713.331794,-9696.697840,-1258.350101,612.876398
713.332114,-9696.697840,-814.226536,842.705048
713.332435,-9844.739029,-592.164754,689.485948
713.332756,-9844.739029,-444.123565,919.314598
713.333077,-9918.759623,-518.144159,612.876398
713.333398,-9770.718434,-444.123565,612.876398
713.333719,-9918.759623,-148.041188,612.876398
713.334039,-9844.739029,-148.041188,919.314598
713.334360,-9252.574275,-592.164754,842.705048
713.334681,-9474.636058,-518.144159,689.485948
713.335002,-9548.656652,-740.205942,1072.533697
713.335323,-9622.677246,-740.205942,612.876398
713.335644,-9548.656652,-888.247130,919.314598
713.335965,-9622.677246,-814.226536,919.314598
713.336285,-9622.677246,-666.185348,459.657299
713.336606,-9844.739029,-814.226536,383.047749
713.336927,-9844.739029,-740.205942,153.219100
713.337248,-9252.574275,-962.267725,153.219100
713.337569,-9770.718434,-740.205942,689.485948
713.337890,-9844.739029,-814.226536,76.609550
713.338210,-9770.718434,-518.144159,459.657299
713.338531,-9178.553681,-666.185348,2298.286494
713.338852,-9622.677246,-888.247130,766.095498
713.339173,-9548.656652,-518.144159,1072.533697
713.339494,-9474.636058,-814.226536,995.924147
713.339815,-9326.594869,-888.247130,766.095498
713.340135,-9178.553681,-592.164754,612.876398
713.340456,-9326.594869,-666.185348,459.657299
713.340777,-9030.512492,-592.164754,536.266849
713.341098,-9326.594869,-370.102971,306.438199
713.341419,-9252.574275,-888.247130,76.609550
713.341740,-9548.656652,-222.061783,612.876398
713.342060,-9696.697840,-592.164754,766.095498
713.342381,-9696.697840,-962.267725,459.657299
713.342702,-10288.862594,222.061783,536.266849
713.343023,-9918.759623,-962.267725,1072.533697
713.343343,-9844.739029,-888.247130,1302.362347
713.343664,-9844.739029,-740.205942,1225.752797
713.343985,-9548.656652,-666.185348,995.924147
713.344305,-9400.615463,-592.164754,919.314598
713.344626,-9326.594869,-370.102971,1225.752797
713.344947,-9400.615463,-296.082377,766.095498
713.345267,-9474.636058,0.000000,536.266849
713.345588,-9474.636058,0.000000,-766.095498
713.345909,-9474.636058,0.000000,1072.533697
713.346229,-9696.697840,0.000000,995.924147
713.346550,-9770.718434,0.000000,1302.362347
713.346870,-9918.759623,-148.041188,1225.752797
713.347191,-9548.656652,0.000000,1378.971896
713.347512,-9770.718434,-148.041188,1302.362347
713.347832,-9918.759623,0.000000,1302.362347
713.348153,-9622.677246,-148.041188,1302.362347
713.348474,-9548.656652,444.123565,1072.533697
713.348794,-9474.636058,0.000000,1149.143247
713.349115,-9622.677246,222.061783,1455.581446
713.349436,-9622.677246,74.020594,1532.190996
713.349756,-9622.677246,148.041188,2757.943793
713.350077,-9548.656652,148.041188,1685.410096
713.350397,-9622.677246,0.000000,1225.752797
713.350718,-9474.636058,0.000000,1455.581446
713.351039,-9622.677246,0.000000,1762.019645
713.351359,-9326.594869,-296.082377,1685.410096
713.351680,-9548.656652,0.000000,1685.410096
713.352001,-9548.656652,0.000000,1378.971896
713.352321,-9548.656652,-148.041188,1685.410096
713.352642,-9400.615463,-296.082377,1838.629195
713.352963,-9770.718434,0.000000,1608.800546
713.353283,-9474.636058,-296.082377,1455.581446
713.353604,-9474.636058,-148.041188,1378.971896
713.353925,-9474.636058,0.000000,1072.533697
713.354245,-9400.615463,222.061783,766.095498
713.354566,-9400.615463,222.061783,1149.143247
713.354886,-9400.615463,296.082377,842.705048
713.355207,-9474.636058,74.020594,536.266849
713.355528,-9400.615463,-148.041188,612.876398
713.355848,-9474.636058,-222.061783,842.705048
713.356169,-9696.697840,-370.102971,919.314598
713.356490,-9622.677246,-148.041188,1225.752797
713.356810,-9622.677246,-592.164754,766.095498
713.357131,-9770.718434,-222.061783,1378.971896
713.357452,-9696.697840,0.000000,689.485948
713.357772,-9548.656652,0.000000,842.705048
713.358093,-9548.656652,-370.102971,995.924147
713.358413,-9474.636058,-222.061783,612.876398
713.358734,-9548.656652,-370.102971,612.876398
713.359055,-9548.656652,-370.102971,1225.752797
713.359375,-9696.697840,-518.144159,1302.362347
713.359696,-9178.553681,-592.164754,1378.971896
713.360017,-9548.656652,-592.164754,1302.362347
713.360337,-9622.677246,-370.102971,1302.362347
713.360658,-9548.656652,-592.164754,1302.362347
713.360979,-8956.491898,-1184.329507,2298.286494
713.361299,-9474.636058,-888.247130,1378.971896
713.361620,-9770.718434,-592.164754,1072.533697
713.361941,-9400.615463,-444.123565,919.314598
713.362261,-9548.656652,-666.185348,1072.533697
713.362582,-9696.697840,-370.102971,1378.971896
713.362902,-9548.656652,-370.102971,1608.800546
713.363223,-9474.636058,-518.144159,1378.971896
713.363544,-9696.697840,-592.164754,1225.752797
713.363864,-9474.636058,-148.041188,1149.143247
713.364185,-9622.677246,-370.102971,1608.800546
713.364506,-9474.636058,-666.185348,1378.971896
713.364826,-9474.636058,-666.185348,995.924147
713.365147,-9844.739029,-74.020594,1302.362347
713.365468,-9326.594869,-370.102971,1302.362347
713.365788,-9548.656652,-222.061783,1072.533697
713.366109,-9548.656652,-222.061783,1302.362347
713.366429,-9696.697840,-296.082377,995.924147
713.366750,-9548.656652,-296.082377,1149.143247
713.367071,-9844.739029,-296.082377,1149.143247
713.367391,-9548.656652,-518.144159,1225.752797
713.367712,-9622.677246,-518.144159,1072.533697
713.368033,-9474.636058,-592.164754,995.924147
713.368353,-9474.636058,-296.082377,842.705048
713.368674,-9622.677246,-148.041188,1149.143247
713.368995,-9844.739029,-296.082377,766.095498
713.369315,-9770.718434,444.123565,1225.752797
713.369636,-9770.718434,-222.061783,919.314598
713.369957,-9548.656652,0.000000,919.314598
713.370277,-9770.718434,-296.082377,919.314598
713.370598,-9770.718434,-222.061783,1225.752797
713.370918,-9844.739029,0.000000,1378.971896
713.371239,-9622.677246,-222.061783,919.314598
713.371560,-9696.697840,-370.102971,1225.752797
713.371880,-9770.718434,-444.123565,1072.533697
713.372201,-9770.718434,-592.164754,995.924147
713.372522,-9548.656652,0.000000,689.485948
713.372842,-9696.697840,-148.041188,919.314598
713.373163,-9326.594869,-296.082377,995.924147
713.373484,-9252.574275,-814.226536,919.314598
713.373804,-9622.677246,0.000000,766.095498
713.374125,-9400.615463,0.000000,842.705048
713.374446,-9474.636058,-222.061783,919.314598
713.374766,-9770.718434,74.020594,-76.609550
713.375087,-9474.636058,0.000000,1225.752797
713.375407,-9474.636058,0.000000,1225.752797
713.375728,-9622.677246,-296.082377,1302.362347
713.376049,-9622.677246,-148.041188,1225.752797
713.376369,-9992.780217,-148.041188,842.705048
713.376690,-9548.656652,-296.082377,1225.752797
713.377011,-9474.636058,-518.144159,995.924147
713.377331,-9400.615463,-444.123565,842.705048
713.377652,-9030.512492,0.000000,919.314598
713.377973,-9474.636058,-222.061783,842.705048
713.378293,-9622.677246,-296.082377,919.314598
713.378614,-9474.636058,-296.082377,919.314598
713.378934,-9696.697840,222.061783,383.047749
713.379255,-9696.697840,-222.061783,1608.800546
713.379576,-9770.718434,-518.144159,1149.143247
713.379896,-9770.718434,-370.102971,919.314598
713.380217,-9548.656652,-518.144159,919.314598
713.380538,-9770.718434,-222.061783,1302.362347
713.380858,-9548.656652,-518.144159,1072.533697
713.381179,-9696.697840,-444.123565,842.705048
713.381500,-9474.636058,-592.164754,766.095498
713.381820,-9474.636058,-518.144159,536.266849
713.382141,-9474.636058,-518.144159,612.876398
713.382462,-9696.697840,-444.123565,536.266849
713.382782,-9844.739029,-370.102971,1072.533697
713.383103,-9474.636058,-740.205942,1225.752797
713.383423,-9844.739029,-518.144159,1225.752797
713.383744,-9770.718434,-518.144159,612.876398
713.384065,-9844.739029,-296.082377,1072.533697
713.384385,-9770.718434,-592.164754,919.314598
713.384706,-9770.718434,-370.102971,919.314598
713.385027,-9622.677246,-888.247130,536.266849
713.385347,-9622.677246,-592.164754,766.095498
713.385668,-9696.697840,-666.185348,842.705048
713.385989,-9474.636058,-814.226536,536.266849
713.386309,-9696.697840,-592.164754,612.876398
713.386630,-9622.677246,-592.164754,536.266849
713.386950,-9548.656652,-518.144159,995.924147
713.387271,-9696.697840,-222.061783,0.000000
713.387592,-9548.656652,-592.164754,919.314598
713.387912,-9622.677246,-740.205942,842.705048
713.388233,-9400.615463,-370.102971,919.314598
713.388554,-9474.636058,-666.185348,766.095498
713.388874,-9622.677246,-518.144159,842.705048
713.389195,-9696.697840,-592.164754,766.095498
713.389516,-9474.636058,-370.102971,995.924147
713.389836,-9622.677246,-592.164754,612.876398
713.390157,-9622.677246,74.020594,1378.971896
713.390478,-9770.718434,-740.205942,1378.971896
713.390798,-9696.697840,-370.102971,1072.533697
713.391119,-9696.697840,-222.061783,1378.971896
713.391439,-9104.533087,-1776.494261,2834.553343
713.391760,-9400.615463,-444.123565,1225.752797
713.392081,-9548.656652,-518.144159,1225.752797
713.392401,-9548.656652,-148.041188,689.485948
713.392722,-9696.697840,-370.102971,842.705048
713.393043,-9474.636058,-296.082377,1072.533697
713.393363,-9696.697840,-370.102971,919.314598
713.393684,-9696.697840,-296.082377,919.314598
713.394005,-9696.697840,-222.061783,1225.752797
713.394325,-9844.739029,222.061783,1225.752797
713.394646,-9770.718434,-222.061783,1302.362347
713.394966,-9696.697840,0.000000,1302.362347
713.395287,-9770.718434,-222.061783,1455.581446
713.395608,-8882.471304,-296.082377,1915.238745
713.395928,-9474.636058,-296.082377,1302.362347
713.396249,-9622.677246,0.000000,1378.971896
713.396570,-9474.636058,0.000000,1455.581446
713.396890,-9474.636058,0.000000,1302.362347
713.397211,-9474.636058,0.000000,919.314598
713.397532,-9474.636058,-222.061783,1532.190996
713.397852,-9474.636058,0.000000,995.924147
713.398173,-9474.636058,-370.102971,1378.971896
713.398494,-9696.697840,222.061783,919.314598
713.398814,-9548.656652,0.000000,1302.362347
713.399135,-9474.636058,0.000000,1072.533697
713.399455,-9622.677246,0.000000,1225.752797
713.399776,-9696.697840,0.000000,1608.800546
713.400097,-9474.636058,0.000000,1072.533697
713.400417,-9474.636058,-74.020594,1302.362347
713.400738,-9474.636058,-370.102971,1072.533697
713.401059,-9474.636058,0.000000,995.924147
713.401379,-9696.697840,296.082377,383.047749
713.401700,-9474.636058,0.000000,919.314598
713.402021,-9474.636058,0.000000,766.095498
713.402341,-9696.697840,0.000000,766.095498
713.402662,-9622.677246,-222.061783,919.314598
713.402982,-9844.739029,148.041188,766.095498
713.403303,-9770.718434,0.000000,995.924147
713.403624,-9622.677246,-148.041188,995.924147
713.403944,-9548.656652,-148.041188,1072.533697
713.404265,-9622.677246,0.000000,995.924147
713.404586,-9326.594869,-814.226536,842.705048
713.404906,-9548.656652,-222.061783,919.314598
713.405227,-9400.615463,-444.123565,459.657299
713.405548,-9474.636058,-148.041188,459.657299
713.405868,-9474.636058,-518.144159,842.705048
713.406189,-9696.697840,-148.041188,766.095498
713.406510,-9770.718434,-518.144159,919.314598
713.406830,-9696.697840,-370.102971,1072.533697
713.407151,-9918.759623,-666.185348,1302.362347
713.407471,-9326.594869,-814.226536,766.095498
713.407792,-9770.718434,-296.082377,842.705048
713.408113,-9548.656652,-148.041188,919.314598
713.408433,-9474.636058,-222.061783,995.924147
713.408754,-9622.677246,-370.102971,1302.362347
713.409075,-9844.739029,-666.185348,1149.143247
713.409395,-9548.656652,-666.185348,1149.143247
713.409716,-9474.636058,-666.185348,919.314598
713.410037,-9474.636058,-592.164754,1302.362347
713.410357,-9770.718434,740.205942,1532.190996
713.410678,-9474.636058,-296.082377,1608.800546
713.410999,-9696.697840,-518.144159,1225.752797
713.411319,-9474.636058,-444.123565,1455.581446
713.411640,-9474.636058,-518.144159,1225.752797
713.411960,-9474.636058,-444.123565,1455.581446
713.412281,-9696.697840,-444.123565,842.705048
713.412602,-9622.677246,-296.082377,1149.143247
713.412922,-9474.636058,-370.102971,919.314598
713.413243,-9548.656652,-518.144159,459.657299
713.413564,-9696.697840,-296.082377,1455.581446
713.413884,-9474.636058,-370.102971,1225.752797
713.414205,-9622.677246,-518.144159,1532.190996
713.414526,-9622.677246,-370.102971,2911.162892
713.414846,-9622.677246,-296.082377,1378.971896
713.415167,-9770.718434,-296.082377,1455.581446
713.415487,-9474.636058,-222.061783,1455.581446
713.415808,-9770.718434,-592.164754,1072.533697
713.416129,-9622.677246,-148.041188,1072.533697
713.416449,-9622.677246,-296.082377,995.924147
713.416770,-9622.677246,0.000000,919.314598
713.417091,-9474.636058,0.000000,919.314598
713.417411,-9696.697840,296.082377,1149.143247
713.417732,-9696.697840,-148.041188,1302.362347
713.418053,-9844.739029,-222.061783,1072.533697
713.418373,-9696.697840,-222.061783,995.924147
713.418694,-9696.697840,-296.082377,1685.410096
713.419015,-9770.718434,-222.061783,1072.533697
713.419335,-9622.677246,-222.061783,1378.971896
713.419656,-9622.677246,-74.020594,1072.533697
713.419976,-9548.656652,0.000000,1072.533697
713.420297,-10436.903782,1258.350101,3064.381992
713.420618,-9622.677246,-296.082377,1149.143247
713.420938,-9474.636058,0.000000,842.705048
713.421259,-9770.718434,-370.102971,1072.533697
713.421580,-9474.636058,0.000000,995.924147
713.421900,-9844.739029,0.000000,1149.143247
713.422221,-9548.656652,0.000000,1455.581446
713.422542,-9844.739029,-222.061783,1378.971896
713.422862,-9400.615463,-296.082377,1378.971896
713.423183,-9474.636058,-518.144159,1225.752797
713.423503,-9474.636058,-222.061783,1072.533697
713.423824,-9770.718434,-296.082377,1149.143247
713.424145,-9400.615463,-296.082377,1225.752797
713.424465,-10140.821405,370.102971,76.609550
713.424786,-9474.636058,-444.123565,995.924147
713.425107,-9252.574275,-370.102971,612.876398
713.425427,-9696.697840,-148.041188,1302.362347
713.425748,-9622.677246,-444.123565,1225.752797
713.426069,-9548.656652,-444.123565,1149.143247
713.426389,-9770.718434,-222.061783,1072.533697
713.426710,-9992.780217,-370.102971,1149.143247
713.427031,-9770.718434,-222.061783,1378.971896
713.427351,-9474.636058,-592.164754,1302.362347
713.427672,-9548.656652,-370.102971,842.705048
713.427992,-9622.677246,-518.144159,766.095498
713.428313,-9474.636058,-370.102971,766.095498
713.428634,-9844.739029,-444.123565,1302.362347
713.428954,-9400.615463,-296.082377,842.705048
713.429275,-9622.677246,-444.123565,842.705048
713.429596,-9770.718434,-444.123565,1149.143247
713.429916,-9918.759623,-370.102971,842.705048
713.430237,-9474.636058,-740.205942,766.095498
713.430558,-9548.656652,-518.144159,1072.533697
713.430878,-9548.656652,-518.144159,995.924147
713.431199,-9696.697840,-592.164754,689.485948
713.431519,-9844.739029,-296.082377,689.485948
713.431840,-9548.656652,-666.185348,612.876398
713.432161,-9400.615463,-740.205942,766.095498
713.432481,-9622.677246,-592.164754,536.266849
713.432802,-9474.636058,-296.082377,995.924147
713.433123,-9548.656652,-518.144159,612.876398
713.433443,-9474.636058,-592.164754,689.485948
713.433764,-9770.718434,-370.102971,612.876398
713.434085,-9844.739029,-814.226536,919.314598
713.434405,-9622.677246,-518.144159,1149.143247
713.434726,-9770.718434,-592.164754,919.314598
713.435047,-9474.636058,-592.164754,1149.143247
713.435367,-9696.697840,-666.185348,995.924147
713.435688,-9548.656652,-444.123565,689.485948
713.436008,-9474.636058,-444.123565,1149.143247
713.436329,-9400.615463,-592.164754,1072.533697
713.436650,-9474.636058,-370.102971,995.924147
713.436970,-9992.780217,-1036.288319,76.609550
713.437291,-9622.677246,-592.164754,842.705048
713.437612,-9474.636058,-296.082377,1149.143247
713.437932,-9770.718434,-444.123565,1225.752797
713.438253,-9622.677246,-518.144159,1302.362347
713.438574,-9770.718434,-444.123565,1149.143247
713.438894,-9622.677246,-518.144159,1455.581446
713.439215,-9696.697840,-592.164754,995.924147
713.439535,-9548.656652,-296.082377,1072.533697
713.439856,-9474.636058,-592.164754,1608.800546
713.440177,-9400.615463,-296.082377,1225.752797
713.440497,-9548.656652,-370.102971,766.095498
713.440818,-9770.718434,-444.123565,1225.752797
713.441139,-9474.636058,-296.082377,1302.362347
713.441459,-9474.636058,0.000000,1378.971896
713.441780,-9548.656652,-296.082377,919.314598
713.442101,-9474.636058,-148.041188,1225.752797
713.442421,-9548.656652,0.000000,919.314598
713.442742,-9770.718434,-148.041188,1378.971896
713.443063,-9548.656652,0.000000,1378.971896
713.443384,-9770.718434,-148.041188,1302.362347
713.443704,-9474.636058,0.000000,1302.362347
713.444025,-9622.677246,-74.020594,1532.190996
713.444346,-9548.656652,0.000000,1302.362347
713.444667,-9474.636058,0.000000,1149.143247
713.444987,-9474.636058,0.000000,1072.533697
713.445308,-9696.697840,-296.082377,842.705048
713.445629,-9474.636058,0.000000,1149.143247
713.445950,-9770.718434,0.000000,1225.752797
713.446270,-9844.739029,0.000000,1378.971896
713.446591,-9696.697840,-148.041188,1149.143247
713.446912,-9548.656652,0.000000,1455.581446
713.447233,-9474.636058,0.000000,1149.143247
713.447553,-9548.656652,0.000000,1302.362347
713.447874,-9548.656652,-74.020594,995.924147
713.448195,-9622.677246,-148.041188,1455.581446
713.448516,-9622.677246,-296.082377,919.314598
713.448836,-9770.718434,-148.041188,1149.143247
713.449157,-9474.636058,-296.082377,536.266849
713.449478,-8808.450710,-444.123565,1532.190996
713.449799,-9844.739029,-296.082377,766.095498
713.450119,-9622.677246,-148.041188,919.314598
713.450440,-9548.656652,0.000000,1149.143247
713.450761,-9622.677246,-222.061783,995.924147
713.451082,-9326.594869,-444.123565,1378.971896
713.451402,-9548.656652,-222.061783,995.924147
713.451723,-9844.739029,-444.123565,995.924147
713.452044,-9474.636058,-518.144159,1072.533697
713.452365,-9770.718434,-592.164754,689.485948
713.452685,-9622.677246,-592.164754,995.924147
713.453006,-9474.636058,-592.164754,995.924147
713.453327,-9474.636058,-592.164754,842.705048
713.453648,-9548.656652,-444.123565,1532.190996
713.453968,-9548.656652,-296.082377,1225.752797
713.454289,-9622.677246,-370.102971,1225.752797
713.454610,-9622.677246,-444.123565,1072.533697
713.454931,-9844.739029,-296.082377,1608.800546
713.455251,-9548.656652,-740.205942,1455.581446
713.455572,-9474.636058,-370.102971,1149.143247
713.455893,-9622.677246,-740.205942,1149.143247
713.456214,-9474.636058,-518.144159,1378.971896
713.456534,-9992.780217,0.000000,2528.115143
713.456855,-9474.636058,-444.123565,1378.971896
713.457176,-9548.656652,-592.164754,995.924147
713.457497,-9474.636058,-444.123565,919.314598
713.457817,-9400.615463,-518.144159,2068.457845
713.458138,-9770.718434,-148.041188,1302.362347
713.458459,-9770.718434,-666.185348,919.314598
713.458780,-9548.656652,-370.102971,1225.752797
713.459100,-9770.718434,-370.102971,1378.971896
713.459421,-9770.718434,-518.144159,1072.533697
713.459742,-9622.677246,-444.123565,1302.362347
713.460063,-9622.677246,-370.102971,919.314598
713.460383,-9474.636058,-296.082377,919.314598
713.460704,-9474.636058,444.123565,1762.019645
713.461025,-9548.656652,-74.020594,1378.971896
713.461346,-9548.656652,-148.041188,1149.143247
713.461666,-9474.636058,-296.082377,1225.752797
713.461987,-9622.677246,0.000000,1302.362347
713.462308,-9770.718434,-222.061783,919.314598
713.462629,-9696.697840,0.000000,1378.971896
713.462949,-9696.697840,-296.082377,1149.143247
713.463270,-9400.615463,-370.102971,995.924147
713.463591,-9400.615463,-518.144159,919.314598
713.463912,-9622.677246,-370.102971,766.095498
713.464232,-9622.677246,-148.041188,1225.752797
713.464553,-9622.677246,0.000000,1149.143247
713.464874,-9474.636058,-370.102971,2221.676944
713.465195,-9474.636058,-296.082377,1302.362347
713.465515,-9474.636058,-74.020594,919.314598
713.465836,-9622.677246,74.020594,1455.581446
713.466157,-9548.656652,-74.020594,1915.238745
713.466478,-9474.636058,-148.041188,1455.581446
713.466798,-9696.697840,-296.082377,1302.362347
713.467119,-9548.656652,0.000000,1149.143247
713.467440,-9548.656652,0.000000,1072.533697
713.467761,-9622.677246,-592.164754,919.314598
713.468081,-9474.636058,-222.061783,1072.533697
713.468402,-9696.697840,-296.082377,919.314598
713.468723,-9474.636058,-148.041188,1072.533697
713.469044,-9696.697840,592.164754,1915.238745
713.469364,-9696.697840,0.000000,1378.971896
713.469685,-9622.677246,0.000000,919.314598
713.470006,-9622.677246,0.000000,1455.581446
713.470327,-9622.677246,0.000000,2221.676944
713.470647,-9622.677246,0.000000,1455.581446
713.470968,-9622.677246,-222.061783,1072.533697
713.471289,-9548.656652,-296.082377,1302.362347
713.471610,-9622.677246,-370.102971,842.705048
713.471930,-9548.656652,-296.082377,919.314598
713.472251,-9770.718434,-296.082377,689.485948
713.472572,-9622.677246,-148.041188,919.314598
713.472893,-9696.697840,-148.041188,1149.143247
713.473213,-9770.718434,444.123565,766.095498
713.473534,-9548.656652,-444.123565,1072.533697
713.473855,-9622.677246,-296.082377,1302.362347
713.474176,-9548.656652,-518.144159,1072.533697
713.474496,-9622.677246,-370.102971,1149.143247
713.474817,-9474.636058,-444.123565,1225.752797
713.475138,-9474.636058,-370.102971,612.876398
713.475459,-9622.677246,-296.082377,995.924147
713.475779,-9696.697840,-592.164754,766.095498
713.476100,-9400.615463,-666.185348,689.485948
713.476421,-9474.636058,-518.144159,689.485948
713.476742,-9548.656652,-666.185348,995.924147
713.477062,-9474.636058,-518.144159,919.314598
713.477383,-10066.800811,-592.164754,459.657299
713.477704,-9548.656652,-518.144159,689.485948
713.478025,-9622.677246,-444.123565,1149.143247
713.478345,-9474.636058,-666.185348,842.705048
713.478666,-9770.718434,-592.164754,842.705048
713.478987,-9474.636058,-666.185348,689.485948
713.479308,-9474.636058,-666.185348,612.876398
713.479628,-9548.656652,-592.164754,766.095498
713.479949,-9548.656652,-740.205942,1072.533697
713.480270,-9548.656652,-444.123565,459.657299
713.480591,-9474.636058,-740.205942,766.095498
713.480911,-9696.697840,-518.144159,536.266849
713.481232,-9770.718434,-592.164754,995.924147
713.481553,-9548.656652,-888.247130,842.705048
713.481874,-9622.677246,-592.164754,689.485948
713.482194,-9548.656652,-962.267725,842.705048
713.482515,-9622.677246,-592.164754,612.876398
713.482836,-9548.656652,-666.185348,612.876398
713.483157,-9622.677246,-518.144159,919.314598
713.483477,-9696.697840,-740.205942,995.924147
713.483798,-9622.677246,-444.123565,995.924147
713.484119,-9770.718434,-518.144159,1072.533697
713.484440,-10066.800811,-296.082377,766.095498
713.484760,-9474.636058,-518.144159,1072.533697
713.485081,-9548.656652,-296.082377,919.314598
713.485402,-9548.656652,-592.164754,919.314598
713.485723,-9474.636058,-592.164754,766.095498
713.486043,-9770.718434,-296.082377,1302.362347
713.486364,-9548.656652,-296.082377,919.314598
713.486685,-9770.718434,-444.123565,1072.533697
713.487006,-9696.697840,-74.020594,995.924147
713.487326,-9326.594869,-1036.288319,919.314598
713.487647,-9622.677246,-444.123565,919.314598
713.487968,-9696.697840,0.000000,1302.362347
713.488289,-9548.656652,-518.144159,1455.581446
713.488609,-9548.656652,74.020594,1378.971896
713.488930,-9474.636058,-370.102971,1302.362347
713.489251,-9622.677246,-148.041188,1302.362347
713.489572,-9548.656652,-296.082377,1455.581446
713.489892,-9622.677246,0.000000,1378.971896
713.490213,-9622.677246,0.000000,1455.581446
713.490534,-9474.636058,0.000000,1225.752797
713.490855,-9696.697840,0.000000,1149.143247
713.491175,-9622.677246,-148.041188,842.705048
713.491496,-9770.718434,0.000000,459.657299
713.491817,-9474.636058,-148.041188,919.314598
713.492138,-9844.739029,-148.041188,1302.362347
713.492458,-9622.677246,-148.041188,1455.581446
713.492779,-9548.656652,0.000000,1608.800546
713.493100,-9474.636058,-222.061783,1532.190996
713.493421,-9622.677246,-222.061783,1378.971896
713.493741,-9622.677246,0.000000,766.095498
713.494062,-9474.636058,0.000000,1225.752797
713.494383,-9252.574275,0.000000,1302.362347
713.494704,-9474.636058,0.000000,1149.143247
713.495024,-9252.574275,0.000000,995.924147
713.495345,-9548.656652,-74.020594,919.314598
713.495666,-9696.697840,74.020594,612.876398
713.495987,-9548.656652,-222.061783,1302.362347
713.496307,-9622.677246,0.000000,919.314598
713.496628,-9622.677246,-222.061783,995.924147
713.496949,-9622.677246,-148.041188,-459.657299
713.497270,-9474.636058,-296.082377,919.314598
713.497590,-9844.739029,-370.102971,1149.143247
713.497911,-9474.636058,-370.102971,919.314598
713.498232,-9770.718434,-370.102971,995.924147
713.498553,-9474.636058,0.000000,689.485948
713.498873,-9474.636058,-148.041188,1072.533697
713.499194,-9548.656652,-148.041188,1072.533697
713.499515,-9622.677246,-444.123565,1072.533697
713.499836,-8956.491898,-222.061783,1302.362347
713.500156,-9548.656652,-222.061783,766.095498
713.500477,-9548.656652,-444.123565,1149.143247
713.500798,-9622.677246,-370.102971,1072.533697
713.501119,-9548.656652,-592.164754,689.485948
713.501439,-9844.739029,-370.102971,919.314598
713.501760,-9548.656652,-740.205942,995.924147
713.502081,-9622.677246,-592.164754,919.314598
713.502402,-9548.656652,-518.144159,919.314598
713.502722,-9696.697840,-370.102971,1685.410096
713.503043,-9474.636058,-444.123565,919.314598
713.503364,-9474.636058,-444.123565,919.314598
713.503685,-9622.677246,0.000000,1225.752797
713.504005,-9548.656652,-370.102971,1302.362347
713.504326,-9622.677246,-666.185348,1455.581446
713.504647,-9770.718434,-666.185348,1378.971896
713.504968,-9474.636058,-370.102971,1378.971896
713.505288,-9770.718434,-592.164754,1378.971896
713.505609,-9622.677246,-370.102971,1225.752797
713.505930,-9474.636058,-518.144159,919.314598
713.506251,-9622.677246,-296.082377,1225.752797
713.506571,-9770.718434,-148.041188,1225.752797
713.506892,-10140.821405,148.041188,1149.143247
713.507213,-9770.718434,-222.061783,1225.752797
713.507534,-9696.697840,-222.061783,1302.362347
713.507854,-9696.697840,-370.102971,1455.581446
713.508175,-9844.739029,666.185348,1225.752797
713.508496,-9696.697840,-444.123565,1378.971896
713.508817,-9696.697840,-444.123565,1455.581446
713.509137,-9474.636058,-444.123565,1302.362347
713.509458,-9622.677246,-296.082377,1302.362347
713.509779,-9252.574275,-296.082377,1302.362347
713.510100,-9474.636058,-222.061783,1225.752797
713.510420,-9400.615463,-296.082377,1072.533697
713.510741,-9548.656652,-296.082377,1072.533697
713.511062,-8882.471304,-518.144159,0.000000
713.511383,-9770.718434,-222.061783,1225.752797
713.511703,-9622.677246,-296.082377,1149.143247
713.512024,-9696.697840,-296.082377,1302.362347
713.512345,-9696.697840,-296.082377,1072.533697
713.512666,-9696.697840,0.000000,1455.581446
713.512986,-9622.677246,0.000000,919.314598
713.513307,-9770.718434,0.000000,1149.143247
713.513628,-9622.677246,-296.082377,1149.143247
713.513949,-9474.636058,-148.041188,1225.752797
713.514269,-9400.615463,-148.041188,1225.752797
713.514590,-9474.636058,0.000000,1149.143247
713.514911,-9548.656652,-148.041188,995.924147
713.515232,-10288.862594,222.061783,612.876398
713.515552,-9622.677246,0.000000,919.314598
713.515873,-9474.636058,-222.061783,1225.752797
713.516194,-9918.759623,0.000000,1225.752797
713.516515,-9770.718434,0.000000,1455.581446
713.516835,-9770.718434,-296.082377,842.705048
713.517156,-9622.677246,0.000000,1455.581446
713.517477,-9622.677246,-148.041188,1302.362347
713.517798,-9548.656652,0.000000,1149.143247
713.518118,-9326.594869,0.000000,1225.752797
713.518439,-9548.656652,-148.041188,1149.143247
713.518760,-9474.636058,-222.061783,995.924147
713.519081,-9474.636058,-296.082377,842.705048
713.519401,-10066.800811,-370.102971,1915.238745
713.519722,-9918.759623,-222.061783,1072.533697
713.520043,-9622.677246,-518.144159,1225.752797
713.520364,-9696.697840,-148.041188,919.314598
713.520684,-9770.718434,-444.123565,1455.581446
713.521005,-9696.697840,-296.082377,1072.533697
713.521326,-9548.656652,-592.164754,1072.533697
713.521647,-9622.677246,-370.102971,612.876398
713.521967,-9548.656652,-518.144159,995.924147
713.522288,-9548.656652,-518.144159,1072.533697
713.522609,-9622.677246,-518.144159,842.705048
713.522930,-9474.636058,-518.144159,1072.533697
713.523250,-9548.656652,-666.185348,842.705048
713.523571,-9548.656652,-666.185348,3370.820191
713.523892,-9622.677246,-444.123565,1378.971896
713.524213,-9696.697840,-592.164754,995.924147
713.524533,-9548.656652,-444.123565,995.924147
713.524854,-9474.636058,-296.082377,1378.971896
713.525175,-9622.677246,-444.123565,995.924147
713.525496,-9548.656652,-518.144159,1072.533697
713.525816,-9622.677246,-814.226536,919.314598
713.526137,-9474.636058,-666.185348,842.705048
713.526458,-9252.574275,-666.185348,612.876398
713.526779,-9400.615463,-592.164754,689.485948
713.527099,-9770.718434,-666.185348,766.095498
713.527420,-9622.677246,-444.123565,1149.143247
713.527741,-9622.677246,-592.164754,536.266849
713.528062,-9548.656652,-444.123565,995.924147
713.528382,-9770.718434,-592.164754,689.485948
713.528703,-9548.656652,-518.144159,1072.533697
713.529024,-9696.697840,-666.185348,0.000000
713.529345,-9474.636058,-444.123565,995.924147
713.529665,-9622.677246,-592.164754,919.314598
713.529986,-9474.636058,-666.185348,1149.143247
713.530307,-9622.677246,-592.164754,842.705048
713.530628,-9400.615463,-592.164754,1302.362347
713.530948,-9696.697840,-222.061783,1149.143247
713.531269,-9474.636058,-296.082377,919.314598
713.531590,-9622.677246,-296.082377,919.314598
713.531911,-9770.718434,148.041188,1072.533697
713.532231,-9622.677246,-370.102971,1072.533697
713.532552,-9696.697840,-518.144159,1225.752797
713.532873,-9548.656652,-444.123565,1072.533697
713.533194,-9844.739029,-222.061783,1838.629195
713.533514,-9474.636058,-444.123565,1455.581446
713.533835,-9696.697840,-148.041188,1378.971896
713.534156,-9474.636058,-370.102971,1149.143247
713.534477,-9400.615463,-222.061783,995.924147
713.534797,-9474.636058,0.000000,1608.800546
713.535118,-9622.677246,-296.082377,1225.752797
713.535439,-9474.636058,-296.082377,1149.143247
713.535760,-9548.656652,-74.020594,1225.752797
713.536080,-9622.677246,0.000000,842.705048
713.536401,-9770.718434,-222.061783,1302.362347
713.536722,-9474.636058,-74.020594,1225.752797
713.537043,-9548.656652,0.000000,1072.533697
713.537363,-9548.656652,0.000000,1149.143247
713.537684,-9474.636058,-296.082377,919.314598
713.538005,-9548.656652,-148.041188,1072.533697
713.538326,-9548.656652,-222.061783,1149.143247
713.538646,-9474.636058,0.000000,1225.752797
713.538967,-8660.409521,-296.082377,1455.581446
713.539288,-9400.615463,0.000000,1072.533697
713.539609,-9474.636058,0.000000,1149.143247
713.539929,-9474.636058,0.000000,1149.143247
713.540250,-9696.697840,-296.082377,306.438199
713.540571,-9474.636058,-222.061783,1149.143247
713.540892,-9696.697840,0.000000,1225.752797
713.541212,-9548.656652,0.000000,1378.971896
713.541533,-9548.656652,0.000000,1225.752797
713.541854,-9548.656652,0.000000,689.485948
713.542175,-9474.636058,-148.041188,842.705048
713.542495,-9622.677246,0.000000,919.314598
713.542816,-9548.656652,-296.082377,842.705048
713.543137,-9474.636058,444.123565,689.485948
713.543458,-9622.677246,-296.082377,919.314598
713.543779,-9474.636058,-518.144159,919.314598
713.544099,-9696.697840,-296.082377,995.924147
713.544420,-9548.656652,-444.123565,1072.533697
713.544741,-9918.759623,0.000000,842.705048
713.545062,-9474.636058,-370.102971,1149.143247
713.545383,-9696.697840,-370.102971,919.314598
713.545703,-9770.718434,-592.164754,1149.143247
713.546024,-10362.883188,-740.205942,0.000000
713.546345,-9622.677246,-444.123565,1149.143247
713.546666,-9770.718434,-444.123565,919.314598
713.546987,-9548.656652,-592.164754,995.924147
713.547307,-9474.636058,-666.185348,1225.752797
713.547628,-9474.636058,-740.205942,995.924147
713.547949,-9400.615463,-592.164754,1072.533697
713.548270,-9474.636058,-370.102971,1149.143247
713.548591,-9622.677246,-444.123565,1072.533697
713.548911,-9474.636058,-222.061783,-229.828649
713.549232,-9696.697840,-74.020594,1149.143247
713.549553,-9622.677246,-444.123565,1072.533697
713.549874,-9548.656652,-518.144159,919.314598
713.550194,-9622.677246,-740.205942,919.314598
713.550515,-9474.636058,-444.123565,1072.533697
713.550836,-9918.759623,-666.185348,1149.143247
713.551157,-9548.656652,-518.144159,1225.752797
713.551478,-9696.697840,-592.164754,995.924147
713.551798,-9622.677246,-222.061783,919.314598
713.552119,-9770.718434,-666.185348,1302.362347
713.552440,-9474.636058,-740.205942,1149.143247
713.552761,-9622.677246,-370.102971,1455.581446
713.553082,-9400.615463,-444.123565,842.705048
713.553402,-9622.677246,-370.102971,1455.581446
713.553723,-9548.656652,-518.144159,1532.190996
713.554044,-9548.656652,-370.102971,1149.143247
713.554365,-9474.636058,-444.123565,1225.752797
713.554686,-9474.636058,-148.041188,1072.533697
713.555006,-9474.636058,-518.144159,1149.143247
713.555327,-9622.677246,-296.082377,1149.143247
713.555648,-9696.697840,-148.041188,1072.533697
713.555969,-9104.533087,-962.267725,919.314598
713.556289,-9696.697840,-592.164754,919.314598
713.556610,-9548.656652,-296.082377,995.924147
713.556931,-9696.697840,-74.020594,1225.752797
713.557252,-9696.697840,-148.041188,612.876398
713.557573,-9548.656652,-444.123565,842.705048
713.557893,-9696.697840,-222.061783,919.314598
713.558214,-9474.636058,-148.041188,1149.143247
713.558535,-9696.697840,-370.102971,1149.143247
713.558856,-9400.615463,-148.041188,995.924147
713.559177,-9548.656652,-296.082377,1149.143247
713.559497,-9474.636058,0.000000,1225.752797
713.559818,-9622.677246,-222.061783,1302.362347
713.560139,-9474.636058,0.000000,766.095498
713.560460,-9474.636058,0.000000,1149.143247
713.560781,-9474.636058,0.000000,1378.971896
713.561101,-9474.636058,-296.082377,1378.971896
713.561422,-9400.615463,148.041188,2528.115143
713.561743,-9474.636058,-148.041188,1149.143247
713.562064,-9400.615463,-148.041188,1225.752797
713.562384,-9770.718434,0.000000,1149.143247
713.562705,-9548.656652,0.000000,1072.533697
713.563026,-9844.739029,444.123565,1072.533697
713.563347,-9696.697840,148.041188,1302.362347
713.563668,-9844.739029,-222.061783,1455.581446
713.563988,-9770.718434,-296.082377,1225.752797
713.564309,-9918.759623,0.000000,1072.533697
713.564630,-9548.656652,0.000000,1225.752797
713.564951,-9252.574275,0.000000,1225.752797
713.565272,-9548.656652,0.000000,1149.143247
713.565592,-9474.636058,666.185348,1532.190996
713.565913,-9548.656652,-222.061783,919.314598
713.566234,-9548.656652,74.020594,1149.143247
713.566555,-9770.718434,-148.041188,1072.533697
713.566876,-9622.677246,0.000000,1302.362347
713.567196,-9696.697840,-222.061783,842.705048
713.567517,-9622.677246,-296.082377,1225.752797
713.567838,-9622.677246,-370.102971,1225.752797
713.568159,-9770.718434,-222.061783,1225.752797
713.568479,-9474.636058,0.000000,1532.190996
713.568800,-9474.636058,-296.082377,1072.533697
713.569121,-9474.636058,-370.102971,1072.533697
713.569442,-9400.615463,-148.041188,842.705048
713.569763,-10658.965565,222.061783,1838.629195
713.570083,-9548.656652,-666.185348,766.095498
713.570404,-9696.697840,-296.082377,995.924147
713.570725,-9400.615463,-370.102971,1072.533697
713.571046,-9474.636058,-444.123565,842.705048
713.571367,-9548.656652,-518.144159,689.485948
713.571687,-9622.677246,-518.144159,842.705048
713.572008,-9770.718434,-444.123565,842.705048
713.572329,-9474.636058,-518.144159,842.705048
713.572650,-9696.697840,-666.185348,1455.581446
713.572971,-9696.697840,-444.123565,995.924147
713.573291,-9474.636058,-592.164754,612.876398
713.573612,-9474.636058,-296.082377,766.095498
713.573933,-9918.759623,-962.267725,1455.581446
713.574254,-9622.677246,-518.144159,842.705048
713.574575,-9548.656652,-518.144159,1149.143247
713.574895,-9548.656652,-592.164754,1455.581446
713.575216,-9770.718434,-814.226536,1225.752797
713.575537,-9474.636058,-666.185348,689.485948
713.575858,-9844.739029,-592.164754,1302.362347
713.576178,-9844.739029,-592.164754,842.705048
713.576499,-9696.697840,-592.164754,689.485948
713.576820,-9696.697840,-296.082377,459.657299
713.577141,-9622.677246,-444.123565,612.876398
713.577462,-9622.677246,-370.102971,766.095498
713.577782,-9770.718434,-148.041188,919.314598
713.578103,-8956.491898,-888.247130,1072.533697
713.578424,-9770.718434,-444.123565,1149.143247
713.578745,-9548.656652,-444.123565,1072.533697
713.579066,-9474.636058,-740.205942,766.095498
713.579386,-9400.615463,-592.164754,1302.362347
713.579707,-9474.636058,-518.144159,1302.362347
713.580028,-9696.697840,-518.144159,995.924147
713.580349,-9474.636058,-518.144159,1149.143247
713.580670,-9696.697840,-518.144159,1149.143247
713.580990,-9548.656652,-444.123565,766.095498
713.581311,-9770.718434,-370.102971,1149.143247
713.581632,-9622.677246,0.000000,1225.752797
713.581953,-9770.718434,-518.144159,1072.533697
713.582273,-9548.656652,0.000000,995.924147
713.582594,-9548.656652,-518.144159,1149.143247
713.582915,-9474.636058,-222.061783,1149.143247
713.583236,-9474.636058,-518.144159,1378.971896
713.583557,-9622.677246,-518.144159,689.485948
713.583877,-9548.656652,-222.061783,1378.971896
713.584198,-9474.636058,-296.082377,1302.362347
713.584519,-9400.615463,0.000000,1378.971896
713.584840,-9474.636058,-148.041188,1302.362347
713.585161,-9326.594869,0.000000,1072.533697
713.585481,-9548.656652,-444.123565,1225.752797
713.585802,-9548.656652,0.000000,995.924147
713.586123,-9696.697840,-148.041188,995.924147
713.586444,-9918.759623,666.185348,1225.752797
713.586765,-9622.677246,-296.082377,1072.533697
713.587085,-9474.636058,0.000000,995.924147
713.587406,-9696.697840,-296.082377,766.095498
713.587727,-9622.677246,0.000000,1378.971896
713.588048,-9770.718434,-296.082377,1455.581446
713.588368,-9548.656652,0.000000,1225.752797
713.588689,-9474.636058,0.000000,919.314598
713.589010,-9622.677246,0.000000,842.705048
713.589331,-9622.677246,222.061783,842.705048
713.589652,-9696.697840,0.000000,842.705048
713.589972,-9696.697840,0.000000,1302.362347
713.590293,-9474.636058,-222.061783,1072.533697
713.590614,-9104.533087,-148.041188,995.924147
713.590935,-9474.636058,0.000000,1072.533697
713.591256,-9696.697840,-370.102971,1149.143247
713.591576,-9474.636058,-296.082377,1149.143247
713.591897,-9474.636058,-518.144159,919.314598
713.592218,-9400.615463,-592.164754,1149.143247
713.592539,-9548.656652,-370.102971,612.876398
713.592860,-9474.636058,-444.123565,919.314598
713.593180,-9622.677246,-222.061783,536.266849
713.593501,-9474.636058,0.000000,1149.143247
713.593822,-9326.594869,0.000000,1072.533697
713.594143,-9474.636058,-592.164754,766.095498
713.594463,-9548.656652,-296.082377,919.314598
713.594784,-10140.821405,-370.102971,2681.334243
713.595105,-9696.697840,-370.102971,919.314598
713.595426,-9548.656652,-592.164754,919.314598
713.595747,-9548.656652,-518.144159,995.924147
713.596067,-9548.656652,-370.102971,1072.533697
713.596388,-9252.574275,-666.185348,536.266849
713.596709,-9474.636058,-518.144159,919.314598
713.597030,-9622.677246,-592.164754,842.705048
713.597351,-9474.636058,-740.205942,536.266849
713.597671,-9622.677246,-148.041188,2068.457845
713.597992,-9696.697840,-296.082377,1225.752797
713.598313,-9548.656652,-444.123565,1225.752797
713.598634,-9696.697840,-370.102971,1149.143247
713.598955,-9622.677246,-666.185348,2451.505594
713.599275,-9696.697840,-222.061783,1225.752797
713.599596,-9770.718434,-592.164754,1225.752797
713.599917,-9548.656652,-370.102971,1225.752797
713.600238,-9696.697840,-518.144159,1455.581446
713.600559,-9696.697840,-74.020594,1302.362347
713.600879,-9622.677246,-370.102971,1378.971896
713.601200,-9400.615463,-370.102971,1072.533697
713.601521,-9548.656652,-518.144159,842.705048
713.601842,-9844.739029,148.041188,766.095498
713.602162,-9918.759623,-222.061783,1302.362347
713.602483,-9548.656652,0.000000,1455.581446
713.602804,-9918.759623,-296.082377,1532.190996
713.603125,-9622.677246,-592.164754,919.314598
713.603446,-9696.697840,-444.123565,1455.581446
713.603766,-9622.677246,-370.102971,1225.752797
713.604087,-9548.656652,-222.061783,1225.752797
713.604408,-9474.636058,-592.164754,1149.143247
713.604729,-9474.636058,-370.102971,459.657299
713.605050,-9400.615463,-370.102971,842.705048
713.605370,-9474.636058,-222.061783,919.314598
713.605691,-9474.636058,0.000000,1302.362347
713.606012,-8882.471304,0.000000,2221.676944
713.606333,-9770.718434,0.000000,1149.143247
713.606654,-9770.718434,0.000000,1225.752797
713.606974,-9696.697840,-222.061783,1378.971896
713.607295,-9770.718434,-296.082377,1072.533697
713.607616,-9622.677246,-370.102971,1225.752797
713.607937,-9548.656652,-148.041188,1072.533697
713.608257,-9622.677246,0.000000,919.314598
713.608578,-9548.656652,0.000000,1225.752797
713.608899,-9030.512492,-148.041188,1302.362347
713.609220,-9474.636058,0.000000,995.924147
713.609541,-9548.656652,-222.061783,919.314598
713.609861,-9474.636058,0.000000,1149.143247
713.610182,-9770.718434,0.000000,2068.457845
713.610503,-9548.656652,0.000000,1149.143247
713.610824,-9770.718434,0.000000,1532.190996
713.611145,-9548.656652,-222.061783,1072.533697
713.611465,-9696.697840,0.000000,1149.143247
713.611786,-9474.636058,0.000000,1149.143247
713.612107,-9622.677246,0.000000,1149.143247
713.612428,-9548.656652,0.000000,1225.752797
713.612749,-9548.656652,-74.020594,1072.533697
713.613069,-9474.636058,-296.082377,1072.533697
713.613390,-9622.677246,-370.102971,919.314598
713.613711,-9622.677246,-148.041188,1072.533697
713.614032,-9844.739029,-222.061783,1072.533697
713.614352,-9622.677246,888.247130,2298.286494
713.614673,-9844.739029,-518.144159,1149.143247
713.614994,-9622.677246,0.000000,1302.362347
713.615315,-9770.718434,-148.041188,1072.533697
713.615636,-9992.780217,-370.102971,1225.752797
713.615956,-9548.656652,-518.144159,919.314598
713.616277,-9474.636058,-370.102971,995.924147
713.616598,-9548.656652,-518.144159,919.314598
713.616919,-9474.636058,-370.102971,919.314598
713.617240,-10066.800811,-370.102971,383.047749
713.617560,-9474.636058,-518.144159,612.876398
713.617881,-9548.656652,-592.164754,612.876398
713.618202,-9622.677246,-666.185348,842.705048
713.618523,-10214.842000,296.082377,459.657299
713.618844,-9770.718434,-444.123565,1072.533697
713.619164,-9548.656652,-592.164754,1072.533697
713.619485,-9770.718434,-370.102971,1762.019645
713.619806,-9770.718434,-296.082377,1455.581446
713.620127,-9474.636058,-740.205942,1149.143247
713.620447,-9474.636058,-444.123565,1378.971896
713.620768,-9696.697840,-740.205942,919.314598
713.621089,-9400.615463,-740.205942,1072.533697
713.621410,-9622.677246,-1110.308913,0.000000
713.621731,-9474.636058,-444.123565,766.095498
713.622051,-9622.677246,-740.205942,383.047749
713.622372,-9622.677246,-444.123565,919.314598
713.622693,-9844.739029,-740.205942,842.705048
713.623014,-9696.697840,-592.164754,1072.533697
713.623335,-9770.718434,-592.164754,995.924147
713.623655,-9918.759623,-370.102971,1072.533697
713.623976,-9844.739029,-592.164754,1455.581446
713.624297,-10066.800811,-740.205942,995.924147
713.624618,-9622.677246,-592.164754,919.314598
713.624939,-9400.615463,-666.185348,1225.752797
713.625259,-9474.636058,-518.144159,995.924147
713.625580,-9474.636058,-222.061783,2451.505594
713.625901,-9474.636058,-370.102971,1072.533697
713.626222,-9548.656652,-222.061783,1225.752797
713.626543,-9770.718434,-222.061783,1149.143247
713.626863,-9696.697840,-370.102971,1532.190996
713.627184,-9770.718434,-148.041188,1225.752797
713.627505,-9844.739029,-296.082377,1072.533697
713.627826,-9770.718434,-444.123565,1378.971896
713.628146,-9844.739029,0.000000,1302.362347
713.628467,-9178.553681,-666.185348,842.705048
713.628788,-9474.636058,-296.082377,1225.752797
713.629109,-9474.636058,-148.041188,919.314598
713.629430,-9474.636058,-518.144159,766.095498
713.629750,-9104.533087,-444.123565,1455.581446
713.630071,-9474.636058,-370.102971,1378.971896
713.630392,-9474.636058,-148.041188,1072.533697
713.630713,-9548.656652,-148.041188,1072.533697
713.631034,-9548.656652,-444.123565,1149.143247
713.631354,-9548.656652,-296.082377,1225.752797
713.631675,-9622.677246,-74.020594,1532.190996
713.631996,-9770.718434,-370.102971,1608.800546
713.632317,-9474.636058,0.000000,1302.362347
713.632638,-9622.677246,0.000000,1072.533697
713.632958,-9474.636058,0.000000,1072.533697
713.633279,-9474.636058,-222.061783,842.705048
713.633600,-9474.636058,-444.123565,842.705048
713.633921,-9474.636058,-740.205942,1225.752797
713.634241,-9548.656652,74.020594,1532.190996
713.634562,-9770.718434,-296.082377,1225.752797
713.634883,-9548.656652,0.000000,1149.143247
713.635204,-9622.677246,-296.082377,1378.971896
713.635525,-9770.718434,-148.041188,1302.362347
713.635845,-9770.718434,-222.061783,1302.362347
713.636166,-9474.636058,0.000000,1072.533697
713.636487,-9474.636058,-148.041188,919.314598
713.636808,-9548.656652,-222.061783,612.876398
713.637129,-9770.718434,-148.041188,766.095498
713.637449,-9548.656652,0.000000,1072.533697
713.637770,-9474.636058,-370.102971,995.924147
713.638091,-9326.594869,0.000000,766.095498
713.638412,-9696.697840,0.000000,919.314598
713.638733,-9696.697840,-296.082377,689.485948
713.639053,-9844.739029,-74.020594,919.314598
713.639374,-9696.697840,-518.144159,1378.971896
713.639695,-9770.718434,-222.061783,919.314598
713.640016,-9696.697840,-518.144159,1149.143247
713.640336,-9622.677246,-444.123565,995.924147
713.640657,-9474.636058,-592.164754,919.314598
713.640978,-9474.636058,-518.144159,1149.143247
713.641299,-9474.636058,-444.123565,919.314598
713.641620,-9770.718434,-444.123565,1072.533697
713.641940,-9474.636058,-444.123565,1072.533697
713.642261,-9252.574275,0.000000,536.266849
713.642582,-9770.718434,-444.123565,766.095498
713.642903,-9548.656652,-444.123565,1149.143247
713.643224,-9844.739029,-148.041188,1225.752797
713.643544,-9548.656652,-518.144159,689.485948
713.643865,-9770.718434,-592.164754,919.314598
713.644186,-9474.636058,-518.144159,1072.533697
713.644507,-9474.636058,-740.205942,1072.533697
713.644827,-9400.615463,-444.123565,1455.581446
713.645148,-9548.656652,-666.185348,995.924147
713.645469,-9474.636058,-370.102971,1149.143247
713.645789,-9696.697840,-592.164754,919.314598
713.646110,-9474.636058,-222.061783,1378.971896
713.646431,-8882.471304,-814.226536,2528.115143
713.646751,-9474.636058,-370.102971,1225.752797
713.647072,-9770.718434,-518.144159,995.924147
713.647393,-9770.718434,-370.102971,1225.752797
713.647714,-9548.656652,-370.102971,1149.143247
713.648034,-9548.656652,-592.164754,1072.533697
713.648355,-9770.718434,-370.102971,1225.752797
713.648676,-9844.739029,-370.102971,1302.362347
713.648996,-9548.656652,-444.123565,919.314598
713.649317,-10214.842000,-444.123565,306.438199
713.649638,-9474.636058,-370.102971,1302.362347
713.649958,-9696.697840,-370.102971,919.314598
713.650279,-9770.718434,-444.123565,1149.143247
713.650600,-9474.636058,-296.082377,766.095498
713.650920,-9696.697840,0.000000,842.705048
713.651241,-9622.677246,0.000000,1225.752797
713.651562,-9696.697840,-296.082377,1225.752797
713.651883,-9474.636058,-222.061783,919.314598
713.652203,-10214.842000,0.000000,766.095498
713.652524,-9548.656652,0.000000,995.924147
713.652845,-9696.697840,-74.020594,1455.581446
713.653165,-9548.656652,-148.041188,995.924147
713.653486,-9548.656652,-444.123565,1072.533697
713.653807,-9474.636058,0.000000,842.705048
713.654127,-9474.636058,-296.082377,995.924147
713.654448,-9548.656652,-148.041188,1302.362347
713.654769,-9548.656652,-74.020594,1302.362347
713.655089,-9252.574275,-740.205942,1302.362347
713.655410,-9622.677246,-370.102971,1225.752797
713.655731,-9622.677246,-222.061783,1225.752797
713.656051,-9474.636058,-296.082377,1302.362347
713.656372,-9622.677246,-148.041188,1378.971896
713.656693,-9474.636058,-222.061783,1072.533697
713.657014,-9474.636058,0.000000,1455.581446
713.657334,-9622.677246,-222.061783,1302.362347
713.657655,-9548.656652,0.000000,1149.143247
713.657976,-9622.677246,1036.288319,919.314598
713.658296,-9918.759623,-148.041188,995.924147
713.658617,-9622.677246,0.000000,1149.143247
713.658938,-9622.677246,-296.082377,1302.362347
713.659258,-9548.656652,-74.020594,1455.581446
713.659579,-9696.697840,0.000000,1532.190996
713.659900,-9548.656652,-148.041188,1072.533697
713.660220,-9622.677246,-518.144159,1072.533697
713.660541,-9474.636058,0.000000,995.924147
713.660862,-9548.656652,0.000000,1149.143247
713.661183,-9770.718434,0.000000,1991.848295
713.661503,-9474.636058,-370.102971,842.705048
713.661824,-9474.636058,-444.123565,842.705048
713.662145,-9548.656652,-370.102971,919.314598
713.662465,-9770.718434,-296.082377,1149.143247
713.662786,-9548.656652,-296.082377,1225.752797
713.663107,-9548.656652,-370.102971,1072.533697
713.663427,-9770.718434,-296.082377,995.924147
713.663748,-9474.636058,-444.123565,842.705048
713.664069,-9622.677246,-592.164754,229.828649
713.664389,-9474.636058,-666.185348,842.705048
713.664710,-9548.656652,-518.144159,689.485948
713.665031,-9474.636058,-296.082377,1072.533697
713.665351,-9474.636058,370.102971,919.314598
713.665672,-9548.656652,-148.041188,995.924147
713.665993,-9844.739029,-444.123565,1455.581446
713.666314,-9400.615463,-740.205942,919.314598
713.666634,-9548.656652,-814.226536,842.705048
713.666955,-9622.677246,-740.205942,306.438199
713.667276,-9548.656652,-740.205942,842.705048
713.667596,-9696.697840,-518.144159,1072.533697
713.667917,-9474.636058,-666.185348,842.705048
713.668238,-8290.306550,-1184.329507,2145.067394
713.668558,-9474.636058,-814.226536,536.266849
713.668879,-9770.718434,-592.164754,459.657299
713.669200,-9696.697840,-592.164754,1072.533697
713.669520,-9770.718434,-444.123565,689.485948
713.669841,-9918.759623,-666.185348,842.705048
713.670162,-9696.697840,-666.185348,995.924147
713.670483,-9548.656652,-740.205942,1072.533697
713.670803,-9622.677246,-740.205942,1302.362347
713.671124,-8956.491898,-592.164754,1149.143247
713.671445,-9548.656652,-518.144159,919.314598
713.671765,-9474.636058,-518.144159,1532.190996
713.672086,-9622.677246,-592.164754,1072.533697
713.672407,-9474.636058,-296.082377,2145.067394
713.672727,-9548.656652,-592.164754,919.314598
713.673048,-9696.697840,-370.102971,1149.143247
713.673369,-9622.677246,-814.226536,1302.362347
713.673689,-9622.677246,-592.164754,995.924147
713.674010,-9622.677246,-592.164754,689.485948
713.674331,-9622.677246,-444.123565,919.314598
713.674651,-9844.739029,-666.185348,842.705048
713.674972,-9770.718434,-592.164754,1149.143247
713.675293,-9400.615463,-592.164754,1838.629195
713.675614,-9622.677246,-518.144159,919.314598
713.675934,-9770.718434,-444.123565,1378.971896
713.676255,-9622.677246,-444.123565,1532.190996
713.676576,-9622.677246,-740.205942,689.485948
713.676896,-9622.677246,-518.144159,1378.971896
713.677217,-9474.636058,-370.102971,1149.143247
713.677538,-9474.636058,-518.144159,995.924147
713.677858,-9474.636058,-222.061783,1378.971896
713.678179,-9622.677246,0.000000,919.314598
713.678500,-9696.697840,-222.061783,1072.533697
713.678820,-9474.636058,0.000000,919.314598
713.679141,-9548.656652,0.000000,1532.190996
713.679462,-9696.697840,518.144159,1685.410096
713.679783,-9844.739029,0.000000,1532.190996
713.680103,-9474.636058,-296.082377,1072.533697
713.680424,-9548.656652,-296.082377,995.924147
713.680745,-9548.656652,-814.226536,-306.438199
713.681065,-9622.677246,-148.041188,1455.581446
713.681386,-9474.636058,0.000000,1378.971896
713.681707,-9548.656652,222.061783,1225.752797
713.682027,-9622.677246,74.020594,1072.533697
713.682348,-9918.759623,370.102971,1302.362347
713.682669,-9474.636058,0.000000,1455.581446
713.682989,-9548.656652,148.041188,1225.752797
713.683310,-9622.677246,-296.082377,995.924147
713.683631,-9474.636058,0.000000,1225.752797
713.683952,-9474.636058,-296.082377,689.485948
713.684272,-9474.636058,-148.041188,689.485948
713.684593,-9622.677246,0.000000,1072.533697
713.684914,-9918.759623,592.164754,2068.457845
713.685234,-9770.718434,0.000000,1225.752797
713.685555,-9918.759623,0.000000,995.924147
713.685876,-9622.677246,-296.082377,1149.143247
713.686196,-9548.656652,-518.144159,995.924147
713.686517,-9622.677246,-370.102971,919.314598
713.686838,-9474.636058,-370.102971,995.924147
713.687158,-9326.594869,-296.082377,1072.533697
713.687479,-9548.656652,-444.123565,995.924147
713.687800,-9844.739029,-518.144159,-459.657299
713.688120,-9474.636058,-296.082377,842.705048
713.688441,-9622.677246,-296.082377,919.314598
713.688762,-9548.656652,-370.102971,1225.752797
713.689083,-9622.677246,-666.185348,919.314598
713.689403,-9400.615463,-592.164754,689.485948
713.689724,-9400.615463,-444.123565,842.705048
713.690045,-9548.656652,-518.144159,536.266849
713.690365,-9622.677246,-296.082377,1072.533697
713.690686,-9622.677246,-444.123565,1072.533697
713.691007,-9770.718434,-296.082377,1302.362347
713.691327,-9622.677246,-666.185348,1149.143247
713.691648,-9770.718434,-740.205942,995.924147
713.691969,-9696.697840,-444.123565,3830.477490
713.692289,-9548.656652,-370.102971,1302.362347
713.692610,-9622.677246,-518.144159,1149.143247
713.692931,-9474.636058,-370.102971,1302.362347
713.693252,-9474.636058,-592.164754,842.705048
713.693572,-9252.574275,-592.164754,995.924147
713.693893,-9918.759623,-518.144159,1072.533697
713.694214,-9548.656652,-518.144159,995.924147
713.694534,-9696.697840,-666.185348,1072.533697
713.694855,-9992.780217,148.041188,995.924147
713.695176,-9844.739029,-518.144159,1225.752797
713.695496,-9622.677246,-518.144159,1225.752797
713.695817,-9844.739029,-518.144159,1149.143247
713.696138,-9104.533087,-814.226536,1991.848295
713.696458,-9696.697840,-592.164754,1072.533697
713.696779,-9548.656652,-296.082377,1302.362347
713.697100,-9622.677246,-222.061783,1378.971896
713.697420,-9474.636058,-592.164754,995.924147
713.697741,-9252.574275,0.000000,919.314598
713.698062,-9548.656652,-518.144159,1149.143247
713.698383,-9622.677246,-222.061783,1072.533697
713.698703,-9770.718434,-222.061783,1378.971896
713.699024,-9252.574275,-148.041188,1838.629195
713.699345,-9622.677246,0.000000,1225.752797
713.699665,-9770.718434,0.000000,1149.143247
713.699986,-9918.759623,-444.123565,1302.362347
713.700307,-9622.677246,-296.082377,766.095498
713.700627,-9696.697840,-296.082377,536.266849
713.700948,-9474.636058,-296.082377,995.924147
713.701269,-9622.677246,-222.061783,1072.533697
713.701589,-9548.656652,0.000000,1149.143247
713.701910,-9474.636058,0.000000,995.924147
713.702231,-9474.636058,0.000000,1149.143247
713.702552,-9696.697840,-74.020594,842.705048
713.702872,-9548.656652,-222.061783,1302.362347
713.703193,-9474.636058,0.000000,1685.410096
713.703514,-9622.677246,-444.123565,995.924147
713.703834,-9474.636058,0.000000,766.095498
713.704155,-9622.677246,0.000000,919.314598
713.704476,-9918.759623,444.123565,76.609550
713.704796,-9548.656652,0.000000,1072.533697
713.705117,-9622.677246,-222.061783,1378.971896
713.705438,-9770.718434,-444.123565,1302.362347
713.705758,-9474.636058,0.000000,1225.752797
713.706079,-9844.739029,-296.082377,766.095498
713.706400,-9622.677246,0.000000,1149.143247
713.706720,-9474.636058,-148.041188,842.705048
713.707041,-9178.553681,0.000000,1072.533697
713.707362,-9992.780217,222.061783,766.095498
713.707683,-9548.656652,0.000000,995.924147
713.708003,-9548.656652,-222.061783,919.314598
713.708324,-9770.718434,-222.061783,1225.752797
713.708645,-9696.697840,-740.205942,2681.334243
713.708965,-9622.677246,-222.061783,1149.143247
713.709286,-9622.677246,-222.061783,1149.143247
713.709607,-9548.656652,-222.061783,1149.143247
713.709927,-9474.636058,-148.041188,995.924147
713.710248,-9622.677246,-222.061783,1225.752797
713.710569,-9474.636058,-222.061783,1072.533697
713.710889,-9770.718434,-296.082377,842.705048
713.711210,-9474.636058,-296.082377,1302.362347
713.711531,-10214.842000,-666.185348,842.705048
713.711852,-9622.677246,-370.102971,766.095498
713.712172,-9622.677246,-444.123565,1072.533697
713.712493,-9474.636058,-444.123565,919.314598
713.712814,-9844.739029,0.000000,1072.533697
713.713134,-9548.656652,-370.102971,1225.752797
713.713455,-9622.677246,-666.185348,766.095498
713.713776,-9474.636058,-740.205942,1225.752797
713.714096,-9770.718434,-518.144159,842.705048
713.714417,-9474.636058,-592.164754,1072.533697
713.714738,-9474.636058,-592.164754,1149.143247
713.715058,-9548.656652,-666.185348,1072.533697
713.715379,-9622.677246,-592.164754,689.485948
713.715700,-9992.780217,-222.061783,1378.971896
713.716020,-9474.636058,-518.144159,919.314598
713.716341,-9474.636058,-740.205942,995.924147
713.716662,-9548.656652,-370.102971,842.705048
713.716983,-9548.656652,-740.205942,-229.828649
713.717303,-9548.656652,-518.144159,766.095498
713.717624,-9770.718434,-740.205942,842.705048
713.717945,-9622.677246,-444.123565,766.095498
713.718265,-9474.636058,-518.144159,995.924147
713.718586,-9400.615463,-962.267725,1302.362347
713.718907,-9770.718434,-740.205942,1302.362347
713.719227,-9622.677246,-370.102971,1072.533697
713.719548,-9622.677246,-592.164754,1149.143247
713.719869,-9696.697840,-518.144159,1225.752797
713.720189,-9696.697840,-518.144159,995.924147
713.720510,-9400.615463,-296.082377,1225.752797
713.720831,-9622.677246,-370.102971,1532.190996
713.721152,-9474.636058,-740.205942,1302.362347
713.721472,-9770.718434,-296.082377,612.876398
713.721793,-9844.739029,-296.082377,1149.143247
713.722114,-9770.718434,-148.041188,842.705048
713.722434,-9622.677246,0.000000,1225.752797
713.722755,-9770.718434,-74.020594,1225.752797
713.723076,-9696.697840,-148.041188,919.314598
713.723396,-9548.656652,-518.144159,1378.971896
713.723717,-9474.636058,-370.102971,1302.362347
713.724038,-9474.636058,-814.226536,1072.533697
713.724358,-9400.615463,-370.102971,1302.362347
713.724679,-9474.636058,-296.082377,1072.533697
713.725000,-9548.656652,0.000000,1149.143247
713.725320,-9622.677246,74.020594,1378.971896
713.725641,-9400.615463,0.000000,995.924147
713.725962,-9696.697840,74.020594,1455.581446
713.726283,-9696.697840,-74.020594,995.924147
713.726603,-9474.636058,0.000000,1072.533697
713.726924,-9622.677246,-296.082377,995.924147
713.727245,-9622.677246,0.000000,1302.362347
713.727565,-9474.636058,-222.061783,1072.533697
713.727886,-9622.677246,-222.061783,1225.752797
713.728207,-9474.636058,-444.123565,2451.505594
713.728527,-9696.697840,-148.041188,1378.971896
713.728848,-9696.697840,-148.041188,1455.581446
713.729169,-9548.656652,-222.061783,1225.752797
713.729489,-9474.636058,-148.041188,536.266849
713.729810,-9326.594869,-222.061783,995.924147
713.730131,-9400.615463,0.000000,842.705048
713.730452,-9696.697840,-148.041188,1072.533697
713.730772,-9474.636058,0.000000,1072.533697
713.731093,-9770.718434,74.020594,919.314598
713.731414,-9474.636058,-296.082377,689.485948
713.731734,-9622.677246,0.000000,1072.533697
713.732055,-9696.697840,-296.082377,1455.581446
713.732376,-9622.677246,-814.226536,1302.362347
713.732696,-9474.636058,-518.144159,1149.143247
713.733017,-9622.677246,-222.061783,842.705048
713.733338,-9696.697840,-370.102971,1302.362347
713.733658,-9548.656652,0.000000,1838.629195
713.733979,-9474.636058,-518.144159,689.485948
713.734300,-9474.636058,-296.082377,995.924147
713.734620,-9474.636058,-740.205942,995.924147
713.734941,-9696.697840,-592.164754,1072.533697
713.735262,-9696.697840,-518.144159,459.657299
713.735583,-9622.677246,-296.082377,842.705048
713.735903,-9474.636058,-444.123565,919.314598
713.736224,-9548.656652,-592.164754,919.314598
713.736545,-8808.450710,-740.205942,2145.067394
713.736865,-9770.718434,-592.164754,1225.752797
713.737186,-9474.636058,-592.164754,1072.533697
713.737507,-9770.718434,-518.144159,1072.533697
713.737827,-9622.677246,-518.144159,1991.848295
713.738148,-9696.697840,-592.164754,1225.752797
713.738469,-9474.636058,-666.185348,919.314598
713.738789,-9696.697840,-888.247130,1072.533697
713.739110,-9474.636058,-444.123565,995.924147
713.739431,-9622.677246,-518.144159,612.876398
713.739752,-9474.636058,-444.123565,1225.752797
713.740072,-9622.677246,-518.144159,1149.143247
713.740393,-9474.636058,-370.102971,1378.971896
713.740714,-9400.615463,-370.102971,1991.848295
713.741034,-9474.636058,-740.205942,1302.362347
713.741355,-9770.718434,-740.205942,1225.752797
713.741676,-9474.636058,-740.205942,1072.533697
713.741996,-9844.739029,-444.123565,1455.581446
713.742317,-9474.636058,-444.123565,919.314598
713.742638,-9548.656652,-296.082377,1302.362347
713.742958,-9622.677246,-666.185348,919.314598
713.743279,-9474.636058,-370.102971,1378.971896
713.743600,-9548.656652,-296.082377,1302.362347
713.743920,-9622.677246,-222.061783,1225.752797
713.744241,-9622.677246,-370.102971,995.924147
713.744562,-9770.718434,-296.082377,1149.143247
713.744882,-10362.883188,592.164754,1072.533697
713.745203,-9770.718434,-370.102971,1149.143247
713.745524,-9474.636058,-370.102971,1378.971896
713.745844,-9622.677246,-148.041188,919.314598
713.746165,-9548.656652,-222.061783,1149.143247
713.746486,-9474.636058,0.000000,995.924147
713.746806,-9548.656652,-444.123565,842.705048
713.747127,-9622.677246,-296.082377,919.314598
713.747447,-9844.739029,0.000000,842.705048
713.747768,-9474.636058,74.020594,612.876398
713.748089,-9696.697840,-444.123565,1225.752797
713.748409,-9548.656652,0.000000,919.314598
713.748730,-9622.677246,0.000000,1225.752797
713.749051,-9548.656652,-444.123565,612.876398
713.749371,-9770.718434,-74.020594,1378.971896
713.749692,-9548.656652,-148.041188,1378.971896
713.750013,-9474.636058,0.000000,1302.362347
713.750333,-9548.656652,0.000000,842.705048
713.750654,-9844.739029,222.061783,1072.533697
713.750974,-9622.677246,0.000000,919.314598
713.751295,-9696.697840,74.020594,1149.143247
713.751616,-9474.636058,0.000000,1302.362347
713.751936,-9844.739029,74.020594,1455.581446
713.752257,-9696.697840,0.000000,1378.971896
713.752578,-9548.656652,0.000000,1378.971896
713.752898,-9548.656652,0.000000,1455.581446
713.753219,-9548.656652,0.000000,919.314598
713.753540,-9400.615463,0.000000,1149.143247
713.753860,-9548.656652,-148.041188,1225.752797
713.754181,-9474.636058,0.000000,1149.143247
713.754501,-9622.677246,74.020594,1225.752797
713.754822,-9474.636058,-222.061783,1072.533697
713.755143,-9548.656652,-148.041188,919.314598
713.755463,-10066.800811,0.000000,1302.362347
713.755784,-9548.656652,0.000000,919.314598
713.756105,-9622.677246,-296.082377,842.705048
713.756425,-9548.656652,-518.144159,842.705048
713.756746,-9844.739029,-370.102971,1072.533697
713.757067,-9622.677246,-222.061783,919.314598
713.757387,-9548.656652,-592.164754,766.095498
713.757708,-9548.656652,-444.123565,766.095498
713.758028,-9622.677246,-296.082377,1302.362347
713.758349,-9548.656652,-666.185348,1072.533697
713.758670,-9548.656652,-592.164754,1149.143247
713.758990,-9622.677246,-296.082377,766.095498
713.759311,-10140.821405,-222.061783,995.924147
713.759632,-9696.697840,-296.082377,995.924147
713.759952,-9622.677246,-370.102971,1072.533697
713.760273,-9622.677246,-296.082377,766.095498
713.760593,-9548.656652,-444.123565,919.314598
713.760914,-9770.718434,-666.185348,689.485948
713.761235,-9844.739029,-592.164754,689.485948
713.761555,-9400.615463,-518.144159,1072.533697
713.761876,-9474.636058,-666.185348,842.705048
713.762197,-9326.594869,-740.205942,1225.752797
713.762517,-9474.636058,-888.247130,612.876398
713.762838,-9696.697840,-962.267725,842.705048
713.763159,-9696.697840,-444.123565,459.657299
713.763479,-9400.615463,-222.061783,459.657299
713.763800,-9696.697840,-592.164754,689.485948
713.764120,-9474.636058,-444.123565,1225.752797
713.764441,-9696.697840,-592.164754,1149.143247
713.764762,-9548.656652,-444.123565,1378.971896
713.765082,-9696.697840,-666.185348,1225.752797
713.765403,-9622.677246,-666.185348,995.924147
713.765724,-9474.636058,-518.144159,1378.971896
713.766044,-9400.615463,-370.102971,1149.143247
713.766365,-9326.594869,-370.102971,766.095498
713.766686,-9326.594869,-222.061783,919.314598
713.767006,-9696.697840,-666.185348,1072.533697
713.767327,-9474.636058,-592.164754,995.924147
713.767647,-8586.388927,-592.164754,766.095498
713.767968,-9548.656652,-370.102971,1072.533697
713.768289,-9844.739029,-222.061783,1149.143247
713.768609,-9770.718434,-592.164754,1149.143247
713.768930,-9474.636058,-592.164754,1378.971896
713.769251,-9548.656652,-592.164754,1225.752797
713.769571,-9770.718434,-296.082377,1072.533697
713.769892,-9548.656652,-296.082377,919.314598
713.770213,-9474.636058,-592.164754,919.314598
713.770533,-9548.656652,-666.185348,536.266849
713.770854,-9696.697840,-370.102971,995.924147
713.771174,-9622.677246,-296.082377,1532.190996
713.771495,-9622.677246,-148.041188,1378.971896
713.771816,-8882.471304,296.082377,1915.238745
713.772136,-9622.677246,-148.041188,1302.362347
713.772457,-9474.636058,-296.082377,1455.581446
713.772778,-9548.656652,-296.082377,1302.362347
713.773098,-9252.574275,-296.082377,383.047749
713.773419,-9770.718434,-222.061783,919.314598
713.773740,-9326.594869,-222.061783,1072.533697
713.774060,-9474.636058,0.000000,1149.143247
713.774381,-9474.636058,-222.061783,1225.752797
713.774701,-9474.636058,0.000000,1072.533697
713.775022,-9474.636058,-222.061783,1302.362347
713.775343,-9770.718434,-370.102971,919.314598
713.775663,-9622.677246,0.000000,1608.800546
713.775984,-9844.739029,0.000000,1455.581446
713.776305,-9622.677246,0.000000,1302.362347
713.776625,-9770.718434,0.000000,1149.143247
713.776946,-9770.718434,74.020594,1455.581446
713.777267,-9770.718434,0.000000,1149.143247
713.777587,-9474.636058,74.020594,1378.971896
713.777908,-9474.636058,0.000000,1149.143247
713.778228,-9400.615463,-74.020594,1149.143247
713.778549,-9400.615463,-222.061783,612.876398
713.778870,-9474.636058,-222.061783,995.924147
713.779190,-9622.677246,-74.020594,536.266849
713.779511,-9400.615463,-296.082377,842.705048
713.779832,-9696.697840,-296.082377,1149.143247
713.780152,-9548.656652,0.000000,612.876398
713.780473,-9992.780217,-518.144159,1225.752797
713.780794,-9696.697840,-222.061783,995.924147
713.781114,-9696.697840,-296.082377,1072.533697
713.781435,-9622.677246,-148.041188,1072.533697
713.781755,-9622.677246,-222.061783,1149.143247
713.782076,-9474.636058,0.000000,919.314598
713.782397,-9474.636058,-296.082377,919.314598
713.782717,-9474.636058,-518.144159,536.266849
713.783038,-8734.430116,-518.144159,1072.533697
713.783359,-9400.615463,-592.164754,842.705048
713.783679,-9548.656652,-592.164754,842.705048
713.784000,-9548.656652,-518.144159,766.095498
713.784321,-9622.677246,-518.144159,383.047749
713.784641,-9918.759623,-518.144159,1378.971896
713.784962,-9844.739029,-814.226536,1072.533697
713.785282,-9696.697840,-444.123565,1149.143247
713.785603,-9696.697840,-444.123565,995.924147
713.785924,-9474.636058,-444.123565,842.705048
713.786244,-9548.656652,-592.164754,919.314598
713.786565,-9474.636058,-592.164754,1532.190996
713.786886,-9548.656652,-518.144159,689.485948
713.787206,-9770.718434,-296.082377,612.876398
713.787527,-9770.718434,-518.144159,1072.533697
713.787848,-9622.677246,-296.082377,1072.533697
713.788168,-9622.677246,-296.082377,1455.581446
713.788489,-9548.656652,296.082377,1532.190996
713.788809,-9770.718434,-666.185348,1302.362347
713.789130,-9844.739029,-444.123565,1378.971896
713.789451,-9844.739029,-518.144159,1149.143247
713.789771,-9548.656652,-296.082377,1072.533697
713.790092,-9548.656652,-592.164754,1838.629195
713.790413,-9474.636058,-296.082377,919.314598
713.790733,-9474.636058,-518.144159,1225.752797
713.791054,-9770.718434,-370.102971,1378.971896
713.791375,-9548.656652,-962.267725,-229.828649
713.791695,-9622.677246,-666.185348,1072.533697
713.792016,-9622.677246,-222.061783,1302.362347
713.792336,-9696.697840,-370.102971,919.314598
713.792657,-9548.656652,0.000000,1225.752797
713.792978,-9400.615463,-518.144159,919.314598
713.793298,-9622.677246,-148.041188,1378.971896
713.793619,-9548.656652,-370.102971,1149.143247
713.793940,-9548.656652,-148.041188,1072.533697
713.794260,-9844.739029,74.020594,1225.752797
713.794581,-9622.677246,-222.061783,1149.143247
713.794901,-9548.656652,-296.082377,1072.533697
713.795222,-9622.677246,-222.061783,919.314598
713.795543,-10066.800811,222.061783,0.000000
713.795863,-9548.656652,-148.041188,995.924147
713.796184,-9474.636058,-148.041188,995.924147
713.796505,-9474.636058,0.000000,1225.752797
713.796825,-9622.677246,0.000000,1302.362347
713.797146,-9400.615463,-296.082377,1072.533697
713.797467,-9474.636058,-296.082377,1149.143247
713.797787,-9696.697840,0.000000,1302.362347
713.798108,-9474.636058,-370.102971,766.095498
713.798428,-9696.697840,0.000000,842.705048
713.798749,-9548.656652,0.000000,1225.752797
713.799070,-9696.697840,-148.041188,995.924147
713.799390,-9696.697840,-148.041188,1149.143247
713.799711,-9696.697840,222.061783,383.047749
713.800032,-9548.656652,0.000000,919.314598
713.800352,-9918.759623,0.000000,995.924147
713.800673,-9474.636058,0.000000,1149.143247
713.800994,-9918.759623,-148.041188,1072.533697
713.801314,-9474.636058,0.000000,1225.752797
713.801635,-9770.718434,0.000000,919.314598
713.801955,-9622.677246,-222.061783,1072.533697
713.802276,-9696.697840,-592.164754,1149.143247
713.802597,-9696.697840,-518.144159,1149.143247
713.802917,-9622.677246,-296.082377,1072.533697
713.803238,-9622.677246,-296.082377,842.705048
713.803559,-9696.697840,0.000000,1149.143247
713.803879,-10140.821405,592.164754,1149.143247
713.804200,-9622.677246,-222.061783,1072.533697
713.804521,-9622.677246,-444.123565,919.314598
713.804841,-9548.656652,-370.102971,1149.143247
713.805162,-9770.718434,-444.123565,1225.752797
713.805482,-9326.594869,-444.123565,1378.971896
713.805803,-9474.636058,-666.185348,919.314598
713.806124,-9474.636058,-444.123565,842.705048
713.806444,-9474.636058,-518.144159,995.924147
713.806765,-9400.615463,-592.164754,1455.581446
713.807086,-9474.636058,-296.082377,919.314598
713.807406,-9474.636058,-296.082377,919.314598
713.807727,-9474.636058,-370.102971,1072.533697
713.808048,-9252.574275,296.082377,536.266849
713.808368,-9622.677246,-370.102971,1072.533697
713.808689,-9474.636058,-370.102971,766.095498
713.809009,-9548.656652,-518.144159,1072.533697
713.809330,-9474.636058,-666.185348,459.657299
713.809651,-9474.636058,-666.185348,689.485948
713.809971,-9622.677246,-370.102971,1072.533697
713.810292,-9474.636058,-592.164754,1225.752797
713.810613,-9474.636058,-370.102971,919.314598
713.810933,-10140.821405,-444.123565,995.924147
713.811254,-9696.697840,-814.226536,842.705048
713.811575,-9622.677246,-518.144159,1149.143247
713.811895,-9770.718434,-444.123565,612.876398
713.812216,-9474.636058,-296.082377,2451.505594
713.812536,-9770.718434,-518.144159,919.314598
713.812857,-9622.677246,-444.123565,1302.362347
713.813178,-9696.697840,-518.144159,919.314598
713.813498,-9474.636058,-444.123565,1072.533697
713.813819,-9548.656652,-592.164754,995.924147
713.814140,-9622.677246,-444.123565,1225.752797
713.814460,-9548.656652,-518.144159,1149.143247
713.814781,-9622.677246,-666.185348,1225.752797
713.815102,-9178.553681,-740.205942,1302.362347
713.815422,-9548.656652,-370.102971,1225.752797
713.815743,-9474.636058,-444.123565,995.924147
713.816063,-9696.697840,-296.082377,1302.362347
713.816384,-8882.471304,-148.041188,2528.115143
713.816705,-9844.739029,-222.061783,842.705048
713.817025,-9474.636058,-222.061783,1225.752797
713.817346,-9622.677246,-518.144159,766.095498
713.817667,-9548.656652,-444.123565,919.314598
713.817987,-9474.636058,-296.082377,1225.752797
713.818308,-9548.656652,-148.041188,1149.143247
713.818629,-9548.656652,-296.082377,1225.752797
713.818949,-9474.636058,-370.102971,1378.971896
713.819270,-9844.739029,-222.061783,766.095498
713.819590,-9696.697840,-296.082377,1455.581446
713.819911,-9474.636058,-296.082377,1072.533697
713.820232,-9622.677246,-74.020594,1302.362347
713.820552,-9104.533087,-666.185348,2451.505594
713.820873,-9696.697840,0.000000,1225.752797
713.821194,-9696.697840,-148.041188,1225.752797
713.821514,-9474.636058,0.000000,995.924147
713.821835,-9548.656652,0.000000,1072.533697
713.822156,-9548.656652,0.000000,919.314598
713.822476,-9696.697840,0.000000,1225.752797
713.822797,-9696.697840,0.000000,1532.190996
713.823117,-9696.697840,-370.102971,1225.752797
713.823438,-9844.739029,0.000000,766.095498
713.823759,-9548.656652,0.000000,1149.143247
713.824079,-9548.656652,-222.061783,919.314598
713.824400,-9622.677246,148.041188,1149.143247
713.824721,-9400.615463,-74.020594,1532.190996
713.825041,-9474.636058,-148.041188,1225.752797
713.825362,-9622.677246,-148.041188,1072.533697
713.825683,-9474.636058,-148.041188,1149.143247
713.826003,-9696.697840,-148.041188,842.705048
713.826324,-9770.718434,222.061783,1225.752797
713.826644,-9770.718434,-370.102971,995.924147
713.826965,-9622.677246,0.000000,1378.971896
713.827286,-9844.739029,-370.102971,919.314598
713.827606,-9252.574275,0.000000,536.266849
713.827927,-9622.677246,-296.082377,689.485948
713.828248,-9622.677246,-222.061783,919.314598
713.828568,-9474.636058,0.000000,1455.581446
713.828889,-9622.677246,-148.041188,919.314598
713.829209,-9696.697840,-148.041188,689.485948
713.829530,-9474.636058,-370.102971,689.485948
713.829851,-9622.677246,-370.102971,1302.362347
713.830171,-9548.656652,-518.144159,919.314598
713.830492,-9992.780217,0.000000,1149.143247
713.830813,-9474.636058,-444.123565,919.314598
713.831133,-9696.697840,-444.123565,1072.533697
713.831454,-9548.656652,-296.082377,1149.143247
713.831775,-9918.759623,74.020594,306.438199
713.832095,-9548.656652,-370.102971,1072.533697
713.832416,-9622.677246,-518.144159,919.314598
713.832736,-9622.677246,-518.144159,1225.752797
713.833057,-9696.697840,-444.123565,1225.752797
713.833378,-9400.615463,-592.164754,1072.533697
713.833698,-9548.656652,-592.164754,919.314598
713.834019,-9326.594869,-592.164754,919.314598
713.834340,-9844.739029,-518.144159,919.314598
713.834660,-9622.677246,-370.102971,1455.581446
713.834981,-9770.718434,-592.164754,1149.143247
713.835302,-9548.656652,-592.164754,766.095498
713.835622,-9548.656652,-444.123565,1225.752797
713.835943,-9104.533087,222.061783,1149.143247
713.836263,-9696.697840,-518.144159,1072.533697
713.836584,-9474.636058,-370.102971,1149.143247
713.836905,-9548.656652,-370.102971,1149.143247
713.837225,-9474.636058,74.020594,2451.505594
713.837546,-9548.656652,-444.123565,1378.971896
713.837867,-9696.697840,-370.102971,995.924147
713.838187,-9548.656652,-444.123565,995.924147
713.838508,-9622.677246,0.000000,1225.752797
713.838829,-9918.759623,0.000000,1455.581446
713.839149,-9992.780217,-518.144159,1302.362347
713.839470,-9548.656652,-370.102971,1149.143247
713.839790,-9548.656652,-222.061783,766.095498
713.840111,-10066.800811,0.000000,1149.143247
713.840432,-9770.718434,0.000000,1455.581446
713.840752,-9622.677246,-74.020594,1149.143247
713.841073,-9622.677246,-296.082377,919.314598
713.841394,-9474.636058,0.000000,842.705048
713.841714,-9770.718434,-222.061783,995.924147
713.842035,-9622.677246,-222.061783,1378.971896
713.842356,-9770.718434,-370.102971,919.314598
713.842676,-9548.656652,-370.102971,842.705048
713.842997,-9548.656652,-370.102971,919.314598
713.843318,-9622.677246,-444.123565,1149.143247
713.843638,-9622.677246,0.000000,842.705048
713.843959,-9548.656652,-148.041188,1072.533697
713.844280,-9252.574275,0.000000,2681.334243
713.844600,-9474.636058,0.000000,1072.533697
713.844921,-9696.697840,-296.082377,1378.971896
713.845242,-9622.677246,0.000000,1378.971896
713.845563,-9548.656652,-296.082377,-229.828649
713.845883,-9548.656652,-148.041188,842.705048
713.846204,-9548.656652,0.000000,1302.362347
713.846525,-9622.677246,148.041188,1455.581446
713.846846,-9696.697840,-222.061783,1455.581446
713.847166,-8882.471304,-148.041188,1532.190996
713.847487,-9696.697840,0.000000,1225.752797
713.847808,-9548.656652,0.000000,1149.143247
713.848129,-9696.697840,-370.102971,1149.143247
713.848449,-9918.759623,444.123565,842.705048
713.848770,-9474.636058,-370.102971,995.924147
713.849091,-9474.636058,0.000000,1072.533697
713.849411,-9622.677246,0.000000,995.924147
713.849732,-9548.656652,-148.041188,1072.533697
713.850053,-9770.718434,0.000000,1225.752797
713.850374,-9622.677246,0.000000,995.924147
713.850694,-9474.636058,-518.144159,1225.752797
713.851015,-9622.677246,-222.061783,995.924147
713.851336,-9696.697840,-370.102971,1302.362347
713.851657,-9548.656652,-370.102971,919.314598
713.851977,-9844.739029,-296.082377,766.095498
713.852298,-9622.677246,-370.102971,1225.752797
713.852619,-9696.697840,-148.041188,1838.629195
713.852940,-9474.636058,-518.144159,1072.533697
713.853260,-9696.697840,-370.102971,919.314598
713.853581,-9548.656652,-296.082377,1302.362347
713.853902,-9548.656652,-370.102971,1149.143247
713.854223,-9400.615463,-888.247130,689.485948
713.854543,-9622.677246,-370.102971,919.314598
713.854864,-9622.677246,-592.164754,842.705048
713.855185,-9770.718434,-518.144159,842.705048
713.855505,-9474.636058,-296.082377,919.314598
713.855826,-9548.656652,-592.164754,612.876398
713.856147,-9474.636058,-592.164754,919.314598
713.856468,-9622.677246,-370.102971,766.095498
713.856788,-9696.697840,148.041188,229.828649
713.857109,-9548.656652,-740.205942,766.095498
713.857430,-9474.636058,-518.144159,766.095498
713.857751,-9622.677246,-444.123565,919.314598
713.858071,-9622.677246,-444.123565,1225.752797
713.858392,-9622.677246,-666.185348,1149.143247
713.858713,-9474.636058,-814.226536,1149.143247
713.859034,-9622.677246,-592.164754,1149.143247
713.859354,-9548.656652,-814.226536,842.705048
713.859675,-9252.574275,-888.247130,919.314598
713.859996,-9474.636058,-592.164754,766.095498
713.860316,-9474.636058,-592.164754,766.095498
713.860637,-9696.697840,-592.164754,1149.143247
713.860958,-9918.759623,-740.205942,689.485948
713.861279,-9770.718434,-518.144159,766.095498
713.861599,-9400.615463,-518.144159,842.705048
713.861920,-9622.677246,-444.123565,689.485948
713.862241,-9770.718434,-518.144159,1302.362347
713.862562,-9548.656652,-296.082377,1225.752797
713.862882,-9844.739029,-592.164754,919.314598
713.863203,-9844.739029,-444.123565,1378.971896
713.863524,-9548.656652,-296.082377,1225.752797
713.863845,-9622.677246,-222.061783,1072.533697
713.864165,-9474.636058,-592.164754,919.314598
713.864486,-9474.636058,-370.102971,1072.533697
713.864807,-9474.636058,-666.185348,919.314598
713.865127,-9770.718434,-814.226536,919.314598
713.865448,-9622.677246,-444.123565,1225.752797
713.865769,-9474.636058,-222.061783,1149.143247
713.866090,-9474.636058,-148.041188,1378.971896
713.866410,-9548.656652,-222.061783,1532.190996
713.866731,-9844.739029,-444.123565,1838.629195
713.867052,-9474.636058,0.000000,1685.410096
713.867373,-9400.615463,-444.123565,1302.362347
713.867693,-9400.615463,-444.123565,1225.752797
713.868014,-9326.594869,-518.144159,1455.581446
713.868335,-9252.574275,-296.082377,1225.752797
713.868656,-9622.677246,0.000000,919.314598
713.868976,-9178.553681,-222.061783,766.095498
713.869297,-9400.615463,814.226536,612.876398
713.869618,-9696.697840,74.020594,1225.752797
713.869938,-9770.718434,148.041188,1378.971896
713.870259,-9844.739029,-148.041188,1302.362347
713.870580,-9696.697840,0.000000,1685.410096
713.870901,-9696.697840,0.000000,1302.362347
713.871221,-9770.718434,-148.041188,1455.581446
713.871542,-9474.636058,0.000000,1149.143247
713.871863,-9326.594869,0.000000,1072.533697
713.872184,-9474.636058,-222.061783,842.705048
713.872504,-9474.636058,0.000000,1072.533697
713.872825,-9474.636058,0.000000,995.924147
713.873146,-9474.636058,0.000000,1225.752797
713.873467,-8734.430116,222.061783,1915.238745
713.873787,-9622.677246,0.000000,1149.143247
713.874108,-9622.677246,-74.020594,842.705048
713.874429,-9622.677246,-222.061783,1072.533697
713.874749,-9696.697840,-74.020594,2298.286494
713.875070,-9770.718434,-222.061783,919.314598
713.875391,-9474.636058,-222.061783,995.924147
713.875712,-9474.636058,-296.082377,766.095498
713.876032,-9770.718434,0.000000,689.485948
713.876353,-9326.594869,0.000000,459.657299
713.876674,-9474.636058,-296.082377,1072.533697
713.876995,-9474.636058,-370.102971,995.924147
713.877315,-9548.656652,-296.082377,842.705048
713.877636,-9178.553681,-592.164754,919.314598
713.877957,-9622.677246,-444.123565,842.705048
713.878278,-9474.636058,-222.061783,689.485948
713.878598,-9770.718434,-370.102971,689.485948
713.878919,-9696.697840,-444.123565,1072.533697
713.879240,-9844.739029,-444.123565,1072.533697
713.879561,-9474.636058,-592.164754,1149.143247
713.879881,-9622.677246,-740.205942,1149.143247
713.880202,-9474.636058,-592.164754,919.314598
713.880523,-9400.615463,-222.061783,1685.410096
713.880843,-9400.615463,-518.144159,1072.533697
713.881164,-9622.677246,-592.164754,919.314598
713.881485,-9400.615463,-370.102971,995.924147
713.881806,-9400.615463,-814.226536,0.000000
713.882126,-9696.697840,-370.102971,1378.971896
713.882447,-9696.697840,-592.164754,1072.533697
713.882768,-9696.697840,-518.144159,1149.143247
713.883089,-9770.718434,-814.226536,842.705048
713.883409,-9548.656652,-444.123565,1072.533697
713.883730,-9474.636058,-592.164754,995.924147
713.884051,-9548.656652,-518.144159,1302.362347
713.884372,-9548.656652,-592.164754,1072.533697
713.884692,-9548.656652,-518.144159,919.314598
713.885013,-9622.677246,-444.123565,1378.971896
713.885334,-9548.656652,-370.102971,1532.190996
713.885654,-9548.656652,-518.144159,1225.752797
713.885975,-9844.739029,-666.185348,1455.581446
713.886296,-9622.677246,-592.164754,1378.971896
713.886617,-9622.677246,-370.102971,1225.752797
713.886937,-9918.759623,-592.164754,1225.752797
713.887258,-9622.677246,-518.144159,842.705048
713.887579,-9474.636058,-518.144159,1149.143247
713.887900,-9474.636058,-518.144159,1072.533697
713.888220,-9548.656652,-296.082377,1072.533697
713.888541,-9326.594869,0.000000,1302.362347
713.888862,-9548.656652,-370.102971,1225.752797
713.889183,-9548.656652,-370.102971,919.314598
713.889503,-9622.677246,-444.123565,1072.533697
713.889824,-9548.656652,-444.123565,1072.533697
713.890145,-9252.574275,-370.102971,1685.410096
713.890465,-9696.697840,0.000000,1225.752797
713.890786,-9474.636058,-148.041188,766.095498
713.891107,-9474.636058,0.000000,995.924147
713.891428,-9474.636058,0.000000,1072.533697
713.891748,-9474.636058,-148.041188,1532.190996
713.892069,-9622.677246,-296.082377,1302.362347
713.892390,-9474.636058,-444.123565,919.314598
713.892711,-9474.636058,-370.102971,919.314598
713.893031,-10214.842000,1480.411884,612.876398
713.893352,-9548.656652,-370.102971,1302.362347
713.893673,-9548.656652,0.000000,1072.533697
713.893994,-9770.718434,-148.041188,1225.752797
713.894314,-9474.636058,-74.020594,919.314598
713.894635,-9770.718434,74.020594,1149.143247
713.894956,-9770.718434,0.000000,1225.752797
713.895276,-9622.677246,-148.041188,1378.971896
713.895597,-9622.677246,-148.041188,1149.143247
713.895918,-9474.636058,-148.041188,1225.752797
713.896239,-9622.677246,0.000000,919.314598
713.896559,-9474.636058,0.000000,995.924147
713.896880,-9548.656652,0.000000,1149.143247
713.897201,-10584.944971,518.144159,306.438199
713.897522,-9622.677246,-296.082377,1072.533697
713.897842,-9548.656652,-518.144159,919.314598
713.898163,-9548.656652,-296.082377,1072.533697
713.898484,-9696.697840,-370.102971,2604.724693
713.898805,-9696.697840,-592.164754,842.705048
713.899125,-9770.718434,-74.020594,919.314598
713.899446,-9622.677246,-296.082377,459.657299
713.899767,-9696.697840,-148.041188,919.314598
713.900087,-9622.677246,0.000000,1149.143247
713.900408,-9474.636058,-296.082377,995.924147
713.900729,-9696.697840,-296.082377,1149.143247
713.901050,-9770.718434,-444.123565,1225.752797
713.901370,-8734.430116,-518.144159,2374.896044
713.901691,-9622.677246,-370.102971,995.924147
713.902012,-9548.656652,-222.061783,919.314598
713.902333,-9548.656652,-444.123565,766.095498
713.902653,-9400.615463,-592.164754,919.314598
713.902974,-9474.636058,-296.082377,842.705048
713.903295,-9474.636058,-444.123565,919.314598
713.903616,-9770.718434,-444.123565,766.095498
713.903936,-9696.697840,-222.061783,1149.143247
713.904257,-9474.636058,-518.144159,1149.143247
713.904578,-9622.677246,-370.102971,919.314598
713.904898,-9696.697840,-444.123565,919.314598
713.905219,-9770.718434,-518.144159,612.876398
713.905540,-9548.656652,-888.247130,689.485948
713.905861,-9918.759623,-592.164754,919.314598
713.906181,-9696.697840,-888.247130,1149.143247
713.906502,-9622.677246,-74.020594,842.705048
713.906823,-9474.636058,-740.205942,995.924147
713.907144,-9548.656652,-518.144159,766.095498
713.907464,-9622.677246,-592.164754,1302.362347
713.907785,-9622.677246,-666.185348,1225.752797
713.908106,-9696.697840,-370.102971,1149.143247
713.908427,-9696.697840,-222.061783,842.705048
713.908747,-10140.821405,74.020594,689.485948
713.909068,-9622.677246,-370.102971,1072.533697
713.909389,-9770.718434,-666.185348,995.924147
713.909710,-9696.697840,-444.123565,459.657299
713.910030,-9548.656652,-592.164754,1072.533697
713.910351,-9104.533087,-740.205942,1149.143247
713.910672,-9622.677246,-592.164754,1225.752797
713.910992,-9548.656652,-444.123565,919.314598
713.911313,-9474.636058,-592.164754,919.314598
713.911634,-9548.656652,-518.144159,766.095498
713.911955,-9770.718434,0.000000,1455.581446
713.912275,-9770.718434,-222.061783,1225.752797
713.912596,-9770.718434,-296.082377,1149.143247
713.912917,-9548.656652,0.000000,842.705048
713.913238,-9622.677246,-518.144159,995.924147
713.913558,-9548.656652,-370.102971,1532.190996
713.913879,-9474.636058,-296.082377,919.314598
713.914200,-9770.718434,-296.082377,1149.143247
713.914521,-9400.615463,-296.082377,1225.752797
713.914841,-8882.471304,0.000000,766.095498
713.915162,-9622.677246,0.000000,1149.143247
713.915483,-9770.718434,-222.061783,1149.143247
713.915803,-9474.636058,0.000000,995.924147
713.916124,-9548.656652,-370.102971,2834.553343
713.916445,-9474.636058,0.000000,1225.752797
713.916766,-9918.759623,0.000000,1455.581446
713.917086,-9622.677246,74.020594,1455.581446
713.917407,-9696.697840,-296.082377,1225.752797
713.917728,-9696.697840,0.000000,1149.143247
713.918049,-9992.780217,-148.041188,1149.143247
713.918369,-9548.656652,0.000000,1302.362347
713.918690,-9770.718434,-148.041188,1225.752797
713.919011,-9326.594869,-518.144159,0.000000
713.919332,-9474.636058,-74.020594,1149.143247
713.919652,-9548.656652,0.000000,1149.143247
713.919973,-9474.636058,74.020594,842.705048
713.920294,-9622.677246,0.000000,1225.752797
713.920614,-9548.656652,148.041188,919.314598
713.920935,-9770.718434,0.000000,1072.533697
713.921256,-9770.718434,-74.020594,1455.581446
713.921577,-9696.697840,-296.082377,1378.971896
713.921897,-9844.739029,-296.082377,766.095498
713.922218,-9474.636058,-148.041188,1072.533697
713.922539,-9474.636058,-296.082377,919.314598
713.922860,-9622.677246,-296.082377,1072.533697
713.923180,-9326.594869,-888.247130,76.609550
713.923501,-9548.656652,-148.041188,995.924147
713.923822,-9548.656652,0.000000,1072.533697
713.924143,-9770.718434,0.000000,1149.143247
713.924463,-9622.677246,0.000000,1225.752797
713.924784,-9622.677246,-444.123565,995.924147
713.925105,-9622.677246,-296.082377,1149.143247
713.925425,-9844.739029,-518.144159,1302.362347
713.925746,-9548.656652,-518.144159,1225.752797
713.926067,-9400.615463,-666.185348,612.876398
713.926388,-9400.615463,-444.123565,1072.533697
713.926708,-9474.636058,-222.061783,842.705048
713.927029,-9326.594869,-296.082377,995.924147
713.927350,-8586.388927,-1258.350101,1072.533697
713.927671,-9474.636058,-592.164754,1225.752797
713.927991,-9622.677246,-592.164754,842.705048
713.928312,-9474.636058,-444.123565,1302.362347
713.928633,-9474.636058,-814.226536,919.314598
713.928954,-9400.615463,-370.102971,1608.800546
713.929274,-9696.697840,-592.164754,1378.971896
713.929595,-9696.697840,-222.061783,1225.752797
713.929916,-9770.718434,-740.205942,1302.362347
713.930236,-9474.636058,-518.144159,689.485948
713.930557,-9696.697840,-740.205942,1149.143247
713.930878,-9474.636058,-666.185348,1302.362347
713.931199,-9474.636058,-592.164754,536.266849
713.931519,-9918.759623,74.020594,766.095498
713.931840,-9474.636058,-370.102971,1302.362347
713.932161,-9474.636058,-666.185348,995.924147
713.932482,-9548.656652,-370.102971,1302.362347
713.932802,-9770.718434,-444.123565,1149.143247
713.933123,-9474.636058,-222.061783,1455.581446
713.933444,-9844.739029,-370.102971,995.924147
713.933765,-9622.677246,-592.164754,1149.143247
713.934085,-9770.718434,-592.164754,842.705048
713.934406,-9770.718434,-666.185348,995.924147
713.934727,-9918.759623,-444.123565,1225.752797
713.935047,-9474.636058,-370.102971,995.924147
713.935368,-9622.677246,-444.123565,919.314598
713.935689,-9474.636058,-518.144159,766.095498
713.936010,-9622.677246,-518.144159,1149.143247
713.936330,-9474.636058,-296.082377,1149.143247
713.936651,-9622.677246,-444.123565,842.705048
713.936972,-9548.656652,-222.061783,1225.752797
713.937293,-9548.656652,-592.164754,1685.410096
713.937613,-9474.636058,0.000000,1302.362347
713.937934,-9770.718434,-222.061783,1302.362347
713.938255,-9474.636058,-296.082377,1149.143247
713.938576,-9548.656652,0.000000,1762.019645
713.938896,-9622.677246,0.000000,995.924147
713.939217,-9474.636058,-444.123565,842.705048
713.939538,-9474.636058,-222.061783,766.095498
713.939859,-9696.697840,740.205942,919.314598
713.940179,-9548.656652,-148.041188,1225.752797
713.940500,-9474.636058,0.000000,1302.362347
713.940821,-9622.677246,0.000000,1072.533697
713.941141,-9770.718434,222.061783,1072.533697
713.941462,-9918.759623,148.041188,1455.581446
713.941783,-9696.697840,74.020594,1532.190996
713.942104,-9548.656652,-296.082377,1225.752797
713.942424,-9622.677246,-74.020594,919.314598
713.942745,-9844.739029,0.000000,612.876398
713.943066,-9474.636058,-222.061783,842.705048
713.943387,-9474.636058,-222.061783,919.314598
713.943707,-9474.636058,-148.041188,1072.533697
713.944028,-9474.636058,1110.308913,459.657299
713.944349,-9548.656652,-74.020594,1072.533697
713.944670,-9844.739029,-148.041188,1302.362347
713.944990,-9696.697840,-148.041188,1302.362347
713.945311,-9548.656652,-148.041188,1302.362347
713.945632,-9400.615463,-296.082377,1072.533697
713.945952,-9474.636058,-296.082377,995.924147
713.946273,-9474.636058,-222.061783,1225.752797
713.946594,-9622.677246,-296.082377,1072.533697
713.946914,-9474.636058,-444.123565,689.485948
713.947235,-9252.574275,-444.123565,1149.143247
713.947556,-9844.739029,-518.144159,689.485948
713.947877,-9548.656652,-296.082377,842.705048
713.948197,-9548.656652,0.000000,2374.896044
713.948518,-9622.677246,-296.082377,995.924147
713.948839,-9548.656652,0.000000,689.485948
713.949159,-9548.656652,-148.041188,766.095498
713.949480,-9770.718434,-444.123565,766.095498
713.949801,-9770.718434,-370.102971,919.314598
713.950121,-9770.718434,-592.164754,1149.143247
713.950442,-9622.677246,-444.123565,1149.143247
713.950763,-9474.636058,-740.205942,995.924147
713.951083,-8956.491898,-962.267725,536.266849
713.951404,-9474.636058,-518.144159,919.314598
713.951725,-9474.636058,-370.102971,612.876398
713.952046,-9474.636058,-518.144159,689.485948
713.952366,-9770.718434,-518.144159,766.095498
713.952687,-9696.697840,-740.205942,459.657299
713.953008,-9696.697840,-592.164754,842.705048
713.953328,-9622.677246,-518.144159,995.924147
713.953649,-9844.739029,-666.185348,919.314598
713.953970,-9770.718434,-740.205942,919.314598
713.954290,-10066.800811,-444.123565,689.485948
713.954611,-9474.636058,-444.123565,1072.533697
713.954932,-9696.697840,-444.123565,1072.533697
713.955252,-9548.656652,-518.144159,1225.752797
713.955573,-9400.615463,-814.226536,2145.067394
713.955894,-9474.636058,-518.144159,1149.143247
713.956215,-9548.656652,-888.247130,919.314598
713.956535,-9622.677246,-518.144159,1072.533697
713.956856,-9622.677246,-666.185348,1072.533697
713.957177,-9696.697840,-592.164754,766.095498
713.957497,-9696.697840,-370.102971,919.314598
713.957818,-9548.656652,-370.102971,1225.752797
713.958139,-9770.718434,-296.082377,995.924147
713.958459,-9400.615463,-592.164754,995.924147
713.958780,-9474.636058,-592.164754,842.705048
713.959101,-9622.677246,-518.144159,842.705048
713.959421,-9696.697840,-370.102971,1149.143247
713.959742,-9622.677246,-296.082377,1225.752797
713.960063,-10362.883188,0.000000,995.924147
713.960384,-9622.677246,-370.102971,1378.971896
713.960704,-9400.615463,-370.102971,1302.362347
713.961025,-9548.656652,-222.061783,1455.581446
713.961346,-9622.677246,-370.102971,1149.143247
713.961666,-9474.636058,-222.061783,1149.143247
713.961987,-9474.636058,-296.082377,995.924147
713.962308,-9474.636058,-370.102971,1072.533697
713.962628,-9622.677246,0.000000,1149.143247
713.962949,-9548.656652,0.000000,612.876398
713.963270,-9474.636058,-148.041188,1225.752797
713.963590,-9622.677246,0.000000,1072.533697
713.963911,-9844.739029,-148.041188,1149.143247
713.964232,-8882.471304,74.020594,2374.896044
713.964553,-9770.718434,-222.061783,1302.362347
713.964873,-9548.656652,-148.041188,1302.362347
713.965194,-9844.739029,0.000000,1685.410096
713.965515,-9770.718434,0.000000,1302.362347
713.965835,-9474.636058,0.000000,995.924147
713.966156,-9474.636058,0.000000,995.924147
713.966477,-9474.636058,-222.061783,842.705048
713.966797,-9548.656652,-148.041188,842.705048
713.967118,-9770.718434,148.041188,842.705048
713.967439,-9474.636058,-148.041188,919.314598
713.967759,-9548.656652,-296.082377,1149.143247
713.968080,-9548.656652,-148.041188,919.314598
713.968401,-9622.677246,296.082377,842.705048
713.968722,-9844.739029,-148.041188,1302.362347
713.969042,-9622.677246,-222.061783,842.705048
713.969363,-9696.697840,0.000000,766.095498
713.969684,-9844.739029,0.000000,1302.362347
713.970004,-9548.656652,0.000000,689.485948
713.970325,-9474.636058,-222.061783,995.924147
713.970646,-9474.636058,-296.082377,612.876398
713.970966,-9474.636058,-296.082377,842.705048
713.971287,-9548.656652,-222.061783,766.095498
713.971608,-9474.636058,-148.041188,1072.533697
713.971928,-9622.677246,-444.123565,919.314598
713.972249,-9474.636058,-518.144159,919.314598
713.972570,-9918.759623,-740.205942,1149.143247
713.972891,-9622.677246,-370.102971,1072.533697
713.973211,-9696.697840,-370.102971,995.924147
713.973532,-9696.697840,-370.102971,1149.143247
713.973853,-9696.697840,-370.102971,842.705048
713.974173,-9696.697840,-592.164754,995.924147
713.974494,-9770.718434,-444.123565,842.705048
713.974815,-9474.636058,-666.185348,995.924147
713.975135,-9474.636058,-592.164754,612.876398
713.975456,-9548.656652,-296.082377,1225.752797
713.975777,-9474.636058,-888.247130,1608.800546
713.976097,-9622.677246,-518.144159,995.924147
713.976418,-9548.656652,-370.102971,1072.533697
713.976739,-9992.780217,222.061783,536.266849
713.977060,-9548.656652,-296.082377,1455.581446
713.977380,-9770.718434,-518.144159,1378.971896
713.977701,-9400.615463,-296.082377,1378.971896
713.978022,-9622.677246,-518.144159,2604.724693
713.978342,-9474.636058,-444.123565,1149.143247
713.978663,-9770.718434,-592.164754,1302.362347
713.978984,-9474.636058,-296.082377,919.314598
713.979304,-9474.636058,-444.123565,919.314598
713.979625,-9918.759623,-444.123565,1072.533697
713.979946,-9622.677246,-296.082377,1149.143247
713.980266,-9770.718434,-592.164754,1149.143247
713.980587,-9622.677246,0.000000,1608.800546
713.980908,-9474.636058,-592.164754,1302.362347
713.981229,-9474.636058,0.000000,1455.581446
713.981549,-9844.739029,-148.041188,1378.971896
713.981870,-9400.615463,-370.102971,1225.752797
713.982191,-9474.636058,-296.082377,2298.286494
713.982511,-9474.636058,-296.082377,842.705048
713.982832,-9622.677246,-370.102971,1149.143247
713.983153,-9548.656652,-518.144159,1072.533697
713.983473,-9622.677246,-148.041188,689.485948
713.983794,-9326.594869,0.000000,1149.143247
713.984115,-9770.718434,-296.082377,1225.752797
713.984435,-9326.594869,-296.082377,1149.143247
713.984756,-9770.718434,-296.082377,1072.533697
713.985077,-9844.739029,222.061783,0.000000
713.985398,-9548.656652,-222.061783,766.095498
713.985718,-9622.677246,-148.041188,1072.533697
713.986039,-9622.677246,0.000000,1072.533697
713.986360,-9548.656652,-148.041188,1378.971896
713.986680,-9474.636058,-296.082377,1378.971896
713.987001,-9326.594869,-370.102971,995.924147
713.987322,-9474.636058,-296.082377,1072.533697
713.987642,-9474.636058,-222.061783,1072.533697
713.987963,-9918.759623,0.000000,1149.143247
713.988284,-9770.718434,0.000000,1378.971896
713.988604,-9622.677246,-296.082377,1149.143247
713.988925,-9696.697840,0.000000,1149.143247
713.989246,-9474.636058,592.164754,306.438199
713.989567,-9622.677246,-222.061783,1072.533697
713.989887,-9474.636058,0.000000,1072.533697
713.990208,-9622.677246,-148.041188,995.924147
713.990529,-9696.697840,-370.102971,383.047749
713.990849,-9474.636058,-370.102971,919.314598
713.991170,-10066.800811,-444.123565,1302.362347
713.991491,-9474.636058,-296.082377,1072.533697
713.991811,-9474.636058,-222.061783,1225.752797
713.992132,-9548.656652,0.000000,1225.752797
713.992453,-9474.636058,-222.061783,1225.752797
713.992773,-9622.677246,-74.020594,842.705048
713.993094,-9622.677246,-222.061783,1302.362347
713.993415,-9474.636058,-296.082377,153.219100
713.993736,-9770.718434,-444.123565,766.095498
713.994056,-9770.718434,-222.061783,1072.533697
713.994377,-9548.656652,-444.123565,1378.971896
713.994698,-9622.677246,-370.102971,1378.971896
713.995018,-9622.677246,-444.123565,842.705048
713.995339,-9474.636058,-740.205942,842.705048
713.995660,-9474.636058,-888.247130,612.876398
713.995980,-9400.615463,-592.164754,689.485948
713.996301,-9474.636058,-296.082377,1378.971896
713.996622,-9548.656652,-222.061783,995.924147
713.996942,-9992.780217,-222.061783,1149.143247
713.997263,-9548.656652,-592.164754,1149.143247
713.997584,-10214.842000,296.082377,153.219100
713.997905,-9696.697840,-740.205942,995.924147
713.998225,-9400.615463,-740.205942,1072.533697
713.998546,-9474.636058,-592.164754,842.705048
713.998867,-9474.636058,-666.185348,689.485948
713.999187,-9474.636058,-444.123565,766.095498
713.999508,-9696.697840,-592.164754,1302.362347
713.999829,-9844.739029,-592.164754,995.924147
714.000149,-9548.656652,-444.123565,1149.143247
714.000470,-9770.718434,-444.123565,1302.362347
714.000791,-9548.656652,-148.041188,919.314598
714.001111,-9696.697840,-592.164754,612.876398
714.001432,-9622.677246,-444.123565,1149.143247
714.001753,-7920.203579,-962.267725,2451.505594
714.002074,-9548.656652,-814.226536,995.924147
714.002394,-9622.677246,-370.102971,766.095498
714.002715,-9474.636058,-518.144159,1072.533697
714.003036,-9622.677246,-222.061783,536.266849
714.003356,-9548.656652,-592.164754,995.924147
714.003677,-9548.656652,-592.164754,1072.533697
714.003998,-9474.636058,-296.082377,1225.752797
714.004318,-9770.718434,-148.041188,1225.752797
714.004639,-9622.677246,-148.041188,1532.190996
714.004960,-9844.739029,-74.020594,1378.971896
714.005280,-9622.677246,0.000000,1072.533697
714.005601,-9622.677246,0.000000,1149.143247
714.005922,-10066.800811,-296.082377,1455.581446
714.006243,-9622.677246,-592.164754,1302.362347
714.006563,-9474.636058,-592.164754,1225.752797
714.006884,-9548.656652,-444.123565,919.314598
714.007205,-9474.636058,-222.061783,1685.410096
714.007525,-9474.636058,-370.102971,1072.533697
714.007846,-9622.677246,-222.061783,1225.752797
714.008167,-9548.656652,-148.041188,919.314598
714.008487,-9474.636058,-74.020594,1225.752797
714.008808,-9696.697840,222.061783,1072.533697
714.009129,-9622.677246,-296.082377,1455.581446
714.009449,-9622.677246,-296.082377,1072.533697
714.009770,-9622.677246,-222.061783,1149.143247
714.010091,-9622.677246,0.000000,459.657299
714.010412,-9474.636058,0.000000,766.095498
714.010732,-9474.636058,-444.123565,1149.143247
714.011053,-9474.636058,-296.082377,1149.143247
714.011374,-9622.677246,148.041188,919.314598
714.011694,-9622.677246,0.000000,1225.752797
714.012015,-9770.718434,0.000000,1149.143247
714.012336,-9474.636058,0.000000,1532.190996
714.012656,-9696.697840,0.000000,1378.971896
714.012977,-9696.697840,0.000000,1302.362347
714.013298,-9770.718434,0.000000,1225.752797
714.013618,-9548.656652,0.000000,842.705048
714.013939,-9696.697840,0.000000,1072.533697
714.014260,-9548.656652,-740.205942,2374.896044
714.014581,-9622.677246,-222.061783,1225.752797
714.014901,-9474.636058,-222.061783,919.314598
714.015222,-9622.677246,-296.082377,919.314598
714.015543,-9622.677246,-222.061783,1455.581446
714.015863,-9622.677246,-296.082377,995.924147
714.016184,-9548.656652,-222.061783,995.924147
714.016505,-9696.697840,0.000000,612.876398
714.016825,-9548.656652,-296.082377,919.314598
714.017146,-9918.759623,0.000000,1302.362347
714.017467,-9622.677246,-296.082377,919.314598
714.017787,-9622.677246,-222.061783,919.314598
714.018108,-9548.656652,-148.041188,1149.143247
714.018429,-11177.109724,148.041188,0.000000
714.018750,-9622.677246,-296.082377,1072.533697
714.019070,-9696.697840,-444.123565,766.095498
714.019391,-9548.656652,-518.144159,919.314598
714.019712,-9622.677246,-666.185348,536.266849
714.020032,-9548.656652,-518.144159,1149.143247
714.020353,-9548.656652,-666.185348,995.924147
714.020674,-9474.636058,-148.041188,995.924147
714.020994,-9696.697840,-444.123565,1149.143247
714.021315,-9770.718434,-148.041188,1072.533697
714.021636,-9622.677246,-444.123565,1149.143247
714.021956,-9548.656652,-148.041188,1149.143247
714.022277,-9548.656652,-592.164754,1149.143247
714.022598,-9030.512492,-740.205942,1378.971896
714.022919,-9474.636058,-888.247130,919.314598
714.023239,-9622.677246,-444.123565,1762.019645
714.023560,-9844.739029,-888.247130,1225.752797
714.023881,-9474.636058,-592.164754,1532.190996
714.024201,-9696.697840,-592.164754,1225.752797
714.024522,-9474.636058,-370.102971,1072.533697
714.024843,-9770.718434,-370.102971,1072.533697
714.025163,-9548.656652,74.020594,1455.581446
714.025484,-9474.636058,-370.102971,995.924147
714.025805,-9548.656652,-148.041188,1072.533697
714.026125,-9696.697840,-148.041188,1072.533697
714.026446,-9696.697840,-370.102971,1072.533697
714.026767,-9770.718434,-518.144159,2298.286494
714.027088,-9548.656652,-740.205942,842.705048
714.027408,-9474.636058,-370.102971,1302.362347
714.027729,-9474.636058,-814.226536,1455.581446
714.028050,-9696.697840,-444.123565,612.876398
714.028370,-9548.656652,-296.082377,842.705048
714.028691,-9770.718434,-148.041188,995.924147
714.029012,-9770.718434,0.000000,1072.533697
714.029332,-9474.636058,-148.041188,612.876398
714.029653,-9844.739029,-370.102971,919.314598
714.029974,-9548.656652,-222.061783,1225.752797
714.030294,-9622.677246,-148.041188,1302.362347
714.030615,-9548.656652,-370.102971,1072.533697
714.030936,-9770.718434,0.000000,1455.581446
714.031257,-9622.677246,-370.102971,1149.143247
714.031577,-9474.636058,-370.102971,1149.143247
714.031898,-9474.636058,-444.123565,1072.533697
714.032219,-9474.636058,-148.041188,1532.190996
714.032539,-9400.615463,-222.061783,1685.410096
714.032860,-9548.656652,0.000000,1225.752797
714.033181,-9474.636058,0.000000,1149.143247
714.033501,-9622.677246,74.020594,1302.362347
714.033822,-9400.615463,444.123565,766.095498
714.034143,-9474.636058,0.000000,1225.752797
714.034463,-9622.677246,0.000000,1072.533697
714.034784,-9696.697840,0.000000,1225.752797
714.035105,-9844.739029,-296.082377,1378.971896
714.035426,-9696.697840,-74.020594,1072.533697
714.035746,-9696.697840,0.000000,1149.143247
714.036067,-9770.718434,0.000000,919.314598
714.036388,-9548.656652,0.000000,1149.143247
714.036708,-9474.636058,0.000000,995.924147
714.037029,-9474.636058,0.000000,995.924147
714.037350,-9548.656652,-148.041188,1149.143247
714.037670,-9474.636058,74.020594,1072.533697
714.037991,-9770.718434,370.102971,3140.991542
714.038312,-9622.677246,0.000000,1455.581446
714.038632,-9548.656652,-370.102971,1149.143247
714.038953,-9622.677246,-370.102971,995.924147
714.039274,-9622.677246,-444.123565,1072.533697
714.039595,-9474.636058,-370.102971,1378.971896
714.039915,-9548.656652,-370.102971,995.924147
714.040236,-9400.615463,-222.061783,1072.533697
714.040557,-9474.636058,-296.082377,919.314598
714.040877,-9992.780217,296.082377,689.485948
714.041198,-9548.656652,-296.082377,1225.752797
714.041519,-9622.677246,-148.041188,689.485948
714.041839,-9548.656652,-666.185348,919.314598
714.042160,-9770.718434,-740.205942,1608.800546
714.042481,-9622.677246,-592.164754,1149.143247
714.042801,-9474.636058,-444.123565,766.095498
714.043122,-9548.656652,-296.082377,919.314598
714.043443,-9474.636058,-518.144159,689.485948
714.043764,-9474.636058,-296.082377,1302.362347
714.044084,-9696.697840,-444.123565,919.314598
714.044405,-9622.677246,-518.144159,689.485948
714.044726,-9474.636058,-592.164754,766.095498
714.045046,-9474.636058,0.000000,766.095498
714.045367,-9696.697840,-666.185348,689.485948
714.045688,-9474.636058,-592.164754,766.095498
714.046009,-9548.656652,-666.185348,919.314598
714.046329,-9844.739029,-222.061783,306.438199
714.046650,-9548.656652,-518.144159,689.485948
714.046971,-9622.677246,-518.144159,995.924147
714.047292,-9548.656652,-888.247130,919.314598
714.047613,-9918.759623,-518.144159,1072.533697
714.047933,-9770.718434,-592.164754,1455.581446
714.048254,-9548.656652,-592.164754,995.924147
714.048575,-9548.656652,-592.164754,1072.533697
714.048896,-9696.697840,-444.123565,1072.533697
714.049217,-9844.739029,-370.102971,919.314598
714.049537,-9622.677246,-518.144159,995.924147
714.049858,-9548.656652,-592.164754,1072.533697
714.050179,-9474.636058,-444.123565,1225.752797
714.050500,-9548.656652,-814.226536,383.047749
714.050821,-9474.636058,-592.164754,1302.362347
714.051141,-9696.697840,-592.164754,1302.362347
714.051462,-9696.697840,-592.164754,995.924147
714.051783,-9696.697840,-370.102971,1072.533697
714.052104,-9326.594869,-592.164754,919.314598
714.052424,-9474.636058,-444.123565,1072.533697
714.052745,-9548.656652,-444.123565,1225.752797
714.053066,-9696.697840,-592.164754,1072.533697
714.053387,-8882.471304,-1036.288319,995.924147
714.053708,-9622.677246,-592.164754,995.924147
714.054028,-9770.718434,-444.123565,919.314598
714.054349,-9252.574275,-222.061783,1149.143247
714.054670,-9696.697840,-222.061783,2145.067394
714.054991,-9548.656652,-222.061783,1225.752797
714.055312,-9548.656652,-370.102971,1378.971896
714.055632,-9696.697840,-296.082377,1302.362347
714.055953,-9474.636058,-148.041188,1302.362347
714.056274,-9548.656652,-148.041188,1225.752797
714.056595,-9474.636058,-148.041188,842.705048
714.056915,-9474.636058,-222.061783,766.095498
714.057236,-9770.718434,0.000000,1302.362347
714.057557,-9030.512492,-1258.350101,919.314598
714.057878,-9696.697840,0.000000,1149.143247
714.058199,-9696.697840,-222.061783,1072.533697
714.058519,-9696.697840,0.000000,1378.971896
714.058840,-9696.697840,-814.226536,2681.334243
714.059161,-9844.739029,0.000000,1378.971896
714.059482,-9696.697840,0.000000,1225.752797
714.059803,-9696.697840,-148.041188,1378.971896
714.060123,-9400.615463,74.020594,995.924147
714.060444,-9548.656652,74.020594,1225.752797
714.060765,-9474.636058,0.000000,919.314598
714.061086,-9770.718434,-74.020594,1072.533697
714.061407,-9770.718434,0.000000,1149.143247
714.061727,-9474.636058,148.041188,1838.629195
714.062048,-9548.656652,-148.041188,1455.581446
714.062369,-9770.718434,-222.061783,919.314598
714.062690,-9548.656652,0.000000,1149.143247
714.063010,-9696.697840,0.000000,919.314598
714.063331,-9622.677246,-148.041188,1072.533697
714.063652,-9622.677246,-222.061783,612.876398
714.063973,-9474.636058,-592.164754,842.705048
714.064294,-9548.656652,0.000000,1378.971896
714.064614,-9622.677246,-370.102971,842.705048
714.064935,-9548.656652,0.000000,766.095498
714.065256,-9548.656652,-296.082377,766.095498
714.065577,-9622.677246,-296.082377,1072.533697
714.065898,-9474.636058,0.000000,1378.971896
714.066218,-9696.697840,-518.144159,995.924147
714.066539,-9918.759623,-148.041188,1072.533697
714.066860,-9548.656652,-296.082377,1225.752797
714.067181,-9474.636058,-222.061783,995.924147
714.067502,-9326.594869,-222.061783,1149.143247
714.067822,-9622.677246,-370.102971,919.314598
714.068143,-9622.677246,-370.102971,919.314598
714.068464,-9474.636058,-444.123565,689.485948
714.068785,-9770.718434,-222.061783,842.705048
714.069105,-9770.718434,-518.144159,1072.533697
714.069426,-9696.697840,-592.164754,1149.143247
714.069747,-9548.656652,-740.205942,995.924147
714.070068,-8438.347739,-222.061783,2451.505594
714.070389,-9622.677246,-592.164754,1225.752797
714.070709,-9622.677246,-370.102971,1532.190996
714.071030,-9770.718434,-592.164754,842.705048
714.071351,-9474.636058,-370.102971,689.485948
714.071672,-9548.656652,-592.164754,1149.143247
714.071993,-9622.677246,-444.123565,1072.533697
714.072313,-9548.656652,-222.061783,995.924147
714.072634,-9400.615463,-370.102971,1378.971896
714.072955,-9252.574275,-814.226536,1608.800546
714.073276,-9548.656652,-296.082377,1378.971896
714.073597,-9696.697840,-666.185348,1455.581446
714.073917,-9548.656652,-296.082377,1455.581446
714.074238,-9326.594869,0.000000,2604.724693
714.074559,-9622.677246,-518.144159,1225.752797
714.074880,-9622.677246,-518.144159,1378.971896
714.075200,-9770.718434,-370.102971,1302.362347
714.075521,-9474.636058,-296.082377,1149.143247
714.075842,-9548.656652,-296.082377,1302.362347
714.076163,-9548.656652,-148.041188,1149.143247
714.076484,-9622.677246,-370.102971,919.314598
714.076804,-9548.656652,-296.082377,1072.533697
714.077125,-9696.697840,-148.041188,1225.752797
714.077446,-9696.697840,-296.082377,1378.971896
714.077767,-9548.656652,-444.123565,1149.143247
714.078088,-9474.636058,-296.082377,1149.143247
714.078408,-9548.656652,-814.226536,459.657299
714.078729,-9770.718434,-222.061783,1225.752797
714.079050,-9770.718434,-370.102971,1378.971896
714.079371,-9696.697840,-222.061783,1302.362347
714.079691,-9474.636058,-222.061783,1149.143247
714.080012,-9474.636058,0.000000,1302.362347
714.080333,-9548.656652,0.000000,1149.143247
714.080654,-9474.636058,0.000000,1072.533697
714.080975,-9622.677246,-296.082377,842.705048
714.081295,-9178.553681,-222.061783,995.924147
714.081616,-9474.636058,-296.082377,1072.533697
714.081937,-9696.697840,-148.041188,1302.362347
714.082258,-9770.718434,-148.041188,1378.971896
714.082579,-9178.553681,74.020594,1072.533697
714.082899,-9622.677246,0.000000,1302.362347
714.083220,-9622.677246,0.000000,1378.971896
714.083541,-9548.656652,-148.041188,1149.143247
714.083862,-9622.677246,0.000000,995.924147
714.084183,-9622.677246,-148.041188,1149.143247
714.084503,-9548.656652,-148.041188,995.924147
714.084824,-9548.656652,-444.123565,919.314598
714.085145,-9474.636058,-444.123565,1149.143247
714.085466,-9770.718434,0.000000,689.485948
714.085786,-9548.656652,0.000000,995.924147
714.086107,-9696.697840,-370.102971,842.705048
714.086428,-9548.656652,-296.082377,995.924147
714.086749,-9918.759623,0.000000,612.876398
714.087070,-9548.656652,-296.082377,1455.581446
714.087390,-9770.718434,-148.041188,842.705048
714.087711,-9474.636058,-222.061783,1149.143247
714.088032,-9622.677246,-222.061783,1149.143247
714.088353,-9474.636058,-370.102971,1302.362347
714.088674,-9548.656652,-444.123565,919.314598
714.088994,-9474.636058,-518.144159,536.266849
714.089315,-9622.677246,-518.144159,995.924147
714.089636,-9770.718434,-592.164754,229.828649
714.089957,-9474.636058,-370.102971,1225.752797
714.090278,-9622.677246,-444.123565,1072.533697
714.090598,-9548.656652,-518.144159,919.314598
714.090919,-9992.780217,-666.185348,919.314598
714.091240,-9696.697840,-444.123565,1072.533697
714.091561,-9548.656652,-518.144159,995.924147
714.091881,-9622.677246,-666.185348,919.314598
714.092202,-9548.656652,-814.226536,766.095498
714.092523,-9474.636058,-370.102971,919.314598
714.092844,-9548.656652,-814.226536,995.924147
714.093165,-9400.615463,-370.102971,919.314598
714.093485,-9622.677246,-592.164754,919.314598
714.093806,-8882.471304,-814.226536,612.876398
714.094127,-9548.656652,-666.185348,995.924147
714.094448,-9622.677246,-518.144159,1225.752797
714.094769,-9770.718434,-444.123565,1225.752797
714.095089,-9474.636058,-592.164754,1302.362347
714.095410,-9622.677246,-740.205942,995.924147
714.095731,-9622.677246,-592.164754,612.876398
714.096052,-9622.677246,-592.164754,995.924147
714.096372,-9696.697840,-740.205942,1072.533697
714.096693,-9548.656652,-370.102971,1685.410096
714.097014,-9474.636058,-740.205942,842.705048
714.097335,-9696.697840,-518.144159,919.314598
714.097656,-9918.759623,-518.144159,1378.971896
714.097976,-9548.656652,-592.164754,2374.896044
714.098297,-9474.636058,-518.144159,1072.533697
714.098618,-9622.677246,-296.082377,919.314598
714.098939,-9696.697840,-444.123565,1455.581446
714.099260,-9770.718434,-370.102971,1149.143247
714.099580,-9474.636058,-222.061783,1225.752797
714.099901,-9696.697840,-444.123565,842.705048
714.100222,-9548.656652,-518.144159,1072.533697
714.100543,-9548.656652,-444.123565,1072.533697
714.100864,-9548.656652,-296.082377,1072.533697
714.101184,-9548.656652,-296.082377,1302.362347
714.101505,-9622.677246,-222.061783,919.314598
714.101826,-9548.656652,-296.082377,1532.190996
714.102147,-9844.739029,0.000000,-153.219100
714.102467,-9770.718434,-222.061783,1225.752797
714.102788,-9548.656652,-148.041188,1225.752797
714.103109,-9622.677246,-148.041188,1302.362347
714.103430,-9548.656652,-222.061783,1225.752797
714.103751,-9770.718434,148.041188,995.924147
714.104071,-9474.636058,-222.061783,612.876398
714.104392,-9400.615463,0.000000,919.314598
714.104713,-9474.636058,-370.102971,842.705048
714.105034,-9474.636058,-148.041188,1685.410096
714.105355,-9474.636058,-296.082377,1072.533697
714.105675,-9770.718434,148.041188,1378.971896
714.105996,-9696.697840,-148.041188,1455.581446
714.106317,-9548.656652,148.041188,766.095498
714.106638,-9474.636058,-148.041188,1225.752797
714.106959,-9474.636058,0.000000,1149.143247
714.107279,-9474.636058,0.000000,1455.581446
714.107600,-9696.697840,0.000000,995.924147
714.107921,-9400.615463,-296.082377,1072.533697
714.108242,-9400.615463,-148.041188,1225.752797
714.108562,-9474.636058,-370.102971,842.705048
714.108883,-9622.677246,0.000000,919.314598
714.109204,-9252.574275,0.000000,1532.190996
714.109525,-9548.656652,-222.061783,1072.533697
714.109846,-9622.677246,-148.041188,842.705048
714.110166,-9696.697840,0.000000,1302.362347
714.110487,-9696.697840,-370.102971,306.438199
714.110808,-9622.677246,0.000000,1072.533697
714.111129,-9474.636058,-222.061783,689.485948
714.111450,-9696.697840,0.000000,689.485948
714.111770,-9770.718434,-222.061783,1149.143247
714.112091,-9622.677246,0.000000,842.705048
714.112412,-9474.636058,-222.061783,919.314598
714.112733,-9474.636058,-370.102971,842.705048
714.113054,-9474.636058,-222.061783,1149.143247
714.113374,-9400.615463,-296.082377,689.485948
714.113695,-9548.656652,-148.041188,842.705048
714.114016,-9622.677246,-222.061783,919.314598
714.114337,-9622.677246,-148.041188,1225.752797
714.114657,-9696.697840,-370.102971,1072.533697
714.114978,-9474.636058,-148.041188,1302.362347
714.115299,-9770.718434,-444.123565,1149.143247
714.115620,-9474.636058,-148.041188,919.314598
714.115941,-9474.636058,-740.205942,1149.143247
714.116261,-9548.656652,-74.020594,1149.143247
714.116582,-9696.697840,-518.144159,1149.143247
714.116903,-9474.636058,-444.123565,1072.533697
714.117224,-9622.677246,-666.185348,1149.143247
714.117545,-10066.800811,-296.082377,1225.752797
714.117865,-9844.739029,-592.164754,1302.362347
714.118186,-9474.636058,-518.144159,1225.752797
714.118507,-9844.739029,-666.185348,1455.581446
714.118828,-9548.656652,-592.164754,1991.848295
714.119148,-9696.697840,-370.102971,1225.752797
714.119469,-9548.656652,-370.102971,1608.800546
714.119790,-9474.636058,-444.123565,1072.533697
714.120111,-9474.636058,-518.144159,689.485948
714.120432,-9548.656652,-222.061783,842.705048
714.120752,-9770.718434,-370.102971,1149.143247
714.121073,-9696.697840,-148.041188,1149.143247
714.121394,-9770.718434,-518.144159,1225.752797
714.121715,-9474.636058,0.000000,612.876398
714.122036,-9474.636058,-296.082377,1225.752797
714.122356,-9696.697840,-370.102971,1225.752797
714.122677,-9696.697840,-370.102971,1378.971896
714.122998,-9474.636058,74.020594,-536.266849
714.123319,-9696.697840,-222.061783,1072.533697
714.123640,-9548.656652,-370.102971,842.705048
714.123960,-9474.636058,-444.123565,766.095498
714.124281,-9252.574275,-370.102971,1072.533697
714.124602,-9918.759623,-222.061783,919.314598
714.124923,-9622.677246,0.000000,1302.362347
714.125243,-9844.739029,-370.102971,1225.752797
714.125564,-9474.636058,-370.102971,1149.143247
714.125885,-9844.739029,-666.185348,842.705048
714.126206,-9474.636058,-296.082377,1378.971896
714.126527,-9622.677246,-296.082377,1225.752797
714.126847,-9548.656652,-370.102971,919.314598
714.127168,-9548.656652,0.000000,1225.752797
714.127489,-9622.677246,-148.041188,1378.971896
714.127810,-9696.697840,-148.041188,1225.752797
714.128131,-9474.636058,-370.102971,1072.533697
714.128451,-9474.636058,0.000000,995.924147
714.128772,-9474.636058,0.000000,1378.971896
714.129093,-9622.677246,0.000000,1455.581446
714.129414,-9622.677246,-222.061783,1455.581446
714.129735,-9622.677246,0.000000,1455.581446
714.130055,-10066.800811,518.144159,919.314598
714.130376,-9844.739029,-296.082377,919.314598
714.130697,-9548.656652,0.000000,1532.190996
714.131018,-9770.718434,-518.144159,1378.971896
714.131338,-9474.636058,-222.061783,1455.581446
714.131659,-9474.636058,-222.061783,1225.752797
714.131980,-9474.636058,0.000000,919.314598
714.132301,-9696.697840,0.000000,1302.362347
714.132622,-9770.718434,-222.061783,1072.533697
714.132942,-10066.800811,0.000000,842.705048
714.133263,-9622.677246,-296.082377,842.705048
714.133584,-9770.718434,-222.061783,919.314598
714.133905,-9548.656652,-296.082377,766.095498
714.134226,-9770.718434,-370.102971,1455.581446
714.134546,-9622.677246,-370.102971,919.314598
714.134867,-9548.656652,-444.123565,842.705048
714.135188,-9474.636058,-296.082377,612.876398
714.135509,-9622.677246,0.000000,76.609550
714.135829,-9474.636058,-148.041188,842.705048
714.136150,-9548.656652,-148.041188,919.314598
714.136471,-9474.636058,-296.082377,842.705048
714.136792,-9696.697840,-518.144159,919.314598
714.137113,-9178.553681,-592.164754,1302.362347
