#time,accel_x,accel_y,accel_z
828.855709,-9844.739029,-1924.535449,-1608.800546
828.856030,-9918.759623,-2368.659014,-229.828649
828.856352,-9696.697840,-1332.370696,-766.095498
828.856673,-9770.718434,-222.061783,0.000000
828.856995,-10362.883188,-296.082377,612.876398
828.857316,-9326.594869,0.000000,1378.971896
828.857638,-9918.759623,-1332.370696,1378.971896
828.857959,-9400.615463,-888.247130,1532.190996
828.858281,-9178.553681,-1998.556043,995.924147
828.858602,-9400.615463,-1036.288319,1455.581446
828.858923,-8956.491898,-1036.288319,1608.800546
828.859245,-9400.615463,-1110.308913,689.485948
828.859566,-9474.636058,-370.102971,842.705048
828.859888,-9770.718434,-1036.288319,459.657299
828.860209,-9030.512492,-814.226536,76.609550
828.860531,-9992.780217,-1036.288319,153.219100
828.860852,-10066.800811,-1184.329507,76.609550
828.861174,-9918.759623,-1332.370696,0.000000
828.861495,-9622.677246,-1258.350101,1608.800546
828.861817,-9400.615463,-2072.576638,0.000000
828.862138,-9252.574275,-1924.535449,-536.266849
828.862460,-9104.533087,-2368.659014,-689.485948
828.862781,-8808.450710,-2738.761985,-689.485948
828.863102,-9178.553681,-3034.844362,-1455.581446
828.863424,-8956.491898,-3034.844362,-1532.190996
828.863745,-8956.491898,-3256.906145,-1838.629195
828.864067,-9400.615463,-3256.906145,-2145.067394
828.864388,-9104.533087,-3404.947333,-1302.362347
828.864710,-9474.636058,-3478.967927,-2911.162892
828.865031,-9622.677246,-3478.967927,-3447.429741
828.865353,-9474.636058,-3256.906145,-3830.477490
828.865674,-9622.677246,-3182.885551,-3907.087040
828.865996,-9474.636058,-3256.906145,-4213.525239
828.866317,-9548.656652,-3552.988522,-4060.306139
828.866639,-9770.718434,-3256.906145,-3830.477490
828.866960,-9992.780217,-3330.926739,-3447.429741
828.867281,-9992.780217,-3108.864956,-2451.505594
828.867603,-10066.800811,-3182.885551,-2681.334243
828.867924,-9770.718434,-3034.844362,-2681.334243
828.868246,-9696.697840,-3404.947333,-2834.553343
828.868567,-9844.739029,-3256.906145,-2911.162892
828.868889,-9474.636058,-3478.967927,-3064.381992
828.869210,-9326.594869,-3256.906145,-3370.820191
828.869532,-9548.656652,-3849.070898,-3753.867940
828.869853,-9400.615463,-4145.153275,-3907.087040
828.870175,-9474.636058,-3849.070898,-4136.915689
828.870496,-9844.739029,-3849.070898,-3983.696590
828.870818,-9770.718434,-3552.988522,-2604.724693
828.871139,-10436.903782,-3701.029710,-1685.410096
828.871460,-10436.903782,-4145.153275,-536.266849
828.871782,-10140.821405,-4219.173869,-383.047749
828.872103,-10436.903782,-4145.153275,76.609550
828.872425,-9474.636058,-3775.050304,383.047749
828.872746,-9696.697840,-3108.864956,1991.848295
828.873068,-9252.574275,-2812.782580,1302.362347
828.873389,-8512.368333,-2960.823768,1072.533697
828.873711,-8956.491898,-2738.761985,1455.581446
828.874032,-8734.430116,-2738.761985,2757.943793
828.874354,-9178.553681,-2442.679609,2145.067394
828.874675,-9696.697840,-1406.391290,3064.381992
828.874996,-9622.677246,-1184.329507,3447.429741
828.875318,-9918.759623,-1332.370696,3447.429741
828.875639,-9918.759623,-1554.432478,3600.648841
828.875961,-9992.780217,-1924.535449,2451.505594
828.876282,-9548.656652,-1628.453072,1225.752797
828.876604,-9548.656652,-1850.514855,536.266849
828.876925,-8660.409521,-2294.638420,306.438199
828.877247,-8882.471304,-1480.411884,76.609550
828.877568,-9252.574275,-814.226536,-383.047749
828.877890,-9770.718434,-592.164754,229.828649
828.878211,-9548.656652,-296.082377,0.000000
828.878533,-9622.677246,-592.164754,0.000000
828.878854,-9770.718434,0.000000,306.438199
828.879175,-9992.780217,222.061783,842.705048
828.879495,-9770.718434,518.144159,1532.190996
828.879816,-10140.821405,1036.288319,1455.581446
828.880136,-9992.780217,1480.411884,2068.457845
828.880457,-10510.924376,2146.597232,2221.676944
828.880777,-9844.739029,2516.700203,995.924147
828.881098,-10436.903782,2738.761985,-842.705048
828.881418,-9178.553681,2368.659014,-1302.362347
828.881739,-8586.388927,1702.473667,-2145.067394
828.882059,-8586.388927,1036.288319,-2451.505594
828.882380,-9400.615463,1036.288319,-1991.848295
828.882700,-10140.821405,444.123565,-1302.362347
828.883021,-10584.944971,1184.329507,-919.314598
828.883341,-11177.109724,1332.370696,76.609550
828.883662,-10881.027347,962.267725,153.219100
828.883982,-10214.842000,666.185348,153.219100
828.884303,-10362.883188,0.000000,766.095498
828.884623,-9548.656652,0.000000,1149.143247
828.884944,-9178.553681,74.020594,1225.752797
828.885265,-9326.594869,888.247130,1685.410096
828.885585,-9104.533087,1406.391290,1149.143247
828.885906,-8882.471304,1776.494261,459.657299
828.886226,-8660.409521,1332.370696,306.438199
828.886547,-8512.368333,296.082377,-76.609550
828.886867,-8808.450710,-444.123565,-536.266849
828.887188,-9178.553681,-1924.535449,0.000000
828.887508,-9474.636058,-2516.700203,229.828649
828.887829,-10066.800811,-2886.803174,459.657299
828.888149,-10066.800811,-2812.782580,1072.533697
828.888470,-10066.800811,-1702.473667,1302.362347
828.888790,-9770.718434,-1628.453072,1838.629195
828.889111,-9992.780217,-1036.288319,2528.115143
828.889431,-9844.739029,-1110.308913,3524.039291
828.889752,-9696.697840,-740.205942,4596.572988
828.890072,-9770.718434,-962.267725,5132.839837
828.890393,-9548.656652,-1110.308913,5056.230287
828.890713,-9178.553681,-962.267725,4519.963438
828.891034,-8660.409521,0.000000,3370.820191
828.891354,-8882.471304,0.000000,2757.943793
828.891675,-8364.327145,-1184.329507,766.095498
828.891996,-8882.471304,-1554.432478,0.000000
828.892316,-9474.636058,-2368.659014,-383.047749
828.892637,-10214.842000,-2738.761985,0.000000
828.892957,-11103.089130,-2590.720797,1225.752797
828.893278,-10807.006753,-2294.638420,306.438199
828.893598,-11029.068536,-1110.308913,995.924147
828.893919,-10732.986159,-296.082377,1455.581446
828.894239,-10510.924376,0.000000,1915.238745
828.894560,-10214.842000,74.020594,2604.724693
828.894880,-9770.718434,0.000000,2604.724693
828.895201,-9400.615463,74.020594,2145.067394
828.895521,-8438.347739,148.041188,1532.190996
828.895842,-7772.162391,518.144159,1072.533697
828.896162,-8068.244768,296.082377,76.609550
828.896483,-7994.224174,-518.144159,-1225.752797
828.896803,-8290.306550,-1480.411884,-1915.238745
828.897124,-9178.553681,-1850.514855,-1838.629195
828.897444,-10140.821405,-2368.659014,-1149.143247
828.897765,-10881.027347,-2220.617826,-1225.752797
828.898086,-11251.130318,-1480.411884,-1072.533697
828.898406,-11103.089130,-666.185348,-536.266849
828.898727,-10584.944971,148.041188,0.000000
828.899047,-10066.800811,444.123565,1838.629195
828.899368,-9992.780217,1702.473667,2528.115143
828.899688,-10362.883188,592.164754,3294.210641
828.900009,-8438.347739,1776.494261,3677.258390
828.900329,-8956.491898,1258.350101,2221.676944
828.900650,-7772.162391,1776.494261,2298.286494
828.900970,-7920.203579,1406.391290,1838.629195
828.901291,-7994.224174,888.247130,919.314598
828.901611,-7920.203579,370.102971,-536.266849
828.901932,-9178.553681,370.102971,-842.705048
828.902252,-10066.800811,666.185348,-153.219100
828.902573,-10732.986159,518.144159,-306.438199
828.902893,-11399.171507,1184.329507,459.657299
828.903214,-10584.944971,370.102971,1378.971896
828.903534,-10955.047942,1036.288319,919.314598
828.903855,-11177.109724,740.205942,2451.505594
828.904176,-10658.965565,518.144159,3524.039291
828.904496,-9992.780217,222.061783,4060.306139
828.904817,-9252.574275,444.123565,3600.648841
828.905137,-8956.491898,1184.329507,3677.258390
828.905458,-7920.203579,1554.432478,2987.772442
828.905778,-7994.224174,888.247130,2604.724693
828.906099,-8068.244768,370.102971,1225.752797
828.906419,-8290.306550,-1258.350101,-383.047749
828.906740,-9104.533087,-1554.432478,-306.438199
828.907060,-10584.944971,-1480.411884,76.609550
828.907381,-11177.109724,-1184.329507,306.438199
828.907701,-11621.233289,-1258.350101,153.219100
828.908022,-11177.109724,-370.102971,0.000000
828.908342,-11251.130318,-296.082377,459.657299
828.908663,-11103.089130,0.000000,2145.067394
828.908983,-10288.862594,-296.082377,2987.772442
828.909304,-9696.697840,-444.123565,3370.820191
828.909624,-9326.594869,-222.061783,3370.820191
828.909945,-7698.141797,148.041188,3064.381992
828.910265,-8216.285956,370.102971,2681.334243
828.910586,-7476.080014,592.164754,1915.238745
828.910907,-7476.080014,-222.061783,459.657299
828.911227,-8068.244768,-1110.308913,-689.485948
828.911548,-9252.574275,-1406.391290,-766.095498
828.911868,-10362.883188,-2220.617826,-1072.533697
828.912189,-10658.965565,-1998.556043,-1378.971896
828.912509,-10955.047942,-1702.473667,-1532.190996
828.912830,-11473.192101,-740.205942,-1608.800546
828.913150,-10658.965565,0.000000,-612.876398
828.913471,-11251.130318,-740.205942,153.219100
828.913791,-10214.842000,-296.082377,1685.410096
828.914112,-10140.821405,-1184.329507,1838.629195
828.914432,-9474.636058,-1480.411884,2757.943793
828.914753,-9030.512492,-1036.288319,2834.553343
828.915073,-8586.388927,-888.247130,2757.943793
828.915394,-7698.141797,-518.144159,2068.457845
828.915714,-7105.977043,-962.267725,842.705048
828.916035,-7624.121203,-1480.411884,-689.485948
828.916355,-8660.409521,-1702.473667,-1455.581446
828.916676,-9474.636058,-2072.576638,-1532.190996
828.916997,-9918.759623,-1776.494261,-2757.943793
828.917317,-10955.047942,-2072.576638,-1225.752797
828.917638,-11103.089130,-1480.411884,-1225.752797
828.917958,-11103.089130,-814.226536,-536.266849
828.918279,-11547.212695,-814.226536,919.314598
828.918599,-10140.821405,148.041188,2681.334243
828.918920,-10658.965565,74.020594,3753.867940
828.919240,-9474.636058,0.000000,4979.620737
828.919561,-9030.512492,-518.144159,4213.525239
828.919881,-8438.347739,0.000000,4213.525239
828.920202,-7772.162391,148.041188,3524.039291
828.920522,-7254.018232,148.041188,2451.505594
828.920843,-7476.080014,-370.102971,919.314598
828.921163,-7994.224174,-1332.370696,-536.266849
828.921484,-9104.533087,-1110.308913,-459.657299
828.921804,-10510.924376,-1406.391290,-153.219100
828.922125,-10881.027347,-1110.308913,-383.047749
828.922445,-11695.253884,-888.247130,-459.657299
828.922766,-11325.150913,-518.144159,0.000000
828.923086,-11843.295072,370.102971,919.314598
828.923407,-11251.130318,814.226536,2451.505594
828.923728,-10807.006753,666.185348,2757.943793
828.924048,-9474.636058,962.267725,2681.334243
828.924369,-9030.512492,740.205942,2987.772442
828.924689,-8438.347739,1184.329507,2911.162892
828.925010,-8142.265362,1332.370696,2681.334243
828.925330,-7624.121203,962.267725,2681.334243
828.925651,-7698.141797,0.000000,383.047749
828.925971,-8142.265362,-666.185348,-766.095498
828.926292,-9622.677246,-962.267725,-383.047749
828.926612,-10510.924376,-1110.308913,-306.438199
828.926933,-11103.089130,-370.102971,-536.266849
828.927253,-11621.233289,-444.123565,-1072.533697
828.927574,-11769.274478,222.061783,-919.314598
828.927894,-11843.295072,592.164754,76.609550
828.928215,-10955.047942,962.267725,919.314598
828.928535,-10066.800811,1406.391290,2221.676944
828.928856,-9548.656652,888.247130,2528.115143
828.929176,-9030.512492,74.020594,2987.772442
828.929497,-8660.409521,0.000000,2757.943793
828.929818,-8068.244768,814.226536,2451.505594
828.930138,-7105.977043,592.164754,1685.410096
828.930459,-7105.977043,-296.082377,612.876398
828.930779,-7994.224174,-888.247130,-842.705048
828.931100,-10066.800811,-1184.329507,-1225.752797
828.931420,-9992.780217,-1184.329507,-689.485948
828.931741,-10658.965565,-1258.350101,-689.485948
828.932061,-11029.068536,-1628.453072,-1149.143247
828.932382,-12509.480420,-518.144159,-1225.752797
828.932702,-11547.212695,-148.041188,0.000000
828.933023,-11029.068536,296.082377,995.924147
828.933343,-10362.883188,592.164754,2298.286494
828.933664,-9992.780217,-74.020594,2298.286494
828.933984,-9178.553681,-962.267725,3294.210641
828.934305,-8586.388927,-1110.308913,2911.162892
828.934625,-7994.224174,-296.082377,2987.772442
828.934946,-7105.977043,74.020594,2451.505594
828.935266,-7031.956449,-444.123565,1532.190996
828.935587,-7624.121203,-1406.391290,0.000000
828.935907,-8586.388927,-2072.576638,-995.924147
828.936228,-9844.739029,-1924.535449,-306.438199
828.936549,-10436.903782,-814.226536,306.438199
828.936869,-11325.150913,-1776.494261,-383.047749
828.937190,-11547.212695,-1554.432478,-766.095498
828.937510,-11325.150913,-814.226536,-536.266849
828.937831,-11399.171507,0.000000,842.705048
828.938151,-10436.903782,740.205942,2068.457845
828.938472,-10140.821405,1036.288319,2757.943793
828.938792,-9474.636058,518.144159,2987.772442
828.939113,-8956.491898,444.123565,3370.820191
828.939433,-8734.430116,592.164754,3600.648841
828.939754,-7698.141797,518.144159,2451.505594
828.940074,-7698.141797,-222.061783,1532.190996
828.940395,-7772.162391,-1554.432478,0.000000
828.940715,-8216.285956,-2072.576638,-689.485948
828.941036,-9548.656652,-2294.638420,-766.095498
828.941356,-10658.965565,-1480.411884,-842.705048
828.941677,-10955.047942,-1110.308913,-842.705048
828.941997,-11399.171507,-740.205942,-995.924147
828.942318,-11621.233289,-444.123565,-689.485948
828.942639,-11177.109724,370.102971,842.705048
828.942959,-10436.903782,0.000000,2145.067394
828.943280,-9918.759623,0.000000,2528.115143
828.943600,-9104.533087,-740.205942,3140.991542
828.943921,-8808.450710,-370.102971,2987.772442
828.944241,-8068.244768,444.123565,3600.648841
828.944562,-7772.162391,740.205942,2451.505594
828.944882,-6439.791695,1332.370696,2451.505594
828.945203,-7476.080014,-370.102971,0.000000
828.945523,-8142.265362,-1332.370696,-383.047749
828.945844,-9474.636058,-1332.370696,153.219100
828.946164,-10436.903782,-962.267725,0.000000
828.946485,-11103.089130,-666.185348,-612.876398
828.946805,-11251.130318,-296.082377,-1072.533697
828.947126,-11547.212695,74.020594,-766.095498
828.947446,-11843.295072,888.247130,536.266849
828.947767,-11251.130318,1036.288319,1685.410096
828.948087,-10584.944971,1480.411884,2987.772442
828.948408,-9548.656652,740.205942,3447.429741
828.948728,-9252.574275,370.102971,3524.039291
828.949049,-8068.244768,740.205942,3447.429741
828.949370,-7994.224174,1258.350101,3294.210641
828.949690,-7254.018232,888.247130,1915.238745
828.950011,-7402.059420,-296.082377,612.876398
828.950331,-8068.244768,-1184.329507,536.266849
828.950652,-9474.636058,-1258.350101,-383.047749
828.950972,-10584.944971,-1036.288319,-306.438199
828.951293,-11177.109724,-148.041188,0.000000
828.951613,-11547.212695,-444.123565,0.000000
828.951934,-11399.171507,0.000000,0.000000
828.952254,-11843.295072,0.000000,766.095498
828.952575,-10955.047942,296.082377,1762.019645
828.952895,-9992.780217,592.164754,2451.505594
828.953216,-9104.533087,148.041188,2528.115143
828.953536,-8734.430116,222.061783,3064.381992
828.953857,-7920.203579,296.082377,2911.162892
828.954177,-7698.141797,592.164754,3064.381992
828.954498,-7105.977043,962.267725,1991.848295
828.954818,-7476.080014,-296.082377,995.924147
828.955139,-7772.162391,-1406.391290,-153.219100
828.955460,-9474.636058,-1850.514855,76.609550
828.955780,-10066.800811,-1776.494261,306.438199
828.956101,-10807.006753,-1036.288319,0.000000
828.956421,-11177.109724,-1332.370696,-612.876398
828.956742,-11325.150913,-888.247130,-995.924147
828.957062,-10955.047942,222.061783,-536.266849
828.957383,-11843.295072,2220.617826,-306.438199
828.957703,-10510.924376,1110.308913,2145.067394
828.958024,-9474.636058,0.000000,2451.505594
828.958344,-8956.491898,-740.205942,2681.334243
828.958665,-8660.409521,-888.247130,3524.039291
828.958985,-8142.265362,-444.123565,3064.381992
828.959306,-7476.080014,296.082377,2681.334243
828.959626,-7402.059420,-740.205942,995.924147
828.959947,-7550.100608,-1776.494261,-689.485948
828.960267,-8808.450710,-2442.679609,-919.314598
828.960588,-10066.800811,-2442.679609,-766.095498
828.960908,-10658.965565,-1924.535449,-842.705048
828.961229,-11325.150913,-1406.391290,-842.705048
828.961550,-11547.212695,-1702.473667,-1915.238745
828.961870,-11843.295072,-518.144159,-153.219100
828.962191,-11991.336260,74.020594,1072.533697
828.962511,-10584.944971,592.164754,2145.067394
828.962832,-10140.821405,370.102971,2528.115143
828.963152,-9252.574275,222.061783,2757.943793
828.963473,-8956.491898,222.061783,2757.943793
828.963793,-8512.368333,666.185348,3524.039291
828.964114,-7772.162391,888.247130,2298.286494
828.964434,-7179.997637,444.123565,995.924147
828.964755,-7920.203579,-592.164754,0.000000
828.965075,-8512.368333,-1184.329507,-383.047749
828.965396,-10288.862594,-1776.494261,-229.828649
828.965716,-10584.944971,-666.185348,689.485948
828.966037,-11029.068536,-1110.308913,-1072.533697
828.966357,-11251.130318,-1332.370696,-1378.971896
828.966678,-11103.089130,-370.102971,-842.705048
828.966998,-11547.212695,518.144159,1532.190996
828.967319,-10288.862594,370.102971,2068.457845
828.967639,-9992.780217,222.061783,3064.381992
828.967960,-9474.636058,-740.205942,4060.306139
828.968281,-9030.512492,-1332.370696,4213.525239
828.968601,-9030.512492,-814.226536,4596.572988
828.968922,-7624.121203,0.000000,3677.258390
828.969242,-7031.956449,0.000000,2298.286494
828.969563,-7402.059420,-222.061783,1149.143247
828.969883,-7846.182985,-1480.411884,153.219100
828.970204,-9104.533087,-1702.473667,-306.438199
828.970524,-9918.759623,-1184.329507,-612.876398
828.970845,-10658.965565,-1406.391290,-766.095498
828.971165,-10807.006753,-1036.288319,-383.047749
828.971486,-11473.192101,-296.082377,-995.924147
828.971806,-11917.315666,592.164754,842.705048
828.972127,-11103.089130,1110.308913,1455.581446
828.972447,-10732.986159,1110.308913,2528.115143
828.972768,-9696.697840,296.082377,2528.115143
828.973088,-9474.636058,222.061783,2374.896044
828.973409,-9030.512492,740.205942,3370.820191
828.973729,-8438.347739,962.267725,2987.772442
828.974050,-7031.956449,1184.329507,1991.848295
828.974371,-7846.182985,0.000000,689.485948
828.974691,-7994.224174,-962.267725,-766.095498
828.975012,-9844.739029,-1406.391290,-689.485948
828.975332,-10584.944971,-1332.370696,-1378.971896
828.975653,-10881.027347,-1184.329507,-842.705048
828.975973,-11621.233289,-962.267725,-1149.143247
828.976294,-11843.295072,-296.082377,-1762.019645
828.976614,-11547.212695,592.164754,-919.314598
828.976935,-11029.068536,1184.329507,76.609550
828.977255,-10214.842000,1406.391290,1991.848295
828.977576,-9918.759623,444.123565,2528.115143
828.977896,-9252.574275,-592.164754,2834.553343
828.978217,-8660.409521,0.000000,4213.525239
828.978537,-8290.306550,-592.164754,3064.381992
828.978858,-7179.997637,148.041188,2298.286494
828.979179,-7179.997637,-518.144159,1302.362347
828.979500,-7179.997637,-1406.391290,-536.266849
828.979820,-8290.306550,-1850.514855,-1149.143247
828.980141,-9696.697840,-2072.576638,-612.876398
828.980462,-10436.903782,-1480.411884,-842.705048
828.980782,-10955.047942,-1258.350101,-612.876398
828.981103,-10658.965565,-1036.288319,-536.266849
828.981424,-11029.068536,-444.123565,-383.047749
828.981744,-11103.089130,0.000000,919.314598
828.982065,-10066.800811,592.164754,2068.457845
828.982386,-10214.842000,-740.205942,2834.553343
828.982706,-8808.450710,-592.164754,3294.210641
828.983027,-8364.327145,-740.205942,2604.724693
828.983348,-8068.244768,-222.061783,3753.867940
828.983668,-7550.100608,148.041188,2911.162892
828.983989,-6957.935855,-370.102971,2145.067394
828.984310,-7698.141797,-1110.308913,536.266849
828.984630,-8438.347739,-1184.329507,153.219100
828.984951,-10658.965565,-1406.391290,536.266849
828.985272,-10214.842000,-1184.329507,1072.533697
828.985592,-11325.150913,-592.164754,-459.657299
828.985913,-11695.253884,-592.164754,-995.924147
828.986234,-11473.192101,-444.123565,-689.485948
828.986554,-11769.274478,444.123565,766.095498
828.986875,-10584.944971,370.102971,1685.410096
828.987196,-9992.780217,148.041188,2374.896044
828.987516,-9474.636058,-666.185348,2528.115143
828.987837,-9400.615463,-1036.288319,3064.381992
828.988158,-8956.491898,-888.247130,3140.991542
828.988479,-8068.244768,0.000000,2834.553343
828.988799,-7550.100608,0.000000,1915.238745
828.989120,-7772.162391,-1110.308913,919.314598
828.989441,-8438.347739,-1184.329507,-153.219100
828.989761,-9770.718434,-1850.514855,-229.828649
828.990082,-10510.924376,-1554.432478,-689.485948
828.990403,-10732.986159,-1258.350101,-612.876398
828.990723,-11399.171507,-1184.329507,-1149.143247
828.991044,-11251.130318,-148.041188,-1072.533697
828.991365,-11547.212695,222.061783,0.000000
828.991685,-10436.903782,1702.473667,842.705048
828.992006,-10066.800811,1702.473667,2374.896044
828.992327,-9696.697840,962.267725,2528.115143
828.992647,-9178.553681,222.061783,2604.724693
828.992968,-8660.409521,518.144159,3064.381992
828.993289,-8216.285956,1110.308913,3217.601092
828.993609,-7179.997637,1110.308913,3064.381992
828.993930,-7920.203579,148.041188,1302.362347
828.994251,-7994.224174,-814.226536,76.609550
828.994571,-9400.615463,-1480.411884,0.000000
828.994892,-9770.718434,-1554.432478,-306.438199
828.995213,-10807.006753,-1258.350101,-536.266849
828.995533,-11103.089130,-1406.391290,-995.924147
828.995854,-10807.006753,-592.164754,-1302.362347
828.996175,-11251.130318,296.082377,-229.828649
828.996495,-10658.965565,962.267725,1072.533697
828.996816,-10214.842000,962.267725,2298.286494
828.997137,-9844.739029,74.020594,2987.772442
828.997458,-9178.553681,-592.164754,2911.162892
828.997778,-8364.327145,-518.144159,3983.696590
828.998099,-8364.327145,-370.102971,2681.334243
828.998420,-7328.038826,370.102971,2374.896044
828.998740,-7698.141797,-592.164754,1225.752797
828.999061,-7179.997637,-1036.288319,-919.314598
828.999382,-8882.471304,-1258.350101,-689.485948
828.999702,-10140.821405,-814.226536,0.000000
829.000023,-11029.068536,-962.267725,153.219100
829.000344,-11473.192101,-518.144159,0.000000
829.000664,-11695.253884,0.000000,0.000000
829.000985,-11547.212695,0.000000,229.828649
829.001306,-11325.150913,962.267725,1378.971896
829.001626,-10362.883188,1480.411884,2374.896044
829.001947,-9474.636058,1036.288319,2681.334243
829.002268,-9252.574275,888.247130,2757.943793
829.002588,-8660.409521,518.144159,2987.772442
829.002909,-8660.409521,518.144159,3140.991542
829.003230,-7846.182985,888.247130,3064.381992
829.003550,-7920.203579,148.041188,1915.238745
829.003871,-8068.244768,-962.267725,1149.143247
829.004192,-9030.512492,-1332.370696,995.924147
829.004512,-10955.047942,-1776.494261,995.924147
829.004833,-10807.006753,-1480.411884,995.924147
829.005154,-11029.068536,-1110.308913,-383.047749
829.005474,-11103.089130,-1406.391290,-1532.190996
829.005795,-11251.130318,-222.061783,-919.314598
829.006116,-11103.089130,444.123565,689.485948
829.006437,-9770.718434,444.123565,919.314598
829.006757,-9474.636058,74.020594,1838.629195
829.007078,-8956.491898,-1332.370696,2068.457845
829.007399,-8882.471304,-1184.329507,1149.143247
829.007719,-8882.471304,-888.247130,3447.429741
829.008040,-7772.162391,74.020594,2911.162892
829.008361,-7550.100608,0.000000,1991.848295
829.008681,-7698.141797,-1406.391290,229.828649
829.009002,-8068.244768,-1776.494261,-1072.533697
829.009323,-9326.594869,-1628.453072,-766.095498
829.009643,-10140.821405,-1332.370696,-612.876398
829.009964,-10658.965565,-962.267725,-842.705048
829.010285,-10807.006753,-518.144159,-1762.019645
829.010605,-11177.109724,-148.041188,-842.705048
829.010926,-11399.171507,222.061783,229.828649
829.011247,-10584.944971,740.205942,1532.190996
829.011567,-10214.842000,-148.041188,995.924147
829.011888,-9548.656652,-222.061783,2834.553343
829.012209,-9178.553681,-370.102971,2911.162892
829.012529,-8956.491898,0.000000,3600.648841
829.012850,-8364.327145,222.061783,3600.648841
829.013171,-7846.182985,296.082377,2451.505594
829.013491,-8142.265362,-666.185348,842.705048
829.013812,-8512.368333,-1332.370696,76.609550
829.014133,-10214.842000,-1554.432478,766.095498
829.014453,-10955.047942,-1036.288319,612.876398
829.014774,-11399.171507,-1258.350101,0.000000
829.015095,-11399.171507,-740.205942,-842.705048
829.015415,-11621.233289,-296.082377,-1225.752797
829.015736,-11695.253884,814.226536,-1072.533697
829.016057,-10955.047942,888.247130,1072.533697
829.016378,-10214.842000,740.205942,2145.067394
829.016698,-10066.800811,74.020594,2681.334243
829.017019,-9326.594869,-370.102971,2681.334243
829.017340,-8660.409521,-740.205942,3294.210641
829.017660,-7994.224174,0.000000,2451.505594
829.017981,-7550.100608,888.247130,2374.896044
829.018302,-7550.100608,0.000000,1608.800546
829.018622,-7402.059420,-666.185348,-536.266849
829.018943,-8290.306550,-1702.473667,-919.314598
829.019264,-9622.677246,-2146.597232,-612.876398
829.019584,-10288.862594,-1184.329507,-306.438199
829.019905,-10807.006753,-1332.370696,0.000000
829.020226,-11029.068536,0.000000,0.000000
829.020546,-11325.150913,296.082377,229.828649
829.020867,-10807.006753,1110.308913,1302.362347
829.021188,-10436.903782,1258.350101,3140.991542
829.021508,-9474.636058,148.041188,2757.943793
829.021829,-9030.512492,0.000000,2757.943793
829.022150,-8660.409521,0.000000,2911.162892
829.022470,-7994.224174,222.061783,2834.553343
829.022791,-7179.997637,666.185348,2911.162892
829.023112,-7550.100608,0.000000,1225.752797
829.023432,-7402.059420,-1628.453072,76.609550
829.023753,-8956.491898,-1332.370696,0.000000
829.024074,-10436.903782,-962.267725,-383.047749
829.024394,-10955.047942,-1110.308913,536.266849
829.024715,-11251.130318,-1184.329507,-229.828649
829.025036,-11251.130318,-888.247130,-1455.581446
829.025357,-10881.027347,-370.102971,-919.314598
829.025677,-10955.047942,296.082377,459.657299
829.025998,-10658.965565,1258.350101,1915.238745
829.026319,-10066.800811,740.205942,2451.505594
829.026639,-9696.697840,518.144159,2987.772442
829.026960,-8882.471304,296.082377,2528.115143
829.027281,-9104.533087,0.000000,2987.772442
829.027601,-7920.203579,222.061783,2221.676944
829.027922,-7846.182985,-296.082377,1302.362347
829.028243,-7920.203579,-1036.288319,0.000000
829.028563,-8586.388927,-1480.411884,-1072.533697
829.028884,-9770.718434,-1554.432478,-766.095498
829.029205,-10510.924376,-888.247130,-612.876398
829.029525,-11029.068536,-518.144159,-306.438199
829.029846,-11325.150913,-1036.288319,-689.485948
829.030167,-11621.233289,74.020594,-612.876398
829.030487,-11695.253884,148.041188,842.705048
829.030808,-10214.842000,962.267725,1762.019645
829.031129,-9622.677246,888.247130,1685.410096
829.031449,-9252.574275,-148.041188,2681.334243
829.031770,-8512.368333,-148.041188,2068.457845
829.032091,-8512.368333,-74.020594,2681.334243
829.032411,-7624.121203,370.102971,2604.724693
829.032732,-7179.997637,296.082377,1532.190996
829.033053,-7698.141797,-592.164754,229.828649
829.033373,-8142.265362,-1258.350101,0.000000
829.033694,-9622.677246,-1776.494261,306.438199
829.034015,-9992.780217,-1850.514855,-229.828649
829.034336,-11029.068536,-1998.556043,-229.828649
829.034656,-10658.965565,-1332.370696,-1149.143247
829.034977,-10807.006753,-888.247130,-1225.752797
829.035298,-9844.739029,888.247130,1455.581446
829.035618,-10140.821405,518.144159,1532.190996
829.035939,-9918.759623,666.185348,2681.334243
829.036260,-9696.697840,-148.041188,2987.772442
829.036580,-9104.533087,-518.144159,3064.381992
829.036901,-9178.553681,-296.082377,3753.867940
829.037222,-8290.306550,666.185348,3217.601092
829.037542,-7698.141797,0.000000,2145.067394
829.037863,-7698.141797,-740.205942,689.485948
829.038184,-8882.471304,-1184.329507,-1378.971896
829.038504,-9622.677246,-1850.514855,-612.876398
829.038825,-10362.883188,-1554.432478,-153.219100
829.039146,-11325.150913,-1480.411884,0.000000
829.039466,-11177.109724,-1258.350101,-842.705048
829.039787,-11473.192101,-518.144159,-153.219100
829.040108,-11695.253884,0.000000,383.047749
829.040428,-11325.150913,814.226536,1838.629195
829.040749,-10658.965565,1110.308913,2834.553343
829.041070,-10066.800811,148.041188,1838.629195
829.041390,-8956.491898,-518.144159,2757.943793
829.041711,-8808.450710,0.000000,3370.820191
829.042032,-8512.368333,296.082377,3447.429741
829.042352,-7624.121203,444.123565,2604.724693
829.042673,-7698.141797,-222.061783,1455.581446
829.042994,-7846.182985,-962.267725,0.000000
829.043315,-9696.697840,-1480.411884,383.047749
829.043635,-10066.800811,-1480.411884,536.266849
829.043956,-10584.944971,-1850.514855,-459.657299
829.044277,-10658.965565,-1258.350101,-1225.752797
829.044597,-11251.130318,-592.164754,-1455.581446
829.044918,-10807.006753,0.000000,-383.047749
829.045239,-10807.006753,814.226536,459.657299
829.045559,-9400.615463,1554.432478,2681.334243
829.045880,-10288.862594,-740.205942,2911.162892
829.046201,-8586.388927,-740.205942,2604.724693
829.046521,-9178.553681,-444.123565,3140.991542
829.046842,-8734.430116,222.061783,3064.381992
829.047163,-7105.977043,962.267725,2451.505594
829.047483,-7624.121203,-296.082377,1532.190996
829.047804,-7698.141797,-1036.288319,-229.828649
829.048125,-8216.285956,-2220.617826,-1762.019645
829.048445,-10955.047942,-1184.329507,-612.876398
829.048766,-10140.821405,-1702.473667,-459.657299
829.049087,-11547.212695,-1184.329507,-919.314598
829.049407,-11399.171507,-518.144159,-383.047749
829.049728,-10955.047942,0.000000,-306.438199
829.050049,-11769.274478,1332.370696,1455.581446
829.050369,-11325.150913,1036.288319,2451.505594
829.050690,-9474.636058,814.226536,2757.943793
829.051011,-9326.594869,0.000000,2451.505594
829.051331,-9030.512492,518.144159,2528.115143
829.051652,-8290.306550,1184.329507,3753.867940
829.051973,-7846.182985,1184.329507,3064.381992
829.052294,-8216.285956,444.123565,2068.457845
829.052614,-7698.141797,-518.144159,229.828649
829.052935,-9104.533087,-1554.432478,76.609550
829.053256,-10288.862594,-1702.473667,612.876398
829.053576,-10584.944971,-962.267725,459.657299
829.053897,-11103.089130,-814.226536,-229.828649
829.054218,-10955.047942,74.020594,-766.095498
829.054538,-10881.027347,666.185348,-536.266849
829.054859,-11547.212695,814.226536,1149.143247
829.055180,-10066.800811,1332.370696,2374.896044
829.055500,-9400.615463,666.185348,3064.381992
829.055821,-9474.636058,0.000000,3294.210641
829.056142,-8882.471304,0.000000,3217.601092
829.056462,-8808.450710,148.041188,3753.867940
829.056783,-7624.121203,444.123565,3064.381992
829.057104,-7179.997637,0.000000,1762.019645
829.057424,-7550.100608,-962.267725,0.000000
829.057745,-8216.285956,-2072.576638,-766.095498
829.058066,-9474.636058,-2072.576638,0.000000
829.058386,-10658.965565,-1702.473667,-306.438199
829.058707,-10732.986159,-1480.411884,-766.095498
829.059028,-11251.130318,-1184.329507,-919.314598
829.059348,-11399.171507,-814.226536,-689.485948
829.059669,-11399.171507,444.123565,2221.676944
829.059990,-10510.924376,814.226536,1685.410096
829.060310,-9844.739029,518.144159,2298.286494
829.060631,-9400.615463,0.000000,2528.115143
829.060952,-8734.430116,-592.164754,2451.505594
829.061273,-8512.368333,74.020594,3294.210641
829.061593,-7772.162391,666.185348,2757.943793
829.061914,-7772.162391,444.123565,1991.848295
829.062235,-7772.162391,-592.164754,842.705048
829.062555,-7402.059420,-1702.473667,-76.609550
829.062876,-9918.759623,-1554.432478,-229.828649
829.063197,-10288.862594,-888.247130,229.828649
829.063517,-11621.233289,-962.267725,-383.047749
829.063838,-11251.130318,-962.267725,-459.657299
829.064159,-11769.274478,-518.144159,-536.266849
829.064479,-11251.130318,0.000000,0.000000
829.064800,-11103.089130,888.247130,1532.190996
829.065121,-10214.842000,1110.308913,2374.896044
829.065441,-9918.759623,666.185348,3064.381992
829.065762,-9104.533087,-296.082377,2987.772442
829.066083,-9104.533087,-592.164754,3064.381992
829.066403,-8216.285956,-370.102971,2068.457845
829.066724,-7179.997637,74.020594,1378.971896
829.067045,-7328.038826,-666.185348,766.095498
829.067365,-7476.080014,-1258.350101,-1072.533697
829.067686,-8734.430116,-1850.514855,-995.924147
829.068007,-10066.800811,-1924.535449,-766.095498
829.068327,-10955.047942,-2072.576638,-766.095498
829.068648,-11251.130318,-1480.411884,-459.657299
829.068969,-11695.253884,-962.267725,-766.095498
829.069289,-11251.130318,-148.041188,229.828649
829.069610,-10807.006753,222.061783,766.095498
829.069931,-9992.780217,962.267725,2451.505594
829.070251,-9770.718434,0.000000,2987.772442
829.070572,-9030.512492,-370.102971,2987.772442
829.070893,-9400.615463,-666.185348,3370.820191
829.071214,-8364.327145,74.020594,3294.210641
829.071534,-7772.162391,444.123565,2681.334243
829.071855,-7698.141797,296.082377,1991.848295
829.072176,-7476.080014,-518.144159,689.485948
829.072496,-9178.553681,-1184.329507,76.609550
829.072817,-10214.842000,-962.267725,459.657299
829.073138,-10807.006753,-1036.288319,153.219100
829.073458,-11251.130318,-814.226536,-612.876398
829.073779,-10955.047942,0.000000,-1302.362347
829.074100,-11103.089130,-222.061783,-1072.533697
829.074420,-10881.027347,666.185348,459.657299
829.074741,-10658.965565,1406.391290,2374.896044
829.075062,-9178.553681,1258.350101,2451.505594
829.075382,-9548.656652,148.041188,2834.553343
829.075703,-9252.574275,370.102971,2987.772442
829.076024,-8882.471304,740.205942,3677.258390
829.076344,-8142.265362,888.247130,3830.477490
829.076665,-7772.162391,0.000000,2145.067394
829.076986,-7846.182985,-1480.411884,306.438199
829.077306,-8438.347739,-2368.659014,-689.485948
829.077627,-9622.677246,-1998.556043,-383.047749
829.077948,-10732.986159,-1628.453072,-153.219100
829.078268,-11177.109724,-1184.329507,-459.657299
829.078589,-10807.006753,-814.226536,-1149.143247
829.078910,-11325.150913,-148.041188,-919.314598
829.079230,-11621.233289,1776.494261,1838.629195
829.079551,-10288.862594,1036.288319,2221.676944
829.079872,-10584.944971,666.185348,3140.991542
829.080193,-9252.574275,370.102971,3140.991542
829.080513,-9030.512492,148.041188,3294.210641
829.080834,-8586.388927,370.102971,3677.258390
829.081154,-7846.182985,888.247130,3064.381992
829.081475,-7476.080014,444.123565,1685.410096
829.081795,-7624.121203,-740.205942,306.438199
829.082116,-7772.162391,-1258.350101,-842.705048
829.082436,-9770.718434,-1850.514855,-153.219100
829.082757,-10658.965565,-1184.329507,229.828649
829.083077,-11103.089130,-1184.329507,0.000000
829.083398,-11103.089130,0.000000,76.609550
829.083718,-11473.192101,-592.164754,-612.876398
829.084039,-11177.109724,-222.061783,306.438199
829.084359,-10732.986159,518.144159,1455.581446
829.084680,-10214.842000,740.205942,2681.334243
829.085000,-9622.677246,0.000000,3140.991542
829.085321,-9104.533087,-296.082377,3217.601092
829.085642,-8586.388927,-74.020594,2911.162892
829.085962,-7994.224174,0.000000,2451.505594
829.086283,-7031.956449,-592.164754,995.924147
829.086603,-7402.059420,-1036.288319,306.438199
829.086924,-7772.162391,-1998.556043,-1149.143247
829.087244,-9400.615463,-2368.659014,-1072.533697
829.087565,-10214.842000,-1776.494261,-306.438199
829.087885,-11251.130318,-1702.473667,-383.047749
829.088206,-11547.212695,-1258.350101,-919.314598
829.088526,-11547.212695,-592.164754,-995.924147
829.088847,-11547.212695,0.000000,0.000000
829.089167,-11029.068536,592.164754,1532.190996
829.089488,-10362.883188,888.247130,2374.896044
829.089808,-9770.718434,0.000000,2528.115143
829.090129,-8734.430116,-370.102971,2374.896044
829.090449,-8586.388927,148.041188,2604.724693
829.090770,-8142.265362,518.144159,2834.553343
829.091090,-7846.182985,962.267725,2757.943793
829.091411,-7846.182985,74.020594,1225.752797
829.091731,-7698.141797,-962.267725,-229.828649
829.092052,-9252.574275,-1258.350101,0.000000
829.092372,-10584.944971,-1480.411884,536.266849
829.092693,-11177.109724,-1110.308913,766.095498
829.093013,-11103.089130,-962.267725,-153.219100
829.093334,-11103.089130,-296.082377,-1225.752797
829.093654,-10732.986159,148.041188,-689.485948
829.093975,-10955.047942,1110.308913,995.924147
829.094295,-10288.862594,1184.329507,2604.724693
829.094616,-9030.512492,0.000000,2911.162892
829.094936,-8882.471304,-592.164754,2757.943793
829.095257,-8956.491898,-740.205942,3370.820191
829.095577,-8512.368333,0.000000,3370.820191
829.095898,-7846.182985,666.185348,2298.286494
829.096218,-7624.121203,-222.061783,1378.971896
829.096539,-7624.121203,-1184.329507,-306.438199
829.096859,-8882.471304,-1924.535449,-766.095498
829.097180,-9992.780217,-1480.411884,0.000000
829.097500,-10362.883188,-1628.453072,0.000000
829.097821,-10881.027347,-1110.308913,-842.705048
829.098141,-10732.986159,-666.185348,-995.924147
829.098462,-11251.130318,74.020594,0.000000
829.098782,-11621.233289,1332.370696,1608.800546
829.099103,-9992.780217,1036.288319,2528.115143
829.099423,-9918.759623,666.185348,2911.162892
829.099744,-9252.574275,444.123565,3064.381992
829.100064,-9252.574275,296.082377,3524.039291
829.100385,-9030.512492,814.226536,4290.134789
829.100705,-7772.162391,666.185348,3064.381992
829.101026,-7550.100608,370.102971,1915.238745
829.101346,-7402.059420,-962.267725,229.828649
829.101667,-8290.306550,-1036.288319,-612.876398
829.101987,-9918.759623,-740.205942,153.219100
829.102308,-10436.903782,-148.041188,0.000000
829.102629,-11103.089130,-370.102971,-459.657299
829.102949,-11325.150913,148.041188,0.000000
829.103270,-11621.233289,0.000000,-306.438199
829.103590,-11251.130318,666.185348,1072.533697
829.103911,-10584.944971,1258.350101,1838.629195
829.104231,-10288.862594,1110.308913,3907.087040
829.104552,-9252.574275,222.061783,2604.724693
829.104872,-8734.430116,0.000000,2528.115143
829.105193,-8512.368333,222.061783,2604.724693
829.105513,-7550.100608,222.061783,2145.067394
829.105834,-7550.100608,0.000000,1072.533697
829.106154,-7624.121203,-1332.370696,0.000000
829.106475,-8290.306550,-1924.535449,-1072.533697
829.106795,-9696.697840,-2146.597232,-383.047749
829.107116,-10510.924376,-1332.370696,-229.828649
829.107436,-10807.006753,-1924.535449,-612.876398
829.107757,-11029.068536,-1850.514855,-612.876398
829.108077,-11029.068536,-1184.329507,-995.924147
829.108398,-11103.089130,-888.247130,689.485948
829.108718,-10362.883188,74.020594,1149.143247
829.109039,-9844.739029,370.102971,2374.896044
829.109359,-9252.574275,-148.041188,2145.067394
829.109680,-8882.471304,-370.102971,2681.334243
829.110000,-8808.450710,370.102971,3064.381992
829.110321,-8438.347739,666.185348,3064.381992
829.110641,-7846.182985,518.144159,2451.505594
829.110962,-8068.244768,-518.144159,1072.533697
829.111282,-8216.285956,-370.102971,-229.828649
829.111603,-9622.677246,-1110.308913,0.000000
829.111923,-10436.903782,-888.247130,153.219100
829.112244,-11029.068536,-888.247130,76.609550
829.112564,-11177.109724,-592.164754,-1302.362347
829.112885,-11251.130318,0.000000,-1302.362347
829.113205,-11251.130318,518.144159,76.609550
829.113526,-11177.109724,1184.329507,2068.457845
829.113846,-10288.862594,1184.329507,3370.820191
829.114167,-9548.656652,-444.123565,3830.477490
829.114487,-9178.553681,-1110.308913,3830.477490
829.114808,-9252.574275,-1184.329507,3677.258390
829.115128,-8586.388927,-296.082377,3217.601092
829.115449,-7105.977043,-148.041188,2145.067394
829.115769,-7624.121203,-296.082377,612.876398
829.116090,-7476.080014,-1258.350101,-612.876398
829.116410,-9178.553681,-1924.535449,-536.266849
829.116731,-10732.986159,-962.267725,-1149.143247
829.117051,-10881.027347,-1850.514855,-459.657299
829.117372,-11251.130318,-1332.370696,-766.095498
829.117692,-11029.068536,-444.123565,-919.314598
829.118013,-11251.130318,148.041188,0.000000
829.118333,-10732.986159,444.123565,459.657299
829.118654,-9622.677246,370.102971,1685.410096
829.118974,-9252.574275,-740.205942,2374.896044
829.119295,-8882.471304,-740.205942,2145.067394
829.119615,-8808.450710,-592.164754,2604.724693
829.119936,-8364.327145,222.061783,3140.991542
829.120257,-7698.141797,740.205942,2681.334243
829.120577,-7920.203579,518.144159,1608.800546
829.120898,-7846.182985,-148.041188,1455.581446
829.121218,-9104.533087,-1332.370696,0.000000
829.121539,-10436.903782,-1258.350101,612.876398
829.121859,-10584.944971,-1258.350101,153.219100
829.122180,-11251.130318,-740.205942,-612.876398
829.122500,-11177.109724,0.000000,-1302.362347
829.122821,-11177.109724,592.164754,-919.314598
829.123141,-10881.027347,1406.391290,536.266849
829.123462,-10436.903782,1628.453072,1915.238745
829.123782,-9548.656652,222.061783,2374.896044
829.124103,-9474.636058,-370.102971,2834.553343
829.124423,-9474.636058,0.000000,3217.601092
829.124744,-9178.553681,444.123565,3217.601092
829.125064,-7772.162391,1406.391290,4136.915689
829.125385,-8068.244768,0.000000,1685.410096
829.125705,-8142.265362,-1184.329507,76.609550
829.126026,-8882.471304,-1850.514855,-459.657299
829.126346,-10066.800811,-1998.556043,0.000000
829.126667,-10658.965565,-962.267725,-153.219100
829.126987,-11177.109724,-518.144159,-383.047749
829.127308,-11029.068536,-296.082377,-1149.143247
829.127628,-11103.089130,0.000000,-536.266849
829.127949,-10955.047942,592.164754,153.219100
829.128269,-10066.800811,444.123565,1378.971896
829.128590,-9918.759623,74.020594,2298.286494
829.128910,-9252.574275,0.000000,2681.334243
829.129231,-9104.533087,74.020594,2068.457845
829.129551,-8660.409521,592.164754,4060.306139
829.129872,-8142.265362,444.123565,3753.867940
829.130192,-7920.203579,-518.144159,2221.676944
829.130513,-7550.100608,-1702.473667,689.485948
829.130833,-8068.244768,-2368.659014,-153.219100
829.131154,-9622.677246,-2220.617826,229.828649
829.131474,-10288.862594,-1406.391290,0.000000
829.131795,-10658.965565,-1332.370696,-383.047749
829.132115,-10955.047942,-1184.329507,-1608.800546
829.132436,-10732.986159,-740.205942,-1149.143247
829.132756,-11251.130318,-296.082377,-229.828649
829.133077,-10658.965565,74.020594,995.924147
829.133397,-10140.821405,444.123565,2298.286494
829.133718,-9696.697840,0.000000,2681.334243
829.134038,-9400.615463,0.000000,2681.334243
829.134359,-9104.533087,-222.061783,3294.210641
829.134679,-8216.285956,666.185348,2451.505594
829.135000,-8142.265362,592.164754,1608.800546
829.135320,-7698.141797,-296.082377,689.485948
829.135641,-8142.265362,-1850.514855,-536.266849
829.135961,-9474.636058,-2220.617826,-459.657299
829.136282,-11103.089130,-2368.659014,-612.876398
829.136602,-11177.109724,-1332.370696,0.000000
829.136923,-11695.253884,-1036.288319,0.000000
829.137243,-11547.212695,-370.102971,-306.438199
829.137564,-11325.150913,0.000000,1532.190996
829.137885,-10658.965565,814.226536,1072.533697
829.138205,-10288.862594,888.247130,1762.019645
829.138526,-9548.656652,-148.041188,2451.505594
829.138846,-9030.512492,-666.185348,2451.505594
829.139167,-8586.388927,-296.082377,3600.648841
829.139487,-8438.347739,148.041188,3524.039291
829.139808,-7920.203579,740.205942,2834.553343
829.140128,-7772.162391,-296.082377,1685.410096
829.140449,-7846.182985,-740.205942,153.219100
829.140769,-9104.533087,-1480.411884,689.485948
829.141090,-10140.821405,-1480.411884,612.876398
829.141410,-10658.965565,-1332.370696,229.828649
829.141731,-10658.965565,-1628.453072,-1915.238745
829.142051,-10658.965565,-666.185348,-1302.362347
829.142372,-10881.027347,444.123565,-306.438199
829.142692,-10510.924376,1184.329507,612.876398
829.143013,-10214.842000,1184.329507,1915.238745
829.143333,-9548.656652,148.041188,2987.772442
829.143654,-9252.574275,-222.061783,2987.772442
829.143974,-9252.574275,-518.144159,3600.648841
829.144295,-8660.409521,-444.123565,3370.820191
829.144615,-6735.874072,0.000000,1991.848295
829.144936,-7402.059420,-296.082377,919.314598
829.145256,-7476.080014,-518.144159,-306.438199
829.145577,-8808.450710,-1258.350101,-612.876398
829.145897,-10362.883188,-518.144159,-842.705048
829.146218,-10658.965565,-1036.288319,-229.828649
829.146538,-11029.068536,-592.164754,-153.219100
829.146859,-11621.233289,0.000000,-612.876398
829.147179,-11843.295072,296.082377,0.000000
829.147500,-11029.068536,740.205942,919.314598
829.147820,-10584.944971,1036.288319,1532.190996
829.148141,-9770.718434,518.144159,1838.629195
829.148461,-9474.636058,296.082377,1915.238745
829.148782,-9770.718434,1258.350101,2604.724693
829.149102,-9178.553681,1480.411884,2604.724693
829.149423,-8216.285956,1702.473667,2374.896044
829.149743,-8364.327145,518.144159,1838.629195
829.150064,-8364.327145,-1924.535449,-1149.143247
829.150384,-9104.533087,-1776.494261,0.000000
829.150705,-10436.903782,-2146.597232,536.266849
829.151025,-10510.924376,-1184.329507,229.828649
829.151346,-10955.047942,-1110.308913,-383.047749
829.151666,-10584.944971,-592.164754,-919.314598
829.151987,-10436.903782,0.000000,-919.314598
829.152307,-10732.986159,74.020594,229.828649
829.152628,-9844.739029,666.185348,1455.581446
829.152948,-9252.574275,-74.020594,2221.676944
829.153269,-9030.512492,0.000000,2451.505594
829.153589,-8586.388927,0.000000,3447.429741
829.153910,-9104.533087,370.102971,4213.525239
829.154230,-8142.265362,962.267725,3447.429741
829.154551,-7402.059420,0.000000,2298.286494
829.154871,-7624.121203,-962.267725,995.924147
829.155192,-8142.265362,-1480.411884,-383.047749
829.155513,-9548.656652,-1554.432478,612.876398
829.155833,-10214.842000,-1258.350101,229.828649
829.156154,-10510.924376,-1110.308913,-153.219100
829.156474,-10955.047942,-1110.308913,-766.095498
829.156795,-10881.027347,-666.185348,-383.047749
829.157115,-11547.212695,370.102971,229.828649
829.157436,-10436.903782,1332.370696,1838.629195
829.157756,-10362.883188,1036.288319,2221.676944
829.158077,-9178.553681,444.123565,2911.162892
829.158397,-9474.636058,1036.288319,4903.011187
829.158718,-8956.491898,148.041188,3524.039291
829.159038,-8586.388927,296.082377,3294.210641
829.159359,-7772.162391,0.000000,2145.067394
829.159679,-7772.162391,-962.267725,766.095498
829.160000,-8438.347739,-1554.432478,0.000000
829.160320,-9178.553681,-1776.494261,-76.609550
829.160641,-10362.883188,-1480.411884,-459.657299
829.160961,-10955.047942,-1554.432478,-689.485948
829.161282,-11547.212695,-592.164754,-1608.800546
829.161602,-11473.192101,-592.164754,-1455.581446
829.161923,-11547.212695,296.082377,0.000000
829.162243,-11103.089130,592.164754,1378.971896
829.162564,-10510.924376,1184.329507,3447.429741
829.162884,-9474.636058,222.061783,2911.162892
829.163205,-9326.594869,-444.123565,2911.162892
829.163525,-8364.327145,-370.102971,2911.162892
829.163846,-8438.347739,0.000000,2451.505594
829.164166,-7624.121203,592.164754,2374.896044
829.164487,-7402.059420,-962.267725,612.876398
829.164807,-7476.080014,-1628.453072,-919.314598
829.165128,-9104.533087,-1924.535449,-1149.143247
829.165448,-10658.965565,-666.185348,-766.095498
829.165769,-10807.006753,-1184.329507,-459.657299
829.166089,-11029.068536,-814.226536,-536.266849
829.166410,-11695.253884,-518.144159,-1149.143247
829.166730,-11103.089130,222.061783,76.609550
829.167051,-10955.047942,888.247130,919.314598
829.167371,-9992.780217,1184.329507,2221.676944
829.167692,-9696.697840,370.102971,2681.334243
829.168012,-9030.512492,222.061783,2834.553343
829.168333,-8808.450710,0.000000,2987.772442
829.168653,-8068.244768,0.000000,3140.991542
829.168974,-7624.121203,0.000000,2757.943793
829.169294,-7550.100608,-1184.329507,1838.629195
829.169615,-7402.059420,-1998.556043,383.047749
829.169935,-8956.491898,-1776.494261,306.438199
829.170256,-10288.862594,-2072.576638,919.314598
829.170576,-10881.027347,-888.247130,842.705048
829.170897,-11251.130318,-148.041188,229.828649
829.171217,-11029.068536,-370.102971,-1072.533697
829.171538,-11325.150913,296.082377,-536.266849
829.171858,-11399.171507,1776.494261,689.485948
829.172179,-10658.965565,1850.514855,2145.067394
829.172499,-10288.862594,1258.350101,2451.505594
829.172820,-9400.615463,296.082377,2911.162892
829.173141,-9400.615463,-666.185348,2987.772442
829.173461,-8660.409521,0.000000,3600.648841
829.173782,-7476.080014,0.000000,2834.553343
829.174102,-7772.162391,74.020594,1838.629195
829.174423,-7846.182985,-888.247130,306.438199
829.174743,-8586.388927,-1184.329507,-229.828649
829.175064,-9252.574275,-2368.659014,-459.657299
829.175384,-10436.903782,-1406.391290,-459.657299
829.175705,-11177.109724,-1480.411884,-612.876398
829.176025,-10881.027347,-1258.350101,-1608.800546
829.176346,-11325.150913,-296.082377,-1072.533697
829.176666,-11177.109724,740.205942,-229.828649
829.176987,-10584.944971,1554.432478,1532.190996
829.177307,-10214.842000,1480.411884,1838.629195
829.177628,-9400.615463,148.041188,2374.896044
829.177948,-9474.636058,370.102971,2757.943793
829.178269,-8882.471304,-148.041188,3294.210641
829.178589,-7920.203579,-296.082377,3064.381992
829.178910,-7772.162391,-518.144159,1991.848295
829.179230,-7105.977043,-740.205942,-229.828649
829.179551,-8216.285956,-1480.411884,-459.657299
829.179871,-9474.636058,-1702.473667,-459.657299
829.180192,-10140.821405,-1332.370696,-612.876398
829.180512,-10584.944971,-814.226536,-1225.752797
829.180833,-10955.047942,-666.185348,-1532.190996
829.181153,-11029.068536,0.000000,-1838.629195
829.181474,-11177.109724,962.267725,-306.438199
829.181795,-10436.903782,666.185348,1149.143247
829.182115,-10288.862594,666.185348,2145.067394
829.182436,-9548.656652,-296.082377,2681.334243
829.182756,-9104.533087,-814.226536,2911.162892
829.183077,-8734.430116,-518.144159,3294.210641
829.183397,-7846.182985,-148.041188,3370.820191
829.183718,-7328.038826,0.000000,2298.286494
829.184039,-7624.121203,-814.226536,766.095498
829.184359,-7846.182985,-2072.576638,-766.095498
829.184680,-9400.615463,-2590.720797,-689.485948
829.185000,-10066.800811,-2146.597232,766.095498
829.185321,-10732.986159,-1998.556043,-612.876398
829.185642,-11769.274478,-1258.350101,-306.438199
829.185962,-11843.295072,-296.082377,0.000000
829.186283,-11843.295072,1332.370696,1378.971896
829.186603,-11547.212695,814.226536,2374.896044
829.186924,-10584.944971,1110.308913,3370.820191
829.187244,-9696.697840,-296.082377,3294.210641
829.187565,-8956.491898,-444.123565,2987.772442
829.187886,-8734.430116,-888.247130,2757.943793
829.188206,-7772.162391,592.164754,2911.162892
829.188527,-7846.182985,814.226536,2145.067394
829.188847,-7402.059420,370.102971,1302.362347
829.189168,-7846.182985,-1406.391290,612.876398
829.189489,-9252.574275,-1850.514855,-306.438199
829.189809,-10214.842000,-2220.617826,76.609550
829.190130,-10881.027347,-1776.494261,0.000000
829.190450,-11621.233289,-1184.329507,459.657299
829.190771,-11251.130318,-592.164754,-995.924147
829.191091,-11843.295072,518.144159,-76.609550
829.191412,-11325.150913,1406.391290,1149.143247
829.191733,-10288.862594,1480.411884,2221.676944
829.192053,-10140.821405,444.123565,2681.334243
829.192374,-8808.450710,-148.041188,2374.896044
829.192694,-8438.347739,-666.185348,2298.286494
829.193015,-8068.244768,0.000000,2528.115143
829.193335,-6735.874072,1184.329507,1915.238745
829.193656,-7476.080014,222.061783,766.095498
829.193977,-7550.100608,-888.247130,-766.095498
829.194297,-9030.512492,-1110.308913,-919.314598
829.194618,-10288.862594,-814.226536,-306.438199
829.194938,-10955.047942,-1480.411884,0.000000
829.195259,-11251.130318,-1332.370696,-383.047749
829.195580,-11251.130318,-1036.288319,-1532.190996
829.195900,-11251.130318,0.000000,-536.266849
829.196221,-11473.192101,1480.411884,842.705048
829.196541,-10584.944971,1998.556043,2298.286494
829.196862,-10066.800811,1258.350101,2987.772442
829.197182,-8956.491898,370.102971,3294.210641
829.197503,-9474.636058,0.000000,4903.011187
829.197824,-9178.553681,-148.041188,4826.401637
829.198144,-8142.265362,-222.061783,4136.915689
829.198465,-7624.121203,-518.144159,2681.334243
829.198785,-7105.977043,-1258.350101,689.485948
829.199106,-8290.306550,-888.247130,0.000000
829.199426,-9918.759623,-814.226536,536.266849
829.199747,-10584.944971,-222.061783,153.219100
829.200068,-10955.047942,-296.082377,-383.047749
829.200388,-11325.150913,-148.041188,-995.924147
829.200709,-11843.295072,0.000000,-383.047749
829.201029,-11769.274478,962.267725,612.876398
829.201350,-10807.006753,1332.370696,1762.019645
829.201671,-9844.739029,1110.308913,1991.848295
829.201991,-8882.471304,-148.041188,2604.724693
829.202312,-9104.533087,-592.164754,2681.334243
829.202632,-8734.430116,-518.144159,2834.553343
829.202953,-7698.141797,370.102971,2451.505594
829.203273,-7402.059420,-296.082377,1455.581446
829.203594,-7698.141797,-1406.391290,306.438199
829.203915,-8364.327145,-2220.617826,-536.266849
829.204235,-9622.677246,-2812.782580,-842.705048
829.204556,-9992.780217,-2146.597232,-383.047749
829.204876,-11029.068536,-1554.432478,-612.876398
829.205197,-11695.253884,-814.226536,-919.314598
829.205517,-11547.212695,0.000000,-919.314598
829.205838,-10510.924376,296.082377,-459.657299
829.206159,-10436.903782,1554.432478,1455.581446
829.206479,-10214.842000,1110.308913,2757.943793
829.206800,-9400.615463,0.000000,2681.334243
829.207120,-8882.471304,0.000000,1991.848295
829.207441,-8364.327145,0.000000,3677.258390
829.207762,-7994.224174,222.061783,3524.039291
829.208082,-7846.182985,444.123565,2451.505594
829.208403,-7772.162391,-592.164754,1072.533697
829.208723,-7624.121203,-1110.308913,306.438199
829.209044,-9622.677246,-1406.391290,0.000000
829.209364,-10140.821405,-814.226536,-76.609550
829.209685,-10955.047942,-888.247130,-536.266849
829.210006,-10584.944971,-888.247130,-306.438199
829.210326,-11029.068536,-370.102971,-1302.362347
829.210647,-11547.212695,0.000000,0.000000
829.210967,-10881.027347,888.247130,1455.581446
829.211288,-10214.842000,888.247130,3907.087040
829.211608,-9548.656652,-592.164754,2987.772442
829.211929,-9030.512492,-888.247130,2911.162892
829.212250,-8956.491898,-1184.329507,3524.039291
829.212570,-8142.265362,-740.205942,3064.381992
829.212891,-7476.080014,74.020594,2298.286494
829.213211,-7328.038826,-666.185348,1149.143247
829.213532,-7698.141797,-1554.432478,0.000000
829.213853,-9252.574275,-1924.535449,-383.047749
829.214173,-10881.027347,-1924.535449,536.266849
829.214494,-10807.006753,-1332.370696,-153.219100
829.214814,-11325.150913,-1110.308913,-459.657299
829.215135,-11251.130318,0.000000,-842.705048
829.215455,-11695.253884,370.102971,459.657299
829.215776,-10881.027347,1332.370696,1455.581446
829.216097,-10362.883188,1184.329507,2451.505594
829.216417,-9474.636058,444.123565,2987.772442
829.216738,-9252.574275,-222.061783,2451.505594
829.217058,-8586.388927,-370.102971,3447.429741
829.217379,-8734.430116,296.082377,3830.477490
829.217700,-7476.080014,888.247130,2834.553343
829.218020,-8290.306550,0.000000,2068.457845
829.218341,-7328.038826,-666.185348,1072.533697
829.218661,-9104.533087,-1184.329507,-306.438199
829.218982,-10214.842000,-1110.308913,76.609550
829.219302,-10732.986159,-666.185348,-383.047749
829.219623,-11029.068536,-444.123565,-1149.143247
829.219944,-11325.150913,-888.247130,-1838.629195
829.220264,-11029.068536,0.000000,-1149.143247
829.220585,-10955.047942,962.267725,229.828649
829.220905,-10140.821405,1258.350101,1455.581446
829.221226,-9992.780217,888.247130,1991.848295
829.221546,-9104.533087,-148.041188,2834.553343
829.221867,-9030.512492,-740.205942,2604.724693
829.222188,-8882.471304,-222.061783,3064.381992
829.222508,-7105.977043,0.000000,3294.210641
829.222829,-8142.265362,-296.082377,2451.505594
829.223149,-8142.265362,-1258.350101,689.485948
829.223470,-9030.512492,-1554.432478,0.000000
829.223791,-10066.800811,-1850.514855,229.828649
829.224111,-10584.944971,-1628.453072,0.000000
829.224432,-11103.089130,-1258.350101,-459.657299
829.224752,-11103.089130,-740.205942,-1608.800546
829.225073,-10658.965565,148.041188,-1378.971896
829.225393,-10955.047942,814.226536,229.828649
829.225714,-10066.800811,888.247130,1149.143247
829.226035,-9844.739029,666.185348,1915.238745
829.226355,-9474.636058,222.061783,2757.943793
829.226676,-9622.677246,222.061783,3830.477490
829.226996,-8660.409521,518.144159,3983.696590
829.227317,-8438.347739,444.123565,3294.210641
829.227637,-7476.080014,296.082377,2451.505594
829.227958,-7550.100608,-1332.370696,536.266849
829.228279,-7846.182985,-2146.597232,-383.047749
829.228599,-9474.636058,-2072.576638,-459.657299
829.228920,-10066.800811,-1332.370696,-229.828649
829.229240,-10881.027347,-962.267725,-536.266849
829.229561,-10807.006753,-814.226536,-1225.752797
829.229882,-11325.150913,-222.061783,-1225.752797
829.230202,-11621.233289,518.144159,153.219100
829.230523,-10510.924376,740.205942,1685.410096
829.230843,-9918.759623,0.000000,3140.991542
829.231164,-9474.636058,-518.144159,3294.210641
829.231484,-8956.491898,-888.247130,2911.162892
829.231805,-8808.450710,-518.144159,3370.820191
829.232126,-8142.265362,74.020594,3600.648841
829.232446,-7624.121203,222.061783,2374.896044
829.232767,-7698.141797,-370.102971,1149.143247
829.233087,-7994.224174,-1554.432478,-689.485948
829.233408,-9030.512492,-1924.535449,-689.485948
829.233728,-10658.965565,-2072.576638,0.000000
829.234049,-10658.965565,-1480.411884,-612.876398
829.234370,-11695.253884,-1258.350101,-536.266849
829.234690,-11473.192101,-148.041188,-995.924147
829.235011,-10732.986159,1036.288319,536.266849
829.235331,-10955.047942,592.164754,1378.971896
829.235652,-9992.780217,962.267725,2451.505594
829.235973,-9548.656652,-148.041188,2681.334243
829.236293,-8660.409521,-370.102971,2374.896044
829.236614,-8438.347739,-518.144159,2987.772442
829.236934,-8142.265362,222.061783,3600.648841
829.237255,-7476.080014,592.164754,2911.162892
829.237575,-7994.224174,-592.164754,1915.238745
829.237896,-7772.162391,-1480.411884,459.657299
829.238217,-9252.574275,-1850.514855,0.000000
829.238537,-10436.903782,-1628.453072,383.047749
829.238858,-10807.006753,-1184.329507,-229.828649
829.239178,-10584.944971,-1110.308913,-1149.143247
829.239499,-11029.068536,-740.205942,-1838.629195
829.239819,-11029.068536,0.000000,-995.924147
829.240140,-11103.089130,962.267725,306.438199
829.240461,-10362.883188,1628.453072,1532.190996
829.240781,-9770.718434,1036.288319,2681.334243
829.241102,-9400.615463,296.082377,3140.991542
829.241422,-9104.533087,-296.082377,3677.258390
829.241743,-8660.409521,-370.102971,3600.648841
829.242064,-7846.182985,-296.082377,2451.505594
829.242384,-7772.162391,-296.082377,1455.581446
829.242705,-7624.121203,-1480.411884,0.000000
829.243025,-8808.450710,-1554.432478,-766.095498
829.243346,-9770.718434,-1332.370696,76.609550
829.243666,-10807.006753,-1036.288319,-612.876398
829.243987,-11177.109724,-814.226536,-1149.143247
829.244308,-11399.171507,-222.061783,-1532.190996
829.244628,-11547.212695,222.061783,-383.047749
829.244949,-11325.150913,1628.453072,459.657299
829.245269,-10658.965565,2072.576638,2068.457845
829.245590,-10288.862594,1850.514855,2451.505594
829.245911,-9252.574275,1036.288319,2987.772442
829.246231,-9474.636058,666.185348,3600.648841
829.246552,-8734.430116,518.144159,4366.744339
829.246872,-7772.162391,444.123565,3370.820191
829.247193,-7698.141797,0.000000,2528.115143
829.247513,-7031.956449,0.000000,306.438199
829.247834,-8438.347739,-1036.288319,0.000000
829.248155,-9918.759623,-1332.370696,76.609550
829.248475,-10362.883188,-962.267725,153.219100
829.248796,-10955.047942,-740.205942,612.876398
829.249116,-10658.965565,-740.205942,-1225.752797
829.249437,-11325.150913,-148.041188,-995.924147
829.249757,-11325.150913,518.144159,383.047749
829.250078,-10140.821405,962.267725,1532.190996
829.250399,-9622.677246,592.164754,2145.067394
829.250719,-9178.553681,-518.144159,2834.553343
829.251040,-8882.471304,-740.205942,2757.943793
829.251360,-8438.347739,-148.041188,3524.039291
829.251681,-7402.059420,888.247130,1608.800546
829.252002,-7105.977043,0.000000,1455.581446
829.252322,-7254.018232,-518.144159,229.828649
829.252643,-8290.306550,-1332.370696,-689.485948
829.252963,-9474.636058,-1628.453072,-536.266849
829.253284,-10807.006753,-1258.350101,-383.047749
829.253604,-10955.047942,-1110.308913,-919.314598
829.253925,-11473.192101,-962.267725,-1225.752797
829.254246,-11325.150913,0.000000,-1302.362347
829.254566,-11325.150913,444.123565,229.828649
829.254887,-10584.944971,1036.288319,1455.581446
829.255207,-9992.780217,666.185348,2604.724693
829.255528,-9326.594869,-592.164754,2681.334243
829.255848,-9474.636058,0.000000,3753.867940
829.256169,-8586.388927,-296.082377,3907.087040
829.256490,-8512.368333,370.102971,3753.867940
829.256810,-7994.224174,444.123565,2987.772442
829.257131,-8290.306550,-74.020594,1608.800546
829.257451,-8660.409521,-962.267725,766.095498
829.257772,-10066.800811,-1332.370696,459.657299
829.258093,-11103.089130,-2146.597232,0.000000
829.258413,-10955.047942,-1258.350101,-383.047749
829.258734,-10881.027347,-1184.329507,-306.438199
829.259054,-11177.109724,-296.082377,-1302.362347
829.259375,-11547.212695,0.000000,-153.219100
829.259695,-10584.944971,592.164754,612.876398
829.260016,-9992.780217,1480.411884,1685.410096
829.260337,-9770.718434,-222.061783,2911.162892
829.260657,-9178.553681,-370.102971,3064.381992
829.260978,-9252.574275,-296.082377,3600.648841
829.261298,-7476.080014,740.205942,3600.648841
829.261619,-7698.141797,74.020594,2298.286494
829.261939,-6957.935855,-666.185348,1455.581446
829.262260,-7624.121203,-2886.803174,-306.438199
829.262581,-8364.327145,-3034.844362,-919.314598
829.262901,-9918.759623,-1776.494261,-153.219100
829.263222,-10732.986159,-1406.391290,-229.828649
829.263542,-10732.986159,-888.247130,-766.095498
829.263863,-11029.068536,-296.082377,-919.314598
829.264184,-10955.047942,814.226536,0.000000
829.264504,-10732.986159,1554.432478,1225.752797
829.264825,-10807.006753,1110.308913,3064.381992
829.265145,-9548.656652,296.082377,3447.429741
829.265466,-9104.533087,-814.226536,2911.162892
829.265786,-8512.368333,-592.164754,3677.258390
829.266107,-8290.306550,-74.020594,3217.601092
829.266428,-7624.121203,740.205942,2757.943793
829.266748,-7698.141797,0.000000,1838.629195
829.267069,-7772.162391,-592.164754,-153.219100
829.267389,-9178.553681,-1184.329507,-536.266849
829.267710,-10510.924376,-1406.391290,0.000000
829.268030,-10436.903782,-666.185348,-536.266849
829.268351,-11769.274478,-1036.288319,0.000000
829.268672,-11251.130318,-148.041188,-1225.752797
829.268992,-11621.233289,222.061783,-766.095498
829.269313,-11399.171507,1554.432478,689.485948
829.269633,-10955.047942,1628.453072,2145.067394
829.269954,-10066.800811,1628.453072,2681.334243
829.270275,-9770.718434,518.144159,3294.210641
829.270595,-9326.594869,222.061783,3524.039291
829.270916,-8882.471304,74.020594,3294.210641
829.271236,-7772.162391,148.041188,2604.724693
829.271557,-7624.121203,-444.123565,1149.143247
829.271877,-7550.100608,-1332.370696,-229.828649
829.272198,-8438.347739,-1850.514855,-1302.362347
829.272519,-10436.903782,-1480.411884,-1915.238745
829.272839,-10732.986159,-962.267725,-766.095498
829.273160,-11177.109724,-962.267725,-459.657299
829.273480,-11621.233289,-1258.350101,-1302.362347
829.273801,-11547.212695,0.000000,-1225.752797
829.274122,-11177.109724,0.000000,459.657299
829.274442,-10214.842000,888.247130,2221.676944
829.274763,-9770.718434,666.185348,3217.601092
829.275083,-9178.553681,148.041188,3370.820191
829.275404,-8808.450710,74.020594,3140.991542
829.275724,-7846.182985,0.000000,3524.039291
829.276045,-7698.141797,0.000000,3217.601092
829.276366,-7254.018232,0.000000,1915.238745
829.276686,-7624.121203,-1850.514855,536.266849
829.277007,-7994.224174,-1554.432478,-153.219100
829.277327,-9844.739029,-1628.453072,0.000000
829.277648,-10066.800811,-1184.329507,536.266849
829.277968,-11325.150913,-962.267725,0.000000
829.278289,-11251.130318,-666.185348,-689.485948
829.278610,-11177.109724,-222.061783,-842.705048
829.278930,-11251.130318,0.000000,76.609550
829.279251,-10510.924376,592.164754,1302.362347
829.279571,-9992.780217,370.102971,2145.067394
829.279891,-9474.636058,-444.123565,2681.334243
829.280212,-8956.491898,-222.061783,2911.162892
829.280532,-9178.553681,74.020594,4060.306139
829.280853,-8142.265362,1554.432478,4596.572988
829.281174,-8142.265362,296.082377,2221.676944
829.281494,-8142.265362,-814.226536,612.876398
829.281815,-8216.285956,-2220.617826,-1072.533697
829.282136,-9178.553681,-2368.659014,-842.705048
829.282456,-10214.842000,-1702.473667,-766.095498
829.282777,-10807.006753,-1258.350101,-842.705048
829.283097,-11177.109724,-888.247130,-1532.190996
829.283418,-11473.192101,-444.123565,-1455.581446
829.283739,-11473.192101,222.061783,-383.047749
829.284059,-11251.130318,1110.308913,1378.971896
829.284380,-10288.862594,962.267725,2528.115143
829.284701,-9474.636058,0.000000,2911.162892
829.285021,-8956.491898,-592.164754,2911.162892
829.285342,-8808.450710,-592.164754,3677.258390
829.285663,-8068.244768,74.020594,3830.477490
829.285983,-7550.100608,148.041188,2987.772442
829.286304,-7550.100608,-148.041188,1838.629195
829.286624,-7920.203579,-962.267725,0.000000
829.286945,-9326.594869,-1406.391290,306.438199
829.287266,-9992.780217,-1554.432478,-76.609550
829.287586,-9992.780217,-1554.432478,0.000000
829.287907,-10658.965565,-1406.391290,-919.314598
829.288228,-10807.006753,-740.205942,-1378.971896
829.288548,-11177.109724,-296.082377,-383.047749
829.288869,-10732.986159,1258.350101,919.314598
829.289190,-10066.800811,1258.350101,1915.238745
829.289510,-9770.718434,962.267725,2374.896044
829.289831,-9104.533087,0.000000,2681.334243
829.290151,-8586.388927,-74.020594,3140.991542
829.290472,-8438.347739,-370.102971,2987.772442
829.290793,-7105.977043,0.000000,3524.039291
829.291113,-7846.182985,-814.226536,459.657299
829.291434,-7402.059420,-1850.514855,-919.314598
829.291755,-9030.512492,-1998.556043,-1455.581446
829.292075,-9992.780217,-1702.473667,-1072.533697
829.292396,-10288.862594,-1258.350101,-536.266849
829.292717,-11251.130318,-740.205942,-1072.533697
829.293037,-11399.171507,-444.123565,-1762.019645
829.293358,-11621.233289,0.000000,-612.876398
829.293678,-11251.130318,962.267725,995.924147
829.293999,-10584.944971,1184.329507,2451.505594
829.294320,-10584.944971,444.123565,3983.696590
829.294640,-9696.697840,-592.164754,3907.087040
829.294961,-9104.533087,-666.185348,4136.915689
829.295282,-7920.203579,370.102971,6128.763984
829.295602,-7920.203579,518.144159,3753.867940
829.295923,-7476.080014,74.020594,2451.505594
829.296244,-7402.059420,-814.226536,536.266849
829.296564,-8142.265362,-1480.411884,-383.047749
829.296885,-9178.553681,-1924.535449,-383.047749
829.297205,-10510.924376,-1036.288319,0.000000
829.297526,-11547.212695,-518.144159,0.000000
829.297847,-11621.233289,-296.082377,-1149.143247
829.298167,-11399.171507,592.164754,-919.314598
829.298488,-11621.233289,962.267725,842.705048
829.298809,-10807.006753,1406.391290,2451.505594
829.299129,-10066.800811,962.267725,3064.381992
829.299450,-9030.512492,0.000000,3294.210641
829.299771,-8808.450710,-740.205942,2911.162892
829.300091,-8068.244768,222.061783,3907.087040
829.300412,-7402.059420,148.041188,2911.162892
829.300732,-7179.997637,0.000000,1762.019645
829.301053,-7402.059420,-1332.370696,536.266849
829.301374,-8068.244768,-2368.659014,-766.095498
829.301694,-9622.677246,-2516.700203,-1072.533697
829.302015,-10584.944971,-1924.535449,-766.095498
829.302336,-11177.109724,-1110.308913,-612.876398
829.302656,-11621.233289,-740.205942,-1149.143247
829.302977,-11399.171507,444.123565,-1378.971896
829.303298,-11621.233289,1332.370696,-612.876398
829.303618,-10807.006753,2442.679609,1149.143247
829.303939,-10288.862594,1924.535449,2757.943793
829.304259,-9696.697840,814.226536,2834.553343
829.304580,-8734.430116,74.020594,2528.115143
829.304901,-8586.388927,-74.020594,3140.991542
829.305221,-8068.244768,0.000000,3140.991542
829.305542,-7476.080014,74.020594,2451.505594
829.305863,-7105.977043,-888.247130,1532.190996
829.306183,-7920.203579,-1258.350101,-153.219100
829.306504,-9622.677246,-1628.453072,-153.219100
829.306825,-10584.944971,-1332.370696,306.438199
829.307145,-11399.171507,-1332.370696,153.219100
829.307466,-11325.150913,-1036.288319,-459.657299
829.307786,-11177.109724,-666.185348,-766.095498
829.308107,-11547.212695,-222.061783,229.828649
829.308428,-10584.944971,444.123565,1762.019645
829.308748,-10436.903782,814.226536,2374.896044
829.309069,-9252.574275,148.041188,3217.601092
829.309390,-9178.553681,-296.082377,3677.258390
829.309710,-8808.450710,-370.102971,4136.915689
829.310031,-8438.347739,444.123565,6205.373534
829.310352,-7105.977043,296.082377,2987.772442
829.310672,-7698.141797,-1184.329507,1685.410096
829.310993,-7698.141797,-1702.473667,-306.438199
829.311313,-9178.553681,-2146.597232,-612.876398
829.311634,-10214.842000,-1406.391290,-229.828649
829.311955,-10955.047942,-888.247130,-612.876398
829.312275,-11399.171507,-74.020594,-1072.533697
829.312596,-11769.274478,-148.041188,-1455.581446
829.312917,-11325.150913,444.123565,-383.047749
829.313237,-11103.089130,814.226536,995.924147
829.313558,-10362.883188,1184.329507,2145.067394
829.313879,-9696.697840,518.144159,2451.505594
829.314199,-8956.491898,222.061783,2145.067394
829.314520,-8882.471304,-222.061783,3217.601092
829.314840,-8216.285956,-222.061783,3370.820191
829.315161,-7846.182985,0.000000,3064.381992
829.315482,-7624.121203,-1036.288319,1762.019645
829.315802,-7846.182985,-1554.432478,0.000000
829.316123,-9030.512492,-1924.535449,0.000000
829.316444,-10140.821405,-1554.432478,0.000000
829.316764,-10658.965565,-666.185348,-153.219100
829.317085,-11621.233289,-740.205942,-1225.752797
829.317406,-11103.089130,-814.226536,-1532.190996
829.317726,-11325.150913,74.020594,-1072.533697
829.318047,-11251.130318,814.226536,766.095498
829.318367,-9474.636058,1702.473667,3830.477490
829.318688,-9992.780217,740.205942,2911.162892
829.319009,-9178.553681,0.000000,3140.991542
829.319329,-8882.471304,-518.144159,3217.601092
829.319650,-8364.327145,-370.102971,3370.820191
829.319971,-7772.162391,370.102971,2451.505594
829.320291,-7624.121203,0.000000,1302.362347
829.320612,-7328.038826,-814.226536,-306.438199
829.320932,-8290.306550,-1480.411884,-612.876398
829.321253,-9474.636058,-1850.514855,0.000000
829.321574,-10732.986159,-1554.432478,-536.266849
829.321894,-11103.089130,-1184.329507,-766.095498
829.322215,-11547.212695,-1184.329507,-1532.190996
829.322536,-11251.130318,444.123565,-3140.991542
829.322856,-11547.212695,666.185348,76.609550
829.323177,-10584.944971,1184.329507,1532.190996
829.323498,-9770.718434,1110.308913,2451.505594
829.323818,-9474.636058,0.000000,2911.162892
829.324139,-8956.491898,-518.144159,3370.820191
829.324459,-8956.491898,-222.061783,4060.306139
829.324780,-8216.285956,74.020594,3447.429741
829.325101,-7402.059420,0.000000,2451.505594
829.325421,-8068.244768,-888.247130,995.924147
829.325742,-8808.450710,-962.267725,229.828649
829.326063,-9918.759623,-1702.473667,0.000000
829.326383,-10362.883188,-1184.329507,229.828649
829.326704,-11177.109724,-296.082377,-689.485948
829.327025,-11177.109724,-888.247130,-1225.752797
829.327345,-11103.089130,-370.102971,-1072.533697
829.327666,-10881.027347,74.020594,-229.828649
829.327986,-10140.821405,888.247130,919.314598
829.328307,-9918.759623,1258.350101,2451.505594
829.328628,-9696.697840,148.041188,3064.381992
829.328948,-8956.491898,0.000000,3524.039291
829.329269,-8512.368333,-296.082377,3677.258390
829.329590,-7994.224174,370.102971,3294.210641
829.329910,-7254.018232,-148.041188,2298.286494
829.330231,-7402.059420,-592.164754,766.095498
829.330552,-7920.203579,-1924.535449,-459.657299
829.330872,-9178.553681,-1924.535449,-536.266849
829.331193,-10214.842000,-1776.494261,-536.266849
829.331513,-10658.965565,-1924.535449,-842.705048
829.331834,-11103.089130,-1184.329507,-1072.533697
829.332155,-11843.295072,-740.205942,-1072.533697
829.332475,-11547.212695,0.000000,-153.219100
829.332796,-11325.150913,592.164754,1149.143247
829.333117,-9844.739029,1036.288319,2298.286494
829.333437,-9918.759623,-370.102971,2221.676944
829.333758,-8216.285956,-444.123565,2221.676944
829.334079,-8882.471304,0.000000,2987.772442
829.334399,-8068.244768,444.123565,3140.991542
829.334720,-7624.121203,962.267725,2451.505594
829.335040,-7476.080014,-370.102971,2757.943793
829.335361,-8142.265362,-1406.391290,536.266849
829.335682,-9474.636058,-2072.576638,153.219100
829.336002,-10807.006753,-1776.494261,153.219100
829.336323,-10288.862594,-1406.391290,-689.485948
829.336644,-11103.089130,-518.144159,-995.924147
829.336964,-10955.047942,222.061783,-1532.190996
829.337285,-11251.130318,74.020594,-919.314598
829.337606,-10881.027347,1184.329507,612.876398
829.337926,-9770.718434,1406.391290,1915.238745
829.338247,-9918.759623,666.185348,2987.772442
829.338567,-9474.636058,0.000000,3600.648841
829.338888,-8882.471304,-518.144159,3600.648841
829.339209,-8882.471304,-740.205942,3524.039291
829.339529,-7476.080014,222.061783,2834.553343
829.339850,-7994.224174,-444.123565,1762.019645
829.340171,-8068.244768,-1258.350101,153.219100
829.340491,-8660.409521,-1702.473667,-689.485948
829.340812,-9844.739029,-1924.535449,-536.266849
829.341133,-10288.862594,-1702.473667,0.000000
829.341453,-11399.171507,-1406.391290,-1072.533697
829.341774,-10881.027347,-1332.370696,-1532.190996
829.342094,-11251.130318,-222.061783,-306.438199
829.342415,-10732.986159,518.144159,459.657299
829.342736,-10510.924376,1110.308913,1838.629195
829.343056,-9770.718434,962.267725,2757.943793
829.343377,-9918.759623,1258.350101,3447.429741
829.343698,-8882.471304,-222.061783,3064.381992
829.344018,-8364.327145,-148.041188,3830.477490
829.344339,-8216.285956,-296.082377,3370.820191
829.344660,-7772.162391,-518.144159,2834.553343
829.344980,-8290.306550,-1184.329507,1149.143247
829.345301,-8882.471304,-1184.329507,383.047749
829.345621,-10140.821405,-1110.308913,459.657299
829.345942,-10436.903782,-444.123565,0.000000
829.346263,-10881.027347,-222.061783,-306.438199
829.346583,-11103.089130,0.000000,-1072.533697
829.346904,-10881.027347,222.061783,-1532.190996
829.347225,-10732.986159,962.267725,-383.047749
829.347545,-9770.718434,1924.535449,1762.019645
829.347866,-10436.903782,1184.329507,2528.115143
829.348187,-9770.718434,518.144159,2911.162892
829.348507,-9400.615463,148.041188,3294.210641
829.348828,-9474.636058,592.164754,3907.087040
829.349148,-8364.327145,666.185348,3677.258390
829.349469,-7920.203579,296.082377,1915.238745
829.349790,-7624.121203,-740.205942,536.266849
829.350110,-8142.265362,-1850.514855,-919.314598
829.350431,-9252.574275,-2220.617826,-612.876398
829.350752,-10362.883188,-2294.638420,-306.438199
829.351072,-10732.986159,-1702.473667,-1455.581446
829.351393,-11029.068536,-1332.370696,-1685.410096
829.351714,-10955.047942,222.061783,-842.705048
829.352034,-11325.150913,592.164754,76.609550
829.352355,-10584.944971,814.226536,1149.143247
829.352675,-9844.739029,740.205942,2374.896044
829.352996,-9474.636058,-592.164754,2604.724693
829.353317,-8586.388927,-888.247130,2834.553343
829.353637,-8734.430116,-592.164754,3600.648841
829.353958,-8142.265362,74.020594,3677.258390
829.354279,-7698.141797,296.082377,3217.601092
829.354599,-7772.162391,0.000000,1302.362347
829.354920,-7994.224174,-1184.329507,229.828649
829.355241,-9474.636058,-1850.514855,76.609550
829.355561,-10140.821405,-1258.350101,306.438199
829.355882,-9770.718434,-148.041188,229.828649
829.356202,-11029.068536,-370.102971,-1149.143247
829.356523,-11103.089130,148.041188,-1149.143247
829.356844,-11325.150913,666.185348,-459.657299
829.357164,-10288.862594,666.185348,2298.286494
829.357485,-9918.759623,814.226536,2068.457845
829.357806,-9696.697840,-370.102971,2911.162892
829.358126,-9326.594869,-592.164754,3064.381992
829.358447,-9252.574275,-518.144159,3140.991542
829.358768,-7994.224174,592.164754,3600.648841
829.359088,-8438.347739,814.226536,2911.162892
829.359409,-7772.162391,-296.082377,1608.800546
829.359729,-8512.368333,-1850.514855,0.000000
829.360050,-9252.574275,-3256.906145,-2068.457845
829.360371,-10362.883188,-2146.597232,-536.266849
829.360691,-11251.130318,-1776.494261,-306.438199
829.361012,-11029.068536,-962.267725,-995.924147
829.361333,-11399.171507,-370.102971,-1225.752797
829.361653,-11325.150913,444.123565,-919.314598
829.361974,-11251.130318,1036.288319,306.438199
829.362295,-10584.944971,1258.350101,1762.019645
829.362615,-9474.636058,296.082377,2145.067394
829.362936,-8956.491898,222.061783,2374.896044
829.363256,-8808.450710,-444.123565,2911.162892
829.363577,-8586.388927,0.000000,3524.039291
829.363898,-7994.224174,666.185348,3064.381992
829.364218,-8290.306550,148.041188,766.095498
829.364539,-8216.285956,-962.267725,0.000000
829.364860,-9104.533087,-1332.370696,0.000000
829.365180,-10362.883188,-1850.514855,0.000000
829.365501,-10510.924376,-962.267725,153.219100
829.365822,-10807.006753,-1258.350101,-919.314598
829.366142,-10510.924376,-814.226536,-1532.190996
829.366463,-10955.047942,-148.041188,-1378.971896
829.366783,-10732.986159,1036.288319,0.000000
829.367104,-9770.718434,1332.370696,2068.457845
829.367425,-9696.697840,814.226536,2757.943793
829.367745,-9548.656652,0.000000,2757.943793
829.368066,-9400.615463,0.000000,3830.477490
829.368387,-9104.533087,1480.411884,3907.087040
829.368707,-8216.285956,74.020594,3677.258390
829.369028,-7846.182985,-296.082377,2298.286494
829.369349,-7698.141797,-1406.391290,383.047749
829.369669,-8290.306550,-1628.453072,-766.095498
829.369990,-9622.677246,-1332.370696,-306.438199
829.370310,-10584.944971,-1036.288319,-306.438199
829.370631,-10658.965565,-592.164754,-766.095498
829.370952,-11103.089130,-740.205942,-1532.190996
829.371272,-11029.068536,592.164754,-995.924147
829.371593,-11621.233289,592.164754,689.485948
829.371914,-10658.965565,814.226536,2145.067394
829.372234,-10066.800811,222.061783,3064.381992
829.372555,-9918.759623,-888.247130,2298.286494
829.372876,-9104.533087,-1036.288319,3677.258390
829.373196,-8512.368333,-74.020594,3830.477490
829.373517,-8216.285956,296.082377,3217.601092
829.373837,-7624.121203,74.020594,3064.381992
829.374158,-7772.162391,-666.185348,1149.143247
829.374479,-8512.368333,-1702.473667,0.000000
829.374799,-9844.739029,-2072.576638,76.609550
829.375120,-10510.924376,-1554.432478,-229.828649
829.375441,-11547.212695,-1036.288319,-536.266849
829.375761,-10955.047942,-962.267725,-1302.362347
829.376082,-11177.109724,0.000000,-1685.410096
829.376403,-11103.089130,740.205942,-689.485948
829.376723,-9770.718434,1332.370696,1915.238745
829.377044,-9548.656652,1332.370696,2221.676944
829.377364,-9474.636058,0.000000,2528.115143
829.377685,-9030.512492,0.000000,3217.601092
829.378006,-9030.512492,0.000000,3524.039291
829.378326,-8364.327145,666.185348,3447.429741
829.378647,-7920.203579,592.164754,2604.724693
829.378968,-7920.203579,-296.082377,1302.362347
829.379288,-8364.327145,-1554.432478,76.609550
829.379609,-8734.430116,-2146.597232,-919.314598
829.379930,-10436.903782,-1924.535449,-612.876398
829.380250,-10732.986159,-1332.370696,-842.705048
829.380571,-10881.027347,-740.205942,-1455.581446
829.380891,-10362.883188,-666.185348,-612.876398
829.381212,-11029.068536,444.123565,-612.876398
829.381533,-10362.883188,1554.432478,306.438199
829.381853,-10214.842000,1628.453072,1838.629195
829.382174,-9696.697840,518.144159,4213.525239
829.382495,-9326.594869,74.020594,3294.210641
829.382816,-8956.491898,-814.226536,3370.820191
829.383136,-8142.265362,-296.082377,3600.648841
829.383457,-7846.182985,-148.041188,2681.334243
829.383778,-7846.182985,-740.205942,1225.752797
829.384099,-7772.162391,-1554.432478,0.000000
829.384420,-9030.512492,-2072.576638,-229.828649
829.384740,-10288.862594,-1554.432478,0.000000
829.385061,-10732.986159,-1036.288319,842.705048
829.385382,-11325.150913,-518.144159,-612.876398
829.385703,-11325.150913,0.000000,-995.924147
829.386023,-11325.150913,0.000000,-306.438199
829.386344,-10584.944971,592.164754,842.705048
829.386665,-10066.800811,666.185348,2221.676944
829.386986,-9548.656652,0.000000,2911.162892
829.387307,-9252.574275,-296.082377,3140.991542
829.387627,-9030.512492,-296.082377,3907.087040
829.387948,-8956.491898,592.164754,3830.477490
829.388269,-7772.162391,814.226536,3907.087040
829.388590,-8142.265362,-222.061783,2145.067394
829.388911,-7772.162391,-888.247130,689.485948
829.389231,-9326.594869,-1258.350101,-1225.752797
829.389552,-9918.759623,-1554.432478,-459.657299
829.389873,-10584.944971,-1332.370696,-766.095498
829.390194,-11103.089130,-962.267725,-612.876398
829.390515,-11547.212695,-740.205942,-1072.533697
829.390835,-11547.212695,74.020594,-1149.143247
829.391156,-11325.150913,666.185348,153.219100
829.391477,-9918.759623,888.247130,1838.629195
829.391798,-9548.656652,0.000000,2221.676944
829.392119,-9252.574275,-222.061783,2451.505594
829.392439,-8660.409521,-1110.308913,2528.115143
829.392760,-8364.327145,0.000000,3064.381992
829.393081,-8068.244768,888.247130,3217.601092
829.393402,-7846.182985,666.185348,3524.039291
829.393722,-8290.306550,-370.102971,1149.143247
829.394043,-8882.471304,-1036.288319,229.828649
829.394364,-10066.800811,-1776.494261,306.438199
829.394685,-10436.903782,-1406.391290,229.828649
829.395006,-11251.130318,-1332.370696,-306.438199
829.395326,-11029.068536,-962.267725,-1149.143247
829.395647,-11103.089130,148.041188,-1225.752797
829.395968,-10807.006753,1036.288319,0.000000
829.396289,-10066.800811,1776.494261,612.876398
829.396610,-9844.739029,1184.329507,1838.629195
829.396930,-9400.615463,0.000000,2374.896044
829.397251,-8882.471304,0.000000,2528.115143
829.397572,-8808.450710,-518.144159,3524.039291
829.397893,-8290.306550,-370.102971,3140.991542
829.398214,-7994.224174,-444.123565,2374.896044
829.398534,-7846.182985,-1332.370696,766.095498
829.398855,-8142.265362,-1332.370696,-612.876398
829.399176,-9252.574275,-2072.576638,-1608.800546
829.399497,-10214.842000,-1184.329507,-995.924147
829.399817,-10732.986159,-962.267725,-1149.143247
829.400138,-10658.965565,-518.144159,-1685.410096
829.400459,-10807.006753,0.000000,-995.924147
829.400780,-11177.109724,592.164754,-229.828649
829.401101,-10881.027347,1332.370696,1685.410096
829.401421,-10658.965565,1406.391290,2987.772442
829.401742,-9844.739029,222.061783,2911.162892
829.402063,-8660.409521,-148.041188,3524.039291
829.402384,-9326.594869,-666.185348,3907.087040
829.402705,-7994.224174,148.041188,4366.744339
829.403025,-7772.162391,0.000000,3140.991542
829.403346,-7772.162391,-296.082377,2145.067394
829.403667,-7698.141797,-1480.411884,0.000000
829.403988,-8882.471304,-1332.370696,-153.219100
829.404309,-10214.842000,-1036.288319,459.657299
829.404629,-10881.027347,-1184.329507,536.266849
829.404950,-11399.171507,-1110.308913,-612.876398
829.405271,-11177.109724,-888.247130,-919.314598
829.405592,-11621.233289,-444.123565,0.000000
829.405912,-11399.171507,888.247130,1072.533697
829.406233,-10066.800811,1110.308913,2604.724693
829.406554,-9622.677246,74.020594,3217.601092
829.406875,-8882.471304,-74.020594,2911.162892
829.407196,-9030.512492,-370.102971,3064.381992
829.407516,-8142.265362,296.082377,3217.601092
829.407837,-7920.203579,444.123565,2757.943793
829.408158,-7698.141797,-222.061783,1685.410096
829.408479,-8142.265362,-1480.411884,0.000000
829.408800,-9400.615463,-1406.391290,-689.485948
829.409120,-10214.842000,-1406.391290,-153.219100
829.409441,-10732.986159,-518.144159,-536.266849
829.409762,-11621.233289,0.000000,-689.485948
829.410083,-11325.150913,-222.061783,-2374.896044
829.410404,-11103.089130,296.082377,-919.314598
829.410724,-10658.965565,370.102971,383.047749
829.411045,-10140.821405,888.247130,1532.190996
829.411366,-9696.697840,0.000000,2145.067394
829.411687,-9326.594869,-370.102971,2298.286494
829.412008,-8660.409521,-518.144159,2528.115143
829.412328,-8586.388927,-370.102971,2987.772442
829.412649,-8068.244768,-296.082377,2987.772442
829.412970,-7846.182985,-592.164754,995.924147
829.413291,-7846.182985,-1332.370696,-383.047749
829.413611,-8512.368333,-1332.370696,-612.876398
829.413932,-9844.739029,-1258.350101,-229.828649
829.414253,-10436.903782,-888.247130,-383.047749
829.414574,-11029.068536,-962.267725,-612.876398
829.414895,-10955.047942,-814.226536,-1302.362347
829.415215,-11325.150913,-148.041188,-689.485948
829.415536,-11399.171507,518.144159,766.095498
829.415857,-10436.903782,666.185348,2374.896044
829.416178,-9992.780217,962.267725,2987.772442
829.416499,-9326.594869,0.000000,3217.601092
829.416819,-8660.409521,-148.041188,3140.991542
829.417140,-8808.450710,222.061783,3217.601092
829.417461,-7550.100608,592.164754,2987.772442
829.417782,-7846.182985,222.061783,2145.067394
829.418103,-7476.080014,-444.123565,612.876398
829.418423,-8586.388927,-1628.453072,-766.095498
829.418744,-9918.759623,-1332.370696,0.000000
829.419065,-11029.068536,-1036.288319,153.219100
829.419386,-11251.130318,-962.267725,-306.438199
829.419706,-11251.130318,-1110.308913,-1225.752797
829.420027,-11399.171507,-296.082377,-919.314598
829.420348,-11325.150913,148.041188,-153.219100
829.420669,-10214.842000,666.185348,1149.143247
829.420990,-9622.677246,222.061783,1608.800546
829.421310,-8734.430116,-222.061783,1838.629195
829.421631,-8882.471304,-888.247130,2298.286494
829.421952,-8956.491898,-296.082377,3524.039291
829.422273,-8438.347739,0.000000,3907.087040
829.422594,-7476.080014,-666.185348,4136.915689
829.422914,-7698.141797,-1332.370696,1762.019645
829.423235,-8364.327145,-1480.411884,536.266849
829.423556,-9696.697840,-2072.576638,306.438199
829.423877,-10214.842000,-1332.370696,-383.047749
829.424198,-10362.883188,-740.205942,-995.924147
829.424518,-10362.883188,-444.123565,-1915.238745
829.424839,-10584.944971,-222.061783,-1915.238745
829.425160,-10658.965565,518.144159,-995.924147
829.425481,-9992.780217,740.205942,0.000000
829.425801,-10140.821405,1332.370696,2221.676944
829.426122,-9844.739029,0.000000,3830.477490
829.426443,-9474.636058,-962.267725,3524.039291
829.426764,-9252.574275,-518.144159,4136.915689
829.427085,-8586.388927,-296.082377,3830.477490
829.427405,-7846.182985,0.000000,3217.601092
829.427726,-7698.141797,-814.226536,1685.410096
829.428047,-7994.224174,-1258.350101,0.000000
829.428368,-8882.471304,-1924.535449,0.000000
829.428689,-9992.780217,-1332.370696,-306.438199
829.429009,-10658.965565,-1184.329507,-459.657299
829.429330,-11029.068536,-814.226536,-766.095498
829.429651,-11177.109724,0.000000,-689.485948
829.429972,-11547.212695,518.144159,0.000000
829.430293,-11103.089130,1036.288319,995.924147
829.430613,-10436.903782,1036.288319,2374.896044
829.430934,-10807.006753,0.000000,3600.648841
829.431255,-8734.430116,-148.041188,2834.553343
829.431576,-8956.491898,-518.144159,2911.162892
829.431897,-8216.285956,74.020594,3370.820191
829.432217,-7772.162391,222.061783,2681.334243
829.432538,-8142.265362,-666.185348,1991.848295
829.432859,-7920.203579,-1184.329507,612.876398
829.433180,-9326.594869,-1480.411884,76.609550
829.433500,-10436.903782,-1258.350101,383.047749
829.433821,-10584.944971,-888.247130,-459.657299
829.434142,-11103.089130,-962.267725,-766.095498
829.434463,-11029.068536,-370.102971,-1532.190996
829.434784,-10881.027347,-74.020594,-1378.971896
829.435104,-10881.027347,222.061783,-229.828649
829.435425,-9992.780217,1110.308913,995.924147
829.435746,-9770.718434,518.144159,2145.067394
829.436067,-9178.553681,148.041188,2451.505594
829.436388,-9326.594869,-370.102971,2987.772442
829.436708,-9104.533087,74.020594,3447.429741
829.437029,-8216.285956,296.082377,3064.381992
829.437350,-8068.244768,-148.041188,1991.848295
829.437671,-7402.059420,-962.267725,229.828649
829.437992,-8586.388927,-1184.329507,-919.314598
829.438312,-9696.697840,-1258.350101,-306.438199
829.438633,-10066.800811,-592.164754,-536.266849
829.438954,-11103.089130,-592.164754,-842.705048
829.439275,-11103.089130,0.000000,-2221.676944
829.439595,-11621.233289,74.020594,-766.095498
829.439916,-11325.150913,444.123565,383.047749
829.440237,-10584.944971,148.041188,1838.629195
829.440558,-9770.718434,0.000000,3524.039291
829.440879,-9696.697840,-740.205942,3064.381992
829.441199,-9030.512492,-962.267725,3217.601092
829.441520,-8808.450710,74.020594,3753.867940
829.441841,-8586.388927,74.020594,3370.820191
829.442162,-7920.203579,592.164754,2757.943793
829.442483,-8216.285956,-1110.308913,1072.533697
829.442803,-8734.430116,-1110.308913,153.219100
829.443124,-9548.656652,-2220.617826,-153.219100
829.443445,-10436.903782,-1110.308913,-306.438199
829.443766,-10807.006753,-888.247130,-1072.533697
829.444087,-10584.944971,74.020594,-1838.629195
829.444407,-10955.047942,148.041188,-1685.410096
829.444728,-11251.130318,666.185348,306.438199
829.445049,-10214.842000,1184.329507,536.266849
829.445370,-10066.800811,1332.370696,1762.019645
829.445690,-10066.800811,222.061783,3370.820191
829.446011,-9400.615463,148.041188,3677.258390
829.446332,-9400.615463,0.000000,4060.306139
829.446653,-8438.347739,592.164754,3907.087040
829.446974,-7846.182985,592.164754,2528.115143
829.447294,-7698.141797,-444.123565,1302.362347
829.447615,-8586.388927,-1332.370696,0.000000
829.447936,-8956.491898,-1258.350101,-459.657299
829.448257,-10214.842000,-1110.308913,-612.876398
829.448578,-10510.924376,-962.267725,-689.485948
829.448898,-10955.047942,-296.082377,-1608.800546
829.449219,-11103.089130,-666.185348,-689.485948
829.449540,-11177.109724,-370.102971,0.000000
829.449861,-10362.883188,222.061783,1455.581446
829.450182,-10214.842000,592.164754,2681.334243
829.450502,-9474.636058,0.000000,3140.991542
829.450823,-9178.553681,-222.061783,3370.820191
829.451144,-8734.430116,-370.102971,3830.477490
829.451465,-8290.306550,0.000000,3907.087040
829.451786,-7105.977043,0.000000,3370.820191
829.452106,-7846.182985,0.000000,2298.286494
829.452427,-8438.347739,-1184.329507,536.266849
829.452748,-8808.450710,-1184.329507,229.828649
829.453069,-10066.800811,-1480.411884,-536.266849
829.453389,-10436.903782,-1480.411884,-459.657299
829.453710,-10658.965565,-1110.308913,-1149.143247
829.454031,-10732.986159,-444.123565,-1685.410096
829.454352,-10584.944971,74.020594,-1378.971896
829.454673,-10214.842000,814.226536,153.219100
829.454993,-10362.883188,888.247130,1991.848295
829.455314,-9770.718434,148.041188,2528.115143
829.455635,-9474.636058,-518.144159,3064.381992
829.455956,-9104.533087,-518.144159,3907.087040
829.456277,-8956.491898,-592.164754,4136.915689
829.456597,-8290.306550,-148.041188,3294.210641
829.456918,-7994.224174,-370.102971,1838.629195
829.457239,-8586.388927,444.123565,1225.752797
829.457560,-8660.409521,-1332.370696,-1072.533697
829.457881,-10214.842000,-1776.494261,-153.219100
829.458201,-10807.006753,-1702.473667,-689.485948
829.458522,-10955.047942,-592.164754,-842.705048
829.458843,-11399.171507,-962.267725,-1302.362347
829.459164,-10881.027347,148.041188,-1072.533697
829.459484,-11621.233289,592.164754,76.609550
829.459805,-10436.903782,1628.453072,1225.752797
829.460126,-10066.800811,1702.473667,3064.381992
829.460447,-9474.636058,148.041188,2528.115143
829.460768,-8660.409521,0.000000,2834.553343
829.461088,-8882.471304,0.000000,3370.820191
829.461409,-7846.182985,74.020594,3217.601092
829.461730,-7550.100608,-296.082377,2681.334243
829.462051,-8216.285956,-1628.453072,995.924147
829.462372,-8512.368333,-1554.432478,229.828649
829.462692,-10214.842000,-1554.432478,689.485948
829.463013,-10066.800811,-666.185348,383.047749
829.463334,-10955.047942,-888.247130,-153.219100
829.463655,-11029.068536,-666.185348,-1225.752797
829.463976,-10584.944971,-148.041188,-1302.362347
829.464296,-10510.924376,370.102971,-459.657299
829.464617,-9770.718434,740.205942,1072.533697
829.464938,-9696.697840,444.123565,2145.067394
829.465259,-9252.574275,-370.102971,3064.381992
829.465579,-9622.677246,814.226536,3370.820191
829.465900,-8882.471304,-518.144159,4060.306139
829.466221,-8216.285956,296.082377,4060.306139
829.466542,-7920.203579,444.123565,2834.553343
829.466863,-8216.285956,-148.041188,1838.629195
829.467183,-8290.306550,-962.267725,76.609550
829.467504,-9104.533087,-1332.370696,-229.828649
829.467825,-10510.924376,-1480.411884,-383.047749
829.468146,-10732.986159,-962.267725,-766.095498
829.468467,-10807.006753,-962.267725,-1149.143247
829.468787,-11103.089130,0.000000,-1455.581446
829.469108,-11251.130318,888.247130,-383.047749
829.469429,-10807.006753,1554.432478,842.705048
829.469750,-9696.697840,1998.556043,3677.258390
829.470071,-9474.636058,296.082377,2987.772442
829.470391,-9252.574275,-444.123565,2528.115143
829.470712,-8956.491898,-518.144159,3447.429741
829.471033,-8660.409521,-666.185348,3447.429741
829.471354,-7698.141797,-444.123565,2681.334243
829.471675,-7920.203579,-592.164754,1378.971896
829.471995,-8364.327145,-962.267725,0.000000
829.472316,-9548.656652,-1554.432478,-229.828649
829.472637,-10066.800811,-1702.473667,-229.828649
829.472958,-10732.986159,-1628.453072,-766.095498
829.473278,-10658.965565,-1776.494261,-1608.800546
829.473599,-10881.027347,-1184.329507,-1762.019645
829.473920,-10732.986159,74.020594,-995.924147
829.474241,-10658.965565,222.061783,229.828649
829.474562,-9992.780217,1036.288319,1838.629195
829.474882,-9770.718434,74.020594,2221.676944
829.475203,-9104.533087,-666.185348,2911.162892
829.475524,-9474.636058,-666.185348,3600.648841
829.475845,-9178.553681,-814.226536,3753.867940
829.476166,-7994.224174,-592.164754,3064.381992
829.476486,-7920.203579,-1184.329507,1378.971896
829.476807,-7402.059420,-1554.432478,306.438199
829.477128,-9178.553681,-1554.432478,-383.047749
829.477449,-9770.718434,-1258.350101,-383.047749
829.477770,-10288.862594,-592.164754,-919.314598
829.478090,-10288.862594,-740.205942,-689.485948
829.478411,-11029.068536,-518.144159,-1378.971896
829.478732,-11177.109724,222.061783,-383.047749
829.479053,-10584.944971,148.041188,842.705048
829.479373,-9548.656652,962.267725,1685.410096
829.479694,-9992.780217,518.144159,2681.334243
829.480015,-9104.533087,0.000000,3140.991542
829.480336,-8808.450710,0.000000,3830.477490
829.480657,-8956.491898,148.041188,3907.087040
829.480977,-8290.306550,370.102971,4060.306139
829.481298,-7994.224174,0.000000,2987.772442
829.481619,-7920.203579,-1184.329507,1378.971896
829.481940,-8660.409521,-1776.494261,459.657299
829.482260,-10658.965565,-740.205942,-459.657299
829.482581,-10288.862594,-1110.308913,306.438199
829.482902,-10881.027347,-962.267725,-383.047749
829.483222,-10658.965565,-296.082377,-1302.362347
829.483543,-10807.006753,222.061783,-1149.143247
829.483864,-10881.027347,1258.350101,229.828649
829.484184,-10362.883188,888.247130,1455.581446
829.484505,-9622.677246,0.000000,2374.896044
829.484826,-9474.636058,-370.102971,2834.553343
829.485146,-9178.553681,-888.247130,3140.991542
829.485467,-9030.512492,-296.082377,3524.039291
829.485788,-8068.244768,148.041188,2911.162892
829.486108,-7846.182985,148.041188,1838.629195
829.486429,-7772.162391,-592.164754,842.705048
829.486750,-8586.388927,-740.205942,-229.828649
829.487070,-9844.739029,-1110.308913,-459.657299
829.487391,-10584.944971,-740.205942,-229.828649
829.487712,-10807.006753,-814.226536,-766.095498
829.488032,-11029.068536,0.000000,-1378.971896
829.488353,-11251.130318,444.123565,-689.485948
829.488674,-11029.068536,888.247130,0.000000
829.488994,-10288.862594,1110.308913,1072.533697
829.489315,-9844.739029,962.267725,536.266849
829.489636,-9622.677246,74.020594,2604.724693
829.489956,-9030.512492,-888.247130,2834.553343
829.490277,-9030.512492,-740.205942,3677.258390
829.490598,-8364.327145,0.000000,3140.991542
829.490918,-7772.162391,296.082377,2451.505594
829.491239,-8290.306550,0.000000,1532.190996
829.491560,-8734.430116,-666.185348,306.438199
829.491880,-9474.636058,-814.226536,0.000000
829.492201,-10807.006753,-592.164754,-842.705048
829.492522,-10732.986159,-592.164754,-689.485948
829.492842,-11251.130318,-666.185348,-1225.752797
829.493163,-10807.006753,0.000000,-1378.971896
829.493484,-10807.006753,296.082377,-689.485948
829.493805,-10288.862594,666.185348,689.485948
829.494125,-9918.759623,1480.411884,2374.896044
829.494446,-9918.759623,222.061783,3447.429741
829.494767,-9178.553681,-148.041188,3677.258390
829.495087,-8364.327145,-1184.329507,4060.306139
829.495408,-8142.265362,-1036.288319,3217.601092
829.495729,-7402.059420,-740.205942,2451.505594
829.496049,-7772.162391,-1110.308913,1455.581446
829.496370,-7920.203579,-2220.617826,306.438199
829.496691,-8364.327145,-2220.617826,-459.657299
829.497011,-10214.842000,-1998.556043,-229.828649
829.497332,-10436.903782,-1480.411884,-536.266849
829.497653,-11177.109724,-1258.350101,-919.314598
829.497973,-10807.006753,-592.164754,-919.314598
829.498294,-11029.068536,-148.041188,-459.657299
829.498615,-10732.986159,888.247130,842.705048
829.498935,-10288.862594,1036.288319,2451.505594
829.499256,-9622.677246,666.185348,1838.629195
829.499577,-9030.512492,0.000000,2604.724693
829.499897,-8808.450710,0.000000,3064.381992
829.500218,-8438.347739,148.041188,3370.820191
829.500539,-7328.038826,-148.041188,1991.848295
829.500859,-8068.244768,0.000000,2068.457845
829.501180,-8142.265362,-1184.329507,459.657299
829.501501,-9178.553681,-1406.391290,536.266849
829.501821,-10658.965565,-1850.514855,229.828649
829.502142,-10658.965565,-962.267725,76.609550
829.502463,-11103.089130,-814.226536,-612.876398
829.502783,-10658.965565,-222.061783,-1378.971896
829.503104,-10955.047942,0.000000,-842.705048
829.503425,-10732.986159,222.061783,76.609550
829.503745,-10214.842000,296.082377,1225.752797
829.504066,-9474.636058,-296.082377,2068.457845
829.504387,-9178.553681,-888.247130,2374.896044
829.504707,-9178.553681,-1258.350101,3294.210641
829.505028,-8586.388927,-666.185348,3600.648841
829.505349,-7698.141797,0.000000,2757.943793
829.505669,-7624.121203,-444.123565,1532.190996
829.505990,-7476.080014,-1110.308913,0.000000
829.506311,-8808.450710,-1702.473667,-1302.362347
829.506631,-10066.800811,-1036.288319,-383.047749
829.506952,-10436.903782,-962.267725,-766.095498
829.507273,-10732.986159,-296.082377,-1378.971896
829.507593,-11399.171507,222.061783,-1302.362347
829.507914,-10807.006753,888.247130,-1302.362347
829.508235,-11251.130318,1258.350101,0.000000
829.508555,-10066.800811,1406.391290,1838.629195
829.508876,-9696.697840,666.185348,2757.943793
829.509197,-9474.636058,-370.102971,3907.087040
829.509517,-9548.656652,-370.102971,4290.134789
829.509838,-9030.512492,0.000000,4826.401637
829.510159,-8290.306550,666.185348,4979.620737
829.510479,-8438.347739,74.020594,3677.258390
829.510800,-7402.059420,-370.102971,1915.238745
829.511121,-8586.388927,-1406.391290,536.266849
829.511441,-9474.636058,-1480.411884,536.266849
829.511762,-10362.883188,0.000000,459.657299
829.512083,-10807.006753,-888.247130,-383.047749
829.512403,-10732.986159,-666.185348,-1072.533697
829.512724,-10584.944971,296.082377,-689.485948
829.513045,-11621.233289,0.000000,1915.238745
829.513365,-9326.594869,1628.453072,1532.190996
829.513686,-11251.130318,740.205942,2298.286494
829.514007,-9770.718434,370.102971,3907.087040
829.514327,-8956.491898,-370.102971,2528.115143
829.514648,-8956.491898,-444.123565,4136.915689
829.514969,-7920.203579,-888.247130,2451.505594
829.515289,-7254.018232,-296.082377,1608.800546
829.515610,-8586.388927,-814.226536,689.485948
829.515931,-7846.182985,-1776.494261,-1302.362347
829.516251,-9400.615463,-1332.370696,-689.485948
829.516572,-10362.883188,-1184.329507,-383.047749
829.516893,-10732.986159,-740.205942,-1072.533697
829.517214,-11769.274478,-592.164754,-689.485948
829.517534,-11251.130318,0.000000,-536.266849
829.517855,-11029.068536,740.205942,0.000000
829.518176,-10955.047942,740.205942,766.095498
829.518496,-9918.759623,1110.308913,1838.629195
829.518817,-9400.615463,148.041188,1838.629195
829.519138,-8882.471304,0.000000,1532.190996
829.519458,-8586.388927,296.082377,2681.334243
829.519779,-9030.512492,0.000000,3064.381992
829.520100,-8438.347739,518.144159,2681.334243
829.520420,-8364.327145,-740.205942,1302.362347
829.520741,-8068.244768,-1850.514855,76.609550
829.521062,-9474.636058,-1998.556043,0.000000
829.521382,-11251.130318,-962.267725,-612.876398
829.521703,-10510.924376,-1406.391290,-536.266849
829.522024,-10584.944971,-1184.329507,-1378.971896
829.522344,-10881.027347,-592.164754,-1225.752797
829.522665,-11103.089130,370.102971,-995.924147
829.522986,-11177.109724,814.226536,1455.581446
829.523306,-9844.739029,962.267725,1915.238745
829.523627,-9622.677246,148.041188,2757.943793
829.523948,-9474.636058,-518.144159,3370.820191
829.524268,-8956.491898,-296.082377,3600.648841
829.524589,-9030.512492,-370.102971,3830.477490
829.524910,-7698.141797,0.000000,3064.381992
829.525230,-7476.080014,-444.123565,1532.190996
829.525551,-7846.182985,-1036.288319,-306.438199
829.525872,-8660.409521,-1702.473667,0.000000
829.526192,-9844.739029,-1184.329507,383.047749
829.526513,-10510.924376,-1480.411884,0.000000
829.526834,-10732.986159,-1332.370696,-689.485948
829.527154,-11325.150913,-888.247130,-766.095498
829.527475,-11029.068536,-370.102971,-153.219100
829.527796,-10807.006753,740.205942,536.266849
829.528116,-9918.759623,888.247130,1762.019645
829.528437,-9548.656652,222.061783,2298.286494
829.528758,-9474.636058,0.000000,2987.772442
829.529078,-9252.574275,-592.164754,3140.991542
829.529399,-9030.512492,-370.102971,3753.867940
829.529720,-8216.285956,0.000000,2451.505594
829.530040,-8142.265362,-518.144159,2374.896044
829.530361,-8068.244768,-1258.350101,689.485948
829.530682,-8956.491898,-1036.288319,153.219100
829.531002,-10140.821405,-666.185348,153.219100
829.531323,-10214.842000,-666.185348,-306.438199
829.531644,-10732.986159,-222.061783,-1072.533697
829.531964,-11029.068536,0.000000,-1685.410096
829.532285,-10807.006753,370.102971,-1455.581446
829.532606,-10584.944971,444.123565,0.000000
829.532926,-9918.759623,592.164754,1072.533697
829.533247,-10066.800811,444.123565,2068.457845
829.533568,-9474.636058,74.020594,2987.772442
829.533888,-9844.739029,666.185348,3064.381992
829.534209,-9178.553681,0.000000,3677.258390
829.534530,-8290.306550,222.061783,3217.601092
829.534850,-8068.244768,0.000000,2221.676944
829.535171,-7698.141797,-1036.288319,383.047749
829.535492,-8142.265362,-1850.514855,-766.095498
829.535812,-9548.656652,-1776.494261,-919.314598
829.536133,-10066.800811,-1850.514855,-766.095498
829.536454,-10881.027347,-1258.350101,-995.924147
829.536774,-11473.192101,-296.082377,-1225.752797
829.537095,-11325.150913,0.000000,-1532.190996
829.537416,-11325.150913,888.247130,0.000000
829.537736,-10658.965565,1184.329507,1302.362347
829.538057,-9918.759623,1332.370696,2528.115143
829.538378,-9400.615463,370.102971,2681.334243
829.538698,-9252.574275,0.000000,2987.772442
829.539019,-8216.285956,0.000000,3830.477490
829.539340,-8734.430116,0.000000,3677.258390
829.539660,-7920.203579,148.041188,2681.334243
829.539981,-8216.285956,-888.247130,1608.800546
829.540302,-8438.347739,-1332.370696,536.266849
829.540622,-9696.697840,-1332.370696,0.000000
829.540943,-10362.883188,-1554.432478,-229.828649
829.541264,-10658.965565,-888.247130,-459.657299
829.541585,-10510.924376,-1036.288319,-1378.971896
829.541905,-10955.047942,-148.041188,-1915.238745
829.542226,-11103.089130,74.020594,-383.047749
829.542547,-10807.006753,1110.308913,1072.533697
829.542867,-10214.842000,518.144159,1991.848295
829.543188,-10066.800811,0.000000,2528.115143
829.543509,-9474.636058,296.082377,3370.820191
829.543829,-9400.615463,222.061783,4519.963438
829.544150,-8882.471304,666.185348,3677.258390
829.544471,-8068.244768,148.041188,2757.943793
829.544791,-7772.162391,-666.185348,1072.533697
829.545112,-7920.203579,-1480.411884,0.000000
829.545433,-9178.553681,-1480.411884,-383.047749
829.545753,-10214.842000,-1406.391290,-536.266849
829.546074,-10732.986159,-740.205942,-1149.143247
829.546395,-10807.006753,-296.082377,-995.924147
829.546715,-10955.047942,0.000000,-306.438199
829.547036,-10807.006753,222.061783,-306.438199
829.547357,-10584.944971,666.185348,76.609550
829.547677,-9844.739029,592.164754,1685.410096
829.547998,-9474.636058,-148.041188,2834.553343
829.548319,-8364.327145,-962.267725,3064.381992
829.548639,-8882.471304,-1184.329507,4136.915689
829.548960,-8956.491898,-1110.308913,4596.572988
829.549281,-7624.121203,-444.123565,3600.648841
829.549601,-8290.306550,-814.226536,2528.115143
829.549922,-7328.038826,-1258.350101,842.705048
829.550243,-9104.533087,-1184.329507,459.657299
829.550563,-9918.759623,-1332.370696,306.438199
829.550884,-10362.883188,-1406.391290,-766.095498
829.551205,-10362.883188,-1036.288319,-1532.190996
829.551525,-10807.006753,-148.041188,-2604.724693
829.551846,-10362.883188,148.041188,-1915.238745
829.552167,-10732.986159,1184.329507,-153.219100
829.552487,-10140.821405,1332.370696,995.924147
829.552808,-9252.574275,888.247130,1838.629195
829.553129,-9252.574275,0.000000,2604.724693
829.553449,-9326.594869,-444.123565,2987.772442
829.553770,-8882.471304,148.041188,3600.648841
829.554091,-8290.306550,592.164754,3140.991542
829.554411,-8290.306550,296.082377,2451.505594
829.554732,-7624.121203,-1036.288319,306.438199
829.555053,-8660.409521,-2072.576638,-842.705048
829.555373,-9696.697840,-1924.535449,-306.438199
829.555694,-10584.944971,-444.123565,-995.924147
829.556015,-11177.109724,-444.123565,-612.876398
829.556335,-11251.130318,-444.123565,-1532.190996
829.556656,-10881.027347,518.144159,-1762.019645
829.556977,-11029.068536,1702.473667,0.000000
829.557297,-10140.821405,518.144159,1302.362347
829.557618,-9548.656652,1110.308913,2451.505594
829.557939,-9622.677246,-592.164754,2834.553343
829.558259,-8882.471304,-740.205942,2834.553343
829.558580,-8808.450710,-222.061783,5362.668486
829.558901,-8734.430116,74.020594,4136.915689
829.559221,-7698.141797,296.082377,3140.991542
829.559542,-8512.368333,-888.247130,1762.019645
829.559863,-8512.368333,-1110.308913,612.876398
829.560183,-10436.903782,-1110.308913,842.705048
829.560504,-10436.903782,-1036.288319,766.095498
829.560825,-10807.006753,-666.185348,0.000000
829.561145,-10732.986159,-518.144159,-1378.971896
829.561466,-10288.862594,0.000000,-1302.362347
829.561787,-10732.986159,1110.308913,229.828649
829.562107,-10362.883188,1184.329507,1532.190996
829.562428,-9918.759623,518.144159,2528.115143
829.562749,-9844.739029,-592.164754,2604.724693
829.563069,-9178.553681,-518.144159,3907.087040
829.563390,-9400.615463,-666.185348,4366.744339
829.563711,-8512.368333,74.020594,4366.744339
829.564031,-7846.182985,0.000000,2757.943793
829.564352,-7550.100608,-814.226536,1762.019645
829.564673,-8216.285956,-1554.432478,-383.047749
829.564993,-8882.471304,-1850.514855,-1072.533697
829.565314,-10214.842000,-1480.411884,-612.876398
829.565635,-10732.986159,-666.185348,-1838.629195
829.565956,-11177.109724,-666.185348,-1915.238745
829.566276,-11473.192101,0.000000,-2145.067394
829.566597,-11029.068536,222.061783,-995.924147
829.566918,-10584.944971,148.041188,-153.219100
829.567238,-9770.718434,592.164754,1225.752797
829.567559,-9770.718434,-518.144159,1608.800546
829.567880,-8882.471304,-370.102971,2145.067394
829.568200,-8734.430116,-370.102971,2987.772442
829.568521,-8438.347739,-222.061783,3064.381992
829.568842,-8068.244768,370.102971,2757.943793
829.569162,-8216.285956,0.000000,1762.019645
829.569483,-8364.327145,-740.205942,229.828649
829.569804,-10214.842000,-1332.370696,-1838.629195
829.570124,-10436.903782,-1110.308913,229.828649
829.570445,-10955.047942,-1036.288319,-229.828649
829.570766,-10436.903782,-1036.288319,-919.314598
829.571086,-10881.027347,-666.185348,-1838.629195
829.571407,-10584.944971,222.061783,-1072.533697
829.571728,-10584.944971,444.123565,229.828649
829.572048,-9770.718434,1110.308913,2221.676944
829.572369,-9844.739029,296.082377,2911.162892
829.572690,-9474.636058,0.000000,3524.039291
829.573010,-9474.636058,-592.164754,4443.353888
829.573331,-9178.553681,-666.185348,4519.963438
829.573652,-8290.306550,-370.102971,3677.258390
829.573972,-7476.080014,-1998.556043,4060.306139
829.574293,-7920.203579,-1406.391290,459.657299
829.574614,-8512.368333,-2368.659014,-612.876398
829.574934,-9622.677246,-2368.659014,-383.047749
829.575255,-10510.924376,-2368.659014,-1225.752797
829.575576,-10881.027347,-1332.370696,-1915.238745
829.575896,-11325.150913,-666.185348,-1685.410096
829.576217,-10807.006753,0.000000,-995.924147
829.576538,-11399.171507,814.226536,229.828649
829.576858,-10362.883188,888.247130,1685.410096
829.577179,-10288.862594,740.205942,2757.943793
829.577500,-9400.615463,-148.041188,3064.381992
829.577820,-8956.491898,-518.144159,3370.820191
829.578141,-9030.512492,814.226536,2604.724693
829.578462,-7994.224174,444.123565,3677.258390
829.578782,-7698.141797,148.041188,2451.505594
829.579103,-7846.182985,-518.144159,919.314598
829.579424,-8660.409521,-1184.329507,76.609550
829.579744,-10140.821405,-1110.308913,306.438199
829.580065,-10436.903782,-962.267725,0.000000
829.580386,-10955.047942,-814.226536,-995.924147
829.580706,-10807.006753,0.000000,-1455.581446
829.581027,-11029.068536,666.185348,-1915.238745
829.581348,-10510.924376,1258.350101,-612.876398
829.581668,-10362.883188,1480.411884,612.876398
829.581989,-9918.759623,1110.308913,2068.457845
829.582310,-9104.533087,-370.102971,1915.238745
829.582630,-9178.553681,-888.247130,2681.334243
829.582951,-8882.471304,-740.205942,3524.039291
829.583272,-8216.285956,-148.041188,3370.820191
829.583592,-7846.182985,-296.082377,2834.553343
829.583913,-7994.224174,-1184.329507,995.924147
829.584234,-8438.347739,-1850.514855,-153.219100
829.584554,-9696.697840,-1850.514855,-306.438199
829.584875,-10436.903782,-1702.473667,-842.705048
829.585196,-10807.006753,-1036.288319,-1608.800546
829.585517,-11177.109724,-592.164754,-1532.190996
829.585837,-10732.986159,74.020594,-1915.238745
829.586158,-10807.006753,0.000000,-919.314598
829.586479,-10436.903782,666.185348,153.219100
829.586799,-9992.780217,296.082377,1762.019645
829.587120,-9696.697840,-370.102971,2528.115143
829.587441,-9252.574275,-666.185348,3217.601092
829.587761,-9104.533087,-148.041188,4060.306139
829.588082,-8660.409521,-296.082377,3753.867940
829.588403,-8068.244768,0.000000,3524.039291
829.588723,-8142.265362,-740.205942,2911.162892
829.589044,-8438.347739,-1628.453072,919.314598
829.589365,-8586.388927,-2072.576638,459.657299
829.589685,-10658.965565,-1332.370696,76.609550
829.590006,-10584.944971,-148.041188,-306.438199
829.590327,-10658.965565,0.000000,-1149.143247
829.590647,-10881.027347,222.061783,-1378.971896
829.590968,-10658.965565,518.144159,-995.924147
829.591289,-10955.047942,666.185348,536.266849
829.591610,-9770.718434,444.123565,1838.629195
829.591930,-9622.677246,-148.041188,2374.896044
829.592251,-9400.615463,-740.205942,3447.429741
829.592572,-8808.450710,-444.123565,3600.648841
829.592892,-8734.430116,-296.082377,3830.477490
829.593213,-7772.162391,0.000000,2834.553343
829.593534,-6957.935855,-296.082377,1608.800546
829.593854,-8216.285956,-1850.514855,229.828649
829.594175,-8808.450710,-2146.597232,-612.876398
829.594496,-9992.780217,-1850.514855,-689.485948
829.594816,-10214.842000,-1554.432478,-1072.533697
829.595137,-10881.027347,-1110.308913,-1149.143247
829.595458,-11103.089130,-518.144159,-2145.067394
829.595778,-11103.089130,0.000000,-1302.362347
829.596099,-10881.027347,740.205942,-153.219100
829.596420,-10140.821405,962.267725,1149.143247
829.596741,-9992.780217,518.144159,2068.457845
829.597061,-9252.574275,0.000000,2757.943793
829.597382,-9104.533087,0.000000,3140.991542
829.597703,-8808.450710,-296.082377,3370.820191
829.598023,-8512.368333,148.041188,3524.039291
829.598344,-8142.265362,148.041188,2911.162892
829.598665,-8142.265362,-740.205942,1302.362347
829.598985,-9178.553681,-888.247130,459.657299
829.599306,-10140.821405,-740.205942,229.828649
829.599627,-10288.862594,0.000000,0.000000
829.599947,-11325.150913,0.000000,-1072.533697
829.600268,-10732.986159,592.164754,-1762.019645
829.600589,-10658.965565,74.020594,-1991.848295
829.600909,-10732.986159,1554.432478,306.438199
829.601230,-10436.903782,1406.391290,1455.581446
829.601551,-9992.780217,592.164754,2911.162892
829.601872,-9326.594869,-740.205942,4060.306139
829.602192,-9104.533087,-1184.329507,3370.820191
829.602513,-8808.450710,-814.226536,3983.696590
829.602834,-8290.306550,-222.061783,3677.258390
829.603154,-7846.182985,-518.144159,1762.019645
829.603475,-7550.100608,-1258.350101,1072.533697
829.603796,-7920.203579,-1850.514855,-383.047749
829.604116,-9474.636058,-1776.494261,-153.219100
829.604437,-10658.965565,-1702.473667,-229.828649
829.604758,-11103.089130,-518.144159,-459.657299
829.605078,-11103.089130,-814.226536,-1378.971896
829.605399,-10658.965565,74.020594,-1608.800546
829.605720,-10955.047942,592.164754,-229.828649
829.606040,-9918.759623,1258.350101,2374.896044
829.606361,-9992.780217,740.205942,2528.115143
829.606682,-9548.656652,518.144159,2834.553343
829.607002,-9474.636058,0.000000,3140.991542
829.607323,-9030.512492,148.041188,4443.353888
829.607644,-8364.327145,296.082377,3983.696590
829.607965,-8290.306550,0.000000,2681.334243
829.608285,-7994.224174,-814.226536,1378.971896
829.608606,-8438.347739,-1036.288319,76.609550
829.608927,-9252.574275,-1258.350101,536.266849
829.609247,-10140.821405,-814.226536,76.609550
829.609568,-10881.027347,-518.144159,-536.266849
829.609889,-10807.006753,-296.082377,-1302.362347
829.610209,-11029.068536,1258.350101,-1762.019645
829.610530,-11177.109724,444.123565,-383.047749
829.610851,-10436.903782,740.205942,689.485948
829.611171,-10066.800811,740.205942,2145.067394
829.611492,-9474.636058,-148.041188,1762.019645
829.611813,-9400.615463,-370.102971,3524.039291
829.612133,-9030.512492,-666.185348,3447.429741
829.612454,-8586.388927,-222.061783,3753.867940
829.612775,-7846.182985,370.102971,2834.553343
829.613096,-8216.285956,-518.144159,1378.971896
829.613416,-7772.162391,-1702.473667,76.609550
829.613737,-9252.574275,-2146.597232,-306.438199
829.614058,-10214.842000,-1850.514855,-306.438199
829.614378,-9844.739029,-888.247130,-1762.019645
829.614699,-10658.965565,-962.267725,-1762.019645
829.615020,-10510.924376,-370.102971,-2451.505594
829.615340,-10955.047942,370.102971,-1378.971896
829.615661,-10584.944971,814.226536,76.609550
829.615982,-9844.739029,1036.288319,689.485948
829.616302,-9918.759623,518.144159,1455.581446
829.616623,-9474.636058,0.000000,2604.724693
829.616944,-9474.636058,-370.102971,3753.867940
829.617264,-9474.636058,148.041188,3830.477490
829.617585,-8364.327145,0.000000,3217.601092
829.617906,-8660.409521,-296.082377,2604.724693
829.618227,-8216.285956,-1258.350101,1378.971896
829.618547,-8734.430116,-962.267725,1991.848295
829.618868,-10214.842000,-1036.288319,1302.362347
829.619189,-10214.842000,-962.267725,0.000000
829.619509,-10362.883188,-666.185348,-919.314598
829.619830,-10288.862594,-370.102971,-2145.067394
829.620151,-10214.842000,962.267725,-1149.143247
829.620471,-10732.986159,1554.432478,842.705048
829.620792,-10362.883188,1036.288319,3064.381992
829.621113,-10140.821405,-222.061783,3370.820191
829.621433,-9474.636058,-962.267725,4673.182538
829.621754,-9696.697840,-1776.494261,4596.572988
829.622075,-9178.553681,-962.267725,4903.011187
829.622395,-7846.182985,-296.082377,3753.867940
829.622716,-7328.038826,74.020594,2145.067394
829.623037,-7031.956449,-1628.453072,-459.657299
829.623357,-8364.327145,-2072.576638,-919.314598
829.623678,-9474.636058,-1924.535449,-536.266849
829.623999,-10214.842000,-1332.370696,-995.924147
829.624320,-10881.027347,-1036.288319,-766.095498
829.624640,-11177.109724,-296.082377,-1149.143247
829.624961,-11251.130318,370.102971,-612.876398
829.625282,-11399.171507,740.205942,383.047749
829.625602,-10140.821405,1406.391290,2068.457845
829.625923,-10362.883188,444.123565,1762.019645
829.626244,-9178.553681,0.000000,2145.067394
829.626564,-9030.512492,-148.041188,2221.676944
829.626885,-8586.388927,296.082377,2681.334243
829.627206,-7772.162391,148.041188,2451.505594
829.627526,-7550.100608,-296.082377,1455.581446
829.627847,-7920.203579,-1110.308913,306.438199
829.628168,-8734.430116,-1628.453072,153.219100
829.628488,-10288.862594,-1776.494261,306.438199
829.628809,-10584.944971,-1554.432478,0.000000
829.629130,-11177.109724,-814.226536,-995.924147
829.629451,-10955.047942,-148.041188,-1225.752797
829.629771,-10955.047942,740.205942,-306.438199
829.630092,-11177.109724,962.267725,0.000000
829.630413,-10140.821405,1036.288319,995.924147
829.630733,-10214.842000,740.205942,1991.848295
829.631054,-9326.594869,-74.020594,3140.991542
829.631375,-9252.574275,-518.144159,2757.943793
829.631695,-8956.491898,-148.041188,3524.039291
829.632016,-8216.285956,444.123565,3140.991542
829.632337,-7698.141797,222.061783,2298.286494
829.632657,-7846.182985,-666.185348,842.705048
829.632978,-8586.388927,-1776.494261,-459.657299
829.633299,-9548.656652,-1406.391290,-383.047749
829.633619,-10584.944971,-1184.329507,-153.219100
829.633940,-10955.047942,-666.185348,-842.705048
829.634261,-11029.068536,-666.185348,-612.876398
829.634582,-10658.965565,-296.082377,-1302.362347
829.634902,-10732.986159,518.144159,-306.438199
829.635223,-10510.924376,1110.308913,1685.410096
829.635544,-10140.821405,1110.308913,2528.115143
829.635864,-9548.656652,148.041188,2987.772442
829.636185,-8734.430116,74.020594,2681.334243
829.636506,-9030.512492,222.061783,4213.525239
829.636826,-8882.471304,-370.102971,4213.525239
829.637147,-7994.224174,74.020594,3294.210641
829.637468,-8290.306550,-1554.432478,2145.067394
829.637788,-7476.080014,-1628.453072,306.438199
829.638109,-9474.636058,-1036.288319,459.657299
829.638430,-10066.800811,-1036.288319,0.000000
829.638750,-10214.842000,-370.102971,0.000000
829.639071,-10807.006753,-592.164754,-842.705048
829.639392,-10510.924376,-296.082377,-1455.581446
829.639712,-11029.068536,-370.102971,-612.876398
829.640033,-10732.986159,222.061783,1455.581446
829.640354,-10066.800811,148.041188,2681.334243
829.640675,-9696.697840,-370.102971,3064.381992
829.640995,-9252.574275,-814.226536,3830.477490
829.641316,-8956.491898,-370.102971,3753.867940
829.641637,-8586.388927,-74.020594,3294.210641
829.641957,-7698.141797,0.000000,2451.505594
829.642278,-7994.224174,-296.082377,536.266849
829.642599,-7624.121203,-1184.329507,-689.485948
829.642919,-9178.553681,-1628.453072,-1149.143247
829.643240,-10140.821405,-888.247130,-459.657299
829.643561,-11029.068536,-1110.308913,-919.314598
829.643881,-11103.089130,-666.185348,-1072.533697
829.644202,-11399.171507,74.020594,-1302.362347
829.644523,-11473.192101,740.205942,-689.485948
829.644843,-11399.171507,1480.411884,842.705048
829.645164,-10288.862594,1184.329507,2145.067394
829.645485,-10066.800811,592.164754,2068.457845
829.645806,-9326.594869,0.000000,2221.676944
829.646126,-9030.512492,0.000000,2987.772442
829.646447,-8956.491898,-222.061783,2221.676944
829.646768,-8068.244768,518.144159,2987.772442
829.647088,-8216.285956,0.000000,2374.896044
829.647409,-8216.285956,-1258.350101,306.438199
829.647730,-9030.512492,-1480.411884,76.609550
829.648050,-10140.821405,-1776.494261,76.609550
829.648371,-10510.924376,-1702.473667,-229.828649
829.648692,-10584.944971,-1554.432478,-1149.143247
829.649012,-10807.006753,-1036.288319,-1762.019645
829.649333,-10881.027347,518.144159,-1838.629195
829.649654,-11177.109724,148.041188,306.438199
829.649974,-9770.718434,518.144159,1838.629195
829.650295,-9844.739029,148.041188,2604.724693
829.650616,-9178.553681,-518.144159,3217.601092
829.650937,-9104.533087,-740.205942,3753.867940
829.651257,-8660.409521,-592.164754,3983.696590
829.651578,-7624.121203,296.082377,2911.162892
829.651899,-7476.080014,-148.041188,1838.629195
829.652219,-7254.018232,-666.185348,-383.047749
829.652540,-8364.327145,-1776.494261,-1225.752797
829.652861,-9400.615463,-666.185348,-612.876398
829.653181,-10214.842000,-666.185348,-842.705048
829.653502,-10584.944971,814.226536,1532.190996
829.653823,-11399.171507,0.000000,-842.705048
829.654143,-11399.171507,222.061783,-306.438199
829.654464,-11103.089130,370.102971,612.876398
829.654785,-10732.986159,592.164754,1685.410096
829.655105,-10362.883188,296.082377,2451.505594
829.655426,-9178.553681,74.020594,2911.162892
829.655747,-9030.512492,-222.061783,3217.601092
829.656067,-8586.388927,148.041188,3447.429741
829.656388,-8364.327145,740.205942,3294.210641
829.656709,-8290.306550,74.020594,2834.553343
829.657030,-8512.368333,-518.144159,1762.019645
829.657350,-9400.615463,-888.247130,689.485948
829.657671,-10510.924376,-1480.411884,842.705048
829.657992,-11251.130318,-1480.411884,229.828649
