#time,accel_x,accel_y,accel_z
1380.777034,-9474.636058,-444.123565,1225.752797
1380.777355,-9696.697840,-444.123565,1225.752797
1380.777676,-9992.780217,-148.041188,383.047749
1380.777998,-9696.697840,-444.123565,842.705048
1380.778319,-9474.636058,-592.164754,1149.143247
1380.778640,-9548.656652,-296.082377,1149.143247
1380.778961,-9548.656652,-296.082377,1378.971896
1380.779282,-9474.636058,-518.144159,919.314598
1380.779603,-9622.677246,-296.082377,689.485948
1380.779925,-9548.656652,-370.102971,919.314598
1380.780246,-9548.656652,-222.061783,1149.143247
1380.780567,-9548.656652,-370.102971,919.314598
1380.780888,-9474.636058,-370.102971,1072.533697
1380.781209,-9548.656652,-518.144159,995.924147
1380.781531,-9548.656652,-148.041188,1149.143247
1380.781852,-8808.450710,-592.164754,612.876398
1380.782173,-9622.677246,-592.164754,1532.190996
1380.782494,-9622.677246,-814.226536,1072.533697
1380.782815,-9326.594869,-592.164754,1378.971896
1380.783136,-9696.697840,-592.164754,459.657299
1380.783458,-9992.780217,-888.247130,1378.971896
1380.783779,-9474.636058,-962.267725,1378.971896
1380.784100,-9400.615463,-962.267725,612.876398
1380.784421,-9474.636058,-740.205942,995.924147
1380.784742,-9474.636058,-296.082377,1532.190996
1380.785064,-9622.677246,-370.102971,1072.533697
1380.785385,-9474.636058,-148.041188,1072.533697
1380.785706,-9548.656652,-740.205942,536.266849
1380.786027,-9992.780217,222.061783,2068.457845
1380.786348,-9918.759623,-666.185348,1149.143247
1380.786670,-9622.677246,-740.205942,1455.581446
1380.786991,-9622.677246,-1184.329507,1608.800546
1380.787312,-9622.677246,-1184.329507,3064.381992
1380.787633,-9918.759623,-1258.350101,1915.238745
1380.787954,-9770.718434,-1554.432478,2145.067394
1380.788275,-9400.615463,-1406.391290,2068.457845
1380.788597,-9770.718434,-1184.329507,2068.457845
1380.788918,-8956.491898,-1036.288319,1991.848295
1380.789239,-9326.594869,-888.247130,1762.019645
1380.789560,-9400.615463,-1184.329507,1762.019645
1380.789881,-9622.677246,-740.205942,2451.505594
1380.790203,-9178.553681,-1258.350101,1532.190996
1380.790524,-9844.739029,-1258.350101,2911.162892
1380.790845,-9696.697840,-1184.329507,3064.381992
1380.791166,-9844.739029,-1184.329507,3600.648841
1380.791487,-9918.759623,-1036.288319,3064.381992
1380.791808,-9844.739029,-1258.350101,4290.134789
1380.792130,-9696.697840,-1850.514855,4749.792088
1380.792451,-9918.759623,-1850.514855,5209.449386
1380.792772,-9252.574275,-2072.576638,5209.449386
1380.793093,-9548.656652,-2368.659014,5209.449386
1380.793414,-8882.471304,-2294.638420,5362.668486
1380.793736,-9030.512492,-2442.679609,4979.620737
1380.794057,-8882.471304,-3034.844362,5439.278036
1380.794378,-9030.512492,-3849.070898,6588.421283
1380.794699,-9030.512492,-4071.132681,5439.278036
1380.795020,-9474.636058,-4367.215058,5362.668486
1380.795341,-9474.636058,-4219.173869,5592.497135
1380.795663,-9474.636058,-4589.276840,5286.058936
1380.795984,-9252.574275,-4071.132681,5209.449386
1380.796305,-9178.553681,-3923.091493,4903.011187
1380.796626,-9178.553681,-3997.112087,4673.182538
1380.796947,-9474.636058,-4219.173869,4749.792088
1380.797269,-9474.636058,-3923.091493,4903.011187
1380.797590,-9474.636058,-4441.235652,4519.963438
1380.797911,-9178.553681,-4663.297435,4596.572988
1380.798232,-9400.615463,-5181.441594,4060.306139
1380.798553,-9030.512492,-5403.503377,5209.449386
1380.798874,-9400.615463,-6217.729913,3677.258390
1380.799196,-9104.533087,-6735.874072,2987.772442
1380.799517,-9030.512492,-6735.874072,2068.457845
1380.799838,-8956.491898,-5625.565159,1608.800546
1380.800159,-9252.574275,-3997.112087,1149.143247
1380.800480,-9474.636058,-2886.803174,766.095498
1380.800802,-9770.718434,-2072.576638,1072.533697
1380.801123,-10214.842000,-1554.432478,689.485948
1380.801444,-10436.903782,-1480.411884,919.314598
1380.801765,-10807.006753,-1850.514855,1302.362347
1380.802086,-10732.986159,-2442.679609,1838.629195
1380.802407,-10288.862594,-3997.112087,2451.505594
1380.802729,-10066.800811,-4885.359217,2451.505594
1380.803050,-9104.533087,-5921.647536,2068.457845
1380.803371,-9474.636058,-5403.503377,2221.676944
1380.803692,-9326.594869,-5255.462188,2987.772442
1380.804013,-9104.533087,-4663.297435,2757.943793
1380.804335,-9178.553681,-4515.256246,2451.505594
1380.804656,-9400.615463,-3701.029710,2451.505594
1380.804977,-9696.697840,-3034.844362,1685.410096
1380.805298,-9770.718434,-1628.453072,1149.143247
1380.805619,-10066.800811,296.082377,842.705048
1380.805940,-10214.842000,1850.514855,919.314598
1380.806262,-10362.883188,3034.844362,1532.190996
1380.806583,-10436.903782,2812.782580,2221.676944
1380.806904,-11103.089130,1184.329507,4903.011187
1380.807225,-11029.068536,-444.123565,4290.134789
1380.807546,-10436.903782,-2368.659014,4903.011187
1380.807868,-9992.780217,-4367.215058,5669.106685
1380.808189,-9474.636058,-4737.318029,7048.078582
1380.808510,-8956.491898,-4885.359217,6894.859482
1380.808831,-8216.285956,-5033.400406,6665.030833
1380.809152,-8142.265362,-5921.647536,5592.497135
1380.809473,-7254.018232,-5255.462188,3524.039291
1380.809795,-7846.182985,-3182.885551,1838.629195
1380.810116,-8216.285956,-518.144159,2374.896044
1380.810437,-8586.388927,1776.494261,3294.210641
1380.810758,-9622.677246,3182.885551,3600.648841
1380.811079,-10066.800811,2590.720797,3524.039291
1380.811401,-10436.903782,1702.473667,3753.867940
1380.811722,-10584.944971,0.000000,4290.134789
1380.812043,-10658.965565,-1258.350101,5439.278036
1380.812364,-10214.842000,-2220.617826,6052.154434
1380.812685,-9178.553681,-4145.153275,5975.544884
1380.813006,-8068.244768,-5921.647536,4519.963438
1380.813328,-7624.121203,-6661.853478,3064.381992
1380.813649,-7624.121203,-5181.441594,2604.724693
1380.813970,-8512.368333,-2886.803174,3294.210641
1380.814291,-8586.388927,-1258.350101,3524.039291
1380.814612,-9178.553681,-666.185348,3064.381992
1380.814934,-9474.636058,0.000000,1915.238745
1380.815255,-10510.924376,1110.308913,2451.505594
1380.815576,-11547.212695,1184.329507,3064.381992
1380.815897,-11325.150913,-148.041188,3140.991542
1380.816218,-10732.986159,-1776.494261,1072.533697
1380.816539,-10140.821405,-1850.514855,-153.219100
1380.816861,-9770.718434,-962.267725,0.000000
1380.817182,-10140.821405,592.164754,1072.533697
1380.817503,-10510.924376,-148.041188,2604.724693
1380.817824,-10362.883188,-2072.576638,2451.505594
1380.818145,-9696.697840,-4515.256246,1762.019645
1380.818467,-9844.739029,-4737.318029,2221.676944
1380.818788,-10584.944971,-5477.523971,3830.477490
1380.819109,-9696.697840,-5699.585753,3753.867940
1380.819430,-8808.450710,-5625.565159,2145.067394
1380.819751,-8660.409521,-3849.070898,1762.019645
1380.820072,-9474.636058,-1776.494261,1762.019645
1380.820394,-10140.821405,-1036.288319,3140.991542
1380.820715,-10214.842000,-1924.535449,2757.943793
1380.821036,-9104.533087,-1850.514855,2145.067394
1380.821357,-10362.883188,-1628.453072,2681.334243
1380.821678,-10436.903782,-3256.906145,4673.182538
1380.822000,-9622.677246,-5773.606348,4519.963438
1380.822321,-8808.450710,-6069.688724,2604.724693
1380.822642,-8364.327145,-4071.132681,2298.286494
1380.822963,-8586.388927,-2886.803174,4060.306139
1380.823284,-8734.430116,-3182.885551,5745.716235
1380.823605,-8216.285956,-4515.256246,4749.792088
1380.823927,-8068.244768,-5921.647536,3907.087040
1380.824248,-8882.471304,-5699.585753,3524.039291
1380.824569,-8734.430116,-5699.585753,4136.915689
1380.824890,-8808.450710,-4589.276840,4596.572988
1380.825211,-9252.574275,-2220.617826,4519.963438
1380.825533,-9474.636058,-592.164754,4060.306139
1380.825854,-9104.533087,0.000000,3830.477490
1380.826175,-9474.636058,-370.102971,4290.134789
1380.826496,-9992.780217,-1480.411884,4290.134789
1380.826817,-10140.821405,-3330.926739,2757.943793
1380.827138,-8364.327145,-4071.132681,1225.752797
1380.827460,-7846.182985,-2664.741391,229.828649
1380.827781,-9104.533087,-740.205942,3217.601092
1380.828102,-10955.047942,-2368.659014,4673.182538
1380.828423,-8586.388927,-1332.370696,5515.887586
1380.828744,-12435.459826,-5699.585753,5745.716235
1380.829066,-9252.574275,-5551.544565,4979.620737
1380.829387,-10140.821405,-6069.688724,4826.401637
1380.829708,-11621.233289,-4663.297435,5132.839837
1380.830029,-9400.615463,-2738.761985,2757.943793
1380.830350,-8068.244768,-962.267725,1532.190996
1380.830671,-8956.491898,222.061783,1532.190996
1380.830993,-8882.471304,-1110.308913,306.438199
1380.831314,-11547.212695,-740.205942,1149.143247
1380.831635,-9622.677246,-370.102971,1149.143247
1380.831956,-9992.780217,888.247130,995.924147
1380.832277,-10436.903782,814.226536,4213.525239
1380.832599,-10288.862594,-962.267725,4519.963438
1380.832920,-10214.842000,-3034.844362,3677.258390
1380.833241,-10288.862594,-5033.400406,1915.238745
1380.833562,-8142.265362,-3627.009116,2298.286494
1380.833883,-9326.594869,-1924.535449,3447.429741
1380.834204,-9844.739029,-2516.700203,1685.410096
1380.834525,-7698.141797,-740.205942,2987.772442
1380.834846,-8438.347739,-2368.659014,1762.019645
1380.835167,-7772.162391,-2220.617826,689.485948
1380.835488,-9252.574275,-814.226536,1225.752797
1380.835809,-10658.965565,74.020594,2987.772442
1380.836130,-10584.944971,888.247130,3524.039291
1380.836451,-9178.553681,592.164754,4366.744339
1380.836772,-9770.718434,-1110.308913,2298.286494
1380.837093,-9770.718434,-2220.617826,2298.286494
1380.837414,-9252.574275,-1998.556043,2528.115143
1380.837735,-10584.944971,-2146.597232,4136.915689
1380.838056,-8142.265362,-2368.659014,3370.820191
1380.838377,-8734.430116,-4293.194464,3140.991542
1380.838698,-9622.677246,-5921.647536,3907.087040
1380.839019,-7624.121203,-5329.482782,2298.286494
1380.839340,-8438.347739,-3552.988522,3294.210641
1380.839661,-9918.759623,-1406.391290,4596.572988
1380.839982,-8142.265362,-1258.350101,3753.867940
1380.840303,-9696.697840,-2960.823768,2987.772442
1380.840624,-7698.141797,-4071.132681,995.924147
1380.840945,-9030.512492,-2072.576638,1225.752797
1380.841266,-11251.130318,-814.226536,3447.429741
1380.841587,-10510.924376,-740.205942,3907.087040
1380.841908,-9474.636058,-1628.453072,2145.067394
1380.842229,-10362.883188,-1850.514855,1991.848295
1380.842550,-8438.347739,370.102971,919.314598
1380.842871,-10807.006753,1184.329507,2987.772442
1380.843192,-11621.233289,-592.164754,3983.696590
1380.843513,-8364.327145,-1332.370696,3907.087040
1380.843835,-10214.842000,-5847.626942,1455.581446
1380.844156,-7105.977043,-1628.453072,1762.019645
1380.844477,-10732.986159,-2146.597232,3140.991542
1380.844798,-9844.739029,0.000000,4596.572988
1380.845119,-9548.656652,1332.370696,5975.544884
1380.845440,-9918.759623,-3256.906145,1991.848295
1380.845761,-8290.306550,-1258.350101,536.266849
1380.846082,-10436.903782,-518.144159,919.314598
1380.846403,-10066.800811,74.020594,1915.238745
1380.846724,-9474.636058,148.041188,1685.410096
1380.847045,-10214.842000,-296.082377,1532.190996
1380.847366,-8660.409521,-1776.494261,-1225.752797
1380.847687,-10066.800811,-444.123565,-306.438199
1380.848008,-11621.233289,-592.164754,3753.867940
1380.848329,-9474.636058,-1702.473667,2145.067394
1380.848650,-9918.759623,-2294.638420,1455.581446
1380.848971,-9030.512492,-1332.370696,306.438199
1380.849292,-7920.203579,-518.144159,306.438199
1380.849613,-9474.636058,-2146.597232,1915.238745
1380.849934,-9030.512492,-1702.473667,2145.067394
1380.850255,-8142.265362,-3330.926739,76.609550
1380.850576,-8290.306550,-2664.741391,-2528.115143
1380.850897,-8142.265362,518.144159,383.047749
1380.851218,-10510.924376,518.144159,995.924147
1380.851539,-9474.636058,1998.556043,2834.553343
1380.851860,-10140.821405,-296.082377,2451.505594
1380.852181,-9030.512492,-2072.576638,-1915.238745
1380.852502,-9548.656652,-814.226536,-1378.971896
1380.852823,-9992.780217,2368.659014,1225.752797
1380.853144,-9844.739029,3330.926739,2374.896044
1380.853465,-10066.800811,1184.329507,2451.505594
1380.853786,-9474.636058,-740.205942,383.047749
1380.854107,-7846.182985,-1628.453072,153.219100
1380.854428,-10732.986159,-3478.967927,1302.362347
1380.854749,-9992.780217,-740.205942,4136.915689
1380.855070,-8734.430116,-2220.617826,1608.800546
1380.855391,-9474.636058,-1332.370696,0.000000
1380.855712,-7550.100608,1776.494261,-842.705048
1380.856033,-10510.924376,1406.391290,383.047749
1380.856354,-11991.336260,3108.864956,2451.505594
1380.856675,-11029.068536,2442.679609,1302.362347
1380.856996,-11029.068536,296.082377,-459.657299
1380.857317,-9030.512492,1628.453072,-689.485948
1380.857639,-11473.192101,1998.556043,1072.533697
1380.857960,-11843.295072,2220.617826,3907.087040
1380.858281,-10658.965565,962.267725,3294.210641
1380.858602,-9992.780217,-1480.411884,229.828649
1380.858923,-6661.853478,-1628.453072,-1149.143247
1380.859244,-10362.883188,-1036.288319,1455.581446
1380.859565,-10288.862594,222.061783,3140.991542
1380.859886,-9400.615463,-1480.411884,1915.238745
1380.860207,-6883.915261,-2442.679609,0.000000
1380.860528,-7402.059420,-814.226536,-1072.533697
1380.860849,-11029.068536,-962.267725,919.314598
1380.861170,-10807.006753,1406.391290,3217.601092
1380.861491,-9474.636058,296.082377,2374.896044
1380.861812,-9400.615463,888.247130,-1149.143247
1380.862133,-9252.574275,962.267725,153.219100
1380.862454,-11325.150913,296.082377,1225.752797
1380.862775,-10510.924376,1332.370696,3753.867940
1380.863096,-10288.862594,-592.164754,2757.943793
1380.863417,-8586.388927,-1776.494261,612.876398
1380.863738,-7179.997637,-2368.659014,-1532.190996
1380.864059,-8364.327145,-962.267725,0.000000
1380.864380,-7550.100608,-814.226536,1149.143247
1380.864701,-5699.585753,-518.144159,-1149.143247
1380.865022,-7920.203579,-2146.597232,-2221.676944
1380.865343,-6809.894666,222.061783,-2221.676944
1380.865664,-10066.800811,1628.453072,2221.676944
1380.865985,-12509.480420,1850.514855,4136.915689
1380.866306,-10066.800811,1554.432478,3140.991542
1380.866627,-11251.130318,-888.247130,842.705048
1380.866948,-9252.574275,0.000000,-153.219100
1380.867269,-9622.677246,444.123565,-306.438199
1380.867590,-9696.697840,148.041188,383.047749
1380.867911,-7105.977043,962.267725,-689.485948
1380.868232,-9696.697840,-1258.350101,-536.266849
1380.868553,-9844.739029,-1850.514855,383.047749
1380.868874,-11843.295072,-2664.741391,3140.991542
1380.869195,-12287.418637,-3775.050304,4443.353888
1380.869516,-10807.006753,-3256.906145,4366.744339
1380.869837,-11325.150913,-2960.823768,2068.457845
1380.870158,-9030.512492,0.000000,2298.286494
1380.870479,-9696.697840,296.082377,2068.457845
1380.870800,-9252.574275,1036.288319,2068.457845
1380.871121,-8142.265362,-1184.329507,536.266849
1380.871443,-8660.409521,-2516.700203,-1991.848295
1380.871764,-6735.874072,-962.267725,-1838.629195
1380.872085,-10807.006753,0.000000,383.047749
1380.872406,-11843.295072,1776.494261,3600.648841
1380.872727,-10066.800811,888.247130,3600.648841
1380.873048,-11177.109724,-740.205942,2604.724693
1380.873369,-10066.800811,-666.185348,1762.019645
1380.873690,-10881.027347,-1628.453072,2604.724693
1380.874011,-10362.883188,-1480.411884,3370.820191
1380.874332,-6735.874072,-370.102971,1149.143247
1380.874653,-9770.718434,-2294.638420,-689.485948
1380.874974,-5551.544565,814.226536,-536.266849
1380.875295,-9474.636058,-592.164754,1455.581446
1380.875616,-8956.491898,666.185348,2145.067394
1380.875937,-10214.842000,-740.205942,2221.676944
1380.876258,-9696.697840,-518.144159,0.000000
1380.876579,-9178.553681,1406.391290,229.828649
1380.876900,-10362.883188,1406.391290,1915.238745
1380.877221,-9770.718434,2294.638420,2374.896044
1380.877542,-9400.615463,-370.102971,1225.752797
1380.877863,-9844.739029,-1776.494261,-612.876398
1380.878184,-7105.977043,-222.061783,-1455.581446
1380.878505,-10362.883188,-444.123565,229.828649
1380.878826,-10955.047942,1332.370696,3140.991542
1380.879147,-8882.471304,0.000000,1608.800546
1380.879468,-10510.924376,-2516.700203,612.876398
1380.879789,-7476.080014,-962.267725,0.000000
1380.880110,-11177.109724,-1924.535449,689.485948
1380.880431,-10955.047942,0.000000,2681.334243
1380.880752,-8216.285956,592.164754,612.876398
1380.881073,-9252.574275,666.185348,-1072.533697
1380.881394,-8438.347739,1258.350101,-2451.505594
1380.881715,-9474.636058,2664.741391,-919.314598
1380.882036,-11251.130318,2812.782580,995.924147
1380.882357,-9104.533087,2146.597232,1149.143247
1380.882678,-10584.944971,518.144159,0.000000
1380.882999,-9844.739029,0.000000,536.266849
1380.883320,-10584.944971,222.061783,1225.752797
1380.883641,-10214.842000,222.061783,3140.991542
1380.883962,-8956.491898,-2442.679609,1378.971896
1380.884283,-9104.533087,-2590.720797,-1072.533697
1380.884604,-7698.141797,-888.247130,-1991.848295
1380.884925,-8438.347739,740.205942,0.000000
1380.885246,-9030.512492,1702.473667,2374.896044
1380.885568,-9030.512492,1850.514855,1762.019645
1380.885889,-10881.027347,-296.082377,306.438199
1380.886210,-8956.491898,-222.061783,153.219100
1380.886531,-9326.594869,-148.041188,2451.505594
1380.886852,-12509.480420,0.000000,4060.306139
1380.887173,-8364.327145,148.041188,2451.505594
1380.887494,-9770.718434,-2516.700203,153.219100
1380.887815,-7624.121203,0.000000,536.266849
1380.888136,-8290.306550,-296.082377,1302.362347
1380.888457,-12361.439231,148.041188,5515.887586
1380.888778,-10807.006753,-2886.803174,3447.429741
1380.889099,-9104.533087,-3478.967927,919.314598
1380.889420,-9326.594869,-1258.350101,1455.581446
1380.889741,-9252.574275,-1036.288319,1532.190996
1380.890062,-9770.718434,518.144159,4366.744339
1380.890383,-8438.347739,-592.164754,1762.019645
1380.890704,-9178.553681,592.164754,-766.095498
1380.891025,-7105.977043,-1110.308913,-1608.800546
1380.891346,-10955.047942,0.000000,1915.238745
1380.891667,-10510.924376,666.185348,3447.429741
1380.891988,-10658.965565,740.205942,3524.039291
1380.892309,-10584.944971,-1850.514855,2911.162892
1380.892630,-8068.244768,-2442.679609,306.438199
1380.892951,-10510.924376,-2442.679609,1915.238745
1380.893272,-11843.295072,-1480.411884,3677.258390
1380.893593,-7624.121203,-1258.350101,1608.800546
1380.893914,-8882.471304,-2960.823768,-995.924147
1380.894235,-7624.121203,-1480.411884,-1685.410096
1380.894556,-8364.327145,518.144159,-766.095498
1380.894877,-12287.418637,1554.432478,4519.963438
1380.895198,-10066.800811,222.061783,2834.553343
1380.895519,-9474.636058,-2368.659014,153.219100
1380.895840,-10066.800811,-3034.844362,0.000000
1380.896161,-9622.677246,-592.164754,842.705048
1380.896482,-11769.274478,0.000000,2681.334243
1380.896803,-8882.471304,148.041188,536.266849
1380.897124,-8882.471304,-296.082377,-1532.190996
1380.897445,-8216.285956,-592.164754,-3217.601092
1380.897766,-8734.430116,814.226536,-306.438199
1380.898087,-13323.706956,-518.144159,2604.724693
1380.898408,-9622.677246,-370.102971,2068.457845
1380.898729,-10955.047942,-2368.659014,-306.438199
1380.899050,-9992.780217,-370.102971,459.657299
1380.899372,-9548.656652,-222.061783,459.657299
1380.899693,-11621.233289,444.123565,2528.115143
1380.900014,-8290.306550,-1110.308913,153.219100
1380.900335,-7698.141797,-2294.638420,-4136.915689
1380.900656,-7105.977043,-518.144159,-3370.820191
1380.900977,-8512.368333,1628.453072,-1685.410096
1380.901298,-11991.336260,3182.885551,3370.820191
1380.901619,-9770.718434,296.082377,2911.162892
1380.901940,-10362.883188,-1924.535449,1302.362347
1380.902261,-9622.677246,-2294.638420,536.266849
1380.902582,-11029.068536,0.000000,1532.190996
1380.902903,-11103.089130,1628.453072,3370.820191
1380.903224,-6957.935855,3182.885551,919.314598
1380.903545,-7179.997637,740.205942,-1915.238745
1380.903866,-7846.182985,444.123565,-1149.143247
1380.904187,-8734.430116,148.041188,1225.752797
1380.904508,-13027.624579,-666.185348,3830.477490
1380.904829,-9844.739029,-518.144159,4596.572988
1380.905150,-10658.965565,-1480.411884,2374.896044
1380.905471,-9252.574275,814.226536,2298.286494
1380.905792,-9844.739029,1776.494261,2911.162892
1380.906113,-10436.903782,2738.761985,4366.744339
1380.906434,-8216.285956,1184.329507,2528.115143
1380.906755,-7920.203579,-2072.576638,-1915.238745
1380.907076,-7772.162391,0.000000,-1225.752797
1380.907397,-9770.718434,74.020594,1991.848295
1380.907718,-10436.903782,1924.535449,3217.601092
1380.908039,-9622.677246,666.185348,3907.087040
1380.908360,-9622.677246,-1480.411884,2068.457845
1380.908681,-10214.842000,-1036.288319,1838.629195
1380.909002,-11399.171507,-1110.308913,2528.115143
1380.909323,-11325.150913,-444.123565,3907.087040
1380.909644,-8438.347739,-666.185348,1762.019645
1380.909965,-8660.409521,-1776.494261,-1532.190996
1380.910286,-7698.141797,0.000000,-1915.238745
1380.910607,-8142.265362,888.247130,0.000000
1380.910928,-11103.089130,0.000000,2374.896044
1380.911249,-9474.636058,-1258.350101,1838.629195
1380.911570,-9696.697840,-3849.070898,-1149.143247
1380.911891,-10658.965565,0.000000,-306.438199
1380.912212,-10140.821405,2368.659014,1532.190996
1380.912533,-11251.130318,1850.514855,3447.429741
1380.912854,-8956.491898,-296.082377,1225.752797
1380.913175,-8142.265362,-2368.659014,-2834.553343
1380.913497,-8438.347739,-2146.597232,-2757.943793
1380.913818,-8956.491898,74.020594,-1072.533697
1380.914139,-10362.883188,1036.288319,1991.848295
1380.914460,-9918.759623,222.061783,1455.581446
1380.914781,-8660.409521,-1480.411884,-766.095498
1380.915102,-9474.636058,-1702.473667,-995.924147
1380.915423,-10510.924376,-1110.308913,919.314598
1380.915744,-11621.233289,-666.185348,1915.238745
1380.916065,-9844.739029,-666.185348,2451.505594
1380.916386,-9474.636058,-2220.617826,-153.219100
1380.916707,-8142.265362,-1554.432478,-1302.362347
1380.917028,-7254.018232,-222.061783,0.000000
1380.917349,-10807.006753,0.000000,1532.190996
1380.917670,-8660.409521,296.082377,2298.286494
1380.917991,-9844.739029,-1850.514855,0.000000
1380.918312,-9252.574275,-1406.391290,689.485948
1380.918633,-9918.759623,-1702.473667,1072.533697
1380.918954,-11251.130318,-888.247130,3447.429741
1380.919275,-10066.800811,-296.082377,3600.648841
1380.919596,-9178.553681,-814.226536,919.314598
1380.919917,-8882.471304,-444.123565,1302.362347
1380.920238,-9326.594869,-222.061783,1225.752797
1380.920559,-10362.883188,-222.061783,2604.724693
1380.920880,-10214.842000,-1110.308913,2451.505594
1380.921201,-9104.533087,-296.082377,612.876398
1380.921522,-9400.615463,518.144159,995.924147
1380.921843,-10584.944971,1628.453072,2298.286494
1380.922164,-11547.212695,1702.473667,4213.525239
1380.922485,-9474.636058,-148.041188,2911.162892
1380.922806,-8882.471304,-1776.494261,306.438199
1380.923127,-8586.388927,-2368.659014,-689.485948
1380.923448,-8068.244768,148.041188,995.924147
1380.923769,-11251.130318,1184.329507,4290.134789
1380.924090,-10510.924376,2442.679609,4979.620737
1380.924411,-10881.027347,-1036.288319,3677.258390
1380.924732,-9918.759623,-3775.050304,1072.533697
1380.925053,-8734.430116,-1554.432478,1225.752797
1380.925374,-11843.295072,-222.061783,2451.505594
1380.925695,-8364.327145,1850.514855,1991.848295
1380.926016,-7328.038826,814.226536,-1378.971896
1380.926337,-7476.080014,370.102971,-2145.067394
1380.926658,-6661.853478,222.061783,-2298.286494
1380.926979,-10955.047942,296.082377,919.314598
1380.927301,-10214.842000,0.000000,2681.334243
1380.927622,-10140.821405,-2368.659014,842.705048
1380.927943,-9918.759623,-1554.432478,459.657299
1380.928264,-9030.512492,518.144159,0.000000
1380.928585,-11843.295072,2368.659014,2145.067394
1380.928906,-10140.821405,1480.411884,1302.362347
1380.929227,-8512.368333,-592.164754,-1685.410096
1380.929548,-7846.182985,-1332.370696,-4826.401637
1380.929869,-8364.327145,0.000000,-2604.724693
1380.930190,-10362.883188,1184.329507,383.047749
1380.930511,-9770.718434,74.020594,1378.971896
1380.930832,-9474.636058,-1554.432478,-153.219100
1380.931153,-9548.656652,-1924.535449,-689.485948
1380.931474,-10362.883188,0.000000,689.485948
1380.931795,-12509.480420,222.061783,2911.162892
1380.932116,-9474.636058,1628.453072,2681.334243
1380.932437,-10658.965565,-518.144159,-689.485948
1380.932758,-9030.512492,-518.144159,-1838.629195
1380.933079,-7920.203579,222.061783,-1072.533697
1380.933399,-10955.047942,-592.164754,1072.533697
1380.933720,-9474.636058,-296.082377,4136.915689
1380.934041,-12879.583391,-3182.885551,1072.533697
1380.934362,-9252.574275,-370.102971,1532.190996
1380.934683,-10584.944971,740.205942,2681.334243
1380.935004,-13175.665768,666.185348,5822.325785
1380.935324,-9474.636058,-370.102971,2987.772442
1380.935645,-9474.636058,-3256.906145,229.828649
1380.935966,-7105.977043,-2294.638420,-3447.429741
1380.936287,-6661.853478,148.041188,-919.314598
1380.936608,-11695.253884,1480.411884,2834.553343
1380.936929,-8956.491898,1554.432478,3830.477490
1380.937249,-8882.471304,-740.205942,1762.019645
1380.937570,-10066.800811,-1554.432478,1838.629195
1380.937891,-9844.739029,-888.247130,2528.115143
1380.938212,-13471.748144,74.020594,5439.278036
1380.938533,-9770.718434,1554.432478,6052.154434
1380.938854,-9030.512492,-1776.494261,1915.238745
1380.939174,-5551.544565,-888.247130,-153.219100
1380.939495,-9400.615463,-2738.761985,-229.828649
1380.939816,-8142.265362,74.020594,2298.286494
1380.940137,-9030.512492,-1702.473667,3217.601092
1380.940458,-8808.450710,-2146.597232,995.924147
1380.940779,-9252.574275,-518.144159,2145.067394
1380.941099,-9622.677246,-444.123565,1225.752797
1380.941420,-11769.274478,1258.350101,4749.792088
1380.941741,-9622.677246,296.082377,3370.820191
1380.942062,-9844.739029,-1554.432478,842.705048
1380.942383,-9474.636058,-2368.659014,-1072.533697
1380.942704,-7698.141797,-1110.308913,-1685.410096
1380.943024,-11177.109724,-370.102971,689.485948
1380.943345,-8660.409521,740.205942,766.095498
1380.943666,-8956.491898,-1036.288319,-919.314598
1380.943987,-10214.842000,-1924.535449,-1072.533697
1380.944308,-8808.450710,-888.247130,-1225.752797
1380.944629,-11769.274478,-1184.329507,1378.971896
1380.944949,-10362.883188,296.082377,2911.162892
1380.945270,-9918.759623,-2146.597232,-1532.190996
1380.945591,-7105.977043,-1332.370696,-4826.401637
1380.945912,-6735.874072,592.164754,-4903.011187
1380.946233,-9844.739029,4959.379811,-536.266849
1380.946554,-11917.315666,3182.885551,2757.943793
1380.946874,-11621.233289,148.041188,2604.724693
1380.947195,-10807.006753,-2368.659014,612.876398
1380.947516,-10807.006753,-3404.947333,153.219100
1380.947837,-13175.665768,-444.123565,3753.867940
1380.948158,-9030.512492,0.000000,3217.601092
1380.948479,-8882.471304,-444.123565,0.000000
1380.948799,-6809.894666,-888.247130,-2298.286494
1380.949120,-6587.832884,592.164754,-229.828649
1380.949441,-10807.006753,-592.164754,689.485948
1380.949762,-9252.574275,444.123565,2528.115143
1380.950083,-10066.800811,-814.226536,2145.067394
1380.950404,-10214.842000,-1776.494261,1532.190996
1380.950724,-9400.615463,0.000000,2298.286494
1380.951045,-12509.480420,-962.267725,4443.353888
1380.951366,-9548.656652,740.205942,4749.792088
1380.951687,-9844.739029,-1110.308913,1685.410096
1380.952008,-8882.471304,-2072.576638,-306.438199
1380.952329,-5995.668130,592.164754,-1072.533697
1380.952649,-11547.212695,370.102971,2298.286494
1380.952970,-8364.327145,1776.494261,2911.162892
1380.953291,-9326.594869,-888.247130,1915.238745
1380.953612,-9474.636058,-1628.453072,2298.286494
1380.953933,-8882.471304,-1924.535449,1915.238745
1380.954254,-12139.377449,-2072.576638,4979.620737
1380.954574,-10362.883188,-814.226536,4673.182538
1380.954895,-9548.656652,-1184.329507,1225.752797
1380.955216,-9104.533087,0.000000,-153.219100
1380.955537,-7920.203579,2886.803174,0.000000
1380.955858,-11769.274478,2072.576638,1532.190996
1380.956179,-9474.636058,1332.370696,2068.457845
1380.956499,-8734.430116,-1480.411884,0.000000
1380.956820,-9400.615463,-2146.597232,-383.047749
1380.957141,-9548.656652,-148.041188,612.876398
1380.957462,-13175.665768,1184.329507,4443.353888
1380.957783,-9844.739029,2072.576638,4596.572988
1380.958104,-9844.739029,-1332.370696,766.095498
1380.958424,-9474.636058,-2442.679609,-1072.533697
1380.958745,-7105.977043,-1628.453072,-2604.724693
1380.959066,-10584.944971,1628.453072,1378.971896
1380.959387,-9918.759623,2812.782580,3753.867940
1380.959708,-9622.677246,-370.102971,1685.410096
1380.960029,-9770.718434,-3182.885551,229.828649
1380.960349,-8956.491898,-3478.967927,-1302.362347
1380.960670,-10955.047942,-444.123565,536.266849
1380.960991,-11325.150913,1110.308913,2298.286494
1380.961312,-7254.018232,1480.411884,-1685.410096
1380.961633,-7550.100608,-222.061783,-2604.724693
1380.961954,-6883.915261,1258.350101,-4136.915689
1380.962274,-10288.862594,74.020594,-536.266849
1380.962595,-10288.862594,-740.205942,1532.190996
1380.962916,-10658.965565,-2368.659014,689.485948
1380.963237,-10214.842000,-1554.432478,0.000000
1380.963558,-10066.800811,-74.020594,1608.800546
1380.963879,-11399.171507,814.226536,3447.429741
1380.964199,-10066.800811,740.205942,2987.772442
1380.964520,-9326.594869,-1258.350101,-306.438199
1380.964841,-8142.265362,-1702.473667,-2451.505594
1380.965162,-7624.121203,-296.082377,-2145.067394
1380.965483,-10807.006753,666.185348,1685.410096
1380.965803,-10658.965565,296.082377,2068.457845
1380.966124,-8438.347739,-1258.350101,-306.438199
1380.966445,-9622.677246,148.041188,0.000000
1380.966766,-10807.006753,296.082377,2451.505594
1380.967087,-11843.295072,74.020594,5439.278036
1380.967408,-11399.171507,-1776.494261,4673.182538
1380.967728,-9992.780217,-962.267725,2911.162892
1380.968049,-10066.800811,-1998.556043,383.047749
1380.968370,-8660.409521,-222.061783,766.095498
1380.968691,-9992.780217,592.164754,2451.505594
1380.969012,-8660.409521,-592.164754,1149.143247
1380.969333,-8956.491898,-1184.329507,1225.752797
1380.969653,-10362.883188,-2146.597232,612.876398
1380.969974,-8808.450710,74.020594,1532.190996
1380.970295,-12213.398043,222.061783,5056.230287
1380.970616,-9770.718434,1184.329507,4749.792088
1380.970937,-8364.327145,-962.267725,1378.971896
1380.971258,-8734.430116,-1998.556043,-995.924147
1380.971578,-4737.318029,2294.638420,-1455.581446
1380.971899,-10955.047942,222.061783,153.219100
1380.972220,-7772.162391,3034.844362,1838.629195
1380.972541,-9178.553681,0.000000,1455.581446
1380.972862,-9844.739029,-1998.556043,689.485948
1380.973183,-9400.615463,-444.123565,2604.724693
1380.973503,-13175.665768,-1184.329507,4903.011187
1380.973824,-10066.800811,-814.226536,5286.058936
1380.974145,-9474.636058,-2294.638420,1455.581446
1380.974466,-8808.450710,-1332.370696,306.438199
1380.974787,-7179.997637,-814.226536,-1838.629195
1380.975108,-9104.533087,444.123565,995.924147
1380.975428,-8808.450710,0.000000,1608.800546
1380.975749,-9252.574275,-1110.308913,0.000000
1380.976070,-10362.883188,-2146.597232,-766.095498
1380.976391,-9696.697840,-814.226536,0.000000
1380.976712,-11695.253884,222.061783,2451.505594
1380.977033,-10066.800811,-2146.597232,1072.533697
1380.977353,-7105.977043,1406.391290,-2145.067394
1380.977674,-10436.903782,1184.329507,-1608.800546
1380.977995,-8808.450710,2072.576638,-1149.143247
1380.978316,-8808.450710,1554.432478,306.438199
1380.978637,-11251.130318,0.000000,766.095498
1380.978958,-9104.533087,-296.082377,76.609550
1380.979278,-8956.491898,-2442.679609,-2298.286494
1380.979599,-10584.944971,740.205942,2298.286494
1380.979920,-9992.780217,-148.041188,1455.581446
1380.980241,-11843.295072,518.144159,2987.772442
1380.980562,-9030.512492,-2294.638420,1685.410096
1380.980883,-8734.430116,-2072.576638,-2451.505594
1380.981203,-8438.347739,814.226536,-1762.019645
1380.981524,-10140.821405,1332.370696,306.438199
1380.981845,-6513.812290,2368.659014,536.266849
1380.982166,-10140.821405,148.041188,-153.219100
1380.982487,-9104.533087,-740.205942,919.314598
1380.982808,-9400.615463,-1332.370696,1838.629195
1380.983128,-13397.727550,-1258.350101,5669.106685
1380.983449,-11251.130318,-666.185348,5209.449386
1380.983770,-10140.821405,-1332.370696,3753.867940
1380.984091,-9474.636058,-2590.720797,-153.219100
1380.984412,-6809.894666,1406.391290,-459.657299
1380.984733,-9474.636058,962.267725,0.000000
1380.985053,-7994.224174,2146.597232,1149.143247
1380.985374,-9696.697840,0.000000,3447.429741
1380.985695,-9030.512492,-2368.659014,-612.876398
1380.986016,-9696.697840,-592.164754,1838.629195
1380.986337,-11621.233289,-592.164754,5056.230287
1380.986658,-11843.295072,-888.247130,5362.668486
1380.986978,-10436.903782,-1554.432478,3140.991542
1380.987299,-9030.512492,-1776.494261,919.314598
1380.987620,-8660.409521,444.123565,76.609550
1380.987941,-10584.944971,1480.411884,2221.676944
1380.988262,-8808.450710,962.267725,2528.115143
1380.988583,-8068.244768,-444.123565,-229.828649
1380.988903,-8438.347739,-1184.329507,536.266849
1380.989224,-8364.327145,-3256.906145,153.219100
1380.989545,-11473.192101,-1110.308913,4366.744339
1380.989866,-11917.315666,-2294.638420,4290.134789
1380.990187,-9474.636058,-962.267725,2834.553343
1380.990508,-9992.780217,-962.267725,919.314598
1380.990828,-8364.327145,888.247130,76.609550
1380.991149,-10584.944971,2072.576638,1838.629195
1380.991470,-9030.512492,518.144159,766.095498
1380.991791,-7846.182985,-1258.350101,-1072.533697
1380.992112,-9326.594869,-2368.659014,-3140.991542
1380.992433,-7846.182985,-1332.370696,-1149.143247
1380.992753,-11843.295072,-888.247130,1915.238745
1380.993074,-10436.903782,1332.370696,2987.772442
1380.993395,-10732.986159,-962.267725,1149.143247
1380.993716,-9178.553681,-592.164754,-612.876398
1380.994037,-9178.553681,-1184.329507,-1149.143247
1380.994358,-10362.883188,-1332.370696,0.000000
1380.994678,-9548.656652,888.247130,1762.019645
1380.994999,-9326.594869,-1702.473667,76.609550
1380.995320,-8660.409521,-1184.329507,76.609550
1380.995641,-9918.759623,-1184.329507,919.314598
1380.995962,-11473.192101,-740.205942,2068.457845
1380.996283,-10584.944971,0.000000,1532.190996
1380.996603,-9400.615463,148.041188,-383.047749
1380.996924,-7772.162391,222.061783,-2528.115143
1380.997245,-7846.182985,1554.432478,-2451.505594
1380.997566,-11103.089130,1628.453072,536.266849
1380.997887,-8734.430116,-518.144159,-612.876398
1380.998208,-9104.533087,-2812.782580,-689.485948
1380.998528,-9844.739029,-2812.782580,0.000000
1380.998849,-9844.739029,-888.247130,1302.362347
1380.999170,-13027.624579,888.247130,4903.011187
1380.999491,-10955.047942,592.164754,4673.182538
1380.999812,-8586.388927,0.000000,383.047749
1381.000133,-10362.883188,-1036.288319,-766.095498
1381.000453,-7846.182985,888.247130,-995.924147
1381.000774,-10288.862594,962.267725,842.705048
1381.001095,-9252.574275,1036.288319,2221.676944
1381.001416,-8512.368333,74.020594,459.657299
1381.001737,-10362.883188,-1850.514855,383.047749
1381.002058,-9622.677246,888.247130,-306.438199
1381.002378,-11547.212695,1036.288319,3370.820191
1381.002699,-11177.109724,1628.453072,4826.401637
1381.003020,-9696.697840,0.000000,2068.457845
1381.003341,-9326.594869,444.123565,306.438199
1381.003662,-8290.306550,962.267725,995.924147
1381.003983,-11473.192101,74.020594,2298.286494
1381.004303,-7772.162391,888.247130,3217.601092
1381.004624,-8956.491898,-2516.700203,536.266849
1381.004945,-8882.471304,0.000000,1302.362347
1381.005266,-10955.047942,-666.185348,2604.724693
1381.005587,-10881.027347,1184.329507,4366.744339
1381.005908,-10955.047942,296.082377,4290.134789
1381.006228,-8216.285956,0.000000,2987.772442
1381.006549,-9548.656652,-2664.741391,306.438199
1381.006870,-7254.018232,-1184.329507,-995.924147
1381.007191,-8364.327145,0.000000,229.828649
1381.007512,-8512.368333,666.185348,995.924147
1381.007833,-8808.450710,0.000000,229.828649
1381.008153,-9474.636058,-2368.659014,-919.314598
1381.008474,-8586.388927,-814.226536,-383.047749
1381.008795,-11399.171507,148.041188,1991.848295
1381.009116,-11251.130318,222.061783,4826.401637
1381.009437,-10214.842000,-1332.370696,1991.848295
1381.009758,-9770.718434,-1776.494261,-536.266849
1381.010078,-7698.141797,-740.205942,-2757.943793
1381.010399,-7550.100608,740.205942,306.438199
1381.010720,-8734.430116,1850.514855,1225.752797
1381.011041,-8882.471304,222.061783,-919.314598
1381.011362,-9474.636058,-740.205942,-842.705048
1381.011683,-9030.512492,-518.144159,153.219100
1381.012003,-12435.459826,-666.185348,3140.991542
1381.012324,-13175.665768,0.000000,4519.963438
1381.012645,-10584.944971,-1258.350101,2987.772442
1381.012966,-8512.368333,-1480.411884,-536.266849
1381.013287,-7402.059420,222.061783,-2604.724693
1381.013608,-9474.636058,518.144159,76.609550
1381.013928,-9104.533087,592.164754,1532.190996
1381.014249,-8216.285956,-888.247130,-153.219100
1381.014570,-8660.409521,-2738.761985,-1302.362347
1381.014891,-8438.347739,-2072.576638,0.000000
1381.015212,-11991.336260,-1406.391290,2987.772442
1381.015533,-11621.233289,0.000000,4826.401637
1381.015853,-9918.759623,-518.144159,3524.039291
1381.016174,-10732.986159,-2072.576638,1685.410096
1381.016495,-8068.244768,-1628.453072,0.000000
1381.016816,-9770.718434,-888.247130,459.657299
1381.017137,-9400.615463,148.041188,1532.190996
1381.017458,-8290.306550,1036.288319,1072.533697
1381.017778,-9474.636058,-814.226536,-689.485948
1381.018099,-7846.182985,0.000000,76.609550
1381.018420,-11251.130318,-592.164754,2757.943793
1381.018741,-12435.459826,-4219.173869,4903.011187
1381.019062,-9252.574275,-3256.906145,2528.115143
1381.019383,-11547.212695,-3330.926739,1915.238745
1381.019703,-9474.636058,814.226536,1072.533697
1381.020024,-10807.006753,2664.741391,2451.505594
1381.020345,-10807.006753,2442.679609,3447.429741
1381.020666,-7328.038826,-148.041188,0.000000
1381.020987,-8660.409521,-1406.391290,-1225.752797
1381.021308,-8808.450710,-1702.473667,1225.752797
1381.021628,-9474.636058,296.082377,1838.629195
1381.021949,-11621.233289,-148.041188,4903.011187
1381.022270,-9770.718434,-1184.329507,2834.553343
1381.022591,-9104.533087,-1776.494261,766.095498
1381.022912,-9252.574275,-740.205942,-536.266849
1381.023233,-10362.883188,1628.453072,1915.238745
1381.023553,-9844.739029,2516.700203,3294.210641
1381.023874,-10584.944971,74.020594,1302.362347
1381.024195,-8142.265362,-888.247130,-612.876398
1381.024516,-7994.224174,-370.102971,-459.657299
1381.024837,-10881.027347,-1184.329507,1532.190996
1381.025158,-9400.615463,962.267725,2298.286494
1381.025478,-8734.430116,-814.226536,-689.485948
1381.025799,-8438.347739,-740.205942,-2834.553343
1381.026120,-7105.977043,2516.700203,-3600.648841
1381.026441,-11103.089130,2442.679609,689.485948
1381.026762,-10955.047942,1924.535449,3524.039291
1381.027083,-9770.718434,-222.061783,2528.115143
1381.027403,-12065.356855,-4663.297435,536.266849
1381.027724,-9474.636058,-2738.761985,0.000000
1381.028045,-10584.944971,592.164754,2374.896044
1381.028366,-11325.150913,296.082377,2451.505594
1381.028687,-6735.874072,2516.700203,229.828649
1381.029008,-9400.615463,-666.185348,-2528.115143
1381.029328,-6661.853478,740.205942,-3677.258390
1381.029649,-10436.903782,1258.350101,-689.485948
1381.029970,-11473.192101,1258.350101,3140.991542
1381.030291,-9548.656652,-888.247130,1302.362347
1381.030612,-9548.656652,-2220.617826,459.657299
1381.030933,-9548.656652,-1554.432478,2068.457845
1381.031253,-12139.377449,0.000000,4443.353888
1381.031574,-12731.542202,592.164754,7354.516781
1381.031895,-9918.759623,-1924.535449,2681.334243
1381.032216,-8956.491898,-666.185348,-1149.143247
1381.032537,-7328.038826,-296.082377,-2911.162892
1381.032858,-8660.409521,3182.885551,-1378.971896
1381.033178,-8808.450710,2812.782580,1532.190996
1381.033499,-6957.935855,666.185348,536.266849
1381.033820,-10362.883188,-2146.597232,229.828649
1381.034141,-9178.553681,-1628.453072,76.609550
1381.034462,-13397.727550,-1554.432478,4519.963438
1381.034783,-11843.295072,148.041188,6052.154434
1381.035103,-9770.718434,0.000000,4519.963438
1381.035424,-10214.842000,-1332.370696,842.705048
1381.035745,-7772.162391,-444.123565,0.000000
1381.036066,-8068.244768,666.185348,766.095498
1381.036387,-11547.212695,-1406.391290,2451.505594
1381.036707,-6957.935855,-1110.308913,689.485948
1381.037028,-10066.800811,-2368.659014,-459.657299
1381.037349,-7624.121203,370.102971,306.438199
1381.037670,-11103.089130,1036.288319,3753.867940
1381.037991,-11843.295072,-666.185348,5822.325785
1381.038311,-8364.327145,-1332.370696,3064.381992
1381.038632,-9992.780217,-2960.823768,0.000000
1381.038953,-7920.203579,-1924.535449,-995.924147
1381.039274,-9548.656652,1036.288319,1455.581446
1381.039595,-10732.986159,1110.308913,3524.039291
1381.039915,-7402.059420,592.164754,-689.485948
1381.040236,-10288.862594,-1628.453072,-459.657299
1381.040557,-8216.285956,-2146.597232,-766.095498
1381.040878,-10955.047942,-1776.494261,1302.362347
1381.041199,-12139.377449,-2146.597232,4136.915689
1381.041519,-9548.656652,-444.123565,1915.238745
1381.041840,-9992.780217,-1628.453072,-612.876398
1381.042161,-6957.935855,-518.144159,-2068.457845
1381.042482,-9030.512492,888.247130,-842.705048
1381.042803,-10955.047942,1258.350101,536.266849
1381.043124,-7624.121203,518.144159,-1762.019645
1381.043444,-9770.718434,-592.164754,-2298.286494
1381.043765,-8142.265362,-222.061783,-1455.581446
1381.044086,-11695.253884,666.185348,919.314598
1381.044407,-12583.501014,74.020594,3830.477490
1381.044728,-9030.512492,0.000000,1072.533697
1381.045048,-10658.965565,-296.082377,0.000000
1381.045369,-9030.512492,518.144159,-1378.971896
1381.045690,-9326.594869,1776.494261,0.000000
1381.046011,-11251.130318,1036.288319,3370.820191
1381.046332,-8290.306550,-1036.288319,1378.971896
1381.046652,-8956.491898,-3552.988522,-612.876398
1381.046973,-8216.285956,-3108.864956,-995.924147
1381.047294,-10362.883188,666.185348,2298.286494
1381.047615,-12361.439231,1258.350101,5439.278036
1381.047936,-8956.491898,2072.576638,3907.087040
1381.048256,-9918.759623,-1480.411884,383.047749
1381.048577,-8364.327145,0.000000,-1915.238745
1381.048898,-9696.697840,1850.514855,919.314598
1381.049219,-10436.903782,1850.514855,3140.991542
1381.049540,-9030.512492,1554.432478,2451.505594
1381.049860,-10436.903782,-1110.308913,689.485948
1381.050181,-8808.450710,-1110.308913,0.000000
1381.050502,-9474.636058,-1110.308913,1915.238745
1381.050823,-11251.130318,-1480.411884,3830.477490
1381.051144,-7846.182985,-1924.535449,1838.629195
1381.051464,-9474.636058,-2368.659014,766.095498
1381.051785,-7031.956449,-2368.659014,-919.314598
1381.052106,-7994.224174,-666.185348,1838.629195
1381.052427,-12361.439231,-2294.638420,4826.401637
1381.052748,-9030.512492,0.000000,2604.724693
1381.053068,-9918.759623,-888.247130,2068.457845
1381.053389,-8956.491898,-1776.494261,536.266849
1381.053710,-8734.430116,296.082377,1991.848295
1381.054031,-12583.501014,-2072.576638,2374.896044
1381.054352,-7846.182985,222.061783,995.924147
1381.054672,-9918.759623,-2220.617826,-1532.190996
1381.054993,-7846.182985,-1036.288319,-1532.190996
1381.055314,-8364.327145,148.041188,842.705048
1381.055635,-11769.274478,666.185348,2221.676944
1381.055956,-8438.347739,518.144159,1455.581446
1381.056277,-10214.842000,-1332.370696,-766.095498
1381.056597,-9474.636058,-1258.350101,-383.047749
1381.056918,-10140.821405,-222.061783,1762.019645
1381.057239,-11843.295072,-296.082377,3677.258390
1381.057560,-8956.491898,444.123565,1072.533697
1381.057881,-10510.924376,-518.144159,-1685.410096
1381.058201,-7105.977043,814.226536,-3140.991542
1381.058522,-9178.553681,2072.576638,-919.314598
1381.058843,-11917.315666,962.267725,1915.238745
1381.059164,-9326.594869,0.000000,689.485948
1381.059485,-10510.924376,-2368.659014,-536.266849
1381.059805,-8956.491898,-296.082377,-459.657299
1381.060126,-11177.109724,444.123565,2068.457845
1381.060447,-12139.377449,1036.288319,3830.477490
1381.060768,-8142.265362,296.082377,1149.143247
1381.061089,-9030.512492,-1258.350101,-2068.457845
1381.061409,-7846.182985,-1110.308913,-1225.752797
1381.061730,-9252.574275,-814.226536,459.657299
1381.062051,-11103.089130,-370.102971,2604.724693
1381.062372,-8364.327145,-518.144159,1991.848295
1381.062693,-9844.739029,-1184.329507,612.876398
1381.063013,-8364.327145,-1480.411884,1225.752797
1381.063334,-10510.924376,-2146.597232,2451.505594
1381.063655,-10955.047942,-148.041188,5056.230287
1381.063976,-9474.636058,-2146.597232,2757.943793
1381.064297,-8956.491898,-592.164754,919.314598
1381.064617,-8364.327145,-666.185348,76.609550
1381.064938,-8216.285956,888.247130,995.924147
1381.065259,-11547.212695,2072.576638,3447.429741
1381.065580,-8808.450710,1332.370696,1532.190996
1381.065901,-8586.388927,-1480.411884,-459.657299
1381.066221,-6957.935855,-1480.411884,-1762.019645
1381.066542,-11547.212695,1332.370696,2221.676944
1381.066863,-11473.192101,2738.761985,3907.087040
1381.067184,-10510.924376,1924.535449,6435.202183
1381.067505,-11621.233289,-2738.761985,3447.429741
1381.067825,-9030.512492,-2220.617826,2221.676944
1381.068146,-8586.388927,0.000000,1915.238745
1381.068467,-10955.047942,0.000000,2451.505594
1381.068788,-4811.338623,3478.967927,612.876398
1381.069109,-8586.388927,1776.494261,-919.314598
1381.069429,-6365.771101,814.226536,-536.266849
1381.069750,-8216.285956,1776.494261,-306.438199
1381.070071,-11991.336260,148.041188,2528.115143
1381.070392,-9770.718434,-740.205942,2987.772442
1381.070713,-11695.253884,-2738.761985,1072.533697
1381.071034,-9918.759623,-370.102971,1072.533697
1381.071354,-9622.677246,1258.350101,1149.143247
1381.071675,-10881.027347,814.226536,2528.115143
1381.071996,-9696.697840,222.061783,1685.410096
1381.072317,-10436.903782,-1850.514855,-536.266849
1381.072638,-7698.141797,-1480.411884,-3524.039291
1381.072958,-9030.512492,74.020594,-689.485948
1381.073279,-10658.965565,0.000000,1685.410096
1381.073600,-8882.471304,-666.185348,536.266849
1381.073921,-10807.006753,-2516.700203,-536.266849
1381.074242,-8438.347739,-1850.514855,-2068.457845
1381.074562,-9844.739029,-444.123565,-536.266849
1381.074883,-11917.315666,814.226536,2604.724693
1381.075204,-9474.636058,2368.659014,1225.752797
1381.075525,-9918.759623,-222.061783,-689.485948
1381.075846,-8068.244768,74.020594,-1762.019645
1381.076166,-9030.512492,0.000000,-995.924147
1381.076487,-13323.706956,-962.267725,2145.067394
1381.076808,-9104.533087,-1184.329507,2145.067394
1381.077129,-10584.944971,-2442.679609,229.828649
1381.077450,-7994.224174,-962.267725,-766.095498
1381.077770,-7772.162391,1036.288319,612.876398
1381.078091,-10288.862594,1332.370696,2834.553343
1381.078412,-8438.347739,-666.185348,1762.019645
1381.078733,-9030.512492,-2886.803174,-383.047749
1381.079054,-7179.997637,-2368.659014,-1302.362347
1381.079374,-9178.553681,-1406.391290,1149.143247
1381.079695,-11399.171507,666.185348,5132.839837
1381.080016,-10807.006753,370.102971,5056.230287
1381.080337,-11177.109724,-518.144159,2681.334243
1381.080658,-8364.327145,-444.123565,1991.848295
1381.080978,-9918.759623,-1184.329507,2068.457845
1381.081299,-11029.068536,-370.102971,3370.820191
1381.081620,-9474.636058,74.020594,2911.162892
1381.081941,-8956.491898,0.000000,842.705048
1381.082262,-7476.080014,-888.247130,-306.438199
1381.082582,-9474.636058,-962.267725,1302.362347
1381.082903,-11325.150913,-814.226536,3753.867940
1381.083224,-9770.718434,-962.267725,3370.820191
1381.083545,-11029.068536,-1628.453072,2757.943793
1381.083866,-9622.677246,-1480.411884,1762.019645
1381.084187,-9622.677246,74.020594,766.095498
1381.084507,-12731.542202,1036.288319,3830.477490
1381.084828,-8734.430116,2442.679609,2834.553343
1381.085149,-9770.718434,-1036.288319,995.924147
1381.085470,-8068.244768,-2220.617826,-1149.143247
1381.085791,-8290.306550,-1480.411884,-766.095498
1381.086111,-11473.192101,-1110.308913,2757.943793
1381.086432,-8438.347739,296.082377,1532.190996
1381.086753,-9252.574275,296.082377,689.485948
1381.087074,-8808.450710,518.144159,-612.876398
1381.087395,-9104.533087,1332.370696,1302.362347
1381.087715,-12139.377449,-518.144159,3830.477490
1381.088036,-9178.553681,-1258.350101,2528.115143
1381.088357,-10658.965565,-2516.700203,842.705048
1381.088678,-9326.594869,-2516.700203,-842.705048
1381.088999,-8882.471304,-370.102971,-306.438199
1381.089319,-10288.862594,-148.041188,842.705048
1381.089640,-7476.080014,1924.535449,0.000000
1381.089961,-9770.718434,74.020594,-1225.752797
1381.090282,-8586.388927,-666.185348,-2145.067394
1381.090603,-8142.265362,1702.473667,-1915.238745
1381.090923,-12509.480420,74.020594,2298.286494
1381.091244,-9474.636058,814.226536,2298.286494
1381.091565,-10658.965565,-2368.659014,-766.095498
1381.091886,-8956.491898,-2072.576638,-1072.533697
1381.092207,-8586.388927,370.102971,-1608.800546
1381.092527,-11695.253884,592.164754,1608.800546
1381.092848,-8586.388927,1776.494261,1532.190996
1381.093169,-9104.533087,-592.164754,-1991.848295
1381.093490,-8512.368333,222.061783,-2145.067394
1381.093811,-9104.533087,1702.473667,153.219100
1381.094131,-13323.706956,444.123565,3753.867940
1381.094452,-9844.739029,-518.144159,2528.115143
1381.094773,-9918.759623,-2516.700203,1302.362347
1381.095094,-8808.450710,-3034.844362,-153.219100
1381.095415,-9696.697840,-1406.391290,1608.800546
1381.095735,-12361.439231,-222.061783,4749.792088
1381.096056,-9030.512492,888.247130,3064.381992
1381.096377,-9770.718434,-592.164754,383.047749
1381.096698,-8734.430116,-814.226536,-536.266849
1381.097019,-8808.450710,666.185348,-153.219100
1381.097340,-11177.109724,888.247130,2681.334243
1381.097660,-9178.553681,1702.473667,3140.991542
1381.097981,-9474.636058,-962.267725,1149.143247
1381.098302,-9548.656652,-1184.329507,919.314598
1381.098623,-8364.327145,-1036.288319,1915.238745
1381.098944,-11251.130318,0.000000,3217.601092
1381.099264,-8882.471304,1036.288319,3064.381992
1381.099585,-9696.697840,-222.061783,1455.581446
1381.099906,-8808.450710,-666.185348,229.828649
1381.100227,-7846.182985,888.247130,842.705048
1381.100548,-11399.171507,0.000000,3294.210641
1381.100868,-8364.327145,1110.308913,3447.429741
1381.101189,-11325.150913,-2886.803174,1838.629195
1381.101510,-8364.327145,-1554.432478,383.047749
1381.101831,-8808.450710,-148.041188,536.266849
1381.102152,-11325.150913,-1332.370696,2757.943793
1381.102472,-6291.750507,74.020594,229.828649
1381.102793,-8734.430116,-1480.411884,-1608.800546
1381.103114,-7698.141797,1554.432478,-2681.334243
1381.103435,-8586.388927,2072.576638,1225.752797
1381.103756,-12583.501014,-888.247130,4903.011187
1381.104076,-11177.109724,-1776.494261,5286.058936
1381.104397,-10140.821405,-4071.132681,1225.752797
1381.104718,-9548.656652,-3404.947333,0.000000
1381.105039,-8216.285956,0.000000,0.000000
1381.105360,-10140.821405,814.226536,1225.752797
1381.105680,-6809.894666,888.247130,0.000000
1381.106001,-7624.121203,74.020594,-2834.553343
1381.106322,-8290.306550,-1998.556043,-3294.210641
1381.106643,-9770.718434,-962.267725,-1838.629195
1381.106964,-13101.645173,1332.370696,3294.210641
1381.107284,-11547.212695,1036.288319,3140.991542
1381.107605,-11103.089130,666.185348,2068.457845
1381.107926,-10214.842000,-444.123565,0.000000
1381.108247,-9474.636058,1036.288319,-842.705048
1381.108568,-11547.212695,518.144159,1762.019645
1381.108888,-8808.450710,0.000000,1072.533697
1381.109209,-9030.512492,-1110.308913,-1455.581446
1381.109530,-8364.327145,-518.144159,-2298.286494
1381.109851,-8364.327145,1406.391290,306.438199
1381.110172,-12509.480420,-296.082377,3600.648841
1381.110492,-9622.677246,-666.185348,3064.381992
1381.110813,-10436.903782,-1332.370696,1838.629195
1381.111134,-10807.006753,-1628.453072,2834.553343
1381.111455,-9104.533087,-444.123565,2451.505594
1381.111776,-11843.295072,-296.082377,4290.134789
1381.112097,-9030.512492,0.000000,2451.505594
1381.112417,-8734.430116,370.102971,0.000000
1381.112738,-9104.533087,-740.205942,306.438199
1381.113059,-8068.244768,-814.226536,612.876398
1381.113380,-10214.842000,-296.082377,2911.162892
1381.113701,-9400.615463,-888.247130,3217.601092
1381.114021,-9474.636058,-1998.556043,459.657299
1381.114342,-8512.368333,-1258.350101,612.876398
1381.114663,-8882.471304,74.020594,1608.800546
1381.114984,-10214.842000,888.247130,3600.648841
1381.115305,-8808.450710,-222.061783,3447.429741
1381.115625,-9474.636058,-3034.844362,1455.581446
1381.115946,-8882.471304,-4071.132681,-306.438199
1381.116267,-7994.224174,-1406.391290,-229.828649
1381.116588,-11991.336260,888.247130,5056.230287
1381.116909,-9770.718434,2960.823768,4060.306139
1381.117229,-9918.759623,518.144159,2145.067394
1381.117550,-9030.512492,-1110.308913,229.828649
1381.117871,-8290.306550,-814.226536,-689.485948
1381.118192,-11029.068536,-1258.350101,2528.115143
1381.118513,-9474.636058,518.144159,2374.896044
1381.118833,-9326.594869,-1628.453072,689.485948
1381.119154,-7772.162391,-740.205942,-1532.190996
1381.119475,-9104.533087,666.185348,-689.485948
1381.119796,-11769.274478,444.123565,1685.410096
1381.120117,-10584.944971,1924.535449,2681.334243
1381.120437,-10732.986159,-296.082377,1225.752797
1381.120758,-8438.347739,-888.247130,-1378.971896
1381.121079,-8956.491898,-518.144159,-1608.800546
1381.121400,-10658.965565,740.205942,1302.362347
1381.121721,-9104.533087,592.164754,1455.581446
1381.122041,-10288.862594,-888.247130,0.000000
1381.122362,-9622.677246,-1480.411884,-1225.752797
1381.122683,-8216.285956,-518.144159,-1838.629195
1381.123004,-12065.356855,2368.659014,2221.676944
1381.123325,-10362.883188,2294.638420,2451.505594
1381.123645,-9178.553681,0.000000,766.095498
1381.123966,-9400.615463,-1332.370696,-1072.533697
1381.124287,-7402.059420,370.102971,76.609550
1381.124608,-13397.727550,-2368.659014,2987.772442
1381.124929,-9030.512492,-740.205942,1838.629195
1381.125250,-9178.553681,0.000000,536.266849
1381.125570,-9474.636058,0.000000,-689.485948
1381.125891,-8438.347739,2294.638420,459.657299
1381.126212,-11251.130318,740.205942,2604.724693
1381.126533,-9178.553681,222.061783,2145.067394
1381.126854,-8586.388927,-1702.473667,76.609550
1381.127174,-9474.636058,-2368.659014,153.219100
1381.127495,-8586.388927,-740.205942,1762.019645
1381.127816,-11029.068536,-2664.741391,4596.572988
1381.128137,-7994.224174,-962.267725,3370.820191
1381.128458,-9474.636058,-2368.659014,689.485948
1381.128778,-9474.636058,-1406.391290,0.000000
1381.129099,-8734.430116,1998.556043,612.876398
1381.129420,-11843.295072,2516.700203,4596.572988
1381.129741,-8882.471304,1332.370696,2987.772442
1381.130062,-9770.718434,-296.082377,766.095498
1381.130382,-9326.594869,-1850.514855,383.047749
1381.130703,-7476.080014,-1480.411884,0.000000
1381.131024,-11621.233289,-592.164754,2987.772442
1381.131345,-9844.739029,296.082377,3370.820191
1381.131666,-9104.533087,222.061783,1455.581446
1381.131986,-10584.944971,0.000000,229.828649
1381.132307,-7920.203579,962.267725,1072.533697
1381.132628,-11991.336260,-296.082377,3140.991542
1381.132949,-10140.821405,740.205942,3753.867940
1381.133270,-9770.718434,-1258.350101,2298.286494
1381.133590,-9918.759623,-4293.194464,153.219100
1381.133911,-6069.688724,-666.185348,-229.828649
1381.134232,-11547.212695,-592.164754,2221.676944
1381.134553,-8660.409521,1924.535449,2528.115143
1381.134874,-9474.636058,518.144159,1302.362347
1381.135194,-10214.842000,-296.082377,-306.438199
1381.135515,-7402.059420,0.000000,-612.876398
1381.135836,-11843.295072,-1258.350101,1838.629195
1381.136157,-9474.636058,0.000000,1302.362347
1381.136477,-9178.553681,-2294.638420,383.047749
1381.136798,-8808.450710,-1628.453072,0.000000
1381.137119,-8586.388927,-592.164754,459.657299
1381.137440,-11251.130318,-518.144159,1455.581446
1381.137760,-9474.636058,888.247130,2374.896044
1381.138081,-9326.594869,-2294.638420,-612.876398
1381.138402,-8364.327145,-1480.411884,-2681.334243
1381.138722,-7105.977043,-518.144159,-4290.134789
1381.139043,-9696.697840,2664.741391,383.047749
1381.139364,-9400.615463,2812.782580,3370.820191
1381.139685,-12287.418637,0.000000,3140.991542
1381.140005,-10881.027347,-2442.679609,2604.724693
1381.140326,-10807.006753,-3627.009116,-995.924147
1381.140647,-11843.295072,-666.185348,1455.581446
1381.140968,-9844.739029,1998.556043,1302.362347
1381.141288,-7254.018232,2664.741391,-919.314598
1381.141609,-8068.244768,2072.576638,-2451.505594
1381.141930,-5773.606348,1406.391290,-3370.820191
1381.142251,-9326.594869,-962.267725,-1685.410096
1381.142571,-11103.089130,-1406.391290,1378.971896
1381.142892,-9844.739029,-1110.308913,2145.067394
1381.143213,-11695.253884,-1554.432478,3524.039291
1381.143534,-10510.924376,-1184.329507,3370.820191
1381.143854,-10658.965565,-1258.350101,4060.306139
1381.144175,-10584.944971,-1702.473667,3524.039291
1381.144496,-8956.491898,-666.185348,2604.724693
1381.144817,-9104.533087,-814.226536,0.000000
1381.145137,-7920.203579,-148.041188,-919.314598
1381.145458,-9400.615463,962.267725,612.876398
1381.145779,-9992.780217,1258.350101,2911.162892
1381.146099,-10066.800811,-222.061783,2221.676944
1381.146420,-11103.089130,-1924.535449,1608.800546
1381.146741,-9326.594869,-814.226536,1378.971896
1381.147062,-12435.459826,-592.164754,2987.772442
1381.147382,-11029.068536,296.082377,4366.744339
1381.147703,-10881.027347,-1036.288319,3064.381992
1381.148024,-9474.636058,-1924.535449,689.485948
1381.148345,-7994.224174,0.000000,-612.876398
1381.148665,-7994.224174,814.226536,612.876398
1381.148986,-9104.533087,222.061783,2145.067394
1381.149307,-9104.533087,-296.082377,1302.362347
1381.149628,-8734.430116,-2960.823768,-995.924147
1381.149948,-6661.853478,-814.226536,-1532.190996
1381.150269,-9844.739029,148.041188,1149.143247
1381.150590,-10066.800811,740.205942,4060.306139
1381.150911,-10510.924376,-1110.308913,2911.162892
1381.151231,-10436.903782,-2368.659014,1532.190996
1381.151552,-8438.347739,-2368.659014,-766.095498
1381.151873,-9992.780217,666.185348,2068.457845
1381.152194,-11695.253884,1184.329507,3907.087040
1381.152514,-8956.491898,444.123565,1685.410096
1381.152835,-8660.409521,-296.082377,-1225.752797
1381.153156,-6809.894666,-2072.576638,-2451.505594
1381.153477,-9770.718434,-1258.350101,-1072.533697
1381.153797,-10288.862594,0.000000,2298.286494
1381.154118,-10140.821405,-148.041188,1378.971896
1381.154439,-9548.656652,-962.267725,153.219100
1381.154759,-7328.038826,-444.123565,-1378.971896
1381.155080,-10807.006753,-592.164754,536.266849
1381.155401,-10881.027347,370.102971,2221.676944
1381.155722,-10510.924376,148.041188,842.705048
1381.156042,-9474.636058,-592.164754,-689.485948
1381.156363,-7476.080014,592.164754,-2068.457845
1381.156684,-11177.109724,888.247130,306.438199
1381.157005,-9770.718434,1036.288319,3600.648841
1381.157325,-9622.677246,-296.082377,766.095498
1381.157646,-10066.800811,-2072.576638,-1225.752797
1381.157967,-7846.182985,0.000000,-1455.581446
1381.158288,-11917.315666,370.102971,2145.067394
1381.158608,-10807.006753,1258.350101,3907.087040
1381.158929,-9104.533087,518.144159,2681.334243
1381.159250,-9474.636058,-2294.638420,-536.266849
1381.159571,-6957.935855,74.020594,-459.657299
1381.159891,-11843.295072,-1702.473667,1608.800546
1381.160212,-10584.944971,-1554.432478,4903.011187
1381.160533,-9326.594869,-888.247130,1378.971896
1381.160854,-10955.047942,-592.164754,1302.362347
1381.161174,-9400.615463,1184.329507,-2451.505594
1381.161495,-11917.315666,1850.514855,2374.896044
1381.161816,-10658.965565,296.082377,2757.943793
1381.162137,-8660.409521,0.000000,0.000000
1381.162457,-8882.471304,222.061783,0.000000
1381.162778,-8512.368333,-888.247130,0.000000
1381.163099,-9252.574275,-222.061783,2068.457845
1381.163419,-10436.903782,0.000000,3064.381992
1381.163740,-8068.244768,0.000000,766.095498
1381.164061,-10288.862594,-1258.350101,612.876398
1381.164382,-7624.121203,1258.350101,-306.438199
1381.164702,-11325.150913,740.205942,2145.067394
1381.165023,-9844.739029,1406.391290,2374.896044
1381.165344,-7105.977043,1480.411884,459.657299
1381.165665,-10288.862594,-2220.617826,306.438199
1381.165985,-6809.894666,-370.102971,1072.533697
1381.166306,-10807.006753,-1184.329507,2911.162892
1381.166627,-10436.903782,-2072.576638,4366.744339
1381.166948,-8068.244768,-2072.576638,1532.190996
1381.167268,-10066.800811,-2220.617826,689.485948
1381.167589,-7254.018232,-370.102971,-459.657299
1381.167910,-10066.800811,1776.494261,1838.629195
1381.168231,-10807.006753,666.185348,3140.991542
1381.168551,-8586.388927,-1036.288319,1378.971896
1381.168872,-9400.615463,-3034.844362,306.438199
1381.169193,-7994.224174,-2368.659014,-229.828649
1381.169514,-10436.903782,-296.082377,3294.210641
1381.169834,-11103.089130,-370.102971,3753.867940
1381.170155,-8438.347739,-592.164754,1225.752797
1381.170476,-9622.677246,-1184.329507,-995.924147
1381.170797,-7476.080014,888.247130,-1455.581446
1381.171117,-12361.439231,1184.329507,1838.629195
1381.171438,-10955.047942,1924.535449,3447.429741
1381.171759,-9548.656652,-296.082377,1455.581446
1381.172079,-10436.903782,-2738.761985,-153.219100
1381.172400,-7920.203579,-1480.411884,-842.705048
1381.172721,-12213.398043,-518.144159,2145.067394
1381.173042,-9622.677246,1036.288319,3370.820191
1381.173362,-9622.677246,-888.247130,536.266849
1381.173683,-8808.450710,0.000000,-1302.362347
1381.174004,-7105.977043,592.164754,-2604.724693
1381.174325,-10362.883188,1480.411884,229.828649
1381.174645,-9548.656652,444.123565,1838.629195
1381.174966,-7994.224174,-444.123565,0.000000
1381.175287,-10436.903782,-1776.494261,1838.629195
1381.175608,-9178.553681,-2368.659014,2068.457845
1381.175928,-12879.583391,-1998.556043,5669.106685
1381.176249,-11917.315666,-3627.009116,5745.716235
1381.176570,-9400.615463,-2886.803174,0.000000
1381.176891,-8142.265362,-296.082377,-459.657299
1381.177211,-6661.853478,1258.350101,-2451.505594
1381.177532,-8438.347739,3034.844362,-612.876398
1381.177853,-8808.450710,1110.308913,0.000000
1381.178174,-7476.080014,-740.205942,-1149.143247
1381.178494,-9474.636058,-2516.700203,-1072.533697
1381.178815,-9844.739029,-2368.659014,153.219100
1381.179136,-11843.295072,0.000000,3677.258390
1381.179457,-11695.253884,1480.411884,5439.278036
1381.179777,-9326.594869,814.226536,2757.943793
1381.180098,-10362.883188,-814.226536,1302.362347
1381.180419,-7328.038826,0.000000,-842.705048
1381.180739,-10362.883188,74.020594,612.876398
1381.181060,-9474.636058,666.185348,2068.457845
1381.181381,-8438.347739,296.082377,766.095498
1381.181702,-10140.821405,-1924.535449,536.266849
1381.182022,-8586.388927,-1110.308913,306.438199
1381.182343,-11029.068536,-370.102971,2451.505594
1381.182664,-10881.027347,518.144159,4519.963438
1381.182985,-9696.697840,0.000000,2604.724693
1381.183305,-10436.903782,-740.205942,1915.238745
1381.183626,-9400.615463,0.000000,1225.752797
1381.183947,-11399.171507,888.247130,1225.752797
1381.184268,-10436.903782,1036.288319,2451.505594
1381.184588,-8364.327145,592.164754,766.095498
1381.184909,-9696.697840,-2516.700203,-919.314598
1381.185230,-5551.544565,666.185348,-2451.505594
1381.185551,-11843.295072,148.041188,689.485948
1381.185871,-9252.574275,1258.350101,1762.019645
1381.186192,-9400.615463,1480.411884,1685.410096
1381.186513,-10140.821405,-2368.659014,459.657299
1381.186834,-7179.997637,-1110.308913,-1991.848295
1381.187154,-11621.233289,-740.205942,1685.410096
1381.187475,-11399.171507,74.020594,2987.772442
1381.187796,-9178.553681,814.226536,1302.362347
1381.188116,-10510.924376,666.185348,612.876398
1381.188437,-7550.100608,444.123565,-536.266849
1381.188758,-9918.759623,74.020594,0.000000
1381.189079,-9844.739029,-962.267725,536.266849
1381.189399,-7846.182985,-1110.308913,-766.095498
1381.189720,-10658.965565,-1110.308913,-689.485948
1381.190041,-8586.388927,-296.082377,-1302.362347
1381.190362,-9844.739029,1924.535449,1302.362347
1381.190682,-11251.130318,666.185348,3294.210641
1381.191003,-9696.697840,-1702.473667,2374.896044
1381.191324,-10214.842000,-3627.009116,1225.752797
1381.191645,-8142.265362,-2960.823768,-229.828649
1381.191965,-10955.047942,-1776.494261,1149.143247
1381.192286,-9474.636058,222.061783,3677.258390
1381.192607,-8956.491898,-740.205942,1532.190996
1381.192928,-9844.739029,-1850.514855,-536.266849
1381.193248,-6809.894666,-592.164754,-306.438199
1381.193569,-9992.780217,-370.102971,76.609550
1381.193890,-10066.800811,1258.350101,2298.286494
1381.194211,-9252.574275,1924.535449,1302.362347
1381.194531,-10732.986159,-666.185348,1072.533697
1381.194852,-7476.080014,74.020594,383.047749
1381.195173,-11177.109724,-1924.535449,2068.457845
1381.195494,-10436.903782,0.000000,4060.306139
1381.195814,-10658.965565,-814.226536,2911.162892
1381.196135,-11251.130318,370.102971,2068.457845
1381.196456,-8882.471304,888.247130,612.876398
1381.196776,-9252.574275,1332.370696,1149.143247
1381.197097,-10436.903782,814.226536,2528.115143
1381.197418,-9104.533087,-296.082377,1838.629195
1381.197739,-8956.491898,148.041188,1302.362347
1381.198059,-8882.471304,-2220.617826,0.000000
1381.198380,-8660.409521,1184.329507,1762.019645
1381.198701,-11177.109724,518.144159,4443.353888
1381.199022,-10140.821405,-296.082377,2451.505594
1381.199342,-10066.800811,-2146.597232,1072.533697
1381.199663,-8068.244768,-1628.453072,-1072.533697
1381.199984,-8808.450710,370.102971,0.000000
1381.200305,-10140.821405,1628.453072,1455.581446
1381.200625,-9400.615463,1036.288319,842.705048
1381.200946,-9474.636058,-518.144159,-383.047749
1381.201267,-8142.265362,-1406.391290,-766.095498
1381.201588,-9992.780217,-2146.597232,536.266849
1381.201908,-11177.109724,-1924.535449,3370.820191
1381.202229,-9178.553681,-1554.432478,1532.190996
1381.202550,-9178.553681,-1406.391290,-229.828649
1381.202871,-8142.265362,148.041188,-1838.629195
1381.203191,-9770.718434,1850.514855,0.000000
1381.203512,-11251.130318,1702.473667,2298.286494
1381.203833,-9030.512492,518.144159,306.438199
1381.204154,-9992.780217,-888.247130,-689.485948
1381.204474,-9474.636058,888.247130,-612.876398
1381.204795,-10584.944971,1036.288319,383.047749
1381.205116,-10140.821405,1776.494261,3064.381992
1381.205436,-8956.491898,666.185348,1608.800546
1381.205757,-8882.471304,-148.041188,-1149.143247
1381.206078,-8882.471304,-888.247130,-1149.143247
1381.206399,-8808.450710,1776.494261,459.657299
1381.206719,-11251.130318,888.247130,3370.820191
1381.207040,-9252.574275,962.267725,2681.334243
1381.207361,-10140.821405,-2220.617826,1149.143247
1381.207682,-8142.265362,-2368.659014,0.000000
1381.208002,-10584.944971,-1776.494261,2298.286494
1381.208323,-10658.965565,-1110.308913,3983.696590
1381.208644,-8660.409521,-888.247130,2451.505594
1381.208965,-10214.842000,-1702.473667,153.219100
1381.209285,-7328.038826,814.226536,-689.485948
1381.209606,-10584.944971,1036.288319,383.047749
1381.209927,-9696.697840,814.226536,2604.724693
1381.210248,-9030.512492,-888.247130,0.000000
1381.210568,-9918.759623,-1998.556043,0.000000
1381.210889,-8438.347739,-1702.473667,229.828649
1381.211210,-11473.192101,222.061783,4060.306139
1381.211531,-12731.542202,518.144159,6741.640382
1381.211851,-10658.965565,-444.123565,5132.839837
1381.212172,-11769.274478,-2886.803174,2911.162892
1381.212493,-8216.285956,-2812.782580,0.000000
1381.212814,-8438.347739,-592.164754,-76.609550
1381.213134,-9548.656652,1406.391290,1685.410096
1381.213455,-5995.668130,1184.329507,-612.876398
1381.213776,-8438.347739,296.082377,-689.485948
1381.214096,-8512.368333,-1776.494261,-2451.505594
1381.214417,-8956.491898,-1480.411884,229.828649
1381.214738,-12361.439231,-1406.391290,3600.648841
1381.215059,-10066.800811,-444.123565,3983.696590
1381.215379,-11177.109724,-1850.514855,2604.724693
1381.215700,-9622.677246,-1036.288319,1225.752797
1381.216021,-8364.327145,-296.082377,306.438199
1381.216342,-10436.903782,-370.102971,1532.190996
1381.216662,-8142.265362,-814.226536,766.095498
1381.216983,-9326.594869,-2220.617826,-2068.457845
1381.217304,-7846.182985,-814.226536,-2145.067394
1381.217625,-9844.739029,222.061783,-842.705048
1381.217945,-10881.027347,2220.617826,2987.772442
1381.218266,-10436.903782,-814.226536,3447.429741
1381.218587,-10510.924376,-1554.432478,1302.362347
1381.218908,-8364.327145,-1554.432478,-766.095498
1381.219228,-10658.965565,148.041188,306.438199
1381.219549,-11769.274478,814.226536,2451.505594
1381.219870,-9252.574275,1998.556043,306.438199
1381.220191,-9622.677246,-296.082377,-842.705048
1381.220511,-6883.915261,222.061783,-2451.505594
1381.220832,-9474.636058,518.144159,-612.876398
1381.221153,-10955.047942,-592.164754,1455.581446
1381.221473,-7772.162391,888.247130,536.266849
1381.221794,-10288.862594,-296.082377,-306.438199
1381.222115,-8068.244768,-296.082377,-1455.581446
1381.222436,-10214.842000,740.205942,2068.457845
1381.222756,-12731.542202,518.144159,4673.182538
1381.223077,-9844.739029,-518.144159,2911.162892
1381.223398,-11177.109724,-1924.535449,2298.286494
1381.223719,-9622.677246,-1554.432478,1225.752797
1381.224039,-9770.718434,518.144159,1608.800546
1381.224360,-11399.171507,-592.164754,3370.820191
1381.224681,-6809.894666,-444.123565,1838.629195
1381.225002,-9252.574275,-4293.194464,-689.485948
1381.225322,-6735.874072,222.061783,-1378.971896
1381.225643,-11177.109724,-148.041188,1762.019645
1381.225964,-10362.883188,1850.514855,3677.258390
1381.226285,-9992.780217,3478.967927,4290.134789
1381.226605,-10732.986159,0.000000,2604.724693
1381.226926,-8142.265362,-814.226536,76.609550
1381.227247,-10214.842000,-814.226536,2145.067394
1381.227568,-11399.171507,-1480.411884,2834.553343
1381.227888,-7402.059420,0.000000,459.657299
1381.228209,-9844.739029,0.000000,612.876398
1381.228530,-6883.915261,1554.432478,-383.047749
1381.228851,-9400.615463,1554.432478,689.485948
1381.229171,-10436.903782,592.164754,3983.696590
1381.229492,-8438.347739,-888.247130,1608.800546
1381.229813,-10732.986159,-2590.720797,459.657299
1381.230133,-7105.977043,-592.164754,0.000000
1381.230454,-9844.739029,-296.082377,1915.238745
1381.230775,-10436.903782,1110.308913,4136.915689
1381.231096,-10214.842000,-666.185348,3524.039291
1381.231416,-10955.047942,-3478.967927,2145.067394
1381.231737,-8956.491898,-3552.988522,-306.438199
1381.232058,-9992.780217,518.144159,1685.410096
1381.232379,-12731.542202,814.226536,3294.210641
1381.232699,-7031.956449,592.164754,919.314598
1381.233020,-9844.739029,-1258.350101,-1532.190996
1381.233341,-8290.306550,-2368.659014,-2374.896044
1381.233662,-7698.141797,-1554.432478,-1302.362347
1381.233982,-11769.274478,-962.267725,2451.505594
1381.234303,-10510.924376,-370.102971,2145.067394
1381.234624,-10955.047942,-1924.535449,536.266849
1381.234944,-8586.388927,-1036.288319,-2221.676944
1381.235265,-9474.636058,370.102971,-612.876398
1381.235586,-11103.089130,888.247130,1991.848295
1381.235906,-9252.574275,1628.453072,766.095498
1381.236227,-9918.759623,-444.123565,-1225.752797
1381.236548,-7994.224174,-888.247130,-2834.553343
1381.236869,-9474.636058,740.205942,-1762.019645
1381.237189,-11843.295072,1258.350101,2451.505594
1381.237510,-9030.512492,370.102971,1455.581446
1381.237831,-9400.615463,-296.082377,153.219100
1381.238151,-7994.224174,-888.247130,-1838.629195
1381.238472,-9474.636058,666.185348,-306.438199
1381.238793,-11399.171507,2294.638420,3907.087040
1381.239113,-9474.636058,1036.288319,3830.477490
1381.239434,-9474.636058,-1110.308913,306.438199
1381.239755,-8586.388927,-1332.370696,-76.609550
1381.240075,-9474.636058,-962.267725,1302.362347
1381.240396,-10881.027347,-962.267725,4136.915689
1381.240717,-9030.512492,-740.205942,3447.429741
1381.241037,-9474.636058,-1258.350101,689.485948
1381.241358,-8142.265362,-1184.329507,-383.047749
1381.241679,-8512.368333,1036.288319,383.047749
1381.241999,-9548.656652,1258.350101,4979.620737
1381.242320,-9326.594869,592.164754,2681.334243
1381.242641,-9918.759623,-592.164754,2221.676944
1381.242961,-9548.656652,-2146.597232,1149.143247
1381.243282,-9548.656652,-370.102971,3600.648841
1381.243603,-12213.398043,-148.041188,4366.744339
1381.243923,-9030.512492,1036.288319,3294.210641
1381.244244,-10140.821405,-222.061783,1072.533697
1381.244565,-8290.306550,0.000000,0.000000
1381.244886,-7476.080014,444.123565,-229.828649
1381.245206,-9548.656652,74.020594,842.705048
1381.245527,-8438.347739,444.123565,-153.219100
1381.245848,-8290.306550,-518.144159,-1072.533697
1381.246168,-9770.718434,74.020594,229.828649
1381.246489,-10955.047942,888.247130,3447.429741
1381.246810,-13101.645173,-296.082377,6128.763984
1381.247130,-10658.965565,-1406.391290,4826.401637
1381.247451,-11843.295072,-2738.761985,3524.039291
1381.247772,-9178.553681,-444.123565,2374.896044
1381.248092,-9622.677246,-444.123565,2298.286494
1381.248413,-11103.089130,148.041188,3294.210641
1381.248734,-6513.812290,-1036.288319,-995.924147
1381.249054,-7179.997637,-1406.391290,-3370.820191
1381.249375,-6957.935855,-962.267725,-3830.477490
1381.249696,-7920.203579,296.082377,-2298.286494
1381.250016,-10658.965565,1258.350101,1608.800546
1381.250337,-9178.553681,666.185348,612.876398
1381.250658,-11029.068536,-2146.597232,-306.438199
1381.250978,-10214.842000,-2072.576638,766.095498
1381.251299,-9770.718434,-962.267725,459.657299
1381.251620,-11991.336260,1110.308913,2451.505594
1381.251941,-10214.842000,1702.473667,2068.457845
1381.252261,-9474.636058,-592.164754,-612.876398
1381.252582,-8882.471304,-1554.432478,-1685.410096
1381.252903,-9104.533087,-1554.432478,-1991.848295
1381.253223,-10066.800811,-962.267725,383.047749
1381.253544,-9030.512492,-222.061783,459.657299
1381.253865,-10288.862594,-666.185348,689.485948
1381.254185,-9104.533087,-888.247130,0.000000
1381.254506,-9622.677246,-1036.288319,1762.019645
1381.254827,-11843.295072,296.082377,2604.724693
1381.255147,-10732.986159,1406.391290,2451.505594
1381.255468,-11473.192101,-444.123565,2374.896044
1381.255789,-9474.636058,-1184.329507,1532.190996
1381.256109,-8586.388927,-518.144159,0.000000
1381.256430,-10362.883188,0.000000,1915.238745
1381.256751,-8512.368333,-1110.308913,1072.533697
1381.257071,-8734.430116,-1258.350101,-459.657299
1381.257392,-9030.512492,-1184.329507,-459.657299
1381.257713,-6883.915261,1480.411884,-459.657299
1381.258033,-11769.274478,962.267725,3600.648841
1381.258354,-10510.924376,1554.432478,4290.134789
1381.258675,-11547.212695,-370.102971,4290.134789
1381.258995,-9992.780217,-2442.679609,2145.067394
1381.259316,-8808.450710,444.123565,612.876398
1381.259637,-11177.109724,2886.803174,5209.449386
1381.259958,-11769.274478,592.164754,3140.991542
1381.260278,-6291.750507,0.000000,1915.238745
1381.260599,-8808.450710,-2664.741391,-1608.800546
1381.260920,-6513.812290,1554.432478,-995.924147
1381.261240,-10807.006753,-222.061783,1838.629195
1381.261561,-9992.780217,518.144159,4366.744339
1381.261882,-8660.409521,-1332.370696,919.314598
1381.262202,-9696.697840,-1628.453072,689.485948
1381.262523,-7624.121203,296.082377,2221.676944
1381.262844,-11621.233289,-1110.308913,4213.525239
1381.263164,-9030.512492,74.020594,4136.915689
1381.263485,-9326.594869,-1406.391290,229.828649
1381.263806,-8142.265362,-962.267725,-1685.410096
1381.264126,-8956.491898,962.267725,0.000000
1381.264447,-11399.171507,0.000000,2068.457845
1381.264768,-8290.306550,1332.370696,766.095498
1381.265088,-11103.089130,-1480.411884,-229.828649
1381.265409,-8586.388927,-1184.329507,-1378.971896
1381.265730,-10288.862594,222.061783,0.000000
1381.266050,-12213.398043,-1480.411884,2681.334243
1381.266371,-7772.162391,-222.061783,1532.190996
1381.266692,-10140.821405,-2368.659014,-1149.143247
1381.267013,-6883.915261,-1998.556043,-995.924147
1381.267333,-8438.347739,888.247130,-1838.629195
1381.267654,-11769.274478,1332.370696,919.314598
1381.267975,-9252.574275,1480.411884,919.314598
1381.268295,-10584.944971,-444.123565,-842.705048
1381.268616,-9474.636058,-962.267725,-2451.505594
1381.268937,-10214.842000,444.123565,-766.095498
1381.269257,-11843.295072,888.247130,2757.943793
1381.269578,-9178.553681,222.061783,1838.629195
1381.269899,-9992.780217,0.000000,459.657299
1381.270219,-9400.615463,-1776.494261,-689.485948
1381.270540,-9030.512492,-1184.329507,-1608.800546
1381.270861,-10510.924376,518.144159,1915.238745
1381.271181,-8512.368333,592.164754,2528.115143
1381.271502,-9178.553681,-814.226536,1072.533697
1381.271823,-9696.697840,-1850.514855,1762.019645
1381.272143,-8586.388927,-1776.494261,919.314598
1381.272464,-10881.027347,-1998.556043,3217.601092
1381.272785,-9622.677246,-1110.308913,3753.867940
1381.273105,-9770.718434,-1406.391290,2068.457845
1381.273426,-8438.347739,-814.226536,612.876398
1381.273747,-7476.080014,1184.329507,306.438199
1381.274067,-10807.006753,1406.391290,3370.820191
1381.274388,-9178.553681,814.226536,2757.943793
1381.274709,-10658.965565,-666.185348,2911.162892
1381.275030,-9474.636058,-1332.370696,1608.800546
1381.275350,-8956.491898,-518.144159,919.314598
1381.275671,-12213.398043,-962.267725,4826.401637
1381.275992,-8882.471304,444.123565,3983.696590
1381.276312,-10584.944971,-592.164754,2757.943793
1381.276633,-10066.800811,-1554.432478,1915.238745
1381.276954,-5995.668130,-1332.370696,-1685.410096
1381.277274,-10955.047942,-592.164754,2451.505594
1381.277595,-9326.594869,444.123565,2604.724693
1381.277916,-10066.800811,-962.267725,1225.752797
1381.278236,-9400.615463,-1184.329507,1915.238745
1381.278557,-8808.450710,296.082377,-306.438199
1381.278878,-12435.459826,814.226536,2911.162892
1381.279198,-10658.965565,740.205942,3064.381992
1381.279519,-9992.780217,-518.144159,1762.019645
1381.279840,-8882.471304,-2664.741391,-383.047749
1381.280160,-7624.121203,-1036.288319,-1762.019645
1381.280481,-10732.986159,0.000000,1378.971896
1381.280802,-9770.718434,222.061783,1685.410096
1381.281122,-9326.594869,-370.102971,229.828649
1381.281443,-8808.450710,-1776.494261,-766.095498
1381.281764,-8882.471304,-1258.350101,-766.095498
1381.282085,-12509.480420,-888.247130,1838.629195
1381.282405,-8956.491898,1036.288319,1455.581446
1381.282726,-9474.636058,-1258.350101,-1378.971896
1381.283047,-8438.347739,-148.041188,-1915.238745
1381.283367,-8068.244768,0.000000,-2451.505594
1381.283688,-11177.109724,592.164754,995.924147
1381.284009,-9474.636058,962.267725,306.438199
1381.284329,-10658.965565,-74.020594,-306.438199
1381.284650,-9548.656652,-1406.391290,-1532.190996
1381.284971,-8660.409521,814.226536,-919.314598
1381.285291,-11177.109724,2072.576638,3140.991542
1381.285612,-9178.553681,518.144159,3064.381992
1381.285933,-10214.842000,-1850.514855,1991.848295
1381.286253,-9252.574275,-4145.153275,-536.266849
1381.286574,-7920.203579,-2590.720797,-2145.067394
1381.286895,-10658.965565,-222.061783,459.657299
1381.287215,-9030.512492,2368.659014,2528.115143
1381.287536,-8068.244768,74.020594,76.609550
1381.287857,-8808.450710,814.226536,153.219100
1381.288177,-8660.409521,-1850.514855,0.000000
1381.288498,-11399.171507,-1776.494261,1762.019645
1381.288819,-11843.295072,-1258.350101,4826.401637
1381.289139,-9844.739029,-1850.514855,1378.971896
1381.289460,-9178.553681,-1480.411884,1149.143247
1381.289781,-8660.409521,740.205942,536.266849
1381.290102,-11399.171507,592.164754,2757.943793
1381.290422,-10436.903782,296.082377,3370.820191
1381.290743,-9770.718434,-1184.329507,1302.362347
1381.291064,-8364.327145,0.000000,0.000000
1381.291384,-9770.718434,1036.288319,1532.190996
1381.291705,-11399.171507,962.267725,3907.087040
1381.292026,-9178.553681,1480.411884,4136.915689
1381.292346,-9622.677246,-2294.638420,1838.629195
1381.292667,-8882.471304,-222.061783,-306.438199
1381.292988,-9548.656652,0.000000,612.876398
1381.293308,-11769.274478,1036.288319,3524.039291
1381.293629,-9104.533087,3997.112087,5439.278036
1381.293950,-10436.903782,148.041188,2604.724693
1381.294270,-8734.430116,-2220.617826,153.219100
1381.294591,-7550.100608,-444.123565,-1072.533697
1381.294912,-10658.965565,-222.061783,1685.410096
1381.295232,-9104.533087,-444.123565,2757.943793
1381.295553,-7328.038826,1776.494261,1378.971896
1381.295874,-11029.068536,-2146.597232,306.438199
1381.296194,-7179.997637,0.000000,76.609550
1381.296515,-11399.171507,-296.082377,2451.505594
1381.296836,-10436.903782,-962.267725,3140.991542
1381.297157,-8956.491898,-2294.638420,0.000000
1381.297477,-7698.141797,-1332.370696,-1915.238745
1381.297798,-7920.203579,888.247130,-766.095498
1381.298119,-10807.006753,740.205942,383.047749
1381.298439,-8660.409521,1628.453072,2221.676944
1381.298760,-9474.636058,-3849.070898,-919.314598
1381.299081,-7846.182985,-370.102971,-2834.553343
1381.299401,-9696.697840,-1850.514855,-1991.848295
1381.299722,-10140.821405,518.144159,766.095498
1381.300043,-9696.697840,2368.659014,1915.238745
1381.300363,-10362.883188,-814.226536,0.000000
1381.300684,-8660.409521,-1628.453072,-459.657299
1381.301005,-8290.306550,-888.247130,-1225.752797
1381.301325,-11547.212695,888.247130,2298.286494
1381.301646,-10436.903782,1628.453072,3907.087040
1381.301967,-9992.780217,-592.164754,459.657299
1381.302287,-9548.656652,-1406.391290,-766.095498
1381.302608,-7920.203579,-1184.329507,-1991.848295
1381.302929,-9844.739029,222.061783,689.485948
1381.303249,-10732.986159,814.226536,2528.115143
1381.303570,-9622.677246,1554.432478,919.314598
1381.303891,-9548.656652,-666.185348,383.047749
1381.304211,-8660.409521,-222.061783,612.876398
1381.304532,-11177.109724,-1332.370696,1608.800546
1381.304853,-9622.677246,-1184.329507,2298.286494
1381.305174,-8438.347739,-1406.391290,0.000000
1381.305494,-9104.533087,-1184.329507,612.876398
1381.305815,-9104.533087,370.102971,2145.067394
1381.306136,-12435.459826,-1258.350101,6205.373534
1381.306456,-11177.109724,-1332.370696,5209.449386
1381.306777,-11399.171507,-3701.029710,3064.381992
1381.307098,-9622.677246,-2886.803174,2451.505594
1381.307418,-8660.409521,-1332.370696,1225.752797
1381.307739,-10955.047942,444.123565,3064.381992
1381.308060,-7698.141797,1998.556043,2834.553343
1381.308380,-8586.388927,-592.164754,-229.828649
1381.308701,-7624.121203,-1480.411884,-919.314598
1381.309022,-7624.121203,-962.267725,-1532.190996
1381.309342,-11843.295072,1258.350101,3217.601092
1381.309663,-10288.862594,592.164754,4213.525239
1381.309984,-10214.842000,-148.041188,3140.991542
1381.310304,-10732.986159,-888.247130,2528.115143
1381.310625,-9474.636058,-1184.329507,689.485948
1381.310946,-11843.295072,0.000000,2757.943793
1381.311266,-9400.615463,444.123565,2451.505594
1381.311587,-8364.327145,-518.144159,-766.095498
1381.311908,-8438.347739,-666.185348,-689.485948
1381.312229,-7254.018232,-518.144159,-1685.410096
1381.312549,-9918.759623,74.020594,1302.362347
1381.312870,-10140.821405,0.000000,2374.896044
1381.313191,-9770.718434,-1036.288319,689.485948
1381.313511,-10288.862594,-2072.576638,0.000000
1381.313832,-8956.491898,0.000000,-306.438199
1381.314153,-11769.274478,666.185348,1225.752797
1381.314473,-9696.697840,2812.782580,1149.143247
1381.314794,-8882.471304,296.082377,-1608.800546
1381.315115,-9178.553681,-1184.329507,-2451.505594
1381.315435,-7550.100608,740.205942,-3753.867940
1381.315756,-10807.006753,2590.720797,536.266849
1381.316077,-11029.068536,888.247130,919.314598
1381.316397,-8216.285956,1184.329507,-383.047749
1381.316718,-9770.718434,-740.205942,-612.876398
1381.317039,-8882.471304,370.102971,-1532.190996
1381.317359,-12509.480420,814.226536,2528.115143
1381.317680,-9770.718434,-666.185348,2528.115143
1381.318001,-8364.327145,-814.226536,0.000000
1381.318321,-9844.739029,-1850.514855,-1072.533697
1381.318642,-7105.977043,148.041188,-1302.362347
1381.318963,-11177.109724,1184.329507,1838.629195
1381.319283,-9696.697840,1258.350101,2834.553343
1381.319604,-9474.636058,-444.123565,1455.581446
1381.319925,-10288.862594,-1406.391290,1302.362347
1381.320246,-8734.430116,-1332.370696,153.219100
1381.320566,-11843.295072,740.205942,3370.820191
1381.320887,-9918.759623,740.205942,3983.696590
1381.321208,-9400.615463,-1628.453072,1455.581446
1381.321528,-8734.430116,-2146.597232,766.095498
1381.321849,-6809.894666,-1628.453072,-842.705048
1381.322170,-10510.924376,148.041188,2681.334243
1381.322490,-10214.842000,444.123565,4366.744339
1381.322811,-9770.718434,-666.185348,3140.991542
1381.323132,-9622.677246,-2886.803174,2374.896044
1381.323452,-7254.018232,-2220.617826,1302.362347
1381.323773,-11029.068536,-2220.617826,3370.820191
1381.324094,-9252.574275,-814.226536,3294.210641
1381.324414,-9030.512492,-888.247130,0.000000
1381.324735,-8142.265362,1036.288319,76.609550
1381.325056,-8586.388927,370.102971,-383.047749
1381.325376,-10288.862594,2072.576638,2757.943793
1381.325697,-10732.986159,444.123565,2911.162892
1381.326018,-9844.739029,-370.102971,1838.629195
1381.326338,-10066.800811,-1998.556043,1532.190996
1381.326659,-9400.615463,0.000000,459.657299
1381.326980,-11251.130318,3108.864956,6205.373534
1381.327301,-10881.027347,592.164754,4903.011187
1381.327621,-10436.903782,-814.226536,3600.648841
1381.327942,-10658.965565,-4737.318029,689.485948
1381.328263,-7550.100608,-2368.659014,-1991.848295
1381.328583,-10658.965565,-370.102971,0.000000
1381.328904,-8956.491898,1776.494261,1532.190996
1381.329225,-7698.141797,74.020594,-919.314598
1381.329545,-8660.409521,-1332.370696,-1762.019645
1381.329866,-6809.894666,-1776.494261,-1915.238745
1381.330187,-11325.150913,-1258.350101,0.000000
1381.330507,-11399.171507,-1110.308913,2451.505594
1381.330828,-10955.047942,-666.185348,842.705048
1381.331149,-11177.109724,-518.144159,2604.724693
1381.331469,-9696.697840,-1850.514855,459.657299
1381.331790,-11029.068536,-962.267725,1608.800546
1381.332111,-11399.171507,-2442.679609,2451.505594
1381.332431,-8290.306550,-2072.576638,-2068.457845
1381.332752,-9030.512492,-1406.391290,-2298.286494
1381.333073,-7031.956449,1110.308913,-2834.553343
1381.333393,-10362.883188,1332.370696,153.219100
1381.333714,-8142.265362,1702.473667,536.266849
1381.334035,-8586.388927,-444.123565,-612.876398
1381.334356,-9474.636058,-962.267725,-536.266849
1381.334676,-10658.965565,1036.288319,766.095498
1381.334997,-12435.459826,740.205942,2911.162892
1381.335318,-11325.150913,1554.432478,5209.449386
1381.335638,-8512.368333,888.247130,1532.190996
1381.335959,-9622.677246,-1184.329507,-306.438199
1381.336280,-7179.997637,1332.370696,-689.485948
1381.336600,-10214.842000,74.020594,919.314598
1381.336921,-6513.812290,518.144159,995.924147
1381.337242,-7994.224174,-1110.308913,-229.828649
1381.337563,-8956.491898,-2146.597232,536.266849
1381.337883,-8216.285956,-1258.350101,1455.581446
1381.338204,-12287.418637,518.144159,4826.401637
1381.338525,-12287.418637,370.102971,7048.078582
1381.338846,-11399.171507,-148.041188,4366.744339
1381.339166,-10807.006753,-1184.329507,3447.429741
1381.339487,-7624.121203,-1702.473667,0.000000
1381.339808,-9696.697840,666.185348,1225.752797
1381.340129,-8882.471304,1184.329507,2451.505594
1381.340449,-8438.347739,148.041188,0.000000
1381.340770,-9030.512492,-1480.411884,-766.095498
1381.341091,-7772.162391,-1776.494261,-536.266849
1381.341412,-11177.109724,-74.020594,2911.162892
1381.341732,-11843.295072,222.061783,4213.525239
1381.342053,-11325.150913,-1702.473667,3447.429741
1381.342374,-9104.533087,0.000000,1685.410096
1381.342695,-9696.697840,-2664.741391,1072.533697
1381.343016,-9622.677246,0.000000,1455.581446
1381.343336,-9252.574275,1480.411884,2298.286494
1381.343657,-7920.203579,-222.061783,-2911.162892
1381.343978,-7476.080014,1332.370696,-2374.896044
1381.344299,-7254.018232,1110.308913,-2528.115143
1381.344619,-10362.883188,1258.350101,1532.190996
1381.344940,-12435.459826,592.164754,3524.039291
1381.345261,-11251.130318,0.000000,4290.134789
1381.345582,-13027.624579,-4219.173869,2681.334243
1381.345902,-8660.409521,-1628.453072,612.876398
1381.346223,-10066.800811,-888.247130,1149.143247
1381.346544,-9474.636058,1924.535449,1072.533697
1381.346865,-6587.832884,222.061783,-842.705048
1381.347185,-8142.265362,-1184.329507,-3140.991542
1381.347506,-6735.874072,-148.041188,-2911.162892
1381.347827,-10214.842000,0.000000,-919.314598
1381.348148,-10807.006753,222.061783,2145.067394
1381.348469,-10732.986159,-666.185348,1302.362347
1381.348789,-10214.842000,-1924.535449,306.438199
1381.349110,-8882.471304,-1554.432478,0.000000
1381.349431,-11029.068536,-444.123565,383.047749
1381.349752,-9770.718434,222.061783,919.314598
1381.350072,-8586.388927,518.144159,-2068.457845
1381.350393,-8438.347739,1184.329507,-2681.334243
1381.350714,-7772.162391,1628.453072,-4366.744339
1381.351035,-9844.739029,3330.926739,-612.876398
1381.351355,-11695.253884,1702.473667,1685.410096
1381.351676,-10510.924376,666.185348,689.485948
1381.351997,-11843.295072,-1258.350101,1532.190996
1381.352318,-9992.780217,-1702.473667,229.828649
1381.352638,-10584.944971,0.000000,2068.457845
1381.352959,-11103.089130,296.082377,2911.162892
1381.353280,-7698.141797,1406.391290,459.657299
1381.353601,-9326.594869,-740.205942,-919.314598
1381.353921,-6809.894666,-148.041188,-1455.581446
1381.354242,-9178.553681,1702.473667,-689.485948
1381.354563,-11251.130318,3330.926739,2604.724693
1381.354884,-8734.430116,3256.906145,2068.457845
1381.355205,-10955.047942,2442.679609,2298.286494
1381.355525,-9178.553681,1332.370696,229.828649
1381.355846,-10510.924376,1554.432478,459.657299
1381.356167,-11399.171507,1184.329507,2681.334243
1381.356488,-8586.388927,370.102971,306.438199
1381.356808,-9326.594869,0.000000,-229.828649
1381.357129,-8734.430116,-1110.308913,-1225.752797
1381.357450,-7772.162391,1480.411884,-919.314598
1381.357771,-11251.130318,3034.844362,2451.505594
1381.358091,-9030.512492,2590.720797,995.924147
1381.358412,-9474.636058,1332.370696,919.314598
1381.358733,-10510.924376,-1480.411884,-536.266849
1381.359054,-8808.450710,0.000000,-1762.019645
1381.359374,-10214.842000,2886.803174,-229.828649
1381.359695,-9696.697840,4145.153275,-689.485948
1381.360016,-9030.512492,4441.235652,-1915.238745
1381.360337,-9696.697840,2960.823768,-1915.238745
1381.360658,-8660.409521,-666.185348,-4519.963438
1381.360978,-8586.388927,1480.411884,-4673.182538
1381.361299,-10436.903782,3478.967927,-1532.190996
1381.361620,-11325.150913,4441.235652,-689.485948
1381.361941,-11029.068536,4367.215058,1302.362347
1381.362261,-11177.109724,148.041188,-995.924147
1381.362582,-8734.430116,444.123565,-2221.676944
1381.362903,-9622.677246,-962.267725,-2834.553343
1381.363224,-9326.594869,666.185348,-1072.533697
1381.363544,-9474.636058,1924.535449,-919.314598
1381.363865,-8734.430116,2146.597232,-689.485948
1381.364186,-9252.574275,444.123565,-995.924147
1381.364507,-9474.636058,592.164754,-2221.676944
1381.364827,-10658.965565,444.123565,-2451.505594
1381.365148,-10584.944971,2812.782580,-2451.505594
1381.365469,-9622.677246,5033.400406,-2451.505594
1381.365790,-9918.759623,4145.153275,-2604.724693
1381.366110,-8734.430116,3256.906145,-2757.943793
1381.366431,-9252.574275,1702.473667,-3447.429741
1381.366752,-9474.636058,814.226536,-3524.039291
1381.367073,-9400.615463,2664.741391,-1532.190996
1381.367394,-10807.006753,1776.494261,-306.438199
1381.367714,-10362.883188,1850.514855,459.657299
1381.368035,-9326.594869,1036.288319,919.314598
1381.368356,-9696.697840,-444.123565,-459.657299
1381.368677,-9030.512492,222.061783,-689.485948
1381.368997,-10140.821405,1776.494261,-689.485948
1381.369318,-9770.718434,5625.565159,76.609550
1381.369639,-10214.842000,4811.338623,459.657299
1381.369960,-8734.430116,3552.988522,0.000000
1381.370280,-9252.574275,1480.411884,-1225.752797
1381.370601,-9992.780217,-222.061783,-536.266849
1381.370922,-9622.677246,-222.061783,-459.657299
1381.371243,-9844.739029,0.000000,536.266849
1381.371563,-9548.656652,1406.391290,1225.752797
1381.371884,-9548.656652,2442.679609,1225.752797
1381.372205,-9992.780217,1924.535449,1455.581446
1381.372526,-8808.450710,1258.350101,842.705048
1381.372847,-9622.677246,-962.267725,-536.266849
1381.373167,-9252.574275,-1110.308913,-1762.019645
1381.373488,-8216.285956,518.144159,-2757.943793
1381.373809,-9178.553681,3034.844362,-2528.115143
1381.374130,-10214.842000,4737.318029,-842.705048
1381.374450,-10140.821405,4145.153275,-383.047749
1381.374771,-10288.862594,2886.803174,-229.828649
1381.375092,-11843.295072,1406.391290,-766.095498
1381.375413,-11325.150913,1628.453072,0.000000
1381.375733,-10288.862594,-518.144159,-1532.190996
1381.376054,-8512.368333,592.164754,-1991.848295
1381.376375,-8438.347739,2146.597232,-1991.848295
1381.376696,-8956.491898,1776.494261,-1991.848295
1381.377016,-8808.450710,1332.370696,-1685.410096
1381.377337,-8438.347739,740.205942,-2451.505594
1381.377658,-9622.677246,1332.370696,-1608.800546
1381.377979,-10732.986159,1850.514855,-153.219100
1381.378299,-10362.883188,1924.535449,-229.828649
1381.378620,-10362.883188,2442.679609,-1378.971896
1381.378941,-9474.636058,3478.967927,-1455.581446
1381.379262,-9992.780217,3552.988522,-1072.533697
1381.379583,-10362.883188,3034.844362,-1225.752797
1381.379903,-9992.780217,3478.967927,-2911.162892
1381.380224,-9770.718434,3849.070898,-2145.067394
1381.380545,-10436.903782,3182.885551,-306.438199
1381.380866,-9844.739029,1110.308913,0.000000
1381.381186,-9252.574275,-296.082377,-1302.362347
1381.381507,-9548.656652,-148.041188,-2221.676944
1381.381828,-9474.636058,2812.782580,-1149.143247
1381.382149,-11029.068536,1924.535449,0.000000
1381.382469,-9400.615463,3182.885551,-459.657299
1381.382790,-10362.883188,1850.514855,-1072.533697
1381.383111,-8364.327145,3775.050304,-1685.410096
1381.383432,-9622.677246,2442.679609,-1072.533697
1381.383752,-10214.842000,1554.432478,612.876398
1381.384073,-9178.553681,-740.205942,-919.314598
1381.384394,-8956.491898,-444.123565,-2757.943793
1381.384715,-9104.533087,1258.350101,-2451.505594
1381.385036,-9400.615463,2812.782580,-1149.143247
1381.385356,-10807.006753,4811.338623,919.314598
1381.385677,-9770.718434,3849.070898,1455.581446
1381.385998,-10140.821405,1406.391290,0.000000
1381.386319,-9400.615463,-370.102971,153.219100
1381.386639,-9252.574275,-962.267725,153.219100
1381.386960,-9992.780217,-444.123565,766.095498
1381.387281,-9474.636058,296.082377,995.924147
1381.387602,-8512.368333,814.226536,-766.095498
1381.387922,-8290.306550,1702.473667,-2528.115143
1381.388243,-8586.388927,3478.967927,-2987.772442
1381.388564,-9548.656652,5329.482782,-1838.629195
1381.388885,-10436.903782,4811.338623,-1225.752797
1381.389205,-9474.636058,4737.318029,-1378.971896
1381.389526,-10140.821405,2516.700203,-1762.019645
1381.389847,-10288.862594,1110.308913,-1685.410096
1381.390168,-11103.089130,740.205942,-383.047749
1381.390488,-10807.006753,1924.535449,-306.438199
1381.390809,-9918.759623,2812.782580,0.000000
1381.391130,-10066.800811,2812.782580,0.000000
1381.391451,-9104.533087,148.041188,0.000000
1381.391772,-9770.718434,-1554.432478,-919.314598
1381.392092,-8956.491898,-1332.370696,-1991.848295
1381.392413,-8660.409521,-370.102971,-2834.553343
1381.392734,-9326.594869,1628.453072,-3064.381992
1381.393055,-9474.636058,3404.947333,-2911.162892
1381.393375,-9770.718434,5033.400406,-2604.724693
1381.393696,-10214.842000,5477.523971,-2145.067394
1381.394017,-10881.027347,4959.379811,-1991.848295
1381.394338,-11029.068536,3701.029710,-1149.143247
1381.394658,-11251.130318,1702.473667,-459.657299
1381.394979,-10510.924376,296.082377,153.219100
1381.395300,-10658.965565,370.102971,-306.438199
1381.395621,-9252.574275,-666.185348,76.609550
1381.395941,-8956.491898,-518.144159,536.266849
1381.396262,-9104.533087,-444.123565,383.047749
1381.396583,-8956.491898,0.000000,383.047749
1381.396904,-8512.368333,0.000000,-689.485948
1381.397224,-8586.388927,666.185348,-1072.533697
1381.397545,-8512.368333,1406.391290,-1762.019645
1381.397866,-9030.512492,2294.638420,-2681.334243
1381.398187,-9326.594869,3552.988522,-2451.505594
1381.398508,-9844.739029,4367.215058,-2221.676944
1381.398828,-10658.965565,4959.379811,-1991.848295
1381.399149,-11103.089130,4589.276840,-1532.190996
1381.399470,-10140.821405,3701.029710,-536.266849
1381.399791,-10658.965565,2442.679609,229.828649
1381.400111,-9992.780217,740.205942,229.828649
1381.400432,-9400.615463,-1110.308913,842.705048
1381.400753,-9252.574275,-2516.700203,919.314598
1381.401074,-8586.388927,-2516.700203,766.095498
1381.401394,-8660.409521,-1776.494261,842.705048
1381.401715,-8586.388927,-296.082377,306.438199
1381.402036,-8956.491898,1036.288319,0.000000
1381.402357,-9178.553681,2442.679609,229.828649
1381.402677,-9622.677246,2738.761985,-995.924147
1381.402998,-9844.739029,3330.926739,-1455.581446
1381.403319,-10066.800811,3478.967927,-1532.190996
1381.403640,-10807.006753,5033.400406,-2145.067394
1381.403961,-11029.068536,4071.132681,-1455.581446
1381.404281,-10658.965565,3552.988522,-766.095498
1381.404602,-10658.965565,2442.679609,-919.314598
1381.404923,-10362.883188,1702.473667,-919.314598
1381.405244,-9844.739029,370.102971,-459.657299
1381.405564,-9622.677246,-444.123565,-459.657299
1381.405885,-9474.636058,-740.205942,-919.314598
1381.406206,-9178.553681,-222.061783,-1302.362347
1381.406527,-8660.409521,740.205942,-1685.410096
1381.406847,-9030.512492,1998.556043,-2221.676944
1381.407168,-9252.574275,3404.947333,-2528.115143
1381.407489,-9548.656652,4737.318029,-2757.943793
1381.407810,-9622.677246,5773.606348,-2604.724693
1381.408130,-10214.842000,5033.400406,-2451.505594
1381.408451,-10362.883188,4219.173869,-2451.505594
1381.408772,-10584.944971,3552.988522,-2068.457845
1381.409093,-10510.924376,2664.741391,-1149.143247
1381.409413,-10214.842000,1850.514855,-536.266849
1381.409734,-9622.677246,962.267725,-306.438199
1381.410055,-9400.615463,296.082377,-76.609550
1381.410376,-9178.553681,74.020594,306.438199
1381.410697,-8882.471304,74.020594,383.047749
1381.411017,-8586.388927,0.000000,229.828649
1381.411338,-8586.388927,148.041188,-229.828649
1381.411659,-8438.347739,740.205942,0.000000
1381.411980,-9030.512492,1480.411884,459.657299
1381.412300,-9400.615463,2442.679609,1378.971896
1381.412621,-10288.862594,1776.494261,1685.410096
1381.412942,-9548.656652,962.267725,1302.362347
1381.413263,-10066.800811,222.061783,689.485948
1381.413583,-9992.780217,666.185348,1072.533697
1381.413904,-9696.697840,148.041188,1378.971896
1381.414225,-9474.636058,0.000000,1991.848295
1381.414546,-9252.574275,-888.247130,1762.019645
1381.414866,-9178.553681,-1184.329507,1225.752797
1381.415187,-9474.636058,-1036.288319,1532.190996
1381.415508,-9474.636058,74.020594,1455.581446
1381.415829,-9548.656652,814.226536,1762.019645
1381.416150,-9326.594869,1258.350101,919.314598
1381.416470,-9252.574275,1776.494261,995.924147
1381.416791,-9548.656652,1998.556043,459.657299
1381.417112,-9696.697840,2220.617826,76.609550
1381.417433,-10066.800811,2664.741391,153.219100
1381.417753,-10362.883188,2590.720797,-229.828649
1381.418074,-10436.903782,2590.720797,-306.438199
1381.418395,-10584.944971,2220.617826,-459.657299
1381.418716,-10436.903782,1554.432478,-306.438199
1381.419036,-10732.986159,1110.308913,-842.705048
1381.419357,-10658.965565,1036.288319,-689.485948
1381.419678,-10584.944971,370.102971,-1225.752797
1381.419999,-10362.883188,666.185348,-1991.848295
1381.420319,-10066.800811,1184.329507,-2451.505594
1381.420640,-9474.636058,1332.370696,-3447.429741
1381.420961,-9400.615463,2368.659014,-4136.915689
1381.421282,-9252.574275,2442.679609,-4979.620737
1381.421602,-9252.574275,2960.823768,-5439.278036
1381.421923,-9252.574275,2886.803174,-5439.278036
1381.422244,-9844.739029,3182.885551,-5439.278036
1381.422565,-10362.883188,3404.947333,-5362.668486
1381.422886,-10436.903782,3182.885551,-5132.839837
1381.423206,-10584.944971,3330.926739,-5209.449386
1381.423527,-10214.842000,3108.864956,-4826.401637
1381.423848,-10066.800811,2886.803174,-4290.134789
1381.424169,-9770.718434,2590.720797,-3600.648841
1381.424489,-9548.656652,2812.782580,-2911.162892
1381.424810,-9030.512492,1998.556043,-3600.648841
1381.425131,-8956.491898,1998.556043,-3447.429741
1381.425452,-8882.471304,2146.597232,-3064.381992
1381.425772,-8882.471304,2590.720797,-2681.334243
1381.426093,-8956.491898,3627.009116,-2374.896044
1381.426414,-8808.450710,3775.050304,-2221.676944
1381.426735,-9252.574275,4293.194464,-1991.848295
1381.427055,-9474.636058,4441.235652,-1225.752797
1381.427376,-9918.759623,4811.338623,0.000000
1381.427697,-10288.862594,4441.235652,842.705048
1381.428018,-10510.924376,3478.967927,2145.067394
1381.428339,-10436.903782,2368.659014,3064.381992
1381.428659,-10214.842000,1480.411884,3064.381992
1381.428980,-10066.800811,296.082377,4060.306139
1381.429301,-9178.553681,-370.102971,3294.210641
1381.429622,-8956.491898,-296.082377,2068.457845
1381.429942,-8512.368333,222.061783,1072.533697
1381.430263,-8660.409521,2220.617826,1072.533697
1381.430584,-9030.512492,3478.967927,1149.143247
1381.430905,-9622.677246,3997.112087,919.314598
1381.431225,-10658.965565,3404.947333,995.924147
1381.431546,-10436.903782,3182.885551,459.657299
1381.431867,-10732.986159,3108.864956,229.828649
1381.432188,-10584.944971,3108.864956,383.047749
1381.432508,-10658.965565,3330.926739,689.485948
1381.432829,-9844.739029,3552.988522,1991.848295
1381.433150,-10362.883188,2146.597232,2068.457845
1381.433471,-9844.739029,0.000000,1685.410096
1381.433791,-9474.636058,-1998.556043,995.924147
1381.434112,-9622.677246,-2368.659014,459.657299
1381.434433,-8956.491898,-2294.638420,-459.657299
1381.434754,-8808.450710,-1332.370696,-995.924147
1381.435075,-8438.347739,518.144159,-2068.457845
1381.435395,-8512.368333,1332.370696,-3447.429741
1381.435716,-9104.533087,2368.659014,-3677.258390
1381.436037,-9770.718434,3108.864956,-4979.620737
1381.436358,-10658.965565,3923.091493,-5515.887586
1381.436679,-10658.965565,4737.318029,-5745.716235
1381.436999,-10436.903782,5329.482782,-3447.429741
1381.437320,-10955.047942,3923.091493,-2681.334243
1381.437641,-10807.006753,1110.308913,-2068.457845
1381.437962,-10288.862594,-2294.638420,-2298.286494
1381.438283,-9400.615463,-3182.885551,-995.924147
1381.438604,-9400.615463,-3330.926739,-2834.553343
1381.438924,-8734.430116,-1776.494261,-1532.190996
1381.439245,-8364.327145,-666.185348,-1455.581446
1381.439566,-7920.203579,-296.082377,-2528.115143
1381.439887,-8586.388927,-740.205942,-4060.306139
1381.440208,-8586.388927,592.164754,-4596.572988
1381.440529,-10214.842000,2442.679609,-3753.867940
1381.440849,-10732.986159,5403.503377,-1685.410096
1381.441170,-11029.068536,5329.482782,-2374.896044
1381.441491,-10955.047942,4515.256246,-1532.190996
1381.441812,-10436.903782,2368.659014,-2221.676944
1381.442133,-10214.842000,2220.617826,-2221.676944
1381.442454,-10732.986159,2590.720797,-153.219100
1381.442774,-10584.944971,1924.535449,1072.533697
1381.443095,-9474.636058,1110.308913,0.000000
1381.443416,-6883.915261,0.000000,-689.485948
1381.443737,-8068.244768,1998.556043,842.705048
1381.444058,-10436.903782,1998.556043,3907.087040
1381.444379,-10288.862594,888.247130,5209.449386
1381.444700,-10436.903782,-1332.370696,3524.039291
1381.445020,-7624.121203,-740.205942,536.266849
1381.445341,-9474.636058,444.123565,919.314598
1381.445662,-9696.697840,3627.009116,3064.381992
1381.445983,-10732.986159,4293.194464,2145.067394
1381.446304,-9770.718434,4811.338623,766.095498
1381.446625,-9770.718434,5181.441594,-1149.143247
1381.446945,-11029.068536,5477.523971,76.609550
1381.447266,-12731.542202,3552.988522,2451.505594
1381.447587,-10288.862594,1554.432478,995.924147
1381.447908,-9400.615463,1184.329507,-1608.800546
1381.448229,-8808.450710,296.082377,-1302.362347
1381.448550,-8808.450710,1036.288319,-2374.896044
1381.448870,-9030.512492,1110.308913,-1838.629195
1381.449191,-8142.265362,1924.535449,-2451.505594
1381.449512,-8808.450710,3256.906145,-2604.724693
1381.449833,-9474.636058,2664.741391,-1915.238745
1381.450154,-9622.677246,740.205942,-1225.752797
1381.450475,-9992.780217,148.041188,-1838.629195
1381.450796,-9992.780217,1628.453072,-2221.676944
1381.451116,-11029.068536,2590.720797,-1762.019645
1381.451437,-9770.718434,2812.782580,-2834.553343
1381.451758,-9474.636058,2738.761985,-4673.182538
1381.452079,-9844.739029,4811.338623,-3830.477490
1381.452400,-9474.636058,3849.070898,-5286.058936
1381.452721,-9548.656652,3034.844362,-3370.820191
1381.453041,-9400.615463,1184.329507,-3600.648841
1381.453362,-9400.615463,444.123565,-3370.820191
1381.453683,-10362.883188,1184.329507,-1915.238745
1381.454004,-9326.594869,666.185348,-919.314598
1381.454325,-9030.512492,2146.597232,-1915.238745
1381.454646,-9770.718434,2960.823768,-1685.410096
1381.454966,-8586.388927,2442.679609,-2374.896044
1381.455287,-7550.100608,3256.906145,-1762.019645
1381.455608,-9918.759623,2442.679609,-2221.676944
1381.455929,-9548.656652,2442.679609,-2068.457845
1381.456250,-10066.800811,2220.617826,-995.924147
1381.456571,-10658.965565,1258.350101,1608.800546
1381.456891,-11029.068536,1628.453072,536.266849
1381.457212,-11103.089130,1258.350101,842.705048
1381.457533,-10510.924376,1406.391290,919.314598
1381.457854,-10066.800811,2146.597232,306.438199
1381.458175,-10140.821405,2368.659014,842.705048
1381.458496,-9030.512492,2294.638420,1455.581446
1381.458817,-8142.265362,1776.494261,689.485948
1381.459137,-8660.409521,-740.205942,0.000000
1381.459458,-7994.224174,-1480.411884,76.609550
1381.459779,-9770.718434,-962.267725,0.000000
1381.460100,-9918.759623,814.226536,153.219100
1381.460421,-9918.759623,3256.906145,1762.019645
1381.460742,-11251.130318,3034.844362,2451.505594
1381.461062,-10807.006753,2220.617826,919.314598
1381.461383,-10955.047942,2590.720797,1608.800546
1381.461704,-11325.150913,1480.411884,0.000000
1381.462025,-9474.636058,1110.308913,-919.314598
1381.462346,-9770.718434,1554.432478,229.828649
1381.462667,-9326.594869,148.041188,153.219100
1381.462987,-8142.265362,-1332.370696,-1225.752797
1381.463308,-8660.409521,-1184.329507,-1378.971896
1381.463629,-9104.533087,-962.267725,-2145.067394
1381.463950,-9326.594869,1850.514855,-919.314598
1381.464271,-10140.821405,2738.761985,459.657299
1381.464592,-9548.656652,2368.659014,-766.095498
1381.464912,-8882.471304,2072.576638,-2451.505594
1381.465233,-9252.574275,962.267725,-2528.115143
1381.465554,-9474.636058,1628.453072,-3294.210641
1381.465875,-9326.594869,2886.803174,-2987.772442
1381.466196,-10658.965565,3849.070898,-1455.581446
1381.466517,-10510.924376,3330.926739,-2298.286494
1381.466838,-8882.471304,3034.844362,-3140.991542
1381.467158,-10658.965565,1406.391290,-2757.943793
1381.467479,-10436.903782,1924.535449,-1838.629195
1381.467800,-10214.842000,1776.494261,-383.047749
1381.468121,-10658.965565,740.205942,536.266849
1381.468442,-8956.491898,-740.205942,-1072.533697
1381.468763,-9104.533087,-888.247130,-1302.362347
1381.469083,-9622.677246,0.000000,-229.828649
1381.469404,-8512.368333,2590.720797,-1838.629195
1381.469725,-10214.842000,2886.803174,0.000000
1381.470046,-9326.594869,1110.308913,-1072.533697
1381.470367,-7550.100608,1184.329507,-1991.848295
1381.470688,-10436.903782,-1110.308913,-1378.971896
1381.471008,-9252.574275,962.267725,-459.657299
1381.471329,-10510.924376,1850.514855,459.657299
1381.471650,-11325.150913,814.226536,383.047749
1381.471971,-9400.615463,1258.350101,-536.266849
1381.472292,-9622.677246,222.061783,-383.047749
1381.472613,-9622.677246,1110.308913,459.657299
1381.472934,-10214.842000,962.267725,2221.676944
1381.473254,-10362.883188,-296.082377,3140.991542
1381.473575,-9474.636058,-1110.308913,2528.115143
1381.473896,-10140.821405,-1776.494261,2221.676944
1381.474217,-8734.430116,-1036.288319,3064.381992
1381.474538,-8586.388927,518.144159,2987.772442
1381.474859,-9844.739029,-1332.370696,3140.991542
1381.475179,-7031.956449,0.000000,1072.533697
1381.475500,-7328.038826,1406.391290,536.266849
1381.475821,-8734.430116,962.267725,76.609550
1381.476142,-8586.388927,3701.029710,2145.067394
1381.476463,-12065.356855,518.144159,2604.724693
1381.476784,-9252.574275,-222.061783,1608.800546
1381.477104,-10881.027347,-592.164754,1608.800546
1381.477425,-10881.027347,-518.144159,2987.772442
1381.477746,-10140.821405,-814.226536,3370.820191
1381.478067,-11621.233289,-296.082377,4290.134789
1381.478388,-8734.430116,-1480.411884,3524.039291
1381.478709,-8956.491898,-3478.967927,536.266849
1381.479029,-9326.594869,-2220.617826,1378.971896
1381.479350,-8882.471304,-2146.597232,612.876398
1381.479671,-9326.594869,-1036.288319,689.485948
1381.479992,-9844.739029,-1406.391290,1149.143247
1381.480313,-9548.656652,-1110.308913,-766.095498
1381.480634,-9622.677246,296.082377,-1532.190996
1381.480955,-10955.047942,370.102971,-995.924147
1381.481275,-9992.780217,2072.576638,-459.657299
1381.481596,-9770.718434,-222.061783,-2451.505594
1381.481917,-9326.594869,444.123565,-2451.505594
1381.482238,-8512.368333,148.041188,-1915.238745
1381.482559,-10362.883188,-1110.308913,229.828649
1381.482880,-11251.130318,-2072.576638,2451.505594
1381.483200,-9844.739029,-4145.153275,2145.067394
1381.483521,-9622.677246,-3627.009116,689.485948
1381.483842,-10066.800811,-2590.720797,2374.896044
1381.484163,-8364.327145,-518.144159,1915.238745
1381.484484,-9844.739029,-222.061783,3370.820191
1381.484805,-8734.430116,-1628.453072,612.876398
1381.485125,-7031.956449,-2368.659014,-2528.115143
1381.485446,-8660.409521,-2442.679609,-1915.238745
1381.485767,-8290.306550,1628.453072,76.609550
1381.486088,-11251.130318,3627.009116,4596.572988
1381.486409,-12657.521608,-962.267725,2834.553343
1381.486730,-7254.018232,1258.350101,-306.438199
1381.487050,-11399.171507,-1258.350101,-536.266849
1381.487371,-9252.574275,2516.700203,2451.505594
1381.487692,-11547.212695,1258.350101,4290.134789
1381.488013,-11251.130318,-1110.308913,2911.162892
1381.488334,-6439.791695,-1702.473667,-2911.162892
1381.488655,-7550.100608,-1924.535449,-3140.991542
1381.488976,-7402.059420,1702.473667,153.219100
1381.489296,-10140.821405,74.020594,3677.258390
1381.489617,-10510.924376,0.000000,3447.429741
1381.489938,-8364.327145,-592.164754,1608.800546
1381.490259,-11473.192101,-1258.350101,2681.334243
1381.490580,-11769.274478,-962.267725,4443.353888
1381.490901,-13323.706956,0.000000,5439.278036
1381.491221,-10066.800811,1332.370696,2987.772442
1381.491542,-7476.080014,1924.535449,-919.314598
1381.491863,-8882.471304,1850.514855,-995.924147
1381.492184,-8216.285956,2886.803174,459.657299
1381.492505,-11843.295072,-740.205942,1915.238745
1381.492826,-9474.636058,-1998.556043,995.924147
1381.493146,-7105.977043,-2590.720797,0.000000
1381.493467,-12213.398043,-3182.885551,1455.581446
1381.493788,-10066.800811,-518.144159,3370.820191
1381.494109,-11621.233289,444.123565,5592.497135
1381.494430,-9844.739029,-1628.453072,2451.505594
1381.494751,-6069.688724,-740.205942,-1532.190996
1381.495072,-9918.759623,-1406.391290,-1225.752797
1381.495392,-7920.203579,1036.288319,842.705048
1381.495713,-10732.986159,1554.432478,2145.067394
1381.496034,-9474.636058,666.185348,612.876398
1381.496355,-7698.141797,-1406.391290,-2068.457845
1381.496676,-10510.924376,-1258.350101,-2374.896044
1381.496997,-10066.800811,1628.453072,766.095498
1381.497317,-11843.295072,1776.494261,2911.162892
1381.497638,-10436.903782,1258.350101,2221.676944
1381.497959,-9252.574275,-1924.535449,-1378.971896
1381.498280,-10510.924376,-1258.350101,-153.219100
1381.498601,-9030.512492,-1110.308913,1455.581446
1381.498922,-11103.089130,-1924.535449,3294.210641
1381.499242,-8290.306550,-1628.453072,2145.067394
1381.499563,-6587.832884,0.000000,-689.485948
1381.499884,-10955.047942,-2368.659014,-1762.019645
1381.500205,-5847.626942,0.000000,76.609550
1381.500526,-10436.903782,148.041188,76.609550
1381.500847,-9474.636058,222.061783,1225.752797
1381.501167,-8586.388927,148.041188,-383.047749
1381.501488,-13841.851115,148.041188,3064.381992
1381.501809,-10214.842000,0.000000,2221.676944
1381.502130,-12213.398043,-148.041188,1991.848295
1381.502451,-11547.212695,74.020594,3064.381992
1381.502772,-7920.203579,-370.102971,-306.438199
1381.503093,-10140.821405,-666.185348,0.000000
1381.503413,-8216.285956,592.164754,1991.848295
1381.503734,-9326.594869,-1184.329507,1302.362347
1381.504055,-10955.047942,-1480.411884,1915.238745
1381.504376,-8438.347739,-2368.659014,612.876398
1381.504697,-8956.491898,-1332.370696,-306.438199
1381.505018,-8586.388927,0.000000,1532.190996
1381.505338,-10732.986159,888.247130,2834.553343
1381.505659,-8808.450710,-666.185348,4366.744339
1381.505980,-8216.285956,-2146.597232,-689.485948
1381.506301,-10214.842000,370.102971,1149.143247
1381.506622,-9252.574275,1628.453072,1838.629195
1381.506943,-11547.212695,1850.514855,5132.839837
1381.507263,-9622.677246,962.267725,3217.601092
1381.507584,-7328.038826,-1924.535449,-612.876398
1381.507905,-9548.656652,-3330.926739,0.000000
1381.508226,-9474.636058,-1554.432478,2221.676944
1381.508547,-11103.089130,-1924.535449,3524.039291
1381.508868,-9030.512492,-962.267725,3217.601092
1381.509188,-8068.244768,-1702.473667,0.000000
1381.509509,-8586.388927,-518.144159,536.266849
1381.509830,-8438.347739,222.061783,1072.533697
1381.510151,-11029.068536,740.205942,2374.896044
1381.510472,-10362.883188,-370.102971,2068.457845
1381.510793,-7698.141797,-1406.391290,-1685.410096
1381.511114,-9992.780217,-1110.308913,0.000000
1381.511434,-9770.718434,1628.453072,1302.362347
1381.511755,-11177.109724,1480.411884,2604.724693
1381.512076,-9844.739029,-814.226536,1225.752797
1381.512397,-7402.059420,-1628.453072,-2757.943793
1381.512718,-9844.739029,-2294.638420,-229.828649
1381.513039,-9252.574275,-370.102971,612.876398
1381.513359,-10955.047942,-444.123565,2911.162892
1381.513680,-10140.821405,-2146.597232,1685.410096
1381.514001,-7031.956449,0.000000,-1302.362347
1381.514322,-10510.924376,-666.185348,-536.266849
1381.514643,-10510.924376,1554.432478,995.924147
1381.514964,-10732.986159,2368.659014,2298.286494
1381.515284,-10214.842000,-148.041188,3217.601092
1381.515605,-7328.038826,-740.205942,-1378.971896
1381.515926,-11177.109724,-1924.535449,0.000000
1381.516247,-9030.512492,222.061783,1072.533697
1381.516568,-9918.759623,1480.411884,1685.410096
1381.516889,-10436.903782,444.123565,2221.676944
1381.517210,-6883.915261,-222.061783,-766.095498
1381.517530,-10807.006753,-814.226536,612.876398
1381.517851,-9548.656652,-222.061783,1302.362347
1381.518172,-11399.171507,0.000000,2681.334243
1381.518493,-11251.130318,-444.123565,3140.991542
1381.518814,-9770.718434,-962.267725,306.438199
1381.519135,-11177.109724,222.061783,1915.238745
1381.519455,-9548.656652,1258.350101,3140.991542
1381.519776,-8882.471304,518.144159,995.924147
1381.520097,-8586.388927,-444.123565,383.047749
1381.520418,-7920.203579,1998.556043,-2681.334243
1381.520739,-9178.553681,962.267725,-2221.676944
1381.521060,-8142.265362,2368.659014,0.000000
1381.521380,-10658.965565,2664.741391,3140.991542
1381.521701,-9474.636058,-1406.391290,3140.991542
1381.522022,-9400.615463,-2960.823768,1608.800546
1381.522343,-11621.233289,-1258.350101,2145.067394
1381.522664,-10436.903782,666.185348,2528.115143
1381.522985,-10436.903782,1480.411884,4366.744339
1381.523305,-10436.903782,888.247130,2987.772442
1381.523626,-7402.059420,-814.226536,-153.219100
1381.523947,-9474.636058,-962.267725,-919.314598
1381.524268,-6957.935855,-296.082377,766.095498
1381.524589,-9844.739029,-296.082377,1532.190996
1381.524910,-11251.130318,-814.226536,2757.943793
1381.525231,-7624.121203,222.061783,383.047749
1381.525551,-9844.739029,0.000000,919.314598
1381.525872,-8734.430116,1776.494261,1991.848295
1381.526193,-10436.903782,222.061783,2757.943793
1381.526514,-10436.903782,-1258.350101,2068.457845
1381.526835,-7920.203579,-2590.720797,-1378.971896
1381.527156,-8586.388927,-1554.432478,-459.657299
1381.527476,-8882.471304,-518.144159,612.876398
1381.527797,-10288.862594,592.164754,1915.238745
1381.528118,-10658.965565,-370.102971,2221.676944
1381.528439,-7994.224174,-1184.329507,-1149.143247
1381.528760,-10214.842000,-1258.350101,-306.438199
1381.529081,-9622.677246,-1776.494261,612.876398
1381.529401,-11029.068536,296.082377,2221.676944
1381.529722,-11029.068536,-296.082377,1915.238745
1381.530043,-7698.141797,-1480.411884,-1455.581446
1381.530364,-9844.739029,-3256.906145,-1302.362347
1381.530685,-7402.059420,740.205942,-1762.019645
1381.531006,-10510.924376,814.226536,1225.752797
1381.531326,-9696.697840,-222.061783,153.219100
1381.531647,-7550.100608,-666.185348,-1149.143247
1381.531968,-10658.965565,-2146.597232,-536.266849
1381.532289,-9622.677246,0.000000,919.314598
1381.532610,-12731.542202,0.000000,4290.134789
1381.532931,-12879.583391,-518.144159,5286.058936
1381.533252,-8438.347739,-2072.576638,919.314598
1381.533572,-10584.944971,-1924.535449,-612.876398
1381.533893,-8142.265362,-666.185348,383.047749
1381.534214,-8956.491898,1110.308913,995.924147
1381.534535,-10436.903782,1406.391290,3064.381992
1381.534856,-8956.491898,-1184.329507,536.266849
1381.535177,-10288.862594,-1924.535449,1532.190996
1381.535497,-11251.130318,-518.144159,766.095498
1381.535818,-10955.047942,814.226536,2528.115143
1381.536139,-10732.986159,296.082377,3370.820191
1381.536460,-6957.935855,-296.082377,-383.047749
1381.536781,-7920.203579,0.000000,-689.485948
1381.537102,-7476.080014,-148.041188,306.438199
1381.537422,-9326.594869,1480.411884,2145.067394
1381.537743,-9992.780217,-1998.556043,2451.505594
1381.538064,-7328.038826,-1184.329507,0.000000
1381.538385,-10584.944971,-740.205942,1378.971896
1381.538706,-10214.842000,518.144159,3217.601092
1381.539027,-11399.171507,1850.514855,5286.058936
1381.539347,-13619.789333,296.082377,5975.544884
1381.539668,-8808.450710,-1924.535449,1378.971896
1381.539989,-10436.903782,-2368.659014,0.000000
1381.540310,-8956.491898,0.000000,842.705048
1381.540631,-8586.388927,1036.288319,995.924147
1381.540952,-9548.656652,-592.164754,2145.067394
1381.541273,-6291.750507,-74.020594,-2145.067394
1381.541593,-9696.697840,-370.102971,-1685.410096
1381.541914,-10066.800811,-222.061783,229.828649
1381.542235,-9992.780217,592.164754,2911.162892
1381.542556,-11843.295072,0.000000,2834.553343
1381.542877,-8660.409521,0.000000,612.876398
1381.543198,-9918.759623,-1258.350101,-612.876398
1381.543518,-8660.409521,-1332.370696,-306.438199
1381.543839,-10584.944971,-1628.453072,383.047749
1381.544160,-9474.636058,74.020594,995.924147
1381.544481,-8586.388927,-444.123565,-1455.581446
1381.544802,-11473.192101,444.123565,1225.752797
1381.545123,-8956.491898,-592.164754,-229.828649
1381.545443,-6587.832884,888.247130,229.828649
1381.545764,-14063.912898,-222.061783,2068.457845
1381.546085,-7772.162391,296.082377,766.095498
1381.546406,-10436.903782,-3256.906145,-1915.238745
1381.546727,-11769.274478,666.185348,766.095498
1381.547048,-7698.141797,0.000000,-1225.752797
1381.547368,-13693.809927,-1036.288319,3983.696590
1381.547689,-6661.853478,-1480.411884,-229.828649
1381.548010,-9104.533087,-1406.391290,-2834.553343
1381.548331,-9992.780217,444.123565,1302.362347
1381.548652,-8364.327145,1258.350101,1072.533697
1381.548973,-11177.109724,370.102971,2834.553343
1381.549293,-10066.800811,-2368.659014,1991.848295
1381.549614,-8068.244768,-2960.823768,-689.485948
1381.549935,-8956.491898,-1258.350101,1225.752797
1381.550256,-10955.047942,-1332.370696,2681.334243
1381.550577,-10510.924376,0.000000,3753.867940
1381.550898,-8068.244768,-888.247130,919.314598
1381.551219,-9770.718434,-1258.350101,-995.924147
1381.551539,-7105.977043,2146.597232,1072.533697
1381.551860,-10807.006753,444.123565,2298.286494
1381.552181,-9992.780217,-148.041188,3677.258390
1381.552502,-8068.244768,-1110.308913,153.219100
1381.552823,-8882.471304,-2516.700203,-995.924147
1381.553144,-8586.388927,962.267725,2604.724693
1381.553464,-10288.862594,1406.391290,3677.258390
1381.553785,-11843.295072,148.041188,4903.011187
1381.554106,-7846.182985,-296.082377,1378.971896
1381.554427,-8586.388927,-1332.370696,-153.219100
1381.554748,-9548.656652,-518.144159,1915.238745
1381.555069,-10732.986159,740.205942,3907.087040
1381.555389,-11029.068536,0.000000,4290.134789
1381.555710,-9030.512492,-370.102971,1225.752797
1381.556031,-9474.636058,-1924.535449,995.924147
1381.556352,-9474.636058,-888.247130,1915.238745
1381.556673,-10510.924376,370.102971,2604.724693
1381.556994,-10732.986159,-592.164754,3064.381992
1381.557314,-6957.935855,-1036.288319,-229.828649
1381.557635,-9918.759623,-1850.514855,-1378.971896
1381.557956,-8512.368333,-518.144159,153.219100
1381.558277,-9770.718434,444.123565,2145.067394
1381.558598,-11473.192101,-592.164754,3140.991542
1381.558919,-7476.080014,-222.061783,-229.828649
1381.559239,-10140.821405,-1184.329507,-842.705048
1381.559560,-9474.636058,0.000000,842.705048
