#time,accel_x,accel_y,accel_z
1188.204175,-9474.636058,-3108.864956,3064.381992
1188.204495,-9474.636058,-3627.009116,3217.601092
1188.204816,-9178.553681,-3404.947333,3140.991542
1188.205137,-9104.533087,-3182.885551,2834.553343
1188.205457,-9178.553681,-2738.761985,2374.896044
1188.205778,-9400.615463,-1850.514855,1608.800546
1188.206099,-9252.574275,-740.205942,1455.581446
1188.206419,-9770.718434,-370.102971,536.266849
1188.206740,-9696.697840,666.185348,229.828649
1188.207061,-10362.883188,1184.329507,459.657299
1188.207382,-10288.862594,666.185348,612.876398
1188.207702,-10881.027347,1036.288319,919.314598
1188.208023,-11177.109724,148.041188,1302.362347
1188.208344,-10362.883188,-962.267725,1608.800546
1188.208664,-9992.780217,-1850.514855,1532.190996
1188.208985,-9474.636058,-2368.659014,1915.238745
1188.209306,-8882.471304,-3034.844362,1225.752797
1188.209626,-8734.430116,-3108.864956,1225.752797
1188.209947,-8438.347739,-2812.782580,1378.971896
1188.210268,-8364.327145,-2072.576638,1915.238745
1188.210589,-9178.553681,-1480.411884,1838.629195
1188.210909,-9326.594869,-1110.308913,2451.505594
1188.211230,-9474.636058,-962.267725,2681.334243
1188.211551,-9252.574275,-370.102971,4213.525239
1188.211871,-9622.677246,-740.205942,3600.648841
1188.212192,-9844.739029,-1258.350101,3370.820191
1188.212513,-9622.677246,-1776.494261,3753.867940
1188.212833,-9474.636058,-2294.638420,3983.696590
1188.213154,-9104.533087,-2738.761985,4519.963438
1188.213475,-9252.574275,-3330.926739,5056.230287
1188.213796,-8882.471304,-3997.112087,5362.668486
1188.214116,-8660.409521,-4219.173869,5822.325785
1188.214437,-8216.285956,-4959.379811,5592.497135
1188.214758,-8956.491898,-4737.318029,6052.154434
1188.215078,-9030.512492,-4367.215058,6205.373534
1188.215399,-9400.615463,-3923.091493,6818.249932
1188.215720,-8660.409521,-3997.112087,7660.954980
1188.216040,-9326.594869,-3330.926739,6205.373534
1188.216361,-9696.697840,-3108.864956,6435.202183
1188.216682,-9770.718434,-3478.967927,6435.202183
1188.217003,-9992.780217,-3627.009116,6741.640382
1188.217323,-9622.677246,-4663.297435,6511.811733
1188.217644,-10066.800811,-5477.523971,5822.325785
1188.217965,-9474.636058,-4959.379811,5132.839837
1188.218285,-9992.780217,-5329.482782,4979.620737
1188.218606,-9326.594869,-4737.318029,4673.182538
1188.218927,-9474.636058,-4811.338623,3217.601092
1188.219247,-9770.718434,-4219.173869,2604.724693
1188.219568,-9548.656652,-3404.947333,2298.286494
1188.219889,-9622.677246,-3034.844362,2987.772442
1188.220210,-10066.800811,-2368.659014,1225.752797
1188.220530,-9474.636058,-2368.659014,766.095498
1188.220851,-10140.821405,-2516.700203,383.047749
1188.221172,-9770.718434,-2738.761985,612.876398
1188.221492,-10066.800811,-2664.741391,0.000000
1188.221813,-10436.903782,-2738.761985,229.828649
1188.222134,-9548.656652,-2516.700203,-153.219100
1188.222454,-9474.636058,-2146.597232,-459.657299
1188.222775,-9770.718434,-1702.473667,-306.438199
1188.223096,-9548.656652,-962.267725,-383.047749
1188.223417,-9918.759623,-740.205942,-153.219100
1188.223737,-9548.656652,-814.226536,76.609550
1188.224058,-9548.656652,296.082377,1608.800546
1188.224379,-9474.636058,-1332.370696,0.000000
1188.224699,-9252.574275,-1924.535449,229.828649
1188.225020,-9252.574275,-1850.514855,-383.047749
1188.225341,-8586.388927,-1850.514855,-766.095498
1188.225661,-9252.574275,-740.205942,-383.047749
1188.225982,-9104.533087,0.000000,0.000000
1188.226303,-9400.615463,740.205942,0.000000
1188.226624,-9622.677246,1332.370696,766.095498
1188.226944,-9918.759623,1110.308913,1532.190996
1188.227265,-9844.739029,518.144159,995.924147
1188.227586,-10066.800811,370.102971,1149.143247
1188.227906,-9252.574275,222.061783,919.314598
1188.228227,-9548.656652,740.205942,1072.533697
1188.228548,-9474.636058,1554.432478,229.828649
1188.228868,-9474.636058,2886.803174,766.095498
1188.229189,-9696.697840,3330.926739,995.924147
1188.229510,-9918.759623,3775.050304,1455.581446
1188.229830,-10436.903782,3330.926739,2374.896044
1188.230151,-10584.944971,2368.659014,3524.039291
1188.230472,-10436.903782,962.267725,4290.134789
1188.230792,-10214.842000,0.000000,4443.353888
1188.231113,-9474.636058,-592.164754,4136.915689
1188.231434,-9326.594869,-518.144159,4136.915689
1188.231754,-9252.574275,0.000000,3907.087040
1188.232075,-9030.512492,148.041188,4060.306139
1188.232396,-9030.512492,888.247130,2068.457845
1188.232716,-9178.553681,592.164754,2451.505594
1188.233037,-9178.553681,296.082377,2145.067394
1188.233357,-9622.677246,370.102971,1685.410096
1188.233678,-9770.718434,592.164754,919.314598
1188.233999,-10066.800811,1628.453072,689.485948
1188.234319,-10066.800811,1998.556043,612.876398
1188.234640,-10214.842000,2442.679609,689.485948
1188.234961,-10140.821405,2072.576638,995.924147
1188.235281,-9252.574275,1776.494261,919.314598
1188.235602,-9844.739029,-148.041188,1225.752797
1188.235923,-9548.656652,-1924.535449,1685.410096
1188.236243,-9104.533087,-3552.988522,1225.752797
1188.236564,-8808.450710,-4219.173869,-995.924147
1188.236885,-8512.368333,-3775.050304,76.609550
1188.237205,-8512.368333,-2590.720797,0.000000
1188.237526,-8734.430116,-1332.370696,-229.828649
1188.237847,-8734.430116,-296.082377,-536.266849
1188.238167,-9400.615463,-370.102971,0.000000
1188.238488,-9770.718434,-370.102971,-1225.752797
1188.238809,-9844.739029,-814.226536,-1378.971896
1188.239129,-10214.842000,-518.144159,-1378.971896
1188.239450,-10214.842000,-296.082377,-2604.724693
1188.239771,-9918.759623,74.020594,-1685.410096
1188.240091,-9992.780217,518.144159,-1225.752797
1188.240412,-9992.780217,0.000000,-919.314598
1188.240733,-10214.842000,0.000000,1149.143247
1188.241053,-9770.718434,-666.185348,766.095498
1188.241374,-9992.780217,-1776.494261,1838.629195
1188.241695,-9622.677246,-3330.926739,2451.505594
1188.242015,-9474.636058,-4663.297435,2221.676944
1188.242336,-8734.430116,-4959.379811,1685.410096
1188.242657,-9104.533087,-4145.153275,1991.848295
1188.242977,-9252.574275,-2516.700203,2681.334243
1188.243298,-9326.594869,-1480.411884,2451.505594
1188.243619,-9326.594869,-370.102971,1455.581446
1188.243939,-9622.677246,222.061783,1455.581446
1188.244260,-9844.739029,222.061783,1225.752797
1188.244581,-10066.800811,370.102971,919.314598
1188.244901,-9992.780217,444.123565,995.924147
1188.245222,-9918.759623,814.226536,229.828649
1188.245542,-10066.800811,1036.288319,536.266849
1188.245863,-10066.800811,1406.391290,919.314598
1188.246184,-10214.842000,1258.350101,1762.019645
1188.246504,-10362.883188,888.247130,2604.724693
1188.246825,-10214.842000,0.000000,3447.429741
1188.247146,-9696.697840,-1628.453072,3447.429741
1188.247466,-9474.636058,-3108.864956,3370.820191
1188.247787,-8734.430116,-4071.132681,2451.505594
1188.248108,-8512.368333,-3552.988522,2451.505594
1188.248428,-8438.347739,-1702.473667,2374.896044
1188.248749,-8660.409521,0.000000,2298.286494
1188.249070,-8956.491898,444.123565,2604.724693
1188.249390,-9178.553681,1924.535449,1072.533697
1188.249711,-9474.636058,1924.535449,383.047749
1188.250032,-9992.780217,2072.576638,0.000000
1188.250352,-10362.883188,1702.473667,0.000000
1188.250673,-10214.842000,1480.411884,0.000000
1188.250994,-9918.759623,1776.494261,-689.485948
1188.251314,-9696.697840,2368.659014,-383.047749
1188.251635,-9696.697840,2442.679609,0.000000
1188.251956,-10362.883188,2738.761985,0.000000
1188.252276,-10066.800811,2072.576638,612.876398
1188.252597,-9844.739029,1036.288319,1378.971896
1188.252918,-9844.739029,-888.247130,1838.629195
1188.253238,-9252.574275,-2368.659014,1915.238745
1188.253559,-9400.615463,-2738.761985,2068.457845
1188.253880,-9474.636058,-2294.638420,1378.971896
1188.254200,-9178.553681,-814.226536,1532.190996
1188.254521,-9178.553681,0.000000,1225.752797
1188.254842,-9474.636058,814.226536,612.876398
1188.255162,-9474.636058,1332.370696,0.000000
1188.255483,-9622.677246,1554.432478,-612.876398
1188.255804,-9770.718434,1406.391290,-919.314598
1188.256124,-10436.903782,2072.576638,-1072.533697
1188.256445,-10140.821405,1628.453072,-1072.533697
1188.256766,-10214.842000,1702.473667,-1072.533697
1188.257086,-10066.800811,1628.453072,-612.876398
1188.257407,-9918.759623,1332.370696,-766.095498
1188.257728,-10140.821405,444.123565,919.314598
1188.258048,-9918.759623,-518.144159,2298.286494
1188.258369,-9770.718434,-2072.576638,2604.724693
1188.258689,-9252.574275,-3775.050304,2987.772442
1188.259010,-9400.615463,-5181.441594,2681.334243
1188.259331,-8734.430116,-4441.235652,2528.115143
1188.259651,-9030.512492,-3034.844362,2604.724693
1188.259972,-9474.636058,-1554.432478,2528.115143
1188.260293,-9252.574275,-370.102971,2604.724693
1188.260613,-9252.574275,296.082377,1915.238745
1188.260934,-9696.697840,370.102971,1685.410096
1188.261255,-9992.780217,370.102971,1149.143247
1188.261575,-9918.759623,222.061783,919.314598
1188.261896,-9696.697840,666.185348,0.000000
1188.262217,-9696.697840,148.041188,0.000000
1188.262537,-9548.656652,370.102971,76.609550
1188.262858,-9548.656652,444.123565,459.657299
1188.263179,-9474.636058,74.020594,919.314598
1188.263499,-9400.615463,-222.061783,1455.581446
1188.263820,-9548.656652,-1036.288319,2451.505594
1188.264141,-9992.780217,-2072.576638,3140.991542
1188.264461,-9474.636058,-3552.988522,3907.087040
1188.264782,-9400.615463,-3775.050304,2834.553343
1188.265103,-9104.533087,-4293.194464,2451.505594
1188.265423,-9178.553681,-3552.988522,2451.505594
1188.265744,-9178.553681,-2368.659014,2451.505594
1188.266065,-8808.450710,-1332.370696,1149.143247
1188.266385,-8956.491898,-518.144159,612.876398
1188.266706,-9252.574275,0.000000,-383.047749
1188.267027,-9622.677246,444.123565,-612.876398
1188.267347,-10066.800811,592.164754,-995.924147
1188.267668,-9474.636058,444.123565,0.000000
1188.267989,-10140.821405,1110.308913,-919.314598
1188.268309,-10436.903782,1036.288319,-306.438199
1188.268630,-9844.739029,888.247130,-536.266849
1188.268951,-9918.759623,740.205942,0.000000
1188.269271,-9844.739029,592.164754,689.485948
1188.269592,-9770.718434,-148.041188,1378.971896
1188.269913,-9844.739029,-1924.535449,2145.067394
1188.270233,-9474.636058,-3108.864956,2221.676944
1188.270554,-9400.615463,-3478.967927,1378.971896
1188.270874,-8956.491898,-2516.700203,1455.581446
1188.271195,-9622.677246,-1184.329507,1608.800546
1188.271516,-9474.636058,0.000000,1072.533697
1188.271836,-9992.780217,1036.288319,919.314598
1188.272157,-9844.739029,1628.453072,383.047749
1188.272478,-9770.718434,1480.411884,-153.219100
1188.272798,-10214.842000,1184.329507,-459.657299
1188.273119,-9252.574275,1332.370696,0.000000
1188.273440,-9548.656652,1258.350101,-1302.362347
1188.273760,-9844.739029,1258.350101,-1149.143247
1188.274081,-9474.636058,1776.494261,-995.924147
1188.274402,-9474.636058,1850.514855,-536.266849
1188.274722,-9622.677246,1480.411884,536.266849
1188.275043,-10066.800811,1258.350101,2145.067394
1188.275364,-10214.842000,0.000000,3217.601092
1188.275684,-10362.883188,-1924.535449,3907.087040
1188.276005,-9548.656652,-3256.906145,4060.306139
1188.276326,-9400.615463,-3404.947333,3294.210641
1188.276646,-9474.636058,-2516.700203,3064.381992
1188.276967,-9104.533087,-1702.473667,2911.162892
1188.277288,-8808.450710,-592.164754,2298.286494
1188.277608,-9030.512492,0.000000,1149.143247
1188.277929,-9030.512492,518.144159,689.485948
1188.278250,-9474.636058,740.205942,459.657299
1188.278570,-9696.697840,1110.308913,536.266849
1188.278891,-9622.677246,1110.308913,0.000000
1188.279212,-9844.739029,1258.350101,0.000000
1188.279532,-10214.842000,1332.370696,76.609550
1188.279853,-9918.759623,1258.350101,689.485948
1188.280174,-9326.594869,740.205942,1378.971896
1188.280494,-9622.677246,222.061783,1685.410096
1188.280815,-9474.636058,-518.144159,2528.115143
1188.281136,-9696.697840,-1702.473667,2834.553343
1188.281456,-9622.677246,-2960.823768,2604.724693
1188.281777,-8956.491898,-3775.050304,1915.238745
1188.282098,-8956.491898,-3478.967927,1532.190996
1188.282418,-8882.471304,-2220.617826,1302.362347
1188.282739,-9400.615463,-666.185348,995.924147
1188.283060,-9548.656652,296.082377,1225.752797
1188.283380,-9622.677246,814.226536,612.876398
1188.283701,-9844.739029,296.082377,-229.828649
1188.284021,-10214.842000,518.144159,-383.047749
1188.284342,-10066.800811,666.185348,-612.876398
1188.284663,-9770.718434,222.061783,-1072.533697
1188.284983,-9474.636058,518.144159,-1378.971896
1188.285304,-9474.636058,1036.288319,-1455.581446
1188.285625,-9992.780217,1554.432478,-612.876398
1188.285945,-9770.718434,814.226536,76.609550
1188.286266,-9474.636058,148.041188,1149.143247
1188.286587,-9844.739029,-1332.370696,2221.676944
1188.286907,-9918.759623,-2516.700203,2911.162892
1188.287228,-9622.677246,-3775.050304,3217.601092
1188.287549,-9474.636058,-4367.215058,2834.553343
1188.287869,-9178.553681,-3701.029710,2528.115143
1188.288190,-9030.512492,-2368.659014,2757.943793
1188.288511,-9400.615463,-1258.350101,2068.457845
1188.288831,-8882.471304,0.000000,1378.971896
1188.289152,-9104.533087,888.247130,536.266849
1188.289473,-9474.636058,888.247130,536.266849
1188.289793,-8882.471304,0.000000,459.657299
1188.290114,-9844.739029,592.164754,76.609550
1188.290435,-9844.739029,370.102971,-229.828649
1188.290755,-9770.718434,148.041188,0.000000
1188.291076,-9844.739029,444.123565,459.657299
1188.291397,-9918.759623,518.144159,995.924147
1188.291717,-9770.718434,814.226536,1532.190996
1188.292038,-9548.656652,0.000000,2681.334243
1188.292359,-9548.656652,-1332.370696,3217.601092
1188.292679,-9474.636058,-3552.988522,2911.162892
1188.293000,-9400.615463,-4145.153275,2451.505594
1188.293321,-8734.430116,-3701.029710,2221.676944
1188.293641,-9104.533087,-2294.638420,2451.505594
1188.293962,-8808.450710,-814.226536,2374.896044
1188.294283,-9474.636058,148.041188,1915.238745
1188.294603,-9622.677246,1480.411884,1378.971896
1188.294924,-9918.759623,1702.473667,536.266849
1188.295245,-9992.780217,1850.514855,766.095498
1188.295565,-10362.883188,1554.432478,153.219100
1188.295886,-9992.780217,740.205942,-459.657299
1188.296206,-9548.656652,1036.288319,-995.924147
1188.296527,-9844.739029,1184.329507,-612.876398
1188.296848,-9770.718434,1628.453072,-459.657299
1188.297168,-9918.759623,1776.494261,306.438199
1188.297489,-9770.718434,1924.535449,919.314598
1188.297810,-10140.821405,1110.308913,2221.676944
1188.298130,-9622.677246,518.144159,2834.553343
1188.298451,-9622.677246,-2368.659014,2528.115143
1188.298772,-9696.697840,-3034.844362,2374.896044
1188.299092,-9252.574275,-3256.906145,1915.238745
1188.299413,-9104.533087,-2072.576638,1838.629195
1188.299734,-9252.574275,-814.226536,2221.676944
1188.300054,-9104.533087,0.000000,1302.362347
1188.300375,-9400.615463,740.205942,306.438199
1188.300696,-9326.594869,1480.411884,-153.219100
1188.301016,-9992.780217,1850.514855,0.000000
1188.301337,-9770.718434,962.267725,-536.266849
1188.301658,-9844.739029,666.185348,-995.924147
1188.301978,-9696.697840,592.164754,-536.266849
1188.302299,-10214.842000,740.205942,-306.438199
1188.302620,-9474.636058,1332.370696,0.000000
1188.302940,-10066.800811,888.247130,995.924147
1188.303261,-9844.739029,444.123565,1302.362347
1188.303582,-9474.636058,-1184.329507,1685.410096
1188.303902,-9548.656652,-2368.659014,2451.505594
1188.304223,-9474.636058,-3849.070898,2834.553343
1188.304544,-9104.533087,-4145.153275,1915.238745
1188.304864,-8808.450710,-2886.803174,2221.676944
1188.305185,-8734.430116,-1406.391290,1838.629195
1188.305506,-9400.615463,74.020594,1915.238745
1188.305826,-9474.636058,888.247130,1685.410096
1188.306147,-9474.636058,962.267725,766.095498
1188.306468,-10140.821405,1850.514855,383.047749
1188.306788,-10140.821405,814.226536,229.828649
1188.307109,-9548.656652,222.061783,0.000000
1188.307430,-9548.656652,0.000000,-383.047749
1188.307750,-9548.656652,0.000000,-536.266849
1188.308071,-9696.697840,666.185348,0.000000
1188.308391,-9474.636058,666.185348,76.609550
1188.308712,-10066.800811,1036.288319,842.705048
1188.309033,-9992.780217,666.185348,2221.676944
1188.309353,-10510.924376,-592.164754,3370.820191
1188.309674,-9918.759623,-2368.659014,3677.258390
1188.309995,-9474.636058,-3923.091493,3064.381992
1188.310315,-9252.574275,-4293.194464,2528.115143
1188.310636,-9326.594869,-2738.761985,1608.800546
1188.310957,-9400.615463,-1850.514855,2911.162892
1188.311277,-9252.574275,-740.205942,2451.505594
1188.311598,-9030.512492,0.000000,1838.629195
1188.311919,-9474.636058,444.123565,459.657299
1188.312239,-9622.677246,148.041188,383.047749
1188.312560,-9770.718434,666.185348,689.485948
1188.312881,-9992.780217,148.041188,229.828649
1188.313201,-9622.677246,0.000000,-306.438199
1188.313522,-9696.697840,666.185348,-229.828649
1188.313843,-9918.759623,370.102971,229.828649
1188.314163,-9918.759623,962.267725,842.705048
1188.314484,-10214.842000,296.082377,1685.410096
1188.314805,-9474.636058,0.000000,2604.724693
1188.315125,-9770.718434,-1332.370696,2145.067394
1188.315446,-9326.594869,-2960.823768,2221.676944
1188.315767,-8882.471304,-3701.029710,1762.019645
1188.316087,-9178.553681,-2960.823768,919.314598
1188.316408,-8808.450710,-1924.535449,1378.971896
1188.316729,-9474.636058,-444.123565,1149.143247
1188.317049,-9696.697840,666.185348,1149.143247
1188.317370,-9770.718434,1332.370696,689.485948
1188.317691,-10288.862594,1776.494261,383.047749
1188.318011,-9992.780217,1184.329507,-229.828649
1188.318332,-10066.800811,1036.288319,-689.485948
1188.318653,-9992.780217,1110.308913,-919.314598
1188.318973,-10510.924376,1480.411884,-2604.724693
1188.319294,-9844.739029,1480.411884,-842.705048
1188.319615,-9548.656652,1628.453072,-689.485948
1188.319935,-9622.677246,1628.453072,0.000000
1188.320256,-10140.821405,1258.350101,1302.362347
1188.320577,-10362.883188,0.000000,2068.457845
1188.320897,-9918.759623,-1702.473667,2528.115143
1188.321218,-9696.697840,-3552.988522,2604.724693
1188.321538,-9326.594869,-3478.967927,2451.505594
1188.321859,-9474.636058,-3182.885551,3140.991542
1188.322180,-9252.574275,-1998.556043,2604.724693
1188.322500,-8956.491898,-666.185348,1915.238745
1188.322821,-9104.533087,148.041188,1225.752797
1188.323142,-9400.615463,1110.308913,2834.553343
1188.323462,-9474.636058,1332.370696,229.828649
1188.323783,-9696.697840,1036.288319,0.000000
1188.324104,-9400.615463,962.267725,-459.657299
1188.324424,-9548.656652,1036.288319,-766.095498
1188.324745,-10066.800811,1184.329507,0.000000
1188.325066,-9918.759623,1554.432478,383.047749
1188.325386,-9918.759623,1258.350101,842.705048
1188.325707,-9844.739029,814.226536,1762.019645
1188.326028,-9622.677246,-148.041188,2145.067394
1188.326348,-9696.697840,-1628.453072,2757.943793
1188.326669,-9474.636058,-3256.906145,2757.943793
1188.326990,-9030.512492,-4293.194464,2451.505594
1188.327310,-8808.450710,-3256.906145,2374.896044
1188.327631,-8882.471304,-2294.638420,1455.581446
1188.327952,-9252.574275,-148.041188,2221.676944
1188.328273,-9400.615463,666.185348,1378.971896
1188.328593,-9474.636058,814.226536,995.924147
1188.328914,-9770.718434,1258.350101,76.609550
1188.329235,-9918.759623,1036.288319,-153.219100
1188.329556,-10140.821405,444.123565,0.000000
1188.329876,-9548.656652,74.020594,-689.485948
1188.330197,-9770.718434,222.061783,-306.438199
1188.330518,-9622.677246,518.144159,-689.485948
1188.330839,-9844.739029,888.247130,0.000000
1188.331159,-9696.697840,888.247130,383.047749
1188.331480,-9622.677246,666.185348,383.047749
1188.331801,-9474.636058,0.000000,1838.629195
1188.332122,-10066.800811,-1628.453072,2911.162892
1188.332442,-9622.677246,-3330.926739,2681.334243
1188.332763,-9252.574275,-4071.132681,2451.505594
1188.333084,-8808.450710,-4071.132681,2298.286494
1188.333404,-9252.574275,-2368.659014,1685.410096
1188.333725,-9178.553681,-888.247130,1991.848295
1188.334046,-9474.636058,296.082377,1378.971896
1188.334367,-9326.594869,740.205942,2451.505594
1188.334687,-9178.553681,592.164754,0.000000
1188.335008,-10140.821405,222.061783,0.000000
1188.335329,-9622.677246,222.061783,-306.438199
1188.335650,-9918.759623,296.082377,-536.266849
1188.335970,-9992.780217,518.144159,-612.876398
1188.336291,-9770.718434,1110.308913,-383.047749
1188.336612,-10140.821405,1850.514855,766.095498
1188.336933,-10140.821405,1850.514855,1685.410096
1188.337253,-10214.842000,592.164754,2145.067394
1188.337574,-10140.821405,-1258.350101,3217.601092
1188.337895,-9548.656652,-2886.803174,3140.991542
1188.338216,-9474.636058,-4441.235652,2834.553343
1188.338536,-8512.368333,-4293.194464,4136.915689
1188.338857,-8734.430116,-2886.803174,2451.505594
1188.339178,-9252.574275,-1036.288319,2298.286494
1188.339499,-9252.574275,296.082377,1991.848295
1188.339819,-9474.636058,962.267725,1608.800546
1188.340140,-9770.718434,1110.308913,1225.752797
1188.340461,-9770.718434,1480.411884,459.657299
1188.340782,-9992.780217,962.267725,306.438199
1188.341102,-9770.718434,444.123565,-153.219100
1188.341423,-9622.677246,370.102971,0.000000
1188.341744,-9622.677246,518.144159,-306.438199
1188.342064,-9548.656652,888.247130,-459.657299
1188.342385,-9474.636058,1184.329507,0.000000
1188.342706,-10436.903782,1406.391290,459.657299
1188.343027,-9770.718434,666.185348,1991.848295
1188.343347,-9918.759623,-888.247130,2834.553343
1188.343668,-9622.677246,-2886.803174,3217.601092
1188.343989,-9474.636058,-4219.173869,2451.505594
1188.344310,-9104.533087,-4145.153275,2374.896044
1188.344630,-9178.553681,-2738.761985,2451.505594
1188.344951,-9252.574275,-1110.308913,2374.896044
1188.345272,-8808.450710,0.000000,1762.019645
1188.345593,-9326.594869,444.123565,689.485948
1188.345913,-9326.594869,1036.288319,0.000000
1188.346234,-9548.656652,962.267725,-612.876398
1188.346555,-9474.636058,814.226536,-536.266849
1188.346876,-9326.594869,1628.453072,-612.876398
1188.347196,-9622.677246,888.247130,-1302.362347
1188.347517,-9992.780217,1406.391290,-1149.143247
1188.347838,-9844.739029,1850.514855,0.000000
1188.348159,-10214.842000,1554.432478,766.095498
1188.348479,-10066.800811,888.247130,2145.067394
1188.348800,-10214.842000,-592.164754,2451.505594
1188.349121,-9992.780217,-2368.659014,2681.334243
1188.349441,-9474.636058,-4145.153275,2451.505594
1188.349762,-9104.533087,-4071.132681,2221.676944
1188.350083,-8808.450710,-3478.967927,1991.848295
1188.350404,-8956.491898,-1776.494261,1762.019645
1188.350724,-9178.553681,-148.041188,1762.019645
1188.351045,-9474.636058,666.185348,612.876398
1188.351366,-9992.780217,888.247130,842.705048
1188.351687,-10066.800811,1036.288319,612.876398
1188.352007,-10140.821405,888.247130,229.828649
1188.352328,-9918.759623,814.226536,0.000000
1188.352649,-9548.656652,740.205942,-766.095498
1188.352970,-9770.718434,666.185348,-306.438199
1188.353290,-9622.677246,1036.288319,-306.438199
1188.353611,-9622.677246,1776.494261,76.609550
1188.353932,-10140.821405,1406.391290,995.924147
1188.354253,-9696.697840,444.123565,2528.115143
1188.354573,-9770.718434,-1184.329507,2987.772442
1188.354894,-9696.697840,-2812.782580,3753.867940
1188.355215,-9696.697840,-4071.132681,4366.744339
1188.355536,-9252.574275,-4737.318029,3064.381992
1188.355856,-9252.574275,-3775.050304,2911.162892
1188.356177,-9474.636058,-2220.617826,2681.334243
1188.356498,-9326.594869,-740.205942,1532.190996
1188.356819,-8808.450710,1554.432478,1532.190996
1188.357139,-10288.862594,1480.411884,76.609550
1188.357460,-9030.512492,1924.535449,-153.219100
1188.357781,-10140.821405,888.247130,-766.095498
1188.358101,-9474.636058,740.205942,-383.047749
1188.358422,-9178.553681,148.041188,-1378.971896
1188.358743,-9918.759623,666.185348,76.609550
1188.359064,-9770.718434,888.247130,76.609550
1188.359384,-9474.636058,1702.473667,153.219100
1188.359705,-10214.842000,666.185348,2681.334243
1188.360026,-9770.718434,-444.123565,2604.724693
1188.360347,-9992.780217,-1776.494261,3370.820191
1188.360667,-10066.800811,-3404.947333,3217.601092
1188.360988,-8586.388927,-3627.009116,2528.115143
1188.361309,-9252.574275,-3478.967927,2298.286494
1188.361630,-8660.409521,-1998.556043,2068.457845
1188.361950,-8660.409521,-370.102971,1838.629195
1188.362271,-9178.553681,518.144159,1991.848295
1188.362592,-9622.677246,1776.494261,1149.143247
1188.362913,-10140.821405,2072.576638,459.657299
1188.363233,-10510.924376,1702.473667,229.828649
1188.363554,-9992.780217,1406.391290,-1072.533697
1188.363875,-9992.780217,740.205942,-842.705048
1188.364196,-9696.697840,814.226536,-1072.533697
1188.364516,-9844.739029,1258.350101,-536.266849
1188.364837,-9400.615463,1110.308913,-306.438199
1188.365158,-9622.677246,888.247130,0.000000
1188.365478,-9400.615463,740.205942,1149.143247
1188.365799,-9474.636058,-370.102971,1915.238745
1188.366120,-10140.821405,-2294.638420,2528.115143
1188.366441,-9252.574275,-3849.070898,2221.676944
1188.366761,-9030.512492,-4737.318029,1991.848295
1188.367082,-9326.594869,-3849.070898,2298.286494
1188.367403,-9104.533087,-1998.556043,2145.067394
1188.367724,-10288.862594,-814.226536,1225.752797
1188.368044,-9474.636058,148.041188,1455.581446
1188.368365,-9252.574275,1036.288319,306.438199
1188.368686,-9770.718434,962.267725,-383.047749
1188.369007,-9474.636058,1110.308913,-383.047749
1188.369327,-9474.636058,962.267725,-995.924147
1188.369648,-9622.677246,1406.391290,-842.705048
1188.369969,-9918.759623,1480.411884,-536.266849
1188.370290,-10066.800811,1628.453072,0.000000
1188.370610,-10140.821405,1776.494261,229.828649
1188.370931,-9844.739029,1184.329507,1455.581446
1188.371252,-10140.821405,222.061783,2374.896044
1188.371573,-9844.739029,-1184.329507,2987.772442
1188.371893,-10140.821405,-2516.700203,3140.991542
1188.372214,-9178.553681,-4145.153275,2451.505594
1188.372535,-9030.512492,-3627.009116,1915.238745
1188.372856,-9474.636058,-2368.659014,2221.676944
1188.373176,-9326.594869,-740.205942,2298.286494
1188.373497,-9548.656652,74.020594,1838.629195
1188.373818,-9474.636058,814.226536,1149.143247
1188.374138,-9844.739029,962.267725,306.438199
1188.374459,-9992.780217,814.226536,76.609550
1188.374780,-9844.739029,518.144159,-229.828649
1188.375101,-9252.574275,74.020594,-995.924147
1188.375421,-9548.656652,148.041188,-1302.362347
1188.375742,-9622.677246,592.164754,-536.266849
1188.376063,-9770.718434,2812.782580,-995.924147
1188.376384,-9992.780217,1776.494261,229.828649
1188.376704,-9918.759623,1480.411884,1762.019645
1188.377025,-10214.842000,-222.061783,2681.334243
1188.377346,-9770.718434,-2368.659014,2987.772442
1188.377667,-9622.677246,-3849.070898,2987.772442
1188.377987,-9474.636058,-4367.215058,2834.553343
1188.378308,-9252.574275,-3701.029710,2987.772442
1188.378629,-9030.512492,-2220.617826,2757.943793
1188.378950,-9474.636058,-814.226536,2145.067394
1188.379270,-9326.594869,370.102971,1762.019645
1188.379591,-9326.594869,1110.308913,1072.533697
1188.379912,-9474.636058,1406.391290,612.876398
1188.380233,-9474.636058,1554.432478,0.000000
1188.380553,-9548.656652,444.123565,-306.438199
1188.380874,-9548.656652,148.041188,-1149.143247
1188.381195,-9548.656652,222.061783,-1149.143247
1188.381515,-9622.677246,1036.288319,-1378.971896
1188.381836,-9918.759623,1776.494261,0.000000
1188.382157,-10214.842000,2146.597232,1072.533697
1188.382478,-9844.739029,888.247130,1532.190996
1188.382798,-9918.759623,-592.164754,2221.676944
1188.383119,-9548.656652,-3034.844362,2681.334243
1188.383440,-9696.697840,-4663.297435,2528.115143
1188.383761,-8956.491898,-5033.400406,2068.457845
1188.384081,-8882.471304,-3775.050304,1915.238745
1188.384402,-9474.636058,-1110.308913,919.314598
1188.384723,-9400.615463,148.041188,2068.457845
1188.385044,-9474.636058,1332.370696,1072.533697
1188.385364,-9622.677246,1554.432478,229.828649
1188.385685,-10066.800811,1184.329507,612.876398
1188.386006,-10066.800811,1184.329507,0.000000
1188.386327,-9918.759623,444.123565,-919.314598
1188.386647,-9696.697840,444.123565,-1149.143247
1188.386968,-9770.718434,888.247130,-842.705048
1188.387289,-9326.594869,1184.329507,-766.095498
1188.387610,-9770.718434,1406.391290,-76.609550
1188.387930,-9696.697840,1554.432478,766.095498
1188.388251,-9918.759623,814.226536,2298.286494
1188.388572,-10362.883188,-592.164754,3140.991542
1188.388893,-9548.656652,-2368.659014,3753.867940
1188.389213,-9474.636058,-4293.194464,3064.381992
1188.389534,-9178.553681,-4219.173869,3064.381992
1188.389855,-9252.574275,-3478.967927,2298.286494
1188.390175,-8660.409521,-1184.329507,2604.724693
1188.390496,-9474.636058,0.000000,1991.848295
1188.390817,-9252.574275,1258.350101,1455.581446
1188.391138,-9474.636058,1258.350101,153.219100
1188.391458,-9696.697840,888.247130,0.000000
1188.391779,-9474.636058,444.123565,-536.266849
1188.392100,-9622.677246,296.082377,-919.314598
1188.392421,-9622.677246,444.123565,-689.485948
1188.392741,-9178.553681,666.185348,306.438199
1188.393062,-9770.718434,1480.411884,0.000000
1188.393383,-9844.739029,1036.288319,1149.143247
1188.393704,-9992.780217,518.144159,1915.238745
1188.394024,-9918.759623,-592.164754,2604.724693
1188.394345,-9844.739029,-2368.659014,3294.210641
1188.394666,-9252.574275,-4071.132681,3064.381992
1188.394987,-8512.368333,-4515.256246,2374.896044
1188.395307,-8956.491898,-3627.009116,2145.067394
1188.395628,-9326.594869,-1480.411884,2451.505594
1188.395949,-9474.636058,-296.082377,2298.286494
1188.396270,-9474.636058,740.205942,1608.800546
1188.396590,-9474.636058,1332.370696,536.266849
1188.396911,-9474.636058,1184.329507,766.095498
1188.397232,-10288.862594,1184.329507,0.000000
1188.397553,-9696.697840,666.185348,-459.657299
1188.397873,-9622.677246,0.000000,-612.876398
1188.398194,-9622.677246,148.041188,-1302.362347
1188.398515,-9918.759623,740.205942,-919.314598
1188.398835,-9548.656652,1110.308913,0.000000
1188.399156,-9992.780217,1554.432478,766.095498
1188.399477,-9622.677246,1036.288319,1455.581446
1188.399798,-9400.615463,-740.205942,2757.943793
1188.400118,-9548.656652,-2368.659014,2757.943793
1188.400439,-9474.636058,-3849.070898,2681.334243
1188.400760,-9252.574275,-4367.215058,2604.724693
1188.401081,-8438.347739,-3775.050304,2374.896044
1188.401401,-9400.615463,-2294.638420,2528.115143
1188.401722,-9474.636058,-740.205942,1915.238745
1188.402043,-9326.594869,518.144159,919.314598
1188.402364,-9474.636058,1406.391290,76.609550
1188.402684,-9696.697840,1554.432478,-459.657299
1188.403005,-9548.656652,1110.308913,-306.438199
1188.403326,-9992.780217,1036.288319,-689.485948
1188.403647,-9918.759623,814.226536,-689.485948
1188.403967,-9992.780217,518.144159,-536.266849
1188.404288,-9992.780217,666.185348,383.047749
1188.404609,-9992.780217,888.247130,919.314598
1188.404930,-10066.800811,592.164754,1991.848295
1188.405250,-9696.697840,148.041188,2681.334243
1188.405571,-9844.739029,-1924.535449,3294.210641
1188.405892,-9474.636058,-3552.988522,3370.820191
1188.406212,-9030.512492,-4737.318029,2834.553343
1188.406533,-8882.471304,-4219.173869,2068.457845
1188.406854,-8808.450710,-2368.659014,1838.629195
1188.407175,-9326.594869,-592.164754,2374.896044
1188.407495,-9178.553681,666.185348,1762.019645
1188.407816,-9696.697840,1184.329507,995.924147
1188.408137,-9992.780217,1480.411884,0.000000
1188.408458,-10140.821405,1258.350101,383.047749
1188.408778,-10436.903782,888.247130,153.219100
1188.409099,-10066.800811,148.041188,-229.828649
1188.409420,-9252.574275,222.061783,153.219100
1188.409741,-9992.780217,370.102971,-306.438199
1188.410061,-9474.636058,1184.329507,-153.219100
1188.410382,-9844.739029,1036.288319,842.705048
1188.410703,-9548.656652,1258.350101,1378.971896
1188.411024,-9770.718434,0.000000,2374.896044
1188.411344,-9918.759623,-1332.370696,2681.334243
1188.411665,-9622.677246,-3034.844362,2604.724693
1188.411986,-9252.574275,-3701.029710,2145.067394
1188.412307,-9178.553681,-2590.720797,2451.505594
1188.412627,-9474.636058,-1924.535449,2374.896044
1188.412948,-9548.656652,-518.144159,2374.896044
1188.413269,-9252.574275,370.102971,1455.581446
1188.413590,-9770.718434,1924.535449,-153.219100
1188.413910,-9326.594869,1406.391290,-306.438199
1188.414231,-9622.677246,1480.411884,-919.314598
1188.414552,-9548.656652,1332.370696,-995.924147
1188.414872,-9622.677246,1258.350101,-1302.362347
1188.415193,-9474.636058,1332.370696,-1762.019645
1188.415514,-9918.759623,2146.597232,-306.438199
1188.415835,-10288.862594,2294.638420,306.438199
1188.416155,-10362.883188,1628.453072,1225.752797
1188.416476,-10658.965565,592.164754,1838.629195
1188.416797,-9696.697840,-1480.411884,2604.724693
1188.417118,-9696.697840,-3182.885551,2451.505594
1188.417438,-9252.574275,-4219.173869,2298.286494
1188.417759,-9178.553681,-3849.070898,1532.190996
1188.418080,-8882.471304,-2442.679609,2068.457845
1188.418401,-8882.471304,-666.185348,1838.629195
1188.418721,-9326.594869,296.082377,2145.067394
1188.419042,-9474.636058,814.226536,1532.190996
1188.419363,-9770.718434,1184.329507,612.876398
1188.419684,-9696.697840,814.226536,306.438199
1188.420004,-9992.780217,370.102971,76.609550
1188.420325,-9548.656652,222.061783,-306.438199
1188.420646,-9844.739029,0.000000,-153.219100
1188.420967,-10066.800811,814.226536,-229.828649
1188.421287,-9474.636058,1036.288319,0.000000
1188.421608,-9696.697840,1480.411884,459.657299
1188.421929,-9696.697840,1850.514855,1532.190996
1188.422249,-9844.739029,148.041188,2451.505594
1188.422570,-9548.656652,-962.267725,3064.381992
1188.422891,-9918.759623,-3108.864956,3217.601092
1188.423212,-9400.615463,-4515.256246,2987.772442
1188.423532,-9178.553681,-4145.153275,2681.334243
1188.423853,-9400.615463,-2886.803174,2987.772442
1188.424174,-9252.574275,-962.267725,2298.286494
1188.424495,-9474.636058,0.000000,1608.800546
1188.424815,-9252.574275,962.267725,1149.143247
1188.425136,-9474.636058,1036.288319,0.000000
1188.425457,-9992.780217,1036.288319,0.000000
1188.425778,-9918.759623,444.123565,-306.438199
1188.426098,-10658.965565,222.061783,-1532.190996
1188.426419,-9770.718434,74.020594,-1149.143247
1188.426740,-9918.759623,296.082377,-766.095498
1188.427061,-9770.718434,1036.288319,-306.438199
1188.427381,-9918.759623,1628.453072,1302.362347
1188.427702,-10436.903782,444.123565,1991.848295
1188.428023,-9474.636058,-1184.329507,2528.115143
1188.428344,-9918.759623,-3108.864956,2604.724693
1188.428664,-9696.697840,-4293.194464,2451.505594
1188.428985,-8956.491898,-4737.318029,2068.457845
1188.429306,-8808.450710,-3552.988522,2145.067394
1188.429627,-9252.574275,-1628.453072,1838.629195
1188.429947,-9178.553681,-222.061783,1455.581446
1188.430268,-9104.533087,1184.329507,1685.410096
1188.430589,-9548.656652,740.205942,306.438199
1188.430909,-9474.636058,814.226536,-536.266849
1188.431230,-10066.800811,814.226536,-612.876398
1188.431551,-9696.697840,592.164754,-612.876398
1188.431871,-9548.656652,370.102971,-536.266849
1188.432192,-9696.697840,592.164754,-536.266849
1188.432513,-9770.718434,1110.308913,-153.219100
1188.432834,-9918.759623,1406.391290,229.828649
1188.433154,-10066.800811,1480.411884,612.876398
1188.433475,-9696.697840,1110.308913,1762.019645
1188.433796,-9696.697840,-222.061783,2451.505594
1188.434116,-9474.636058,-2146.597232,2834.553343
1188.434437,-9400.615463,-3997.112087,2451.505594
1188.434758,-9030.512492,-3997.112087,2298.286494
1188.435078,-9178.553681,-3256.906145,2068.457845
1188.435399,-9400.615463,-1480.411884,2451.505594
1188.435720,-9474.636058,0.000000,2374.896044
1188.436041,-9474.636058,592.164754,1302.362347
1188.436361,-9326.594869,1406.391290,689.485948
1188.436682,-9770.718434,1258.350101,383.047749
1188.437003,-9992.780217,1110.308913,383.047749
1188.437323,-9622.677246,666.185348,0.000000
1188.437644,-9918.759623,740.205942,0.000000
1188.437965,-9770.718434,1332.370696,-383.047749
1188.438285,-9918.759623,1406.391290,766.095498
1188.438606,-9844.739029,518.144159,1302.362347
1188.438927,-10066.800811,962.267725,1991.848295
1188.439248,-9844.739029,0.000000,2528.115143
1188.439568,-9770.718434,-1628.453072,2834.553343
1188.439889,-9622.677246,-3404.947333,2757.943793
1188.440210,-9030.512492,-4145.153275,2298.286494
1188.440530,-8882.471304,-3404.947333,1149.143247
1188.440851,-9252.574275,-1628.453072,1225.752797
1188.441172,-9030.512492,222.061783,1149.143247
1188.441492,-9548.656652,1554.432478,1455.581446
1188.441813,-9992.780217,1776.494261,689.485948
1188.442134,-9992.780217,1258.350101,-153.219100
1188.442455,-9992.780217,814.226536,-383.047749
1188.442775,-9622.677246,-148.041188,-995.924147
1188.443096,-9548.656652,-296.082377,-1225.752797
1188.443417,-9474.636058,-148.041188,-1455.581446
1188.443737,-9622.677246,444.123565,-1225.752797
1188.444058,-9622.677246,1110.308913,-689.485948
1188.444379,-9844.739029,1406.391290,0.000000
1188.444699,-9696.697840,1332.370696,1532.190996
1188.445020,-10584.944971,74.020594,2298.286494
1188.445341,-9844.739029,-1628.453072,3140.991542
1188.445662,-9844.739029,-3775.050304,2374.896044
1188.445982,-9474.636058,-4145.153275,2681.334243
1188.446303,-9252.574275,-3108.864956,2604.724693
1188.446624,-9474.636058,-1480.411884,2528.115143
1188.446944,-9104.533087,-740.205942,2298.286494
1188.447265,-9030.512492,370.102971,919.314598
1188.447586,-9178.553681,1036.288319,229.828649
1188.447906,-9474.636058,1332.370696,0.000000
1188.448227,-9992.780217,1184.329507,229.828649
1188.448548,-9548.656652,370.102971,0.000000
1188.448869,-9622.677246,-148.041188,-766.095498
1188.449189,-9844.739029,296.082377,0.000000
1188.449510,-10288.862594,962.267725,459.657299
1188.449831,-10214.842000,1998.556043,1838.629195
1188.450151,-9992.780217,1406.391290,2528.115143
1188.450472,-9918.759623,0.000000,2911.162892
1188.450793,-9474.636058,-1924.535449,3140.991542
1188.451114,-9474.636058,-4145.153275,3064.381992
1188.451434,-9030.512492,-4885.359217,1685.410096
1188.451755,-8586.388927,-4589.276840,2298.286494
1188.452076,-8512.368333,-3182.885551,2298.286494
1188.452396,-8882.471304,-962.267725,2374.896044
1188.452717,-9326.594869,74.020594,2068.457845
1188.453038,-9474.636058,814.226536,1838.629195
1188.453358,-10140.821405,888.247130,689.485948
1188.453679,-10066.800811,518.144159,612.876398
1188.454000,-10288.862594,222.061783,0.000000
1188.454321,-9104.533087,518.144159,-766.095498
1188.454641,-9548.656652,74.020594,-1072.533697
1188.454962,-9844.739029,666.185348,-919.314598
1188.455283,-9474.636058,1702.473667,-459.657299
1188.455603,-10140.821405,1850.514855,-1225.752797
1188.455924,-9696.697840,2072.576638,1072.533697
1188.456245,-10140.821405,148.041188,1991.848295
1188.456565,-9992.780217,-1554.432478,2068.457845
1188.456886,-9918.759623,-3108.864956,2451.505594
1188.457207,-9400.615463,-4367.215058,1915.238745
1188.457528,-9178.553681,-3552.988522,1838.629195
1188.457848,-9252.574275,-2294.638420,2068.457845
1188.458169,-9252.574275,-592.164754,1762.019645
1188.458490,-9622.677246,296.082377,612.876398
1188.458810,-9400.615463,1036.288319,0.000000
1188.459131,-9622.677246,1332.370696,-612.876398
1188.459452,-10066.800811,1406.391290,-383.047749
1188.459772,-9992.780217,888.247130,-612.876398
1188.460093,-9696.697840,222.061783,-1225.752797
1188.460414,-9696.697840,222.061783,-1455.581446
1188.460735,-9696.697840,518.144159,-919.314598
1188.461055,-9992.780217,1702.473667,306.438199
1188.461376,-9844.739029,1480.411884,1762.019645
1188.461697,-10140.821405,666.185348,2374.896044
1188.462017,-9770.718434,-1110.308913,2834.553343
1188.462338,-9622.677246,-3034.844362,2911.162892
1188.462659,-8438.347739,-4663.297435,3677.258390
1188.462979,-8586.388927,-4219.173869,2298.286494
1188.463300,-8586.388927,-3108.864956,1838.629195
1188.463621,-9030.512492,-962.267725,2145.067394
1188.463942,-9030.512492,666.185348,2987.772442
1188.464262,-9474.636058,1702.473667,1532.190996
1188.464583,-9992.780217,2072.576638,919.314598
1188.464904,-9918.759623,1406.391290,383.047749
1188.465224,-9992.780217,888.247130,153.219100
1188.465545,-9844.739029,518.144159,0.000000
1188.465866,-9770.718434,296.082377,-306.438199
1188.466186,-9548.656652,888.247130,-229.828649
1188.466507,-9696.697840,1258.350101,0.000000
1188.466828,-10140.821405,1628.453072,1455.581446
1188.467149,-9696.697840,1480.411884,1455.581446
1188.467469,-10066.800811,666.185348,2221.676944
1188.467790,-9696.697840,-1036.288319,2987.772442
1188.468111,-9474.636058,-2664.741391,2757.943793
1188.468431,-9474.636058,-4219.173869,2451.505594
1188.468752,-8956.491898,-3330.926739,2221.676944
1188.469073,-9474.636058,-2442.679609,2451.505594
1188.469393,-9252.574275,-888.247130,2221.676944
1188.469714,-9622.677246,74.020594,2068.457845
1188.470035,-9622.677246,888.247130,689.485948
1188.470356,-9622.677246,1406.391290,306.438199
1188.470676,-9918.759623,1258.350101,-229.828649
1188.470997,-9918.759623,1110.308913,-383.047749
1188.471318,-9844.739029,222.061783,-919.314598
1188.471638,-9548.656652,444.123565,-689.485948
1188.471959,-9770.718434,888.247130,-459.657299
1188.472280,-9918.759623,1554.432478,153.219100
1188.472600,-9770.718434,1480.411884,1302.362347
1188.472921,-9918.759623,888.247130,1762.019645
1188.473242,-9992.780217,0.000000,2374.896044
1188.473563,-9548.656652,-2442.679609,2451.505594
1188.473883,-9474.636058,-4071.132681,2451.505594
1188.474204,-8882.471304,-4737.318029,1915.238745
1188.474525,-8808.450710,-3404.947333,1838.629195
1188.474845,-8882.471304,-1776.494261,2298.286494
1188.475166,-8808.450710,0.000000,2834.553343
1188.475487,-9400.615463,1036.288319,1991.848295
1188.475808,-9696.697840,1702.473667,1378.971896
1188.476128,-9844.739029,814.226536,842.705048
1188.476449,-9844.739029,962.267725,306.438199
1188.476770,-9696.697840,-296.082377,0.000000
1188.477090,-9474.636058,-666.185348,-153.219100
1188.477411,-9696.697840,-74.020594,-383.047749
1188.477732,-9696.697840,222.061783,-229.828649
1188.478052,-9474.636058,962.267725,76.609550
1188.478373,-9918.759623,1036.288319,766.095498
1188.478694,-10066.800811,666.185348,1608.800546
1188.479015,-10066.800811,-370.102971,2374.896044
1188.479335,-8660.409521,-2590.720797,2911.162892
1188.479656,-9400.615463,-3627.009116,2374.896044
1188.479977,-9178.553681,-3997.112087,2145.067394
1188.480297,-9474.636058,-3404.947333,2298.286494
1188.480618,-9770.718434,-1702.473667,2911.162892
1188.480939,-9400.615463,-740.205942,1149.143247
1188.481259,-9548.656652,592.164754,1149.143247
1188.481580,-9696.697840,1184.329507,0.000000
1188.481901,-9622.677246,1184.329507,-306.438199
1188.482222,-9992.780217,814.226536,-919.314598
1188.482542,-9474.636058,222.061783,-1302.362347
1188.482863,-9474.636058,222.061783,-2145.067394
1188.483184,-9918.759623,888.247130,-1072.533697
1188.483504,-9770.718434,2516.700203,-995.924147
1188.483825,-9622.677246,2072.576638,0.000000
1188.484146,-9918.759623,1258.350101,1608.800546
1188.484466,-9918.759623,-296.082377,1838.629195
1188.484787,-10288.862594,-1628.453072,2987.772442
1188.485108,-9770.718434,-3404.947333,3370.820191
1188.485429,-9178.553681,-4219.173869,2451.505594
1188.485749,-8734.430116,-3627.009116,2298.286494
1188.486070,-8734.430116,-2294.638420,1915.238745
1188.486391,-9178.553681,-444.123565,1915.238745
1188.486711,-9104.533087,888.247130,2068.457845
1188.487032,-9474.636058,1258.350101,1455.581446
1188.487353,-9548.656652,1036.288319,612.876398
1188.487673,-9992.780217,1110.308913,1532.190996
1188.487994,-10140.821405,666.185348,383.047749
1188.488315,-9770.718434,444.123565,0.000000
1188.488636,-9474.636058,518.144159,-383.047749
1188.488956,-9474.636058,666.185348,1072.533697
1188.489277,-9622.677246,1184.329507,-229.828649
1188.489598,-9770.718434,1184.329507,383.047749
1188.489918,-9696.697840,1258.350101,2068.457845
1188.490239,-10362.883188,-148.041188,2911.162892
1188.490560,-9992.780217,-1924.535449,3524.039291
1188.490880,-9622.677246,-4071.132681,3064.381992
1188.491201,-9400.615463,-4515.256246,2681.334243
1188.491522,-9326.594869,-3849.070898,2451.505594
1188.491843,-9030.512492,-1998.556043,2298.286494
1188.492163,-9104.533087,-1036.288319,2145.067394
1188.492484,-9326.594869,222.061783,1685.410096
1188.492805,-9400.615463,740.205942,1072.533697
1188.493125,-9474.636058,1332.370696,1685.410096
1188.493446,-9696.697840,1184.329507,-153.219100
1188.493767,-9844.739029,1110.308913,-536.266849
1188.494087,-9770.718434,962.267725,-995.924147
1188.494408,-9696.697840,1406.391290,-919.314598
1188.494729,-9104.533087,1776.494261,-919.314598
1188.495050,-10214.842000,1850.514855,-306.438199
1188.495370,-10066.800811,1554.432478,689.485948
1188.495691,-10214.842000,296.082377,1532.190996
1188.496012,-10584.944971,-1110.308913,2681.334243
1188.496332,-9696.697840,-3108.864956,2374.896044
1188.496653,-9252.574275,-4441.235652,2145.067394
1188.496974,-8734.430116,-4367.215058,1685.410096
1188.497294,-8586.388927,-3034.844362,1378.971896
1188.497615,-8882.471304,-1332.370696,1149.143247
1188.497936,-9104.533087,0.000000,1225.752797
1188.498257,-9474.636058,740.205942,842.705048
1188.498577,-9770.718434,1480.411884,229.828649
1188.498898,-10066.800811,1036.288319,0.000000
1188.499219,-9844.739029,666.185348,-383.047749
1188.499539,-9548.656652,0.000000,-842.705048
1188.499860,-9548.656652,0.000000,-1149.143247
1188.500181,-9844.739029,296.082377,0.000000
1188.500502,-9696.697840,666.185348,0.000000
1188.500822,-9548.656652,1036.288319,229.828649
1188.501143,-9474.636058,1258.350101,1455.581446
1188.501464,-9844.739029,518.144159,3600.648841
1188.501784,-9918.759623,-962.267725,3140.991542
1188.502105,-9622.677246,-3256.906145,3447.429741
1188.502426,-9326.594869,-3923.091493,2681.334243
1188.502746,-9548.656652,-3478.967927,2911.162892
1188.503067,-9474.636058,-2146.597232,2834.553343
1188.503388,-9474.636058,-888.247130,2911.162892
1188.503709,-9104.533087,0.000000,1455.581446
1188.504029,-9474.636058,962.267725,995.924147
1188.504350,-9474.636058,962.267725,-995.924147
1188.504671,-9770.718434,1110.308913,536.266849
1188.504991,-9918.759623,518.144159,0.000000
1188.505312,-9770.718434,444.123565,-536.266849
1188.505633,-9770.718434,518.144159,-1378.971896
1188.505953,-10140.821405,1258.350101,-153.219100
1188.506274,-9918.759623,1702.473667,612.876398
1188.506595,-9844.739029,1702.473667,1455.581446
1188.506916,-9992.780217,888.247130,1991.848295
1188.507236,-9918.759623,-592.164754,2451.505594
1188.507557,-9770.718434,-2368.659014,3140.991542
1188.507878,-9770.718434,-4293.194464,2757.943793
1188.508198,-8956.491898,-4293.194464,2298.286494
1188.508519,-8438.347739,-3256.906145,1608.800546
1188.508840,-9178.553681,-1110.308913,1915.238745
1188.509160,-9474.636058,148.041188,1991.848295
1188.509481,-9400.615463,962.267725,1378.971896
1188.509802,-9474.636058,1258.350101,1149.143247
1188.510123,-9622.677246,1184.329507,-383.047749
1188.510443,-10140.821405,814.226536,0.000000
1188.510764,-9770.718434,296.082377,-153.219100
1188.511085,-9474.636058,74.020594,-1072.533697
1188.511405,-9104.533087,-222.061783,-1149.143247
1188.511726,-9770.718434,666.185348,-995.924147
1188.512047,-9696.697840,1258.350101,-306.438199
1188.512367,-9992.780217,1406.391290,842.705048
1188.512688,-9918.759623,962.267725,2604.724693
1188.513009,-10066.800811,-592.164754,2681.334243
1188.513330,-9770.718434,-2442.679609,3140.991542
1188.513650,-9400.615463,-4145.153275,2757.943793
1188.513971,-9030.512492,-3997.112087,3753.867940
1188.514292,-9252.574275,-2812.782580,2604.724693
1188.514612,-8956.491898,-1480.411884,2145.067394
1188.514933,-9030.512492,-444.123565,1302.362347
1188.515254,-9030.512492,666.185348,919.314598
1188.515574,-9400.615463,1480.411884,76.609550
1188.515895,-9622.677246,1110.308913,0.000000
1188.516216,-9844.739029,1332.370696,0.000000
1188.516537,-10362.883188,740.205942,-612.876398
1188.516857,-9844.739029,1184.329507,-1378.971896
1188.517178,-10140.821405,814.226536,-306.438199
1188.517499,-9992.780217,1184.329507,0.000000
1188.517819,-9844.739029,1332.370696,536.266849
1188.518140,-10066.800811,962.267725,1762.019645
1188.518461,-9770.718434,-370.102971,1762.019645
1188.518781,-9770.718434,-2072.576638,2451.505594
1188.519102,-9548.656652,-3849.070898,2451.505594
1188.519423,-9104.533087,-4293.194464,2298.286494
1188.519744,-8808.450710,-3478.967927,1302.362347
1188.520064,-8956.491898,-1998.556043,1532.190996
1188.520385,-9474.636058,-370.102971,1915.238745
1188.520706,-9918.759623,814.226536,1762.019645
1188.521026,-10362.883188,1258.350101,1455.581446
1188.521347,-10066.800811,1258.350101,459.657299
1188.521668,-10066.800811,740.205942,76.609550
1188.521988,-9696.697840,74.020594,-459.657299
1188.522309,-9474.636058,74.020594,-842.705048
1188.522630,-9548.656652,296.082377,-766.095498
1188.522951,-9548.656652,740.205942,-229.828649
1188.523271,-9474.636058,1332.370696,229.828649
1188.523592,-9844.739029,1850.514855,1225.752797
1188.523913,-9918.759623,1332.370696,1685.410096
1188.524233,-10288.862594,0.000000,2604.724693
1188.524554,-9770.718434,-1554.432478,3140.991542
1188.524875,-9474.636058,-3552.988522,3064.381992
1188.525196,-9474.636058,-3997.112087,1991.848295
1188.525516,-9104.533087,-3404.947333,2604.724693
1188.525837,-9030.512492,-1628.453072,2451.505594
1188.526158,-9474.636058,-444.123565,2221.676944
1188.526478,-9178.553681,518.144159,2145.067394
1188.526799,-9400.615463,1480.411884,612.876398
1188.527120,-9474.636058,1332.370696,153.219100
1188.527440,-9548.656652,1036.288319,-383.047749
1188.527761,-9252.574275,666.185348,-919.314598
1188.528082,-9474.636058,74.020594,-1302.362347
1188.528403,-9770.718434,444.123565,-919.314598
1188.528723,-9844.739029,1332.370696,0.000000
1188.529044,-9918.759623,1702.473667,383.047749
1188.529365,-9918.759623,1406.391290,1378.971896
1188.529685,-9992.780217,444.123565,2374.896044
1188.530006,-9548.656652,-1554.432478,2604.724693
1188.530327,-9326.594869,-3627.009116,2298.286494
1188.530648,-8956.491898,-4589.276840,2221.676944
1188.530968,-8290.306550,-3701.029710,1302.362347
1188.531289,-8734.430116,-2146.597232,1302.362347
1188.531610,-9178.553681,0.000000,1838.629195
1188.531931,-9622.677246,666.185348,1685.410096
1188.532251,-10214.842000,1258.350101,1072.533697
1188.532572,-10066.800811,1480.411884,919.314598
1188.532893,-10807.006753,962.267725,919.314598
1188.533214,-10140.821405,518.144159,459.657299
1188.533535,-9844.739029,1184.329507,-995.924147
1188.533855,-9474.636058,148.041188,-842.705048
1188.534176,-9696.697840,814.226536,0.000000
1188.534497,-9548.656652,1184.329507,229.828649
1188.534818,-9622.677246,1554.432478,995.924147
1188.535138,-9918.759623,1184.329507,1762.019645
1188.535459,-9622.677246,74.020594,2757.943793
1188.535780,-10066.800811,-1924.535449,3753.867940
1188.536101,-9992.780217,-4441.235652,3907.087040
1188.536421,-9326.594869,-4811.338623,2757.943793
1188.536742,-9252.574275,-4145.153275,2987.772442
1188.537063,-9326.594869,-2368.659014,2987.772442
1188.537384,-9400.615463,-888.247130,2834.553343
1188.537704,-9474.636058,-444.123565,1608.800546
1188.538025,-9326.594869,888.247130,383.047749
1188.538346,-9400.615463,1332.370696,-229.828649
1188.538667,-9548.656652,592.164754,-383.047749
1188.538987,-9326.594869,74.020594,-383.047749
1188.539308,-9918.759623,222.061783,-995.924147
1188.539629,-9844.739029,148.041188,-919.314598
1188.539950,-9992.780217,666.185348,-612.876398
1188.540270,-10066.800811,1184.329507,153.219100
1188.540591,-10362.883188,962.267725,306.438199
1188.540912,-10140.821405,592.164754,1532.190996
1188.541233,-9770.718434,-1184.329507,2298.286494
1188.541553,-9548.656652,-3108.864956,2221.676944
1188.541874,-9178.553681,-5033.400406,1225.752797
1188.542195,-8734.430116,-4589.276840,1685.410096
1188.542516,-8956.491898,-3108.864956,1685.410096
1188.542837,-9030.512492,-962.267725,1915.238745
1188.543157,-9474.636058,222.061783,1532.190996
1188.543478,-9474.636058,814.226536,1072.533697
1188.543799,-9844.739029,1184.329507,383.047749
1188.544120,-9992.780217,1110.308913,0.000000
1188.544440,-9696.697840,666.185348,-612.876398
1188.544761,-9918.759623,666.185348,-1378.971896
1188.545082,-9770.718434,740.205942,-1302.362347
1188.545403,-9770.718434,1258.350101,-1072.533697
1188.545723,-9548.656652,1924.535449,-766.095498
1188.546044,-9400.615463,1554.432478,0.000000
1188.546365,-9844.739029,1702.473667,1072.533697
1188.546686,-9992.780217,740.205942,2221.676944
1188.547006,-9918.759623,-1110.308913,3140.991542
1188.547327,-9622.677246,-3108.864956,3370.820191
1188.547648,-9474.636058,-4219.173869,3294.210641
1188.547969,-9178.553681,-4219.173869,2681.334243
1188.548289,-9178.553681,-2664.741391,2757.943793
1188.548610,-9178.553681,-1332.370696,2221.676944
1188.548931,-9104.533087,296.082377,1532.190996
1188.549252,-9326.594869,888.247130,1072.533697
1188.549572,-9252.574275,1110.308913,383.047749
1188.549893,-9548.656652,1036.288319,153.219100
1188.550214,-9400.615463,1258.350101,-612.876398
1188.550535,-9992.780217,962.267725,-383.047749
1188.550855,-9844.739029,1036.288319,-459.657299
1188.551176,-10066.800811,1332.370696,0.000000
1188.551497,-10140.821405,1850.514855,842.705048
1188.551818,-10214.842000,1628.453072,1378.971896
1188.552138,-9844.739029,814.226536,1991.848295
1188.552459,-9992.780217,-814.226536,2604.724693
1188.552780,-9622.677246,-2664.741391,2911.162892
1188.553101,-9252.574275,-4071.132681,3217.601092
1188.553422,-8808.450710,-4589.276840,2298.286494
1188.553742,-7994.224174,-3404.947333,1455.581446
1188.554063,-9030.512492,-1554.432478,1685.410096
1188.554384,-9104.533087,296.082377,1838.629195
1188.554705,-9252.574275,1480.411884,1302.362347
1188.555025,-10288.862594,1850.514855,536.266849
1188.555346,-9844.739029,2368.659014,153.219100
1188.555667,-10362.883188,1776.494261,0.000000
1188.555988,-10362.883188,1628.453072,-689.485948
1188.556308,-9622.677246,444.123565,-1685.410096
1188.556629,-9918.759623,518.144159,-1532.190996
1188.556950,-9548.656652,592.164754,-1072.533697
1188.557271,-9770.718434,1554.432478,-689.485948
1188.557591,-9918.759623,1036.288319,536.266849
1188.557912,-9844.739029,444.123565,1532.190996
1188.558233,-10066.800811,-888.247130,2374.896044
1188.558554,-9844.739029,-2590.720797,2757.943793
1188.558874,-9178.553681,-3627.009116,2451.505594
1188.559195,-9326.594869,-3627.009116,2221.676944
1188.559516,-9400.615463,-2664.741391,2528.115143
1188.559837,-9104.533087,-1554.432478,2374.896044
1188.560157,-9252.574275,-740.205942,1149.143247
1188.560478,-9474.636058,518.144159,766.095498
1188.560799,-9252.574275,888.247130,0.000000
1188.561120,-9474.636058,740.205942,-612.876398
1188.561440,-9696.697840,592.164754,1455.581446
1188.561761,-9474.636058,0.000000,-612.876398
1188.562082,-9696.697840,-148.041188,-459.657299
1188.562403,-9992.780217,370.102971,76.609550
1188.562724,-10066.800811,814.226536,842.705048
1188.563044,-9918.759623,1184.329507,1838.629195
1188.563365,-9918.759623,666.185348,2528.115143
1188.563686,-9696.697840,-148.041188,3294.210641
1188.564007,-9992.780217,-1850.514855,3677.258390
1188.564327,-9474.636058,-3478.967927,3677.258390
1188.564648,-8882.471304,-4145.153275,3064.381992
1188.564969,-9030.512492,-3330.926739,2757.943793
1188.565290,-9030.512492,-1776.494261,2451.505594
1188.565610,-9030.512492,-518.144159,2221.676944
1188.565931,-9622.677246,740.205942,2068.457845
1188.566252,-9770.718434,1554.432478,1302.362347
1188.566573,-10066.800811,1184.329507,766.095498
1188.566893,-9844.739029,888.247130,306.438199
1188.567214,-9844.739029,222.061783,-689.485948
1188.567535,-9474.636058,0.000000,-919.314598
1188.567856,-9548.656652,74.020594,-1149.143247
1188.568176,-9252.574275,444.123565,-1225.752797
1188.568497,-9548.656652,1480.411884,-995.924147
1188.568818,-9548.656652,1332.370696,-153.219100
1188.569139,-9844.739029,740.205942,995.924147
1188.569459,-9992.780217,-444.123565,1532.190996
1188.569780,-9474.636058,-1702.473667,1915.238745
1188.570101,-9622.677246,-3701.029710,2221.676944
1188.570422,-9548.656652,-4367.215058,1915.238745
1188.570742,-9474.636058,-3330.926739,2221.676944
1188.571063,-9400.615463,-1702.473667,1991.848295
1188.571384,-9326.594869,-518.144159,1685.410096
1188.571705,-9400.615463,888.247130,1302.362347
1188.572025,-9474.636058,1332.370696,459.657299
1188.572346,-9918.759623,1332.370696,76.609550
1188.572667,-9474.636058,814.226536,-612.876398
1188.572988,-9548.656652,518.144159,-689.485948
1188.573309,-9696.697840,222.061783,-919.314598
1188.573629,-9770.718434,592.164754,-842.705048
1188.573950,-9770.718434,1702.473667,0.000000
1188.574271,-9918.759623,1850.514855,612.876398
1188.574592,-10066.800811,1776.494261,1838.629195
1188.574912,-10214.842000,666.185348,2528.115143
1188.575233,-9918.759623,-962.267725,3294.210641
1188.575554,-9844.739029,-3034.844362,2987.772442
1188.575875,-9252.574275,-4737.318029,2528.115143
1188.576195,-8512.368333,-4219.173869,2221.676944
1188.576516,-8882.471304,-2664.741391,1915.238745
1188.576837,-8882.471304,-740.205942,2145.067394
1188.577158,-9252.574275,444.123565,1225.752797
1188.577478,-9474.636058,1184.329507,919.314598
1188.577799,-9696.697840,1110.308913,-153.219100
1188.578120,-9770.718434,2072.576638,1455.581446
1188.578441,-10066.800811,222.061783,229.828649
1188.578761,-9548.656652,0.000000,-536.266849
1188.579082,-9622.677246,0.000000,-536.266849
1188.579403,-9696.697840,518.144159,-995.924147
1188.579724,-9474.636058,1036.288319,0.000000
1188.580044,-9992.780217,1480.411884,612.876398
1188.580365,-9696.697840,1924.535449,1378.971896
1188.580686,-9918.759623,962.267725,2374.896044
1188.581007,-9474.636058,-962.267725,3064.381992
1188.581327,-9696.697840,-2812.782580,2987.772442
1188.581648,-9252.574275,-3701.029710,2528.115143
1188.581969,-9474.636058,-3108.864956,2451.505594
1188.582290,-9548.656652,-2368.659014,2451.505594
1188.582611,-9474.636058,-740.205942,2068.457845
1188.582931,-9400.615463,222.061783,1225.752797
1188.583252,-9696.697840,1480.411884,153.219100
1188.583573,-9548.656652,1924.535449,1455.581446
1188.583894,-9844.739029,1332.370696,0.000000
1188.584214,-9770.718434,962.267725,76.609550
1188.584535,-9770.718434,666.185348,-766.095498
1188.584856,-9918.759623,666.185348,-842.705048
1188.585177,-9474.636058,1036.288319,0.000000
1188.585497,-9844.739029,1258.350101,459.657299
1188.585818,-9992.780217,740.205942,1378.971896
1188.586139,-9770.718434,-148.041188,1915.238745
1188.586460,-9178.553681,-1406.391290,1762.019645
1188.586780,-9548.656652,-3404.947333,2604.724693
1188.587101,-9400.615463,-4367.215058,2681.334243
1188.587422,-8808.450710,-4441.235652,2221.676944
1188.587743,-8882.471304,-3182.885551,1915.238745
1188.588063,-9030.512492,-740.205942,1685.410096
1188.588384,-9104.533087,296.082377,1762.019645
1188.588705,-9770.718434,1480.411884,1608.800546
1188.589026,-10066.800811,1924.535449,919.314598
1188.589346,-9622.677246,1850.514855,306.438199
1188.589667,-9992.780217,1258.350101,0.000000
1188.589988,-9696.697840,296.082377,-842.705048
1188.590309,-9474.636058,222.061783,-1149.143247
1188.590629,-9844.739029,296.082377,-1991.848295
1188.590950,-9474.636058,1332.370696,-536.266849
1188.591271,-9844.739029,1628.453072,229.828649
1188.591592,-9992.780217,1702.473667,1685.410096
1188.591912,-10214.842000,888.247130,2757.943793
1188.592233,-10140.821405,-592.164754,3140.991542
1188.592554,-9844.739029,-2516.700203,3370.820191
1188.592875,-9548.656652,-4367.215058,2987.772442
1188.593196,-9104.533087,-4219.173869,2221.676944
1188.593516,-9104.533087,-3034.844362,1915.238745
1188.593837,-9030.512492,-1554.432478,1685.410096
1188.594158,-9252.574275,0.000000,1225.752797
1188.594479,-9474.636058,962.267725,842.705048
1188.594799,-10214.842000,1036.288319,-306.438199
1188.595120,-9992.780217,1480.411884,306.438199
1188.595441,-10066.800811,222.061783,0.000000
1188.595762,-9696.697840,0.000000,-383.047749
1188.596082,-10214.842000,-148.041188,-1378.971896
1188.596403,-9918.759623,0.000000,-76.609550
1188.596724,-9696.697840,888.247130,306.438199
1188.597045,-10066.800811,888.247130,1149.143247
1188.597365,-9474.636058,592.164754,1915.238745
1188.597686,-9622.677246,-444.123565,1991.848295
1188.598007,-9474.636058,-2664.741391,2681.334243
1188.598328,-9252.574275,-3997.112087,2681.334243
1188.598648,-8882.471304,-3997.112087,2757.943793
1188.598969,-8512.368333,-2220.617826,3370.820191
1188.599290,-8956.491898,-1776.494261,2451.505594
1188.599611,-9326.594869,-518.144159,2145.067394
1188.599931,-9326.594869,740.205942,1302.362347
1188.600252,-9844.739029,1850.514855,2221.676944
1188.600573,-10066.800811,1406.391290,459.657299
1188.600894,-10066.800811,1184.329507,536.266849
1188.601214,-9844.739029,592.164754,-383.047749
1188.601535,-9918.759623,74.020594,-919.314598
1188.601856,-9400.615463,0.000000,-842.705048
1188.602177,-9770.718434,222.061783,-383.047749
1188.602498,-9474.636058,666.185348,0.000000
1188.602818,-9548.656652,1184.329507,306.438199
1188.603139,-10288.862594,1332.370696,766.095498
1188.603460,-10066.800811,148.041188,2221.676944
1188.603781,-10066.800811,-1924.535449,2374.896044
1188.604101,-9622.677246,-3627.009116,2145.067394
1188.604422,-9622.677246,-3552.988522,842.705048
1188.604743,-9548.656652,-3478.967927,1838.629195
1188.605064,-9474.636058,-1924.535449,1838.629195
1188.605384,-9622.677246,-592.164754,1302.362347
1188.605705,-9474.636058,666.185348,306.438199
1188.606026,-9474.636058,1702.473667,-229.828649
1188.606347,-9474.636058,1480.411884,-766.095498
1188.606667,-9400.615463,1036.288319,-1149.143247
1188.606988,-9474.636058,740.205942,-1762.019645
1188.607309,-9178.553681,1480.411884,-1915.238745
1188.607630,-9696.697840,1036.288319,-766.095498
1188.607950,-9770.718434,1776.494261,-306.438199
1188.608271,-9918.759623,1480.411884,919.314598
1188.608592,-10288.862594,444.123565,3140.991542
1188.608913,-10362.883188,0.000000,2987.772442
1188.609233,-9770.718434,-2072.576638,3140.991542
1188.609554,-9326.594869,-3627.009116,2681.334243
1188.609875,-8586.388927,-4145.153275,2145.067394
1188.610196,-8438.347739,-3256.906145,1608.800546
1188.610516,-8512.368333,-1554.432478,1991.848295
1188.610837,-9104.533087,148.041188,2451.505594
1188.611158,-9252.574275,962.267725,2068.457845
1188.611479,-9252.574275,888.247130,2604.724693
1188.611799,-10066.800811,1406.391290,1685.410096
1188.612120,-10288.862594,962.267725,1378.971896
1188.612441,-9992.780217,148.041188,1149.143247
1188.612762,-9474.636058,-296.082377,689.485948
1188.613083,-9474.636058,370.102971,-383.047749
1188.613403,-9696.697840,740.205942,0.000000
1188.613724,-9474.636058,1184.329507,0.000000
1188.614045,-9696.697840,1258.350101,536.266849
1188.614366,-9474.636058,1480.411884,1685.410096
1188.614686,-10732.986159,296.082377,2681.334243
1188.615007,-9918.759623,-1628.453072,3370.820191
1188.615328,-10066.800811,-3330.926739,2681.334243
1188.615649,-9918.759623,-3552.988522,2757.943793
1188.615969,-9252.574275,-3108.864956,2451.505594
1188.616290,-9696.697840,-1702.473667,2604.724693
1188.616611,-9400.615463,0.000000,2451.505594
1188.616932,-9104.533087,888.247130,766.095498
1188.617252,-9400.615463,740.205942,383.047749
1188.617573,-9474.636058,814.226536,153.219100
1188.617894,-9622.677246,0.000000,-306.438199
1188.618215,-9622.677246,-74.020594,-229.828649
1188.618535,-9770.718434,0.000000,-1149.143247
1188.618856,-9770.718434,444.123565,-1302.362347
1188.619177,-9918.759623,888.247130,-229.828649
1188.619498,-9918.759623,1554.432478,536.266849
1188.619818,-10807.006753,1332.370696,766.095498
1188.620139,-10140.821405,148.041188,1762.019645
1188.620460,-10066.800811,-1184.329507,1991.848295
1188.620781,-9474.636058,-2664.741391,2145.067394
1188.621101,-9474.636058,-3775.050304,1991.848295
1188.621422,-8734.430116,-3256.906145,1225.752797
1188.621743,-8956.491898,-2516.700203,842.705048
1188.622064,-9252.574275,-888.247130,919.314598
1188.622385,-9400.615463,0.000000,1072.533697
1188.622705,-9770.718434,518.144159,842.705048
1188.623026,-9844.739029,740.205942,612.876398
1188.623347,-9918.759623,666.185348,76.609550
1188.623668,-9770.718434,148.041188,0.000000
1188.623988,-9844.739029,-370.102971,-766.095498
1188.624309,-9548.656652,0.000000,-1225.752797
1188.624630,-9622.677246,222.061783,-842.705048
1188.624951,-9474.636058,1036.288319,-842.705048
1188.625271,-9844.739029,1110.308913,-306.438199
1188.625592,-9918.759623,1110.308913,1378.971896
1188.625913,-9992.780217,148.041188,2451.505594
1188.626234,-9844.739029,-1628.453072,2834.553343
1188.626554,-9770.718434,-3256.906145,3140.991542
1188.626875,-9252.574275,-4071.132681,3294.210641
1188.627196,-9474.636058,-4145.153275,2987.772442
1188.627517,-9326.594869,-2516.700203,3140.991542
1188.627837,-9474.636058,-1110.308913,2834.553343
1188.628158,-8586.388927,-296.082377,1838.629195
1188.628479,-9474.636058,444.123565,1378.971896
1188.628800,-9400.615463,1184.329507,842.705048
1188.629120,-9770.718434,1036.288319,306.438199
1188.629441,-10510.924376,1628.453072,-1838.629195
1188.629762,-9696.697840,666.185348,-459.657299
1188.630083,-10066.800811,518.144159,-306.438199
1188.630403,-9992.780217,962.267725,76.609550
1188.630724,-10066.800811,1554.432478,766.095498
1188.631045,-10658.965565,1628.453072,1685.410096
1188.631366,-9992.780217,296.082377,2374.896044
1188.631686,-9844.739029,-962.267725,2451.505594
1188.632006,-9844.739029,-2368.659014,2528.115143
1188.632327,-10362.883188,-3256.906145,1838.629195
1188.632647,-8734.430116,-3627.009116,2068.457845
1188.632968,-8364.327145,-2664.741391,1225.752797
1188.633289,-8956.491898,-666.185348,1302.362347
1188.633609,-9474.636058,518.144159,1608.800546
1188.633930,-9474.636058,1406.391290,1149.143247
1188.634251,-9696.697840,1406.391290,306.438199
1188.634571,-9992.780217,1258.350101,-306.438199
1188.634892,-9918.759623,740.205942,-383.047749
1188.635213,-10214.842000,740.205942,-766.095498
1188.635533,-9696.697840,444.123565,-1378.971896
1188.635854,-9474.636058,1406.391290,-1378.971896
1188.636175,-9696.697840,1850.514855,-995.924147
1188.636495,-9622.677246,1702.473667,-995.924147
1188.636816,-9696.697840,1406.391290,76.609550
1188.637137,-9770.718434,370.102971,1532.190996
1188.637458,-10066.800811,-962.267725,2374.896044
1188.637778,-9918.759623,-2516.700203,2604.724693
1188.638099,-9474.636058,-3997.112087,2298.286494
1188.638420,-8956.491898,-3997.112087,2145.067394
1188.638740,-8956.491898,-2886.803174,2221.676944
1188.639061,-9030.512492,-1184.329507,2298.286494
1188.639382,-9326.594869,0.000000,1378.971896
1188.639702,-9178.553681,518.144159,689.485948
1188.640023,-9474.636058,1184.329507,229.828649
1188.640344,-9622.677246,1332.370696,-306.438199
1188.640664,-9770.718434,1258.350101,-536.266849
1188.640985,-9770.718434,740.205942,-306.438199
1188.641306,-9770.718434,666.185348,-612.876398
1188.641626,-9770.718434,962.267725,-153.219100
1188.641947,-9770.718434,1702.473667,229.828649
1188.642268,-9844.739029,1554.432478,1378.971896
1188.642589,-9844.739029,1406.391290,2068.457845
1188.642909,-9844.739029,0.000000,2528.115143
1188.643230,-9770.718434,-1850.514855,3064.381992
1188.643551,-9548.656652,-4071.132681,2145.067394
1188.643871,-9104.533087,-4219.173869,2528.115143
1188.644192,-9104.533087,-3552.988522,2451.505594
1188.644513,-8956.491898,-1850.514855,2528.115143
1188.644833,-9326.594869,-296.082377,2374.896044
1188.645154,-9548.656652,666.185348,2068.457845
1188.645475,-9918.759623,1036.288319,1378.971896
1188.645795,-10214.842000,1258.350101,1072.533697
1188.646116,-10288.862594,962.267725,383.047749
1188.646437,-10436.903782,444.123565,0.000000
1188.646757,-9474.636058,0.000000,-766.095498
1188.647078,-9696.697840,0.000000,-1072.533697
1188.647399,-9400.615463,888.247130,-1149.143247
1188.647720,-9548.656652,1406.391290,-153.219100
1188.648040,-9844.739029,1554.432478,689.485948
1188.648361,-10140.821405,814.226536,1915.238745
1188.648682,-9992.780217,-592.164754,2528.115143
1188.649002,-9992.780217,-2442.679609,2911.162892
1188.649323,-9622.677246,-4071.132681,3294.210641
1188.649644,-9178.553681,-4811.338623,2604.724693
1188.649964,-8882.471304,-3849.070898,2145.067394
1188.650285,-8808.450710,-1628.453072,2298.286494
1188.650606,-9326.594869,-888.247130,1915.238745
1188.650926,-8882.471304,592.164754,842.705048
1188.651247,-9474.636058,962.267725,0.000000
1188.651568,-9474.636058,814.226536,-229.828649
1188.651888,-9178.553681,1554.432478,919.314598
1188.652209,-10066.800811,592.164754,-689.485948
1188.652530,-9696.697840,814.226536,-919.314598
1188.652851,-9770.718434,666.185348,-842.705048
1188.653171,-9844.739029,1184.329507,-536.266849
1188.653492,-10362.883188,1924.535449,306.438199
1188.653813,-10214.842000,1184.329507,1225.752797
1188.654133,-9696.697840,0.000000,2145.067394
1188.654454,-9474.636058,-1850.514855,2451.505594
1188.654775,-9104.533087,-3775.050304,2145.067394
1188.655095,-8882.471304,-4811.338623,1915.238745
1188.655416,-8438.347739,-4145.153275,1685.410096
1188.655737,-8808.450710,-2590.720797,1455.581446
1188.656057,-9326.594869,-888.247130,2604.724693
1188.656378,-9474.636058,222.061783,1991.848295
1188.656699,-10140.821405,1110.308913,1532.190996
1188.657019,-10436.903782,1924.535449,689.485948
1188.657340,-10436.903782,1332.370696,536.266849
1188.657661,-10066.800811,518.144159,153.219100
1188.657982,-9992.780217,296.082377,-383.047749
1188.658302,-9844.739029,814.226536,-1072.533697
1188.658623,-9770.718434,1110.308913,-536.266849
1188.658944,-9400.615463,1776.494261,-383.047749
1188.659264,-9696.697840,1480.411884,689.485948
1188.659585,-9622.677246,1406.391290,1685.410096
1188.659906,-9918.759623,444.123565,3524.039291
1188.660226,-10140.821405,-1332.370696,3064.381992
1188.660547,-9474.636058,-3627.009116,3907.087040
1188.660868,-9400.615463,-4367.215058,3524.039291
1188.661188,-9178.553681,-3627.009116,2987.772442
1188.661509,-9252.574275,-2220.617826,2834.553343
1188.661830,-8660.409521,-888.247130,2298.286494
1188.662150,-8586.388927,296.082377,842.705048
1188.662471,-9104.533087,1554.432478,153.219100
1188.662792,-9474.636058,1554.432478,-153.219100
1188.663113,-10436.903782,2294.638420,-306.438199
1188.663433,-10214.842000,888.247130,-612.876398
1188.663754,-9918.759623,592.164754,-612.876398
1188.664075,-10066.800811,518.144159,-536.266849
1188.664395,-9992.780217,962.267725,-306.438199
1188.664716,-9918.759623,1332.370696,153.219100
1188.665037,-9918.759623,1258.350101,1072.533697
1188.665357,-9622.677246,444.123565,1608.800546
1188.665678,-9622.677246,-1110.308913,1991.848295
1188.665999,-9474.636058,-2812.782580,2068.457845
1188.666319,-9326.594869,-4145.153275,1838.629195
1188.666640,-9030.512492,-3775.050304,1455.581446
1188.666961,-8734.430116,-2590.720797,1225.752797
1188.667281,-8808.450710,-666.185348,1455.581446
1188.667602,-9252.574275,444.123565,1838.629195
1188.667923,-9770.718434,962.267725,1225.752797
1188.668244,-9992.780217,1110.308913,459.657299
1188.668564,-9548.656652,666.185348,0.000000
1188.668885,-10140.821405,1036.288319,-153.219100
1188.669206,-9548.656652,666.185348,-689.485948
1188.669526,-9474.636058,444.123565,-1378.971896
1188.669847,-9548.656652,444.123565,-1302.362347
1188.670168,-9400.615463,592.164754,-842.705048
1188.670488,-9548.656652,1036.288319,0.000000
1188.670809,-9992.780217,888.247130,995.924147
1188.671130,-10066.800811,296.082377,2221.676944
1188.671450,-9696.697840,-1258.350101,3140.991542
1188.671771,-9696.697840,-2960.823768,3064.381992
1188.672092,-9622.677246,-3997.112087,3064.381992
1188.672412,-9252.574275,-3627.009116,2757.943793
1188.672733,-8808.450710,-2738.761985,2298.286494
1188.673054,-9178.553681,-1036.288319,2757.943793
1188.673374,-9178.553681,-296.082377,1608.800546
1188.673695,-9030.512492,444.123565,995.924147
1188.674016,-9252.574275,370.102971,229.828649
1188.674337,-9770.718434,148.041188,76.609550
1188.674657,-9622.677246,148.041188,-153.219100
1188.674978,-9548.656652,0.000000,-459.657299
1188.675299,-9770.718434,296.082377,-689.485948
1188.675619,-10066.800811,1332.370696,-306.438199
1188.675940,-9992.780217,1998.556043,383.047749
1188.676261,-10436.903782,1776.494261,1532.190996
1188.676581,-10140.821405,740.205942,2528.115143
1188.676902,-9326.594869,0.000000,2604.724693
1188.677223,-9770.718434,-2368.659014,3217.601092
1188.677543,-9474.636058,-3997.112087,3600.648841
1188.677864,-8808.450710,-4367.215058,2374.896044
1188.678185,-8586.388927,-3478.967927,1838.629195
1188.678505,-8882.471304,-1998.556043,1685.410096
1188.678826,-9252.574275,-740.205942,1991.848295
1188.679147,-9474.636058,222.061783,1225.752797
1188.679468,-9474.636058,1036.288319,459.657299
1188.679788,-10214.842000,962.267725,0.000000
1188.680109,-9844.739029,1036.288319,306.438199
1188.680430,-9992.780217,444.123565,-153.219100
1188.680750,-10066.800811,370.102971,-766.095498
1188.681071,-8808.450710,1850.514855,-1455.581446
1188.681392,-9474.636058,1184.329507,-919.314598
1188.681712,-9622.677246,1554.432478,-306.438199
1188.682033,-9400.615463,1406.391290,0.000000
1188.682354,-9770.718434,592.164754,1685.410096
1188.682674,-9770.718434,-740.205942,2145.067394
1188.682995,-9622.677246,-2960.823768,2451.505594
1188.683316,-9622.677246,-4441.235652,2528.115143
1188.683636,-9252.574275,-3775.050304,2068.457845
1188.683957,-8956.491898,-2738.761985,2987.772442
1188.684278,-9474.636058,-1184.329507,2145.067394
1188.684599,-9104.533087,0.000000,1762.019645
1188.684919,-9474.636058,592.164754,995.924147
1188.685240,-9474.636058,1332.370696,0.000000
1188.685561,-9770.718434,1554.432478,0.000000
1188.685881,-9622.677246,370.102971,-536.266849
1188.686202,-9474.636058,370.102971,-1149.143247
1188.686523,-9548.656652,296.082377,-1072.533697
1188.686843,-9474.636058,740.205942,-612.876398
1188.687164,-9992.780217,1110.308913,76.609550
1188.687485,-10214.842000,1628.453072,1225.752797
1188.687805,-10140.821405,814.226536,2068.457845
1188.688126,-10214.842000,-296.082377,2681.334243
1188.688447,-9918.759623,-2516.700203,3447.429741
1188.688767,-9548.656652,-4367.215058,3600.648841
1188.689088,-9252.574275,-4737.318029,2911.162892
1188.689409,-8956.491898,-3701.029710,3600.648841
1188.689730,-9178.553681,-2220.617826,2834.553343
1188.690050,-9326.594869,-148.041188,2757.943793
1188.690371,-9252.574275,814.226536,2221.676944
1188.690692,-9548.656652,1554.432478,1378.971896
1188.691012,-9622.677246,1554.432478,612.876398
1188.691333,-9548.656652,740.205942,0.000000
1188.691654,-9696.697840,370.102971,-459.657299
1188.691974,-9326.594869,222.061783,-1378.971896
1188.692295,-9770.718434,518.144159,-1685.410096
1188.692616,-9548.656652,1184.329507,-612.876398
1188.692936,-9622.677246,1850.514855,-536.266849
1188.693257,-9844.739029,1554.432478,76.609550
1188.693578,-10214.842000,1628.453072,919.314598
1188.693898,-10288.862594,-222.061783,1915.238745
1188.694219,-9770.718434,-2146.597232,2604.724693
1188.694540,-9474.636058,-3404.947333,2221.676944
1188.694861,-9104.533087,-3997.112087,1991.848295
1188.695181,-9178.553681,-2812.782580,1532.190996
1188.695502,-9400.615463,-1406.391290,1608.800546
1188.695823,-9622.677246,0.000000,1762.019645
1188.696143,-9474.636058,962.267725,766.095498
1188.696464,-9770.718434,1480.411884,1608.800546
1188.696785,-9696.697840,1850.514855,0.000000
1188.697105,-9918.759623,1776.494261,0.000000
1188.697426,-9696.697840,1258.350101,-689.485948
1188.697747,-9622.677246,814.226536,-995.924147
1188.698067,-9548.656652,518.144159,-995.924147
1188.698388,-9548.656652,1554.432478,-153.219100
1188.698709,-9770.718434,1406.391290,536.266849
1188.699029,-9844.739029,1702.473667,1455.581446
1188.699350,-9992.780217,962.267725,2374.896044
1188.699671,-9770.718434,-1036.288319,2451.505594
1188.699992,-9474.636058,-2738.761985,3217.601092
1188.700312,-9474.636058,-3923.091493,2987.772442
1188.700633,-8956.491898,-3849.070898,2298.286494
1188.700954,-9400.615463,-2146.597232,2604.724693
1188.701274,-9178.553681,-814.226536,2451.505594
1188.701595,-9252.574275,518.144159,2451.505594
1188.701916,-9474.636058,1258.350101,1838.629195
1188.702236,-9622.677246,1332.370696,766.095498
1188.702557,-9844.739029,962.267725,383.047749
1188.702878,-9474.636058,148.041188,0.000000
1188.703198,-9474.636058,-370.102971,-306.438199
1188.703519,-9400.615463,-296.082377,-153.219100
1188.703840,-9474.636058,148.041188,-383.047749
1188.704160,-9622.677246,740.205942,153.219100
1188.704481,-9844.739029,1110.308913,1072.533697
1188.704802,-9992.780217,814.226536,1915.238745
1188.705123,-9770.718434,148.041188,2757.943793
1188.705443,-10140.821405,-1776.494261,3064.381992
1188.705764,-9770.718434,-3330.926739,2987.772442
1188.706085,-9326.594869,-3627.009116,2451.505594
1188.706405,-9326.594869,-2960.823768,2757.943793
1188.706726,-9326.594869,-1332.370696,2834.553343
1188.707047,-9622.677246,0.000000,2528.115143
1188.707367,-9474.636058,296.082377,1532.190996
1188.707688,-9474.636058,962.267725,459.657299
1188.708009,-9992.780217,1258.350101,612.876398
1188.708329,-9918.759623,1258.350101,76.609550
1188.708650,-9844.739029,740.205942,-306.438199
1188.708971,-9622.677246,370.102971,-766.095498
1188.709291,-9696.697840,370.102971,-1532.190996
1188.709612,-9844.739029,518.144159,-919.314598
1188.709933,-9918.759623,1036.288319,0.000000
1188.710254,-10214.842000,1036.288319,766.095498
1188.710574,-10140.821405,444.123565,2374.896044
1188.710895,-10066.800811,-888.247130,2145.067394
1188.711216,-9548.656652,-2960.823768,2451.505594
1188.711536,-9326.594869,-4071.132681,2221.676944
1188.711857,-8808.450710,-4589.276840,1915.238745
1188.712178,-8734.430116,-2960.823768,1762.019645
1188.712498,-8882.471304,-1406.391290,1608.800546
1188.712819,-9104.533087,-296.082377,1149.143247
1188.713140,-9104.533087,444.123565,842.705048
1188.713460,-9474.636058,296.082377,229.828649
1188.713781,-9622.677246,148.041188,76.609550
1188.714102,-9548.656652,0.000000,0.000000
1188.714422,-9622.677246,-148.041188,-459.657299
1188.714743,-9474.636058,0.000000,-383.047749
1188.715064,-9770.718434,222.061783,0.000000
1188.715385,-9474.636058,888.247130,0.000000
1188.715705,-9474.636058,814.226536,0.000000
1188.716026,-9474.636058,1184.329507,536.266849
1188.716347,-10288.862594,814.226536,2145.067394
1188.716667,-10140.821405,-962.267725,2987.772442
1188.716988,-9548.656652,-3108.864956,2911.162892
1188.717309,-9400.615463,-4219.173869,2528.115143
1188.717629,-9326.594869,-4589.276840,4060.306139
1188.717950,-9400.615463,-3182.885551,2528.115143
1188.718271,-9770.718434,-1924.535449,2528.115143
1188.718591,-9178.553681,-74.020594,1608.800546
1188.718912,-9474.636058,1258.350101,1072.533697
1188.719233,-9844.739029,1776.494261,766.095498
1188.719553,-9992.780217,962.267725,153.219100
1188.719874,-10214.842000,444.123565,-536.266849
1188.720195,-9992.780217,74.020594,-766.095498
1188.720516,-10066.800811,296.082377,-459.657299
1188.720836,-10214.842000,814.226536,-459.657299
1188.721157,-10214.842000,1776.494261,306.438199
1188.721478,-10214.842000,1924.535449,1532.190996
1188.721798,-10362.883188,1184.329507,3064.381992
1188.722119,-10066.800811,-370.102971,2604.724693
1188.722440,-9918.759623,-2368.659014,2681.334243
1188.722760,-9548.656652,-3997.112087,2528.115143
1188.723081,-9030.512492,-4145.153275,1378.971896
1188.723402,-8512.368333,-3478.967927,1608.800546
1188.723722,-8586.388927,-1850.514855,1378.971896
1188.724043,-9104.533087,0.000000,1532.190996
1188.724364,-9474.636058,1036.288319,1225.752797
1188.724684,-9918.759623,1776.494261,919.314598
1188.725005,-9918.759623,1554.432478,306.438199
1188.725326,-9918.759623,814.226536,153.219100
1188.725647,-9696.697840,74.020594,-306.438199
1188.725967,-8956.491898,-370.102971,306.438199
1188.726288,-9474.636058,-296.082377,-612.876398
1188.726609,-9400.615463,296.082377,-919.314598
1188.726929,-9326.594869,962.267725,0.000000
1188.727250,-9474.636058,1554.432478,306.438199
1188.727571,-9770.718434,1332.370696,1762.019645
1188.727891,-9918.759623,222.061783,2681.334243
1188.728212,-9770.718434,-1702.473667,2757.943793
1188.728533,-9622.677246,-3552.988522,2451.505594
1188.728853,-9030.512492,-4145.153275,2145.067394
1188.729174,-9474.636058,-2960.823768,1991.848295
1188.729495,-9178.553681,-1258.350101,2298.286494
1188.729815,-9400.615463,74.020594,1302.362347
1188.730136,-9770.718434,1850.514855,536.266849
1188.730457,-9770.718434,1702.473667,0.000000
1188.730777,-10066.800811,1702.473667,0.000000
1188.731098,-10066.800811,1406.391290,-229.828649
1188.731419,-9770.718434,962.267725,-995.924147
1188.731740,-9918.759623,518.144159,-1302.362347
1188.732060,-9770.718434,666.185348,-995.924147
1188.732381,-9696.697840,1258.350101,0.000000
1188.732702,-10214.842000,1258.350101,842.705048
1188.733023,-10362.883188,1480.411884,1685.410096
1188.733343,-10436.903782,0.000000,3064.381992
1188.733664,-9992.780217,-1628.453072,3524.039291
1188.733985,-10066.800811,-3478.967927,3524.039291
1188.734306,-9030.512492,-3775.050304,3677.258390
1188.734626,-8438.347739,-3330.926739,2068.457845
1188.734947,-9030.512492,-1332.370696,2451.505594
1188.735268,-9178.553681,0.000000,2604.724693
1188.735589,-9178.553681,444.123565,1991.848295
1188.735909,-9548.656652,518.144159,1072.533697
1188.736230,-9474.636058,370.102971,229.828649
1188.736551,-10140.821405,370.102971,612.876398
1188.736871,-9844.739029,-518.144159,536.266849
1188.737192,-8808.450710,-962.267725,306.438199
1188.737513,-9400.615463,-1036.288319,-229.828649
1188.737834,-9474.636058,-888.247130,-612.876398
1188.738154,-9030.512492,444.123565,0.000000
1188.738475,-9178.553681,1258.350101,1608.800546
1188.738796,-9326.594869,1258.350101,1302.362347
1188.739117,-9622.677246,370.102971,1991.848295
1188.739437,-9474.636058,-1702.473667,2528.115143
1188.739758,-9252.574275,-3404.947333,1991.848295
1188.740079,-9474.636058,-4219.173869,2757.943793
1188.740400,-9030.512492,-3849.070898,1762.019645
1188.740720,-9474.636058,-1924.535449,1991.848295
1188.741041,-9548.656652,-518.144159,1685.410096
1188.741362,-9030.512492,1110.308913,1991.848295
1188.741683,-9696.697840,1628.453072,0.000000
1188.742003,-9474.636058,1628.453072,-306.438199
1188.742324,-9622.677246,1480.411884,-612.876398
1188.742645,-9474.636058,1258.350101,-2068.457845
1188.742965,-9918.759623,888.247130,-842.705048
1188.743286,-10214.842000,518.144159,-842.705048
1188.743607,-10066.800811,1184.329507,-459.657299
1188.743928,-10436.903782,1554.432478,306.438199
1188.744248,-10584.944971,1554.432478,1685.410096
1188.744569,-10584.944971,0.000000,2298.286494
1188.744890,-10066.800811,-1480.411884,2911.162892
1188.745211,-9770.718434,-3552.988522,2604.724693
1188.745531,-9770.718434,-4367.215058,2987.772442
1188.745852,-8734.430116,-3627.009116,1915.238745
1188.746173,-8956.491898,-2442.679609,1838.629195
1188.746494,-9178.553681,0.000000,1685.410096
1188.746814,-9326.594869,1628.453072,3600.648841
1188.747135,-9696.697840,1184.329507,1532.190996
1188.747456,-10066.800811,1110.308913,842.705048
1188.747777,-10066.800811,592.164754,842.705048
1188.748097,-10066.800811,-370.102971,536.266849
1188.748418,-9326.594869,-592.164754,-153.219100
1188.748739,-9696.697840,0.000000,-383.047749
1188.749059,-9474.636058,666.185348,-459.657299
1188.749380,-9178.553681,1850.514855,-229.828649
1188.749701,-9474.636058,1702.473667,766.095498
1188.750022,-9548.656652,1850.514855,1378.971896
1188.750342,-9696.697840,740.205942,2757.943793
1188.750663,-9992.780217,-1258.350101,3217.601092
1188.750984,-9548.656652,-2368.659014,2145.067394
1188.751305,-9474.636058,-3701.029710,2757.943793
1188.751625,-9252.574275,-3182.885551,2757.943793
1188.751946,-9474.636058,-1924.535449,2834.553343
1188.752267,-9474.636058,-666.185348,2374.896044
1188.752588,-9400.615463,444.123565,1532.190996
1188.752908,-9474.636058,1850.514855,306.438199
1188.753229,-9548.656652,2146.597232,229.828649
1188.753550,-9844.739029,1702.473667,306.438199
1188.753871,-10510.924376,1184.329507,-766.095498
1188.754191,-9400.615463,518.144159,-1378.971896
1188.754512,-9992.780217,962.267725,-995.924147
1188.754833,-10066.800811,1184.329507,-689.485948
1188.755154,-10214.842000,1924.535449,459.657299
1188.755474,-10214.842000,1924.535449,919.314598
1188.755795,-10066.800811,518.144159,1455.581446
1188.756116,-9918.759623,-962.267725,2145.067394
1188.756436,-9548.656652,-3256.906145,2528.115143
1188.756757,-9474.636058,-4441.235652,1838.629195
1188.757078,-8956.491898,-4145.153275,1915.238745
1188.757399,-8808.450710,-2664.741391,1532.190996
1188.757719,-9104.533087,-962.267725,1838.629195
1188.758040,-9104.533087,592.164754,2528.115143
1188.758361,-9622.677246,962.267725,1608.800546
1188.758682,-9696.697840,1184.329507,766.095498
1188.759002,-9696.697840,1184.329507,153.219100
1188.759323,-9844.739029,888.247130,383.047749
1188.759644,-9696.697840,444.123565,0.000000
1188.759965,-9474.636058,666.185348,-459.657299
1188.760285,-9400.615463,814.226536,-612.876398
1188.760606,-9252.574275,1406.391290,-383.047749
1188.760927,-9548.656652,1332.370696,0.000000
1188.761248,-9770.718434,1332.370696,1378.971896
1188.761568,-10066.800811,296.082377,2298.286494
1188.761889,-9844.739029,-1406.391290,2681.334243
1188.762210,-9844.739029,-3108.864956,2834.553343
1188.762530,-9474.636058,-4737.318029,2834.553343
1188.762851,-9104.533087,-4737.318029,2451.505594
1188.763172,-9252.574275,-3478.967927,2374.896044
1188.763493,-8734.430116,-1924.535449,1378.971896
1188.763813,-9030.512492,-222.061783,1455.581446
1188.764134,-9400.615463,592.164754,689.485948
1188.764455,-9400.615463,1036.288319,306.438199
1188.764776,-9696.697840,740.205942,-229.828649
1188.765096,-10066.800811,518.144159,-536.266849
1188.765417,-9918.759623,296.082377,-689.485948
1188.765738,-10066.800811,740.205942,-689.485948
1188.766059,-10066.800811,1332.370696,-306.438199
1188.766379,-9548.656652,1776.494261,229.828649
1188.766700,-9844.739029,1850.514855,842.705048
1188.767021,-10140.821405,666.185348,1455.581446
1188.767342,-9474.636058,0.000000,2374.896044
1188.767662,-9844.739029,-2294.638420,2987.772442
1188.767983,-9400.615463,-3552.988522,2451.505594
1188.768304,-8882.471304,-4219.173869,2451.505594
1188.768624,-9030.512492,-3330.926739,2221.676944
1188.768945,-9252.574275,-1850.514855,2451.505594
1188.769266,-9548.656652,-740.205942,2298.286494
1188.769587,-9474.636058,370.102971,1915.238745
1188.769907,-9992.780217,444.123565,689.485948
1188.770228,-9992.780217,666.185348,842.705048
1188.770549,-9326.594869,740.205942,919.314598
1188.770870,-9696.697840,0.000000,76.609550
1188.771190,-9474.636058,0.000000,-766.095498
1188.771511,-9474.636058,740.205942,-842.705048
1188.771832,-9474.636058,740.205942,459.657299
1188.772153,-9400.615463,1184.329507,0.000000
1188.772473,-9696.697840,1184.329507,612.876398
1188.772794,-9622.677246,518.144159,1378.971896
1188.773115,-9844.739029,-592.164754,2374.896044
1188.773436,-9844.739029,-2294.638420,3370.820191
1188.773756,-9548.656652,-3775.050304,2911.162892
1188.774077,-9178.553681,-3923.091493,2604.724693
1188.774398,-9104.533087,-3108.864956,2528.115143
1188.774719,-8364.327145,-1628.453072,3140.991542
1188.775039,-9178.553681,-444.123565,2145.067394
1188.775360,-9252.574275,296.082377,919.314598
1188.775681,-9474.636058,1036.288319,153.219100
1188.776001,-9622.677246,1850.514855,229.828649
1188.776322,-9770.718434,1850.514855,-459.657299
1188.776643,-9844.739029,1628.453072,-766.095498
1188.776964,-9770.718434,1406.391290,-689.485948
1188.777284,-10066.800811,962.267725,-1149.143247
1188.777605,-10362.883188,1554.432478,-306.438199
1188.777926,-10066.800811,1332.370696,536.266849
1188.778247,-10140.821405,1110.308913,1302.362347
1188.778567,-9992.780217,74.020594,1991.848295
1188.778888,-10436.903782,-1332.370696,2757.943793
1188.779209,-9622.677246,-2812.782580,2681.334243
1188.779530,-9474.636058,-4145.153275,2298.286494
1188.779850,-8660.409521,-3627.009116,1685.410096
1188.780171,-8956.491898,-2590.720797,1838.629195
1188.780492,-8808.450710,-888.247130,1915.238745
1188.780813,-9400.615463,148.041188,1762.019645
1188.781133,-9474.636058,592.164754,1378.971896
1188.781454,-9770.718434,1036.288319,612.876398
1188.781775,-10066.800811,962.267725,-153.219100
1188.782095,-9992.780217,814.226536,0.000000
1188.782416,-9844.739029,888.247130,-536.266849
1188.782737,-9474.636058,814.226536,-1072.533697
1188.783058,-9178.553681,1332.370696,0.000000
1188.783378,-9474.636058,1184.329507,-536.266849
1188.783699,-9474.636058,1628.453072,306.438199
1188.784020,-9770.718434,1332.370696,1455.581446
1188.784341,-10066.800811,592.164754,3370.820191
1188.784661,-9992.780217,-1480.411884,3217.601092
1188.784982,-9622.677246,-3256.906145,3140.991542
1188.785303,-9400.615463,-4145.153275,2987.772442
1188.785624,-9178.553681,-3923.091493,2451.505594
1188.785944,-9178.553681,-2220.617826,2681.334243
1188.786265,-9104.533087,-1406.391290,1762.019645
1188.786586,-8882.471304,-296.082377,1149.143247
1188.786907,-9326.594869,518.144159,0.000000
1188.787227,-9104.533087,1036.288319,-995.924147
1188.787548,-9474.636058,962.267725,-1072.533697
1188.787869,-9548.656652,814.226536,-995.924147
1188.788189,-10362.883188,592.164754,-1072.533697
1188.788510,-10066.800811,666.185348,-766.095498
1188.788831,-9992.780217,814.226536,-229.828649
1188.789152,-10362.883188,888.247130,383.047749
1188.789472,-10288.862594,444.123565,1302.362347
1188.789793,-9844.739029,-296.082377,2068.457845
1188.790114,-10288.862594,-1258.350101,2681.334243
1188.790435,-9696.697840,-3182.885551,2681.334243
1188.790755,-9326.594869,-4071.132681,2757.943793
1188.791076,-8808.450710,-3849.070898,2451.505594
1188.791397,-8882.471304,-2886.803174,3753.867940
1188.791718,-9178.553681,-666.185348,2681.334243
1188.792038,-9696.697840,0.000000,2374.896044
1188.792359,-9548.656652,1406.391290,1838.629195
1188.792680,-10140.821405,1480.411884,3064.381992
1188.793001,-9844.739029,1406.391290,689.485948
1188.793321,-9918.759623,740.205942,76.609550
1188.793642,-9770.718434,148.041188,-306.438199
1188.793963,-9400.615463,0.000000,-1149.143247
1188.794284,-9474.636058,0.000000,-842.705048
1188.794604,-9252.574275,962.267725,-536.266849
1188.794925,-9474.636058,888.247130,76.609550
1188.795246,-9474.636058,740.205942,1225.752797
1188.795566,-9770.718434,-296.082377,1685.410096
1188.795887,-9992.780217,-1702.473667,2681.334243
1188.796208,-9844.739029,-3478.967927,3064.381992
1188.796529,-9252.574275,-4367.215058,2681.334243
1188.796849,-8808.450710,-4219.173869,2374.896044
1188.797170,-9252.574275,-3034.844362,2221.676944
1188.797491,-9400.615463,-1554.432478,2068.457845
1188.797812,-9104.533087,-74.020594,1072.533697
1188.798132,-9474.636058,1036.288319,459.657299
1188.798453,-9548.656652,1406.391290,383.047749
1188.798774,-9770.718434,1036.288319,0.000000
1188.799095,-9918.759623,740.205942,0.000000
1188.799415,-9844.739029,814.226536,-306.438199
1188.799736,-10436.903782,1184.329507,-1685.410096
1188.800057,-9918.759623,1406.391290,-459.657299
1188.800378,-9918.759623,1850.514855,153.219100
1188.800698,-10362.883188,1480.411884,1149.143247
1188.801019,-9918.759623,740.205942,1838.629195
1188.801340,-9918.759623,-592.164754,2451.505594
1188.801660,-9770.718434,-2294.638420,2145.067394
1188.801981,-9474.636058,-3627.009116,2298.286494
1188.802302,-9104.533087,-3701.029710,1915.238745
1188.802623,-9326.594869,-2812.782580,1149.143247
1188.802943,-9400.615463,-1184.329507,1685.410096
1188.803264,-9770.718434,0.000000,1838.629195
1188.803585,-10066.800811,814.226536,1532.190996
1188.803906,-10140.821405,1184.329507,1455.581446
1188.804226,-9770.718434,888.247130,229.828649
1188.804547,-9918.759623,74.020594,-229.828649
1188.804868,-9400.615463,0.000000,-842.705048
1188.805189,-9474.636058,444.123565,-153.219100
1188.805509,-9622.677246,962.267725,-995.924147
1188.805830,-9400.615463,1776.494261,-536.266849
1188.806151,-9844.739029,1776.494261,-306.438199
1188.806472,-9770.718434,1406.391290,995.924147
1188.806792,-9696.697840,592.164754,1762.019645
1188.807113,-10140.821405,-962.267725,2911.162892
1188.807434,-9326.594869,-2960.823768,3217.601092
1188.807754,-9474.636058,-4219.173869,2681.334243
1188.808075,-8882.471304,-4071.132681,2451.505594
1188.808396,-9104.533087,-2590.720797,2451.505594
1188.808717,-9326.594869,-814.226536,2681.334243
1188.809037,-9104.533087,74.020594,2221.676944
1188.809358,-9178.553681,1036.288319,1072.533697
1188.809679,-9178.553681,1258.350101,76.609550
1188.810000,-9474.636058,962.267725,306.438199
1188.810320,-9474.636058,444.123565,-536.266849
1188.810641,-9622.677246,518.144159,-995.924147
1188.810962,-9400.615463,1110.308913,-1225.752797
1188.811283,-10140.821405,2146.597232,-689.485948
1188.811603,-10362.883188,2442.679609,153.219100
1188.811924,-10214.842000,2220.617826,1072.533697
1188.812245,-9030.512492,222.061783,2604.724693
1188.812566,-9918.759623,-666.185348,2221.676944
1188.812886,-10066.800811,-2368.659014,3370.820191
1188.813207,-9622.677246,-3923.091493,3370.820191
1188.813528,-9252.574275,-4293.194464,2298.286494
1188.813849,-8438.347739,-3552.988522,2451.505594
1188.814169,-9326.594869,-2072.576638,2374.896044
1188.814490,-9252.574275,-148.041188,2451.505594
1188.814811,-9548.656652,1184.329507,2145.067394
1188.815131,-10214.842000,1480.411884,1685.410096
1188.815452,-9770.718434,1628.453072,612.876398
1188.815773,-10140.821405,1406.391290,459.657299
1188.816094,-9844.739029,370.102971,-153.219100
1188.816414,-9548.656652,592.164754,-689.485948
1188.816735,-9770.718434,888.247130,-689.485948
1188.817056,-9622.677246,1184.329507,-536.266849
1188.817377,-9400.615463,1258.350101,153.219100
1188.817697,-9548.656652,962.267725,612.876398
1188.818018,-9548.656652,370.102971,1072.533697
1188.818339,-9696.697840,-592.164754,2145.067394
1188.818660,-9474.636058,-2590.720797,2528.115143
1188.818980,-9474.636058,-4219.173869,2604.724693
1188.819301,-8734.430116,-5403.503377,2221.676944
1188.819622,-8882.471304,-4663.297435,1915.238745
1188.819943,-9178.553681,-2886.803174,1915.238745
1188.820263,-9252.574275,-1480.411884,1455.581446
1188.820584,-9474.636058,444.123565,383.047749
1188.820905,-9474.636058,962.267725,153.219100
1188.821225,-9770.718434,1332.370696,76.609550
1188.821546,-10214.842000,962.267725,-536.266849
1188.821867,-9844.739029,888.247130,-995.924147
1188.822188,-9770.718434,962.267725,-1378.971896
1188.822508,-10140.821405,1406.391290,-1149.143247
1188.822829,-9918.759623,1776.494261,-383.047749
1188.823150,-9992.780217,2072.576638,76.609550
1188.823471,-10140.821405,1406.391290,919.314598
1188.823791,-10066.800811,296.082377,2221.676944
1188.824112,-10510.924376,-1702.473667,3064.381992
1188.824433,-9844.739029,-3404.947333,3064.381992
1188.824754,-9474.636058,-4219.173869,2681.334243
1188.825074,-8734.430116,-3701.029710,2298.286494
1188.825395,-9178.553681,-1850.514855,2068.457845
1188.825716,-9326.594869,-296.082377,2221.676944
1188.826037,-9400.615463,518.144159,995.924147
1188.826357,-9474.636058,1258.350101,995.924147
1188.826678,-9844.739029,1480.411884,229.828649
1188.826999,-9918.759623,1184.329507,0.000000
1188.827319,-10362.883188,592.164754,0.000000
1188.827640,-9474.636058,296.082377,-689.485948
1188.827961,-9696.697840,0.000000,-995.924147
1188.828282,-9474.636058,444.123565,-842.705048
1188.828602,-9474.636058,1110.308913,0.000000
1188.828923,-9844.739029,962.267725,1762.019645
1188.829244,-9548.656652,962.267725,1915.238745
1188.829565,-9770.718434,0.000000,3064.381992
1188.829885,-9622.677246,-1924.535449,3677.258390
1188.830206,-9400.615463,-4071.132681,2681.334243
1188.830527,-9104.533087,-4071.132681,3217.601092
1188.830848,-9030.512492,-4219.173869,2834.553343
1188.831168,-8956.491898,-2590.720797,2987.772442
1188.831489,-9030.512492,-1332.370696,2528.115143
1188.831810,-9326.594869,0.000000,1225.752797
1188.832130,-9474.636058,1036.288319,612.876398
1188.832451,-9474.636058,1554.432478,383.047749
1188.832772,-9474.636058,962.267725,306.438199
1188.833093,-9030.512492,814.226536,383.047749
1188.833413,-9474.636058,444.123565,-1149.143247
1188.833734,-9696.697840,1184.329507,-1072.533697
1188.834055,-9992.780217,1554.432478,-612.876398
1188.834375,-10140.821405,2072.576638,1302.362347
1188.834696,-10066.800811,2220.617826,766.095498
1188.835017,-10288.862594,1406.391290,1532.190996
1188.835337,-10214.842000,-666.185348,2374.896044
1188.835658,-9992.780217,-2516.700203,2451.505594
1188.835979,-9770.718434,-4071.132681,2374.896044
1188.836300,-9030.512492,-4219.173869,2068.457845
1188.836620,-9178.553681,-2886.803174,1378.971896
1188.836941,-9326.594869,-1184.329507,1455.581446
1188.837262,-9178.553681,518.144159,2221.676944
1188.837582,-9844.739029,1924.535449,995.924147
1188.837903,-9918.759623,2072.576638,459.657299
1188.838224,-10288.862594,1628.453072,0.000000
1188.838545,-10140.821405,518.144159,-306.438199
1188.838865,-9918.759623,222.061783,-1072.533697
1188.839186,-9844.739029,148.041188,-995.924147
1188.839507,-9548.656652,296.082377,-842.705048
1188.839827,-9252.574275,814.226536,-383.047749
1188.840148,-9104.533087,888.247130,766.095498
1188.840469,-9622.677246,740.205942,1072.533697
1188.840790,-9770.718434,444.123565,2451.505594
1188.841110,-10066.800811,-1258.350101,3217.601092
1188.841431,-9622.677246,-2738.761985,2757.943793
1188.841752,-9104.533087,-4589.276840,3217.601092
1188.842072,-8660.409521,-4737.318029,2604.724693
1188.842393,-8956.491898,-3478.967927,2911.162892
1188.842714,-9104.533087,-1702.473667,2681.334243
1188.843034,-8660.409521,-296.082377,1991.848295
1188.843355,-9104.533087,814.226536,1072.533697
1188.843676,-9178.553681,1406.391290,229.828649
1188.843997,-9474.636058,1406.391290,0.000000
1188.844317,-9696.697840,740.205942,-536.266849
1188.844638,-9696.697840,74.020594,-766.095498
1188.844959,-9844.739029,444.123565,-1149.143247
1188.845279,-9474.636058,888.247130,-612.876398
1188.845600,-10140.821405,2516.700203,76.609550
1188.845921,-9992.780217,1480.411884,995.924147
1188.846242,-9992.780217,888.247130,2145.067394
1188.846562,-10140.821405,-666.185348,2451.505594
1188.846883,-9844.739029,-2516.700203,2681.334243
1188.847204,-9770.718434,-3923.091493,2681.334243
1188.847524,-9252.574275,-4515.256246,2298.286494
1188.847845,-8956.491898,-3330.926739,2068.457845
1188.848166,-9326.594869,-1628.453072,2068.457845
1188.848487,-8364.327145,-666.185348,1915.238745
1188.848807,-9622.677246,740.205942,1608.800546
1188.849128,-9770.718434,962.267725,995.924147
1188.849449,-9918.759623,1184.329507,459.657299
1188.849769,-9178.553681,0.000000,1072.533697
1188.850090,-9770.718434,-444.123565,-459.657299
1188.850411,-9548.656652,0.000000,-842.705048
1188.850731,-9474.636058,370.102971,-1149.143247
1188.851052,-9474.636058,814.226536,-536.266849
1188.851373,-9252.574275,1184.329507,0.000000
1188.851694,-9622.677246,1110.308913,842.705048
1188.852014,-9770.718434,518.144159,2374.896044
1188.852335,-9992.780217,-1258.350101,2987.772442
1188.852656,-9622.677246,-2590.720797,2911.162892
1188.852976,-9474.636058,-3849.070898,2987.772442
1188.853297,-9030.512492,-3923.091493,2757.943793
1188.853618,-9030.512492,-3108.864956,2528.115143
1188.853939,-9104.533087,-1554.432478,1915.238745
1188.854259,-9104.533087,-518.144159,1608.800546
1188.854580,-9400.615463,592.164754,1302.362347
1188.854901,-9474.636058,1110.308913,383.047749
1188.855221,-9548.656652,962.267725,0.000000
1188.855542,-9622.677246,740.205942,-383.047749
1188.855863,-9474.636058,518.144159,-766.095498
1188.856184,-9696.697840,444.123565,-842.705048
1188.856504,-9770.718434,518.144159,-1149.143247
1188.856825,-9400.615463,1184.329507,-1072.533697
1188.857146,-9918.759623,1480.411884,689.485948
1188.857466,-9918.759623,1258.350101,1608.800546
1188.857787,-9992.780217,74.020594,2451.505594
1188.858108,-10584.944971,-1110.308913,3524.039291
1188.858428,-9622.677246,-3034.844362,3140.991542
1188.858749,-9400.615463,-4367.215058,2451.505594
1188.859070,-8660.409521,-3478.967927,2145.067394
1188.859391,-9252.574275,-2072.576638,1685.410096
1188.859711,-9104.533087,0.000000,1685.410096
1188.860032,-9326.594869,1110.308913,1608.800546
1188.860353,-9474.636058,1702.473667,1072.533697
1188.860673,-9696.697840,1406.391290,0.000000
1188.860994,-10214.842000,1702.473667,995.924147
1188.861315,-10140.821405,444.123565,153.219100
1188.861636,-10288.862594,0.000000,-459.657299
1188.861956,-9770.718434,518.144159,-229.828649
1188.862277,-9770.718434,-222.061783,153.219100
1188.862598,-9548.656652,1332.370696,0.000000
1188.862918,-10214.842000,1036.288319,536.266849
1188.863239,-9400.615463,1332.370696,1455.581446
1188.863560,-9622.677246,592.164754,1838.629195
1188.863881,-9770.718434,-666.185348,2451.505594
1188.864201,-9474.636058,-2960.823768,2604.724693
1188.864522,-9030.512492,-4071.132681,2068.457845
1188.864843,-9400.615463,-3330.926739,2068.457845
1188.865163,-8734.430116,-2294.638420,2911.162892
1188.865484,-9474.636058,-444.123565,2221.676944
1188.865805,-9474.636058,962.267725,1378.971896
1188.866125,-9622.677246,1702.473667,1072.533697
1188.866446,-9252.574275,740.205942,-153.219100
1188.866767,-9474.636058,1332.370696,-306.438199
1188.867088,-9400.615463,666.185348,-612.876398
1188.867408,-9770.718434,296.082377,-1225.752797
1188.867729,-9770.718434,740.205942,-536.266849
1188.868050,-9844.739029,962.267725,-1072.533697
1188.868370,-10066.800811,1480.411884,536.266849
1188.868691,-10288.862594,1258.350101,1838.629195
1188.869012,-10214.842000,444.123565,2145.067394
1188.869333,-10140.821405,-666.185348,2834.553343
1188.869653,-9844.739029,-2664.741391,2528.115143
1188.869974,-9400.615463,-4071.132681,2145.067394
1188.870295,-8808.450710,-3923.091493,1532.190996
1188.870615,-8808.450710,-2738.761985,689.485948
1188.870936,-9030.512492,-518.144159,1608.800546
1188.871257,-9400.615463,814.226536,1378.971896
1188.871578,-9548.656652,1258.350101,1149.143247
1188.871898,-9770.718434,1258.350101,612.876398
1188.872219,-9770.718434,888.247130,536.266849
1188.872540,-9992.780217,0.000000,153.219100
1188.872860,-9622.677246,-296.082377,-76.609550
1188.873181,-9474.636058,0.000000,-536.266849
1188.873502,-9548.656652,74.020594,-1225.752797
1188.873822,-9474.636058,1110.308913,-76.609550
1188.874143,-9326.594869,1776.494261,306.438199
1188.874464,-9844.739029,1628.453072,1455.581446
1188.874785,-10510.924376,592.164754,1378.971896
1188.875105,-9696.697840,-1332.370696,3217.601092
1188.875426,-9548.656652,-3182.885551,3140.991542
1188.875747,-9252.574275,-4663.297435,2757.943793
1188.876067,-8882.471304,-4515.256246,2681.334243
1188.876388,-9104.533087,-3108.864956,2451.505594
1188.876709,-9030.512492,-1406.391290,2298.286494
1188.877030,-9178.553681,-296.082377,1608.800546
1188.877350,-9178.553681,592.164754,995.924147
1188.877671,-9696.697840,1036.288319,306.438199
1188.877992,-9622.677246,888.247130,229.828649
1188.878312,-9844.739029,296.082377,0.000000
1188.878633,-9622.677246,74.020594,-995.924147
1188.878954,-9844.739029,74.020594,-1149.143247
1188.879274,-9918.759623,740.205942,-459.657299
1188.879595,-9844.739029,1628.453072,76.609550
1188.879916,-10288.862594,1850.514855,612.876398
1188.880237,-10066.800811,1110.308913,1838.629195
1188.880557,-10732.986159,-962.267725,2068.457845
1188.880878,-9992.780217,-2294.638420,2451.505594
1188.881199,-9918.759623,-4441.235652,2451.505594
1188.881519,-9030.512492,-4219.173869,1685.410096
1188.881840,-9104.533087,-3256.906145,1915.238745
1188.882161,-9252.574275,-1110.308913,1838.629195
1188.882482,-9474.636058,814.226536,1762.019645
1188.882802,-9548.656652,1480.411884,1378.971896
1188.883123,-9918.759623,1924.535449,842.705048
1188.883444,-10066.800811,1110.308913,0.000000
1188.883764,-9844.739029,222.061783,-229.828649
1188.884085,-9696.697840,0.000000,-459.657299
1188.884406,-9696.697840,0.000000,-919.314598
1188.884727,-9622.677246,370.102971,-919.314598
1188.885047,-9548.656652,1184.329507,-459.657299
1188.885368,-9474.636058,1480.411884,0.000000
1188.885689,-9844.739029,1554.432478,1378.971896
1188.886009,-10362.883188,444.123565,2145.067394
1188.886330,-9770.718434,-1480.411884,2681.334243
1188.886651,-9622.677246,-3182.885551,2834.553343
1188.886971,-9030.512492,-4441.235652,2604.724693
1188.887292,-8438.347739,-3849.070898,3600.648841
1188.887613,-8808.450710,-3478.967927,2145.067394
1188.887934,-8882.471304,-1776.494261,2298.286494
1188.888254,-8808.450710,-148.041188,1685.410096
1188.888575,-8882.471304,740.205942,1072.533697
1188.888896,-9252.574275,1258.350101,612.876398
1188.889216,-9622.677246,1332.370696,0.000000
1188.889537,-9696.697840,888.247130,-536.266849
1188.889858,-9770.718434,888.247130,-766.095498
1188.890179,-9918.759623,1036.288319,-383.047749
1188.890499,-10214.842000,1554.432478,-383.047749
1188.890820,-10140.821405,1998.556043,383.047749
1188.891141,-10214.842000,2072.576638,1072.533697
1188.891461,-9770.718434,1332.370696,1455.581446
1188.891782,-10066.800811,-148.041188,2451.505594
1188.892103,-9770.718434,-2220.617826,3064.381992
1188.892424,-9474.636058,-4071.132681,2604.724693
1188.892744,-8882.471304,-4367.215058,2145.067394
1188.893065,-8808.450710,-3552.988522,1762.019645
1188.893386,-9178.553681,-1776.494261,2068.457845
1188.893706,-9696.697840,0.000000,2374.896044
1188.894027,-9548.656652,592.164754,1838.629195
1188.894348,-10881.027347,1406.391290,995.924147
1188.894668,-10066.800811,814.226536,459.657299
1188.894989,-10288.862594,296.082377,536.266849
1188.895310,-9844.739029,0.000000,0.000000
1188.895631,-9622.677246,222.061783,-1915.238745
1188.895951,-9400.615463,222.061783,-995.924147
1188.896272,-9474.636058,962.267725,-919.314598
1188.896593,-9474.636058,1184.329507,0.000000
1188.896913,-9474.636058,1628.453072,459.657299
1188.897234,-9770.718434,1332.370696,1455.581446
1188.897555,-10066.800811,0.000000,2528.115143
1188.897876,-9918.759623,-1924.535449,2757.943793
1188.898196,-9474.636058,-3849.070898,2757.943793
1188.898517,-9104.533087,-4441.235652,1302.362347
1188.898838,-9104.533087,-3478.967927,2451.505594
1188.899158,-9326.594869,-1998.556043,2221.676944
1188.899479,-8956.491898,-370.102971,1915.238745
1188.899800,-9252.574275,444.123565,766.095498
1188.900121,-8956.491898,1184.329507,306.438199
1188.900441,-9400.615463,1258.350101,76.609550
1188.900762,-9548.656652,888.247130,153.219100
1188.901083,-9548.656652,518.144159,-459.657299
1188.901403,-9622.677246,370.102971,-536.266849
1188.901724,-10066.800811,888.247130,-459.657299
1188.902045,-10214.842000,1258.350101,229.828649
1188.902365,-10066.800811,1554.432478,1072.533697
1188.902686,-9178.553681,1110.308913,1302.362347
1188.903007,-9844.739029,-296.082377,2298.286494
1188.903328,-9992.780217,-1480.411884,2604.724693
1188.903648,-9844.739029,-3256.906145,3140.991542
1188.903969,-9622.677246,-4589.276840,1838.629195
1188.904290,-8734.430116,-3997.112087,2145.067394
1188.904610,-9474.636058,-2146.597232,2068.457845
1188.904931,-9548.656652,-444.123565,2145.067394
1188.905252,-9548.656652,666.185348,2145.067394
1188.905573,-9770.718434,1184.329507,1149.143247
1188.905893,-9696.697840,1332.370696,229.828649
1188.906214,-10140.821405,888.247130,153.219100
1188.906535,-9918.759623,0.000000,-229.828649
1188.906855,-9400.615463,-1036.288319,153.219100
1188.907176,-9400.615463,222.061783,-919.314598
1188.907497,-9548.656652,740.205942,-612.876398
1188.907818,-9474.636058,1036.288319,0.000000
1188.908138,-9770.718434,1036.288319,919.314598
1188.908459,-9622.677246,1184.329507,1532.190996
1188.908780,-10140.821405,-148.041188,2528.115143
1188.909100,-9770.718434,-2072.576638,3370.820191
1188.909421,-9622.677246,-3849.070898,2757.943793
1188.909742,-8882.471304,-3997.112087,3140.991542
1188.910062,-9030.512492,-3478.967927,2681.334243
1188.910383,-8956.491898,-2590.720797,2298.286494
1188.910704,-8882.471304,-1480.411884,2145.067394
1188.911025,-9252.574275,0.000000,229.828649
1188.911345,-9326.594869,888.247130,536.266849
1188.911666,-9252.574275,1258.350101,76.609550
1188.911987,-9474.636058,666.185348,-612.876398
1188.912307,-9400.615463,740.205942,-995.924147
1188.912628,-9696.697840,740.205942,-1225.752797
1188.912949,-9474.636058,1110.308913,-842.705048
1188.913270,-9918.759623,2072.576638,-612.876398
1188.913590,-10140.821405,1850.514855,459.657299
1188.913911,-10140.821405,1554.432478,919.314598
1188.914232,-10214.842000,222.061783,2221.676944
1188.914552,-10066.800811,-1332.370696,2451.505594
1188.914873,-9622.677246,-2664.741391,2604.724693
1188.915194,-8364.327145,-5255.462188,1991.848295
1188.915515,-8882.471304,-4071.132681,2451.505594
1188.915835,-9252.574275,-2516.700203,2145.067394
1188.916156,-9326.594869,-888.247130,2374.896044
1188.916477,-9474.636058,148.041188,2298.286494
1188.916797,-9992.780217,1258.350101,2145.067394
1188.917118,-10140.821405,888.247130,1532.190996
1188.917439,-10066.800811,888.247130,766.095498
1188.917759,-10140.821405,148.041188,689.485948
1188.918080,-10066.800811,0.000000,76.609550
1188.918401,-9918.759623,74.020594,-612.876398
1188.918722,-9548.656652,592.164754,-919.314598
1188.919042,-9326.594869,1332.370696,-612.876398
1188.919363,-9548.656652,888.247130,-1455.581446
1188.919684,-9696.697840,1702.473667,919.314598
1188.920004,-9918.759623,666.185348,1838.629195
1188.920325,-10066.800811,-740.205942,2757.943793
1188.920646,-9770.718434,-2738.761985,2834.553343
1188.920967,-9474.636058,-4441.235652,2757.943793
1188.921287,-8734.430116,-4071.132681,2374.896044
1188.921608,-9326.594869,-2664.741391,1991.848295
1188.921929,-9104.533087,-814.226536,2068.457845
1188.922249,-8586.388927,1332.370696,766.095498
1188.922570,-9326.594869,1258.350101,536.266849
1188.922891,-9178.553681,1628.453072,0.000000
1188.923212,-9474.636058,1480.411884,-306.438199
1188.923532,-9622.677246,1702.473667,766.095498
1188.923853,-9844.739029,518.144159,-1072.533697
1188.924174,-9992.780217,370.102971,-995.924147
1188.924494,-9844.739029,1184.329507,-842.705048
1188.924815,-9548.656652,1554.432478,0.000000
1188.925136,-9622.677246,1628.453072,612.876398
1188.925456,-10066.800811,1036.288319,1915.238745
1188.925777,-10066.800811,-666.185348,2528.115143
1188.926098,-9696.697840,-2590.720797,2451.505594
1188.926419,-9474.636058,-3552.988522,2757.943793
1188.926739,-8882.471304,-3701.029710,2145.067394
1188.927060,-9104.533087,-2738.761985,2298.286494
1188.927381,-9326.594869,-1480.411884,2298.286494
1188.927701,-9178.553681,-222.061783,1378.971896
1188.928022,-9696.697840,814.226536,919.314598
1188.928343,-9770.718434,1554.432478,766.095498
1188.928664,-10066.800811,1480.411884,306.438199
1188.928984,-10436.903782,740.205942,0.000000
1188.929305,-10214.842000,666.185348,-612.876398
1188.929626,-9622.677246,444.123565,-842.705048
1188.929946,-9844.739029,1036.288319,-612.876398
1188.930267,-9844.739029,1406.391290,-306.438199
1188.930588,-9252.574275,2146.597232,1225.752797
1188.930909,-9548.656652,1406.391290,1149.143247
1188.931229,-9844.739029,740.205942,1991.848295
1188.931550,-9992.780217,-370.102971,2834.553343
1188.931871,-9770.718434,-2590.720797,3140.991542
1188.932191,-9548.656652,-4219.173869,2757.943793
1188.932512,-8882.471304,-4737.318029,2374.896044
1188.932833,-8956.491898,-3701.029710,2145.067394
1188.933153,-8956.491898,-1850.514855,2528.115143
1188.933474,-9400.615463,-296.082377,2298.286494
1188.933795,-9548.656652,148.041188,1532.190996
1188.934116,-8808.450710,666.185348,689.485948
1188.934436,-9622.677246,518.144159,229.828649
1188.934757,-9992.780217,444.123565,536.266849
1188.935078,-9622.677246,-296.082377,-153.219100
1188.935398,-9622.677246,-148.041188,-306.438199
1188.935719,-9252.574275,444.123565,-1378.971896
1188.936040,-9622.677246,1332.370696,0.000000
1188.936361,-10214.842000,1480.411884,1302.362347
1188.936681,-9992.780217,1110.308913,2145.067394
1188.937002,-9844.739029,0.000000,2451.505594
1188.937323,-10066.800811,-1628.453072,2757.943793
1188.937643,-9326.594869,-3330.926739,2604.724693
1188.937964,-9326.594869,-4441.235652,2604.724693
1188.938285,-8808.450710,-3404.947333,2451.505594
1188.938606,-9030.512492,-2146.597232,1991.848295
1188.938926,-9252.574275,-592.164754,1762.019645
1188.939247,-9326.594869,370.102971,1532.190996
1188.939568,-9622.677246,1036.288319,1072.533697
1188.939888,-10140.821405,962.267725,153.219100
1188.940209,-9992.780217,518.144159,0.000000
1188.940530,-9474.636058,518.144159,-1225.752797
1188.940851,-9696.697840,0.000000,-1302.362347
1188.941171,-9844.739029,888.247130,-995.924147
1188.941492,-9770.718434,1332.370696,-612.876398
1188.941813,-9844.739029,2368.659014,2068.457845
1188.942133,-10066.800811,1332.370696,459.657299
1188.942454,-10066.800811,814.226536,1608.800546
1188.942775,-10584.944971,-370.102971,2451.505594
1188.943096,-10066.800811,-1924.535449,2757.943793
1188.943416,-10066.800811,-3552.988522,2451.505594
1188.943737,-9030.512492,-4145.153275,2068.457845
1188.944058,-8808.450710,-3404.947333,2068.457845
1188.944378,-9326.594869,-1924.535449,2451.505594
1188.944699,-7846.182985,-1110.308913,1455.581446
1188.945020,-9030.512492,296.082377,1072.533697
1188.945341,-9400.615463,1036.288319,229.828649
1188.945661,-9474.636058,1184.329507,0.000000
1188.945982,-9918.759623,814.226536,-229.828649
1188.946303,-9548.656652,592.164754,-842.705048
1188.946623,-9474.636058,814.226536,-1302.362347
1188.946944,-9622.677246,1036.288319,-1302.362347
1188.947265,-9400.615463,1480.411884,-995.924147
1188.947586,-9474.636058,1554.432478,306.438199
1188.947906,-9696.697840,1850.514855,919.314598
1188.948227,-9992.780217,370.102971,1762.019645
1188.948548,-9770.718434,-1184.329507,2298.286494
1188.948868,-9622.677246,-2960.823768,3217.601092
1188.949189,-9400.615463,-3775.050304,2374.896044
1188.949510,-9178.553681,-3552.988522,1991.848295
1188.949830,-8882.471304,-2220.617826,1532.190996
1188.950151,-9474.636058,-666.185348,2145.067394
1188.950472,-8882.471304,1628.453072,1608.800546
1188.950793,-9770.718434,1702.473667,1149.143247
1188.951113,-9918.759623,1628.453072,383.047749
1188.951434,-9918.759623,1406.391290,153.219100
1188.951755,-10140.821405,814.226536,0.000000
1188.952075,-9326.594869,444.123565,-1072.533697
1188.952396,-9696.697840,888.247130,-153.219100
1188.952717,-10214.842000,1110.308913,-153.219100
1188.953038,-9474.636058,1184.329507,0.000000
1188.953358,-10436.903782,1480.411884,1378.971896
1188.953679,-9548.656652,1184.329507,1762.019645
1188.954000,-9918.759623,-222.061783,2451.505594
1188.954320,-10362.883188,-1554.432478,4136.915689
1188.954641,-9104.533087,-3404.947333,2068.457845
1188.954962,-9548.656652,-4441.235652,2911.162892
1188.955283,-8882.471304,-4293.194464,2987.772442
1188.955603,-9030.512492,-2664.741391,2451.505594
1188.955924,-9474.636058,-1110.308913,2451.505594
1188.956245,-8734.430116,0.000000,1225.752797
1188.956565,-8808.450710,1036.288319,383.047749
1188.956886,-9622.677246,1110.308913,306.438199
1188.957207,-9548.656652,1110.308913,306.438199
1188.957528,-10066.800811,2072.576638,-995.924147
1188.957848,-9770.718434,0.000000,-766.095498
1188.958169,-9696.697840,592.164754,-689.485948
1188.958490,-9992.780217,962.267725,-306.438199
1188.958810,-9770.718434,1554.432478,76.609550
1188.959131,-9844.739029,1554.432478,1149.143247
1188.959452,-9844.739029,444.123565,1915.238745
1188.959773,-9844.739029,-1258.350101,2298.286494
1188.960093,-9770.718434,-3330.926739,2834.553343
1188.960414,-9622.677246,-4441.235652,2681.334243
1188.960735,-9178.553681,-4145.153275,2528.115143
1188.961055,-8882.471304,-2664.741391,1991.848295
1188.961376,-9326.594869,-962.267725,2221.676944
1188.961697,-9474.636058,222.061783,995.924147
1188.962018,-9548.656652,1110.308913,1378.971896
1188.962338,-9844.739029,740.205942,383.047749
1188.962659,-9918.759623,518.144159,306.438199
1188.962980,-9992.780217,0.000000,0.000000
1188.963300,-9918.759623,0.000000,-612.876398
1188.963621,-9622.677246,370.102971,-1225.752797
1188.963942,-9770.718434,592.164754,-995.924147
1188.964263,-9844.739029,888.247130,-689.485948
1188.964583,-9400.615463,1184.329507,-76.609550
1188.964904,-9844.739029,1036.288319,995.924147
1188.965225,-9918.759623,0.000000,2145.067394
1188.965545,-10066.800811,-1628.453072,2834.553343
1188.965866,-10140.821405,-3404.947333,2451.505594
1188.966187,-9548.656652,-4293.194464,2681.334243
1188.966508,-8882.471304,-4219.173869,2451.505594
1188.966828,-9104.533087,-3108.864956,2451.505594
1188.967149,-9326.594869,-1406.391290,2145.067394
1188.967470,-9178.553681,0.000000,1915.238745
1188.967790,-9474.636058,518.144159,842.705048
1188.968111,-9326.594869,1258.350101,153.219100
1188.968432,-9474.636058,1258.350101,0.000000
1188.968752,-9844.739029,444.123565,-306.438199
1188.969073,-9400.615463,74.020594,-766.095498
1188.969394,-9696.697840,74.020594,-689.485948
1188.969715,-9696.697840,666.185348,-383.047749
1188.970035,-9474.636058,1332.370696,-1532.190996
1188.970356,-10362.883188,1258.350101,1302.362347
1188.970677,-9770.718434,666.185348,1991.848295
1188.970997,-9918.759623,-1332.370696,2528.115143
1188.971318,-9622.677246,-2590.720797,2987.772442
1188.971639,-9622.677246,-4441.235652,2681.334243
1188.971960,-9326.594869,-4219.173869,2528.115143
1188.972280,-8364.327145,-3182.885551,1762.019645
1188.972601,-8882.471304,-962.267725,1762.019645
1188.972922,-9104.533087,444.123565,2374.896044
1188.973242,-9474.636058,1628.453072,1685.410096
1188.973563,-10288.862594,1332.370696,1225.752797
1188.973884,-9844.739029,962.267725,76.609550
1188.974205,-11251.130318,888.247130,612.876398
1188.974525,-9992.780217,148.041188,-689.485948
1188.974846,-9844.739029,592.164754,-766.095498
1188.975167,-9992.780217,814.226536,-842.705048
1188.975487,-9474.636058,1628.453072,-766.095498
1188.975808,-10066.800811,1258.350101,-459.657299
1188.976129,-9474.636058,1332.370696,383.047749
1188.976450,-9918.759623,740.205942,1838.629195
1188.976770,-10140.821405,-370.102971,2298.286494
1188.977091,-9548.656652,-1850.514855,3753.867940
1188.977412,-9474.636058,-3627.009116,2757.943793
1188.977732,-9030.512492,-3552.988522,2221.676944
1188.978053,-9326.594869,-2886.803174,2681.334243
1188.978374,-9178.553681,-1184.329507,2068.457845
1188.978695,-8956.491898,-444.123565,1762.019645
1188.979015,-9770.718434,666.185348,689.485948
1188.979336,-9474.636058,1776.494261,306.438199
1188.979657,-9770.718434,1776.494261,76.609550
1188.979977,-10214.842000,1702.473667,-229.828649
1188.980298,-9622.677246,740.205942,-919.314598
1188.980619,-9844.739029,962.267725,-1455.581446
1188.980940,-10066.800811,1184.329507,-1149.143247
1188.981260,-10140.821405,1776.494261,-383.047749
1188.981581,-9992.780217,1924.535449,536.266849
1188.981902,-9844.739029,962.267725,842.705048
1188.982222,-9770.718434,74.020594,1608.800546
1188.982543,-9326.594869,-1776.494261,995.924147
1188.982864,-9548.656652,-3404.947333,2451.505594
1188.983185,-8956.491898,-3404.947333,2298.286494
1188.983505,-8660.409521,-2886.803174,2221.676944
1188.983826,-9252.574275,-1480.411884,2451.505594
1188.984147,-9178.553681,-444.123565,2834.553343
1188.984467,-9178.553681,222.061783,2068.457845
1188.984788,-9622.677246,814.226536,1532.190996
1188.985109,-9400.615463,740.205942,919.314598
1188.985429,-10140.821405,592.164754,0.000000
1188.985750,-9622.677246,148.041188,459.657299
1188.986071,-9326.594869,74.020594,0.000000
1188.986392,-9622.677246,222.061783,0.000000
1188.986712,-8808.450710,1184.329507,-153.219100
1188.987033,-9622.677246,814.226536,229.828649
1188.987354,-9770.718434,814.226536,1072.533697
1188.987674,-9548.656652,888.247130,1838.629195
1188.987995,-9992.780217,74.020594,2374.896044
1188.988316,-9992.780217,-2294.638420,2911.162892
1188.988637,-9178.553681,-3849.070898,2604.724693
1188.988957,-8882.471304,-4219.173869,2145.067394
1188.989278,-9326.594869,-3330.926739,2145.067394
1188.989599,-9178.553681,-2072.576638,1991.848295
1188.989919,-9400.615463,-1110.308913,1762.019645
1188.990240,-9326.594869,222.061783,1149.143247
1188.990561,-9696.697840,962.267725,536.266849
1188.990882,-9622.677246,370.102971,689.485948
1188.991202,-9992.780217,592.164754,-306.438199
1188.991523,-9622.677246,666.185348,-689.485948
1188.991844,-10066.800811,296.082377,-1225.752797
1188.992164,-9918.759623,1184.329507,-919.314598
1188.992485,-9696.697840,1776.494261,-612.876398
1188.992806,-10214.842000,1110.308913,76.609550
1188.993127,-9992.780217,1258.350101,995.924147
1188.993447,-10362.883188,-148.041188,1532.190996
1188.993768,-10066.800811,-1258.350101,3064.381992
1188.994089,-9918.759623,-2516.700203,2681.334243
1188.994409,-9474.636058,-3997.112087,2604.724693
