#time,accel_x,accel_y,accel_z
1147.891611,-10066.800811,-1258.350101,2604.724693
1147.891932,-9622.677246,-1850.514855,2604.724693
1147.892253,-9622.677246,-1924.535449,2528.115143
1147.892573,-9474.636058,-1332.370696,2221.676944
1147.892894,-9622.677246,-1628.453072,1685.410096
1147.893215,-9178.553681,-1184.329507,1455.581446
1147.893536,-9030.512492,-1554.432478,2604.724693
1147.893857,-9178.553681,-1406.391290,1149.143247
1147.894178,-9696.697840,-888.247130,842.705048
1147.894498,-9992.780217,-518.144159,1072.533697
1147.894819,-9696.697840,74.020594,536.266849
1147.895140,-10214.842000,222.061783,612.876398
1147.895461,-10066.800811,296.082377,842.705048
1147.895782,-9844.739029,-296.082377,689.485948
1147.896103,-10140.821405,-888.247130,612.876398
1147.896423,-9844.739029,-1776.494261,459.657299
1147.896744,-9474.636058,-1480.411884,919.314598
1147.897065,-9770.718434,-2072.576638,1225.752797
1147.897386,-9252.574275,-2294.638420,1149.143247
1147.897707,-9252.574275,-1702.473667,2374.896044
1147.898028,-9104.533087,-2442.679609,1302.362347
1147.898348,-9178.553681,-2146.597232,1302.362347
1147.898669,-9252.574275,-1924.535449,1455.581446
1147.898990,-9474.636058,-1554.432478,1685.410096
1147.899311,-8882.471304,-1036.288319,1838.629195
1147.899632,-9178.553681,-1110.308913,2298.286494
1147.899953,-9474.636058,-740.205942,2221.676944
1147.900273,-9622.677246,-1036.288319,3370.820191
1147.900594,-8808.450710,-1110.308913,2911.162892
1147.900915,-9622.677246,-1998.556043,3983.696590
1147.901236,-9474.636058,-2442.679609,4443.353888
1147.901557,-9474.636058,-2886.803174,4826.401637
1147.901878,-9252.574275,-2886.803174,5056.230287
1147.902198,-9104.533087,-3182.885551,5439.278036
1147.902519,-8808.450710,-3182.885551,5515.887586
1147.902840,-9252.574275,-3034.844362,5898.935335
1147.903161,-9252.574275,-3256.906145,6128.763984
1147.903482,-9548.656652,-3330.926739,5898.935335
1147.903803,-9474.636058,-2812.782580,6052.154434
1147.904124,-9696.697840,-2664.741391,6128.763984
1147.904444,-9622.677246,-3034.844362,6205.373534
1147.904765,-9622.677246,-3182.885551,6588.421283
1147.905086,-9770.718434,-3330.926739,4903.011187
1147.905407,-9770.718434,-3552.988522,4136.915689
1147.905728,-9548.656652,-3775.050304,3677.258390
1147.906049,-9622.677246,-2960.823768,3524.039291
1147.906369,-10140.821405,-2590.720797,2451.505594
1147.906690,-9992.780217,-1998.556043,2451.505594
1147.907011,-10140.821405,-1998.556043,1685.410096
1147.907332,-10214.842000,-1998.556043,1225.752797
1147.907653,-9400.615463,-1554.432478,689.485948
1147.907974,-10214.842000,-1110.308913,612.876398
1147.908294,-10140.821405,-1184.329507,612.876398
1147.908615,-9992.780217,-1406.391290,0.000000
1147.908936,-9326.594869,-740.205942,-76.609550
1147.909257,-9474.636058,-1554.432478,-612.876398
1147.909578,-9474.636058,-1184.329507,-689.485948
1147.909899,-9474.636058,-1480.411884,-1072.533697
1147.910219,-9400.615463,-1110.308913,-1608.800546
1147.910540,-9104.533087,-1110.308913,-1762.019645
1147.910861,-9326.594869,-592.164754,-2221.676944
1147.911182,-9252.574275,-148.041188,-2374.896044
1147.911503,-9474.636058,888.247130,-2451.505594
1147.911824,-10362.883188,1924.535449,-2987.772442
1147.912144,-9622.677246,2368.659014,-2757.943793
1147.912465,-9770.718434,2368.659014,-2604.724693
1147.912786,-9844.739029,2146.597232,-2451.505594
1147.913107,-9770.718434,1258.350101,-2068.457845
1147.913428,-9474.636058,814.226536,-1225.752797
1147.913749,-9474.636058,222.061783,-766.095498
1147.914069,-9400.615463,0.000000,0.000000
1147.914390,-9474.636058,-592.164754,459.657299
1147.914711,-9400.615463,-444.123565,1225.752797
1147.915032,-9326.594869,-666.185348,1991.848295
1147.915353,-9178.553681,-666.185348,2604.724693
1147.915674,-8882.471304,-666.185348,2451.505594
1147.915995,-8364.327145,370.102971,2221.676944
1147.916316,-9104.533087,740.205942,2451.505594
1147.916636,-9474.636058,1554.432478,2604.724693
1147.916957,-9548.656652,2146.597232,2374.896044
1147.917278,-9622.677246,2516.700203,1915.238745
1147.917599,-9770.718434,2590.720797,2604.724693
1147.917920,-10288.862594,2590.720797,3217.601092
1147.918241,-10436.903782,2072.576638,3907.087040
1147.918562,-10362.883188,1036.288319,4290.134789
1147.918883,-10436.903782,296.082377,4596.572988
1147.919204,-10214.842000,-518.144159,4519.963438
1147.919525,-9770.718434,-962.267725,4290.134789
1147.919846,-9770.718434,-1184.329507,4060.306139
1147.920167,-9326.594869,0.000000,6435.202183
1147.920488,-9696.697840,-740.205942,3217.601092
1147.920809,-9178.553681,-222.061783,2374.896044
1147.921130,-9548.656652,148.041188,1455.581446
1147.921451,-9548.656652,814.226536,842.705048
1147.921772,-9400.615463,1332.370696,0.000000
1147.922093,-9770.718434,1998.556043,0.000000
1147.922414,-10288.862594,2072.576638,-153.219100
1147.922735,-10214.842000,1924.535449,-536.266849
1147.923056,-10066.800811,1184.329507,459.657299
1147.923377,-10214.842000,444.123565,229.828649
1147.923698,-10066.800811,-740.205942,842.705048
1147.924019,-9622.677246,-1924.535449,842.705048
1147.924340,-9252.574275,-3552.988522,766.095498
1147.924661,-8734.430116,-3775.050304,1072.533697
1147.924982,-8882.471304,-3923.091493,995.924147
1147.925303,-8364.327145,-3775.050304,1072.533697
1147.925624,-8142.265362,-3478.967927,383.047749
1147.925945,-8586.388927,-2664.741391,-229.828649
1147.926266,-8512.368333,-1924.535449,-919.314598
1147.926587,-8734.430116,-814.226536,-1455.581446
1147.926908,-9252.574275,0.000000,-1762.019645
1147.927229,-9178.553681,888.247130,-2221.676944
1147.927550,-9992.780217,592.164754,-1838.629195
1147.927871,-10066.800811,740.205942,-995.924147
1147.928192,-10955.047942,518.144159,-612.876398
1147.928513,-10807.006753,148.041188,-229.828649
1147.928834,-10140.821405,-1258.350101,689.485948
1147.929155,-9696.697840,-2294.638420,1378.971896
1147.929476,-9178.553681,-3256.906145,1685.410096
1147.929797,-9400.615463,-3478.967927,2145.067394
1147.930118,-9104.533087,-3256.906145,2221.676944
1147.930439,-8808.450710,-3182.885551,1838.629195
1147.930760,-8956.491898,-2664.741391,1685.410096
1147.931081,-9474.636058,-1332.370696,1149.143247
1147.931402,-9844.739029,74.020594,689.485948
1147.931723,-10362.883188,1628.453072,1149.143247
1147.932043,-10436.903782,2812.782580,842.705048
1147.932364,-10955.047942,3108.864956,536.266849
1147.932685,-11029.068536,3701.029710,1378.971896
1147.933006,-11029.068536,2664.741391,1532.190996
1147.933327,-10881.027347,1480.411884,2145.067394
1147.933648,-10214.842000,518.144159,2145.067394
1147.933969,-10214.842000,-740.205942,2451.505594
1147.934290,-9770.718434,-1702.473667,3294.210641
1147.934611,-9178.553681,-2368.659014,3294.210641
1147.934932,-8660.409521,-2664.741391,3370.820191
1147.935253,-8808.450710,-2664.741391,3907.087040
1147.935574,-8290.306550,-2886.803174,3370.820191
1147.935895,-8512.368333,-2072.576638,2911.162892
1147.936216,-8882.471304,-1036.288319,2451.505594
1147.936537,-8882.471304,74.020594,2221.676944
1147.936858,-8364.327145,1628.453072,2681.334243
1147.937179,-9400.615463,2220.617826,766.095498
1147.937500,-9548.656652,2886.803174,383.047749
1147.937821,-9844.739029,2812.782580,229.828649
1147.938142,-9770.718434,2368.659014,536.266849
1147.938463,-9622.677246,1776.494261,306.438199
1147.938784,-9622.677246,740.205942,459.657299
1147.939105,-9326.594869,-370.102971,612.876398
1147.939426,-8882.471304,-1184.329507,689.485948
1147.939747,-9030.512492,-1998.556043,153.219100
1147.940068,-8586.388927,-1998.556043,689.485948
1147.940389,-8808.450710,-1702.473667,536.266849
1147.940710,-8734.430116,-1258.350101,153.219100
1147.941031,-8956.491898,-222.061783,-766.095498
1147.941352,-9474.636058,370.102971,-766.095498
1147.941673,-9770.718434,1554.432478,-1149.143247
1147.941994,-10140.821405,2442.679609,-1455.581446
1147.942315,-10658.965565,3330.926739,-1608.800546
1147.942636,-10732.986159,3404.947333,-1915.238745
1147.942957,-11103.089130,3034.844362,-1378.971896
1147.943278,-10955.047942,2220.617826,-536.266849
1147.943599,-10732.986159,1110.308913,-153.219100
1147.943920,-10732.986159,296.082377,459.657299
1147.944241,-10066.800811,-1406.391290,1149.143247
1147.944562,-9696.697840,-2516.700203,1838.629195
1147.944883,-9400.615463,-2886.803174,2221.676944
1147.945204,-8882.471304,-3034.844362,4443.353888
1147.945525,-9326.594869,-2812.782580,2911.162892
1147.945846,-9030.512492,-2590.720797,2987.772442
1147.946167,-8956.491898,-1924.535449,2451.505594
1147.946488,-9030.512492,-1184.329507,1838.629195
1147.946809,-9400.615463,222.061783,1225.752797
1147.947129,-9474.636058,1036.288319,1302.362347
1147.947450,-9770.718434,1554.432478,1225.752797
1147.947771,-10288.862594,1480.411884,1302.362347
1147.948092,-10510.924376,1628.453072,1225.752797
1147.948413,-10436.903782,740.205942,1915.238745
1147.948734,-10436.903782,-296.082377,2681.334243
1147.949055,-9770.718434,-1406.391290,2911.162892
1147.949376,-9474.636058,-2738.761985,3677.258390
1147.949697,-8808.450710,-3849.070898,3524.039291
1147.950018,-8438.347739,-4367.215058,3064.381992
1147.950339,-8216.285956,-4367.215058,2681.334243
1147.950660,-8216.285956,-4145.153275,2681.334243
1147.950981,-8216.285956,-2960.823768,2374.896044
1147.951302,-8660.409521,-2220.617826,1149.143247
1147.951623,-8956.491898,-962.267725,612.876398
1147.951944,-9474.636058,0.000000,306.438199
1147.952265,-9622.677246,592.164754,153.219100
1147.952586,-10288.862594,2072.576638,-689.485948
1147.952907,-10807.006753,2442.679609,-612.876398
1147.953228,-11103.089130,2146.597232,-383.047749
1147.953549,-10881.027347,1702.473667,0.000000
1147.953870,-11029.068536,740.205942,536.266849
1147.954191,-10140.821405,-518.144159,995.924147
1147.954512,-9696.697840,-1924.535449,1149.143247
1147.954833,-9326.594869,-2960.823768,1455.581446
1147.955154,-9548.656652,-3108.864956,1915.238745
1147.955475,-8956.491898,-3256.906145,1685.410096
1147.955796,-8882.471304,-2664.741391,1838.629195
1147.956117,-9030.512492,-2220.617826,1149.143247
1147.956438,-8216.285956,-1406.391290,612.876398
1147.956759,-9400.615463,-148.041188,306.438199
1147.957080,-9474.636058,740.205942,-459.657299
1147.957401,-10066.800811,1554.432478,-612.876398
1147.957722,-10214.842000,1998.556043,383.047749
1147.958043,-10510.924376,2368.659014,-536.266849
1147.958364,-11029.068536,2220.617826,-76.609550
1147.958685,-10584.944971,1850.514855,229.828649
1147.959006,-10436.903782,666.185348,459.657299
1147.959327,-10436.903782,-148.041188,612.876398
1147.959648,-9622.677246,-1850.514855,1149.143247
1147.959969,-9104.533087,-2664.741391,1455.581446
1147.960290,-8660.409521,-2960.823768,1762.019645
1147.960611,-7624.121203,-3256.906145,2834.553343
1147.960932,-8364.327145,-2516.700203,1762.019645
1147.961253,-8734.430116,-1480.411884,1378.971896
1147.961574,-9030.512492,-370.102971,1072.533697
1147.961895,-9400.615463,814.226536,459.657299
1147.962216,-9844.739029,1776.494261,536.266849
1147.962536,-10288.862594,2368.659014,842.705048
1147.962857,-10436.903782,2738.761985,229.828649
1147.963178,-10732.986159,2738.761985,689.485948
1147.963499,-10807.006753,2220.617826,919.314598
1147.963820,-10510.924376,1184.329507,1685.410096
1147.964141,-10362.883188,370.102971,2221.676944
1147.964462,-9696.697840,-740.205942,2528.115143
1147.964783,-9400.615463,-1258.350101,2681.334243
1147.965104,-8956.491898,-2590.720797,3064.381992
1147.965425,-8808.450710,-2738.761985,3370.820191
1147.965746,-8734.430116,-2738.761985,3140.991542
1147.966067,-8586.388927,-2146.597232,2834.553343
1147.966388,-8956.491898,-1480.411884,2681.334243
1147.966709,-8956.491898,-222.061783,1685.410096
1147.967030,-9326.594869,888.247130,995.924147
1147.967351,-9770.718434,1924.535449,536.266849
1147.967672,-9622.677246,2368.659014,689.485948
1147.967993,-10362.883188,2442.679609,0.000000
1147.968314,-10510.924376,2516.700203,-383.047749
1147.968635,-10510.924376,1776.494261,0.000000
1147.968956,-10510.924376,1628.453072,1455.581446
1147.969277,-10362.883188,74.020594,1149.143247
1147.969598,-9992.780217,-1110.308913,1072.533697
1147.969919,-9178.553681,-2220.617826,1225.752797
1147.970240,-9030.512492,-2960.823768,842.705048
1147.970561,-8438.347739,-3256.906145,1532.190996
1147.970882,-8734.430116,-3256.906145,1225.752797
1147.971203,-8512.368333,-2738.761985,536.266849
1147.971524,-8586.388927,-1924.535449,-306.438199
1147.971845,-8290.306550,-1036.288319,612.876398
1147.972166,-9400.615463,888.247130,-842.705048
1147.972487,-9770.718434,1998.556043,-1072.533697
1147.972808,-10584.944971,2886.803174,-995.924147
1147.973129,-10658.965565,2664.741391,-383.047749
1147.973450,-10955.047942,2368.659014,-76.609550
1147.973771,-10881.027347,1628.453072,229.828649
1147.974092,-10510.924376,370.102971,919.314598
1147.974413,-9992.780217,-814.226536,995.924147
1147.974734,-9474.636058,-1998.556043,1991.848295
1147.975055,-8956.491898,-2738.761985,2221.676944
1147.975376,-8808.450710,-3034.844362,2911.162892
1147.975697,-8734.430116,-2812.782580,3064.381992
1147.976018,-8438.347739,-3034.844362,2681.334243
1147.976339,-8586.388927,-2664.741391,2528.115143
1147.976660,-8734.430116,-1924.535449,2298.286494
1147.976981,-9030.512492,-962.267725,1685.410096
1147.977302,-9992.780217,2294.638420,1225.752797
1147.977623,-9548.656652,1924.535449,1225.752797
1147.977943,-10066.800811,2442.679609,1225.752797
1147.978264,-10362.883188,2442.679609,919.314598
1147.978585,-10436.903782,1998.556043,1225.752797
1147.978906,-10584.944971,1258.350101,1455.581446
1147.979227,-10436.903782,-148.041188,1915.238745
1147.979548,-10288.862594,-1480.411884,2374.896044
1147.979869,-9548.656652,-2590.720797,2374.896044
1147.980190,-9474.636058,-2738.761985,2298.286494
1147.980511,-9104.533087,-3108.864956,2451.505594
1147.980832,-8734.430116,-3034.844362,2298.286494
1147.981153,-8586.388927,-2368.659014,1991.848295
1147.981474,-7994.224174,-1776.494261,919.314598
1147.981795,-9104.533087,-444.123565,459.657299
1147.982116,-9326.594869,666.185348,383.047749
1147.982437,-9770.718434,1776.494261,0.000000
1147.982758,-10436.903782,2812.782580,-306.438199
1147.983079,-10584.944971,2886.803174,-153.219100
1147.983400,-10955.047942,2960.823768,0.000000
1147.983721,-11103.089130,2442.679609,0.000000
1147.984042,-10955.047942,1776.494261,306.438199
1147.984363,-10955.047942,518.144159,995.924147
1147.984684,-10066.800811,-962.267725,1225.752797
1147.985005,-9252.574275,-2294.638420,1455.581446
1147.985326,-8956.491898,-2886.803174,1685.410096
1147.985647,-8142.265362,-2294.638420,3677.258390
1147.985968,-8808.450710,-2664.741391,2068.457845
1147.986289,-8586.388927,-1998.556043,1991.848295
1147.986610,-8734.430116,-1480.411884,1225.752797
1147.986931,-8956.491898,-592.164754,842.705048
1147.987252,-9252.574275,666.185348,0.000000
1147.987573,-9474.636058,1628.453072,0.000000
1147.987894,-9770.718434,2590.720797,-229.828649
1147.988215,-10140.821405,2590.720797,-842.705048
1147.988536,-10658.965565,2368.659014,-766.095498
1147.988857,-10436.903782,1924.535449,-153.219100
1147.989178,-10288.862594,1036.288319,612.876398
1147.989499,-9992.780217,-296.082377,919.314598
1147.989820,-10584.944971,-1480.411884,2068.457845
1147.990141,-9400.615463,-2442.679609,2145.067394
1147.990462,-9104.533087,-3108.864956,2451.505594
1147.990783,-8438.347739,-3627.009116,2528.115143
1147.991104,-8586.388927,-3627.009116,2374.896044
1147.991425,-8586.388927,-3034.844362,2221.676944
1147.991746,-8882.471304,-1776.494261,1378.971896
1147.992067,-9178.553681,-592.164754,536.266849
1147.992388,-9548.656652,888.247130,229.828649
1147.992709,-10066.800811,2886.803174,689.485948
1147.993030,-10584.944971,3182.885551,0.000000
1147.993350,-10732.986159,3256.906145,0.000000
1147.993671,-11177.109724,2812.782580,229.828649
1147.993992,-11029.068536,1184.329507,0.000000
1147.994313,-10881.027347,814.226536,612.876398
1147.994634,-10510.924376,-666.185348,2068.457845
1147.994955,-9918.759623,-1628.453072,2145.067394
1147.995276,-9548.656652,-2368.659014,2911.162892
1147.995597,-9104.533087,-2812.782580,2757.943793
1147.995918,-8586.388927,-3108.864956,3217.601092
1147.996239,-8734.430116,-3330.926739,3294.210641
1147.996560,-8586.388927,-3034.844362,2528.115143
1147.996881,-8660.409521,-2294.638420,2528.115143
1147.997202,-8660.409521,-1332.370696,1149.143247
1147.997523,-8956.491898,0.000000,459.657299
1147.997844,-9474.636058,1332.370696,0.000000
1147.998165,-9770.718434,2590.720797,459.657299
1147.998486,-10288.862594,2368.659014,0.000000
1147.998807,-10510.924376,2146.597232,0.000000
1147.999128,-10436.903782,1110.308913,536.266849
1147.999449,-10362.883188,-148.041188,689.485948
1147.999770,-9770.718434,-1702.473667,919.314598
1148.000091,-9400.615463,-2220.617826,842.705048
1148.000412,-8956.491898,-2738.761985,1302.362347
1148.000733,-8512.368333,-3330.926739,1455.581446
1148.001054,-7476.080014,-3552.988522,1149.143247
1148.001375,-8438.347739,-2960.823768,1225.752797
1148.001696,-8660.409521,-2220.617826,766.095498
1148.002017,-8956.491898,-1258.350101,0.000000
1148.002338,-8882.471304,666.185348,995.924147
1148.002659,-9696.697840,1184.329507,-306.438199
1148.002980,-10214.842000,2368.659014,-306.438199
1148.003301,-10732.986159,2886.803174,-306.438199
1148.003622,-11177.109724,2960.823768,-383.047749
1148.003943,-11029.068536,2294.638420,383.047749
1148.004264,-10955.047942,1628.453072,536.266849
1148.004585,-10732.986159,296.082377,919.314598
1148.004906,-9992.780217,-1036.288319,1685.410096
1148.005227,-10214.842000,-1628.453072,1762.019645
1148.005548,-9252.574275,-2516.700203,2374.896044
1148.005869,-9104.533087,-2812.782580,2681.334243
1148.006190,-8882.471304,-2812.782580,2987.772442
1148.006511,-9104.533087,-2590.720797,2604.724693
1148.006832,-8956.491898,-1776.494261,2374.896044
1148.007153,-9326.594869,-592.164754,1838.629195
1148.007474,-9622.677246,666.185348,1302.362347
1148.007795,-9770.718434,1628.453072,842.705048
1148.008116,-9992.780217,2516.700203,153.219100
1148.008437,-10066.800811,2738.761985,76.609550
1148.008757,-10436.903782,2886.803174,229.828649
1148.009078,-10362.883188,2516.700203,612.876398
1148.009399,-10066.800811,1184.329507,766.095498
1148.009720,-10066.800811,296.082377,1762.019645
1148.010041,-9622.677246,-1258.350101,2068.457845
1148.010362,-9474.636058,-2368.659014,2374.896044
1148.010683,-8734.430116,-3108.864956,1991.848295
1148.011004,-8364.327145,-3478.967927,2451.505594
1148.011325,-8290.306550,-3330.926739,2221.676944
1148.011646,-8364.327145,-2738.761985,1762.019645
1148.011967,-8586.388927,-1850.514855,1225.752797
1148.012288,-8512.368333,-740.205942,459.657299
1148.012609,-9326.594869,666.185348,0.000000
1148.012930,-9844.739029,2072.576638,-383.047749
1148.013251,-10362.883188,2960.823768,-766.095498
1148.013572,-10881.027347,3775.050304,-995.924147
1148.013893,-10955.047942,3182.885551,-306.438199
1148.014214,-10807.006753,2146.597232,0.000000
1148.014535,-10732.986159,1110.308913,306.438199
1148.014856,-10732.986159,-518.144159,2145.067394
1148.015177,-9844.739029,-1258.350101,1762.019645
1148.015498,-9252.574275,-2442.679609,1991.848295
1148.015819,-9030.512492,-2886.803174,2298.286494
1148.016140,-8734.430116,-2960.823768,2451.505594
1148.016461,-8956.491898,-2886.803174,3064.381992
1148.016782,-8734.430116,-2960.823768,2298.286494
1148.017104,-8734.430116,-2220.617826,1225.752797
1148.017425,-9030.512492,-962.267725,689.485948
1148.017746,-9178.553681,814.226536,76.609550
1148.018067,-9622.677246,1628.453072,0.000000
1148.018388,-9992.780217,2294.638420,-153.219100
1148.018709,-10436.903782,2368.659014,-612.876398
1148.019030,-10436.903782,2220.617826,0.000000
1148.019351,-11177.109724,888.247130,612.876398
1148.019672,-10362.883188,-222.061783,919.314598
1148.019993,-10066.800811,-1850.514855,1225.752797
1148.020314,-9622.677246,-2738.761985,1915.238745
1148.020635,-8808.450710,-3404.947333,1608.800546
1148.020956,-8956.491898,-3330.926739,2145.067394
1148.021278,-8586.388927,-3478.967927,2068.457845
1148.021599,-8068.244768,-3034.844362,1225.752797
1148.021920,-9030.512492,-2442.679609,2221.676944
1148.022241,-8808.450710,-1480.411884,919.314598
1148.022562,-9252.574275,0.000000,153.219100
1148.022883,-9918.759623,1258.350101,153.219100
1148.023204,-9770.718434,2368.659014,0.000000
1148.023525,-10288.862594,2516.700203,-306.438199
1148.023846,-11177.109724,2442.679609,0.000000
1148.024167,-10881.027347,2146.597232,536.266849
1148.024488,-10955.047942,1184.329507,1072.533697
1148.024809,-10362.883188,-296.082377,1532.190996
1148.025130,-9770.718434,-1406.391290,1991.848295
1148.025452,-9548.656652,-2516.700203,2298.286494
1148.025773,-9178.553681,-3182.885551,2681.334243
1148.026094,-8512.368333,-3256.906145,2451.505594
1148.026415,-8734.430116,-3478.967927,2604.724693
1148.026736,-8734.430116,-2812.782580,2911.162892
1148.027057,-8956.491898,-1998.556043,2374.896044
1148.027378,-9252.574275,-962.267725,2068.457845
1148.027699,-9326.594869,370.102971,1225.752797
1148.028020,-9622.677246,1776.494261,76.609550
1148.028341,-10066.800811,2220.617826,0.000000
1148.028662,-10288.862594,2812.782580,0.000000
1148.028983,-10214.842000,2590.720797,-306.438199
1148.029304,-10658.965565,2072.576638,-383.047749
1148.029626,-10436.903782,1184.329507,153.219100
1148.029947,-10362.883188,222.061783,612.876398
1148.030268,-10436.903782,-814.226536,0.000000
1148.030589,-9474.636058,-1702.473667,1762.019645
1148.030910,-9030.512492,-3034.844362,1455.581446
1148.031231,-8660.409521,-3552.988522,1762.019645
1148.031552,-8438.347739,-3256.906145,1455.581446
1148.031873,-8438.347739,-2664.741391,1455.581446
1148.032194,-8660.409521,-1554.432478,689.485948
1148.032515,-8956.491898,-444.123565,-229.828649
1148.032836,-9474.636058,1036.288319,-612.876398
1148.033157,-10214.842000,2516.700203,-995.924147
1148.033478,-10658.965565,3330.926739,-306.438199
1148.033800,-11177.109724,3627.009116,-306.438199
1148.034121,-11103.089130,2886.803174,0.000000
1148.034442,-10214.842000,2368.659014,2068.457845
1148.034763,-10732.986159,1258.350101,1149.143247
1148.035084,-10288.862594,0.000000,1685.410096
1148.035405,-9770.718434,-1258.350101,2298.286494
1148.035726,-9030.512492,-2368.659014,3600.648841
1148.036047,-8882.471304,-2590.720797,3064.381992
1148.036368,-8586.388927,-2886.803174,3370.820191
1148.036689,-8586.388927,-2812.782580,3217.601092
1148.037010,-8586.388927,-2664.741391,3217.601092
1148.037331,-8586.388927,-1850.514855,2528.115143
1148.037652,-8956.491898,-740.205942,1685.410096
1148.037974,-9400.615463,592.164754,1378.971896
1148.038295,-9474.636058,1480.411884,689.485948
1148.038616,-10066.800811,2886.803174,2221.676944
1148.038937,-10436.903782,2886.803174,612.876398
1148.039258,-10510.924376,2146.597232,842.705048
1148.039579,-10362.883188,1554.432478,1072.533697
1148.039900,-10214.842000,-148.041188,1378.971896
1148.040221,-9918.759623,-1258.350101,1762.019645
1148.040542,-9474.636058,-2294.638420,1762.019645
1148.040863,-8882.471304,-3108.864956,1685.410096
1148.041184,-8512.368333,-3478.967927,1685.410096
1148.041505,-8660.409521,-3627.009116,1608.800546
1148.041826,-8438.347739,-3182.885551,1378.971896
1148.042148,-8660.409521,-2442.679609,766.095498
1148.042469,-9178.553681,-1036.288319,536.266849
1148.042790,-8734.430116,296.082377,0.000000
1148.043111,-9844.739029,1258.350101,-153.219100
1148.043432,-10362.883188,1924.535449,-612.876398
1148.043753,-10658.965565,2738.761985,-766.095498
1148.044074,-10807.006753,2590.720797,-689.485948
1148.044395,-10881.027347,2368.659014,0.000000
1148.044716,-10881.027347,1406.391290,0.000000
1148.045037,-10510.924376,222.061783,612.876398
1148.045358,-9992.780217,-1406.391290,1225.752797
1148.045679,-9326.594869,-2442.679609,1685.410096
1148.046000,-9252.574275,-3182.885551,1762.019645
1148.046322,-8882.471304,-3256.906145,2451.505594
1148.046643,-9030.512492,-3034.844362,2451.505594
1148.046964,-8290.306550,-2812.782580,2528.115143
1148.047285,-8660.409521,-2368.659014,2298.286494
1148.047606,-8956.491898,-1332.370696,1302.362347
1148.047927,-9030.512492,0.000000,536.266849
1148.048248,-9400.615463,1406.391290,-153.219100
1148.048569,-9474.636058,2664.741391,0.000000
1148.048890,-9844.739029,2516.700203,-306.438199
1148.049211,-10436.903782,2738.761985,-306.438199
1148.049532,-10658.965565,2220.617826,689.485948
1148.049853,-10584.944971,1036.288319,1302.362347
1148.050175,-10658.965565,74.020594,766.095498
1148.050496,-9622.677246,-1628.453072,2145.067394
1148.050817,-9326.594869,-2664.741391,2451.505594
1148.051138,-8734.430116,-3330.926739,2451.505594
1148.051459,-8512.368333,-3552.988522,2757.943793
1148.051780,-7698.141797,-3330.926739,3294.210641
1148.052101,-8290.306550,-2664.741391,1762.019645
1148.052422,-8586.388927,-1406.391290,1455.581446
1148.052743,-9030.512492,-296.082377,689.485948
1148.053064,-9400.615463,1110.308913,229.828649
1148.053385,-10066.800811,2738.761985,0.000000
1148.053706,-10436.903782,3108.864956,-306.438199
1148.054027,-11029.068536,3404.947333,76.609550
1148.054349,-11251.130318,3478.967927,536.266849
1148.054670,-11103.089130,2590.720797,842.705048
1148.054991,-10584.944971,1776.494261,1838.629195
1148.055312,-10436.903782,296.082377,1685.410096
1148.055633,-9844.739029,-1036.288319,2221.676944
1148.055954,-9474.636058,-2220.617826,2145.067394
1148.056275,-8808.450710,-2960.823768,2451.505594
1148.056596,-7476.080014,-3627.009116,1608.800546
1148.056917,-8438.347739,-3404.947333,2374.896044
1148.057238,-8438.347739,-2442.679609,2604.724693
1148.057559,-8808.450710,-1554.432478,1532.190996
1148.057880,-8586.388927,-518.144159,766.095498
1148.058201,-9770.718434,888.247130,306.438199
1148.058523,-9696.697840,1776.494261,0.000000
1148.058844,-10066.800811,2368.659014,0.000000
1148.059165,-10510.924376,2738.761985,-229.828649
1148.059486,-10510.924376,2368.659014,0.000000
1148.059807,-10214.842000,1554.432478,1762.019645
1148.060128,-10214.842000,444.123565,919.314598
1148.060449,-9770.718434,-666.185348,612.876398
1148.060770,-9622.677246,-1628.453072,919.314598
1148.061091,-9030.512492,-2590.720797,1455.581446
1148.061412,-8586.388927,-2812.782580,1072.533697
1148.061733,-8216.285956,-3330.926739,1378.971896
1148.062054,-8512.368333,-3108.864956,1149.143247
1148.062375,-8512.368333,-2442.679609,919.314598
1148.062697,-9030.512492,-1554.432478,842.705048
1148.063018,-9474.636058,-296.082377,612.876398
1148.063339,-9918.759623,1406.391290,536.266849
1148.063660,-10288.862594,2072.576638,153.219100
1148.063981,-10584.944971,2442.679609,229.828649
1148.064302,-10807.006753,2368.659014,229.828649
1148.064623,-10807.006753,2146.597232,459.657299
1148.064944,-11177.109724,148.041188,1302.362347
1148.065265,-10436.903782,0.000000,1149.143247
1148.065586,-9844.739029,-1332.370696,1455.581446
1148.065907,-9548.656652,-2220.617826,1915.238745
1148.066228,-9252.574275,-2738.761985,2528.115143
1148.066549,-8364.327145,-2738.761985,3064.381992
1148.066871,-8660.409521,-3330.926739,2757.943793
1148.067192,-8734.430116,-2812.782580,2681.334243
1148.067513,-8882.471304,-2146.597232,2298.286494
1148.067834,-9104.533087,-1184.329507,1838.629195
1148.068155,-9474.636058,518.144159,0.000000
1148.068476,-9474.636058,1184.329507,306.438199
1148.068797,-9696.697840,2294.638420,153.219100
1148.069118,-10214.842000,2664.741391,0.000000
1148.069439,-10510.924376,2590.720797,2068.457845
1148.069760,-10214.842000,1776.494261,459.657299
1148.070081,-10362.883188,1258.350101,766.095498
1148.070402,-10436.903782,222.061783,1378.971896
1148.070723,-9992.780217,-1258.350101,1608.800546
1148.071045,-9326.594869,-2220.617826,1532.190996
1148.071366,-8882.471304,-3108.864956,1915.238745
1148.071687,-8586.388927,-3478.967927,1762.019645
1148.072008,-8586.388927,-2960.823768,1838.629195
1148.072329,-8364.327145,-2590.720797,1762.019645
1148.072650,-7920.203579,-1850.514855,0.000000
1148.072971,-8808.450710,-740.205942,0.000000
1148.073292,-9252.574275,592.164754,0.000000
1148.073613,-9770.718434,1850.514855,-536.266849
1148.073934,-10140.821405,2812.782580,-306.438199
1148.074255,-11325.150913,3923.091493,-919.314598
1148.074576,-11029.068536,2590.720797,0.000000
1148.074897,-10807.006753,2146.597232,229.828649
1148.075219,-11029.068536,1406.391290,766.095498
1148.075540,-10584.944971,0.000000,1532.190996
1148.075861,-9474.636058,-814.226536,1762.019645
1148.076182,-9104.533087,-2294.638420,2374.896044
1148.076503,-9104.533087,-2886.803174,2145.067394
1148.076824,-8660.409521,-2886.803174,2604.724693
1148.077145,-8734.430116,-2664.741391,2604.724693
1148.077466,-7846.182985,-2812.782580,3064.381992
1148.077787,-8438.347739,-1924.535449,1685.410096
1148.078108,-9030.512492,-592.164754,1225.752797
1148.078429,-9326.594869,592.164754,842.705048
1148.078750,-9696.697840,1776.494261,459.657299
1148.079071,-9918.759623,1998.556043,689.485948
1148.079393,-10362.883188,2368.659014,153.219100
1148.079714,-10807.006753,2072.576638,229.828649
1148.080035,-10732.986159,1406.391290,612.876398
1148.080356,-10732.986159,370.102971,1149.143247
1148.080677,-10510.924376,-962.267725,383.047749
1148.080998,-9622.677246,-2146.597232,1608.800546
1148.081319,-9178.553681,-2812.782580,1532.190996
1148.081640,-8808.450710,-3108.864956,1685.410096
1148.081961,-8660.409521,-3256.906145,1608.800546
1148.082282,-9326.594869,-2368.659014,-153.219100
1148.082603,-8882.471304,-2294.638420,1302.362347
1148.082924,-9178.553681,-1628.453072,536.266849
1148.083245,-9326.594869,-148.041188,0.000000
1148.083567,-9696.697840,1036.288319,0.000000
1148.083888,-9992.780217,1998.556043,-536.266849
1148.084209,-10584.944971,2664.741391,-229.828649
1148.084530,-11029.068536,2590.720797,153.219100
1148.084851,-10881.027347,2072.576638,306.438199
1148.085172,-10732.986159,1258.350101,536.266849
1148.085493,-10510.924376,148.041188,1225.752797
1148.085814,-9918.759623,-814.226536,1532.190996
1148.086135,-9474.636058,-1924.535449,1991.848295
1148.086456,-8808.450710,-2590.720797,2451.505594
1148.086777,-8956.491898,-2960.823768,2451.505594
1148.087098,-8586.388927,-2590.720797,1762.019645
1148.087419,-8734.430116,-2738.761985,2451.505594
1148.087741,-8586.388927,-2146.597232,1838.629195
1148.088062,-8956.491898,-1480.411884,1532.190996
1148.088383,-9178.553681,0.000000,1149.143247
1148.088704,-9474.636058,1036.288319,459.657299
1148.089025,-10066.800811,2146.597232,229.828649
1148.089346,-10066.800811,2812.782580,229.828649
1148.089667,-10510.924376,2664.741391,459.657299
1148.089988,-10584.944971,2294.638420,-612.876398
1148.090309,-10658.965565,1110.308913,1302.362347
1148.090630,-10288.862594,222.061783,1149.143247
1148.090951,-9992.780217,-1036.288319,1838.629195
1148.091272,-9474.636058,-2220.617826,2298.286494
1148.091593,-8956.491898,-2220.617826,1685.410096
1148.091915,-8586.388927,-3552.988522,2145.067394
1148.092236,-8586.388927,-3034.844362,2451.505594
1148.092557,-8586.388927,-2516.700203,1685.410096
1148.092878,-8882.471304,-1702.473667,919.314598
1148.093199,-9104.533087,-740.205942,995.924147
1148.093520,-9474.636058,1184.329507,76.609550
1148.093841,-10214.842000,2294.638420,76.609550
1148.094162,-10436.903782,2960.823768,0.000000
1148.094483,-10881.027347,3256.906145,-153.219100
1148.094804,-10807.006753,2664.741391,536.266849
1148.095125,-11177.109724,2368.659014,0.000000
1148.095446,-10955.047942,1184.329507,689.485948
1148.095768,-10214.842000,0.000000,1149.143247
1148.096089,-9770.718434,-1184.329507,1685.410096
1148.096410,-8586.388927,-2146.597232,3447.429741
1148.096731,-9252.574275,-2590.720797,1915.238745
1148.097052,-8512.368333,-3034.844362,2374.896044
1148.097373,-8438.347739,-3256.906145,2528.115143
1148.097694,-8438.347739,-2812.782580,1915.238745
1148.098015,-8290.306550,-2220.617826,2451.505594
1148.098336,-8660.409521,-962.267725,1225.752797
1148.098657,-9104.533087,370.102971,689.485948
1148.098978,-9474.636058,1258.350101,306.438199
1148.099299,-9770.718434,1850.514855,-306.438199
1148.099620,-9474.636058,2368.659014,-1455.581446
1148.099942,-10436.903782,2220.617826,76.609550
1148.100263,-10658.965565,1480.411884,383.047749
1148.100584,-10436.903782,0.000000,612.876398
1148.100905,-9770.718434,-814.226536,995.924147
1148.101226,-9400.615463,-1036.288319,1608.800546
1148.101547,-9474.636058,-1924.535449,2221.676944
1148.101868,-8882.471304,-2664.741391,1915.238745
1148.102189,-8734.430116,-2812.782580,1608.800546
1148.102510,-8438.347739,-2664.741391,1532.190996
1148.102831,-8956.491898,-1628.453072,-306.438199
1148.103152,-9252.574275,-1110.308913,1072.533697
1148.103473,-9474.636058,0.000000,689.485948
1148.103794,-9992.780217,1332.370696,153.219100
1148.104116,-10362.883188,2368.659014,229.828649
1148.104437,-10436.903782,3256.906145,1685.410096
1148.104758,-10807.006753,2812.782580,536.266849
1148.105079,-11103.089130,2220.617826,842.705048
1148.105400,-11029.068536,1406.391290,1149.143247
1148.105721,-10436.903782,0.000000,1302.362347
1148.106042,-10214.842000,-518.144159,1608.800546
1148.106363,-9548.656652,-2220.617826,2374.896044
1148.106684,-8956.491898,-2812.782580,2451.505594
1148.107005,-8956.491898,-3182.885551,2528.115143
1148.107326,-8660.409521,-3256.906145,2451.505594
1148.107647,-8216.285956,-2738.761985,2834.553343
1148.107968,-8882.471304,-2220.617826,2145.067394
1148.108290,-8734.430116,-1702.473667,1225.752797
1148.108611,-9030.512492,-148.041188,689.485948
1148.108932,-9400.615463,1110.308913,229.828649
1148.109253,-9326.594869,1554.432478,-536.266849
1148.109574,-9622.677246,2368.659014,-689.485948
1148.109895,-10362.883188,2590.720797,-459.657299
1148.110216,-10510.924376,1924.535449,-229.828649
1148.110537,-10288.862594,1628.453072,0.000000
1148.110858,-10288.862594,0.000000,1149.143247
1148.111179,-10066.800811,-1036.288319,1532.190996
1148.111500,-9474.636058,-2294.638420,1378.971896
1148.111821,-8956.491898,-2960.823768,1608.800546
1148.112142,-8068.244768,-3182.885551,1838.629195
1148.112464,-8290.306550,-3108.864956,2221.676944
1148.112785,-8290.306550,-2516.700203,1302.362347
1148.113106,-8808.450710,-1554.432478,536.266849
1148.113427,-9178.553681,-370.102971,0.000000
1148.113748,-8956.491898,1628.453072,-1608.800546
1148.114069,-9918.759623,2220.617826,-766.095498
1148.114390,-10584.944971,3108.864956,-612.876398
1148.114711,-10881.027347,3256.906145,-383.047749
1148.115032,-11325.150913,2960.823768,0.000000
1148.115353,-10140.821405,1554.432478,1762.019645
1148.115673,-11103.089130,1036.288319,1149.143247
1148.115994,-10658.965565,-296.082377,1838.629195
1148.116315,-10140.821405,-1628.453072,2298.286494
1148.116636,-9400.615463,-2590.720797,2374.896044
1148.116956,-8512.368333,-3478.967927,2451.505594
1148.117277,-8808.450710,-3478.967927,3294.210641
1148.117598,-8586.388927,-3552.988522,2911.162892
1148.117919,-8512.368333,-2812.782580,2604.724693
1148.118240,-8512.368333,-1924.535449,1991.848295
1148.118560,-8512.368333,-666.185348,1762.019645
1148.118881,-9400.615463,592.164754,1225.752797
1148.119202,-9474.636058,1628.453072,459.657299
1148.119523,-9992.780217,2442.679609,612.876398
1148.119843,-10214.842000,2812.782580,459.657299
1148.120164,-10214.842000,2738.761985,-1302.362347
1148.120485,-10658.965565,1480.411884,1302.362347
1148.120806,-10584.944971,370.102971,1532.190996
1148.121127,-10140.821405,-962.267725,1838.629195
1148.121447,-9770.718434,-2146.597232,1838.629195
1148.121768,-8882.471304,-2294.638420,1378.971896
1148.122089,-8586.388927,-3256.906145,2068.457845
1148.122410,-8512.368333,-3034.844362,1838.629195
1148.122730,-8290.306550,-2812.782580,1225.752797
1148.123051,-8586.388927,-2220.617826,766.095498
1148.123372,-8660.409521,-888.247130,1762.019645
1148.123693,-9252.574275,0.000000,-383.047749
1148.124013,-9770.718434,1406.391290,-383.047749
1148.124334,-10288.862594,2516.700203,-459.657299
1148.124655,-10732.986159,2960.823768,-766.095498
1148.124976,-11103.089130,2812.782580,-1072.533697
1148.125297,-10955.047942,2294.638420,0.000000
1148.125617,-11251.130318,1406.391290,306.438199
1148.125938,-10658.965565,74.020594,766.095498
1148.126259,-9918.759623,-1184.329507,1149.143247
1148.126580,-9252.574275,-1628.453072,1378.971896
1148.126900,-8882.471304,-2960.823768,1838.629195
1148.127221,-8734.430116,-3034.844362,2145.067394
1148.127542,-8734.430116,-2812.782580,2298.286494
1148.127863,-8586.388927,-2664.741391,2374.896044
1148.128184,-8660.409521,-2146.597232,1685.410096
1148.128504,-8956.491898,-666.185348,766.095498
1148.128825,-9400.615463,370.102971,459.657299
1148.129146,-9770.718434,1480.411884,153.219100
1148.129467,-9992.780217,2590.720797,0.000000
1148.129787,-10362.883188,2960.823768,306.438199
1148.130108,-10658.965565,2886.803174,229.828649
1148.130429,-10510.924376,2220.617826,689.485948
1148.130750,-10510.924376,1184.329507,1455.581446
1148.131070,-9844.739029,148.041188,2374.896044
1148.131391,-9770.718434,-962.267725,2298.286494
1148.131712,-9030.512492,-2664.741391,2298.286494
1148.132033,-8586.388927,-3330.926739,2451.505594
1148.132354,-8364.327145,-3552.988522,2451.505594
1148.132674,-8290.306550,-3775.050304,2757.943793
1148.132995,-8364.327145,-2664.741391,2068.457845
1148.133316,-8808.450710,-1850.514855,1455.581446
1148.133637,-8956.491898,-740.205942,1072.533697
1148.133957,-9548.656652,740.205942,536.266849
1148.134278,-9474.636058,2368.659014,-1532.190996
1148.134599,-10362.883188,3034.844362,0.000000
1148.134920,-10881.027347,3256.906145,0.000000
1148.135241,-10955.047942,3182.885551,536.266849
1148.135561,-10807.006753,2220.617826,612.876398
1148.135882,-10066.800811,296.082377,383.047749
1148.136203,-10066.800811,-444.123565,1455.581446
1148.136524,-9770.718434,-1702.473667,2068.457845
1148.136844,-9326.594869,-2664.741391,2145.067394
1148.137165,-8734.430116,-3478.967927,2451.505594
1148.137486,-8438.347739,-2442.679609,3294.210641
1148.137807,-8660.409521,-3256.906145,2681.334243
1148.138127,-8660.409521,-2812.782580,2374.896044
1148.138448,-8808.450710,-1924.535449,1685.410096
1148.138769,-8882.471304,-814.226536,1072.533697
1148.139090,-8956.491898,296.082377,153.219100
1148.139411,-9696.697840,1480.411884,76.609550
1148.139731,-10066.800811,2220.617826,-689.485948
1148.140052,-10214.842000,2590.720797,-612.876398
1148.140373,-10436.903782,2146.597232,0.000000
1148.140694,-11177.109724,2368.659014,766.095498
1148.141014,-10807.006753,444.123565,536.266849
1148.141335,-10066.800811,-740.205942,919.314598
1148.141656,-9844.739029,-1924.535449,1378.971896
1148.141977,-9474.636058,-2516.700203,1302.362347
1148.142298,-8586.388927,-2812.782580,229.828649
1148.142618,-8660.409521,-2960.823768,1685.410096
1148.142939,-8586.388927,-2590.720797,1225.752797
1148.143260,-8882.471304,-1998.556043,919.314598
1148.143581,-9326.594869,-1036.288319,229.828649
1148.143901,-9918.759623,222.061783,-153.219100
1148.144222,-9844.739029,1406.391290,-459.657299
1148.144543,-9992.780217,2368.659014,-459.657299
1148.144864,-10807.006753,2812.782580,-766.095498
1148.145184,-11029.068536,2960.823768,-153.219100
1148.145505,-11251.130318,2812.782580,76.609550
1148.145826,-11103.089130,1480.411884,766.095498
1148.146147,-10584.944971,222.061783,1225.752797
1148.146468,-9918.759623,-888.247130,2145.067394
1148.146788,-9548.656652,-2146.597232,2757.943793
1148.147109,-9400.615463,-2812.782580,2298.286494
1148.147430,-8734.430116,-2960.823768,2834.553343
1148.147751,-8586.388927,-2738.761985,2987.772442
1148.148071,-8290.306550,-2516.700203,2911.162892
1148.148392,-8438.347739,-740.205942,2145.067394
1148.148713,-8512.368333,-888.247130,1378.971896
1148.149034,-9030.512492,444.123565,689.485948
1148.149355,-9400.615463,1702.473667,919.314598
1148.149675,-9622.677246,2590.720797,229.828649
1148.149996,-10807.006753,2664.741391,1302.362347
1148.150317,-10658.965565,2590.720797,383.047749
1148.150638,-10510.924376,2146.597232,536.266849
1148.150958,-10807.006753,1184.329507,1378.971896
1148.151279,-10362.883188,74.020594,1685.410096
1148.151600,-9252.574275,-1406.391290,1991.848295
1148.151921,-9474.636058,-2368.659014,2374.896044
1148.152241,-8808.450710,-3182.885551,1915.238745
1148.152562,-8216.285956,-3330.926739,1915.238745
1148.152883,-8290.306550,-3627.009116,2221.676944
1148.153204,-8142.265362,-2442.679609,383.047749
1148.153525,-8216.285956,-1776.494261,459.657299
1148.153845,-9030.512492,-296.082377,-153.219100
1148.154166,-9474.636058,740.205942,-383.047749
1148.154487,-11177.109724,2146.597232,306.438199
1148.154808,-10584.944971,3108.864956,-306.438199
1148.155128,-11251.130318,3478.967927,-229.828649
1148.155449,-11621.233289,2960.823768,0.000000
1148.155770,-11103.089130,2072.576638,536.266849
1148.156091,-10066.800811,148.041188,612.876398
1148.156412,-10362.883188,-666.185348,1455.581446
1148.156732,-9696.697840,-2220.617826,1838.629195
1148.157053,-8956.491898,-3034.844362,1915.238745
1148.157374,-9104.533087,-3256.906145,1608.800546
1148.157695,-8364.327145,-3404.947333,2298.286494
1148.158015,-8586.388927,-3108.864956,2681.334243
1148.158336,-8512.368333,-2516.700203,2298.286494
1148.158657,-8882.471304,-1850.514855,1915.238745
1148.158978,-8734.430116,-296.082377,2451.505594
1148.159298,-9474.636058,518.144159,1072.533697
1148.159619,-9918.759623,1554.432478,612.876398
1148.159940,-10140.821405,2294.638420,229.828649
1148.160261,-10584.944971,2590.720797,612.876398
1148.160582,-10140.821405,1924.535449,766.095498
1148.160902,-10584.944971,1110.308913,689.485948
1148.161223,-10362.883188,0.000000,1225.752797
1148.161544,-9770.718434,-1480.411884,1302.362347
1148.161865,-9474.636058,-1924.535449,1685.410096
1148.162185,-8882.471304,-2886.803174,1685.410096
1148.162506,-8734.430116,-3404.947333,1915.238745
1148.162827,-8660.409521,-3182.885551,1991.848295
1148.163148,-8586.388927,-2812.782580,1455.581446
1148.163469,-8512.368333,-1628.453072,4596.572988
1148.163789,-9400.615463,-740.205942,766.095498
1148.164110,-9326.594869,296.082377,459.657299
1148.164431,-10140.821405,1480.411884,76.609550
1148.164752,-10066.800811,2368.659014,0.000000
1148.165072,-11843.295072,3923.091493,-153.219100
1148.165393,-11029.068536,2812.782580,76.609550
1148.165714,-11103.089130,2146.597232,229.828649
1148.166035,-10584.944971,1184.329507,1072.533697
1148.166355,-10510.924376,0.000000,995.924147
1148.166676,-9770.718434,-814.226536,1455.581446
1148.166997,-9622.677246,-2220.617826,2068.457845
1148.167318,-8882.471304,-2886.803174,2145.067394
1148.167639,-8882.471304,-3108.864956,2451.505594
1148.167959,-8734.430116,-2812.782580,2451.505594
1148.168280,-8660.409521,-2368.659014,2757.943793
1148.168601,-9030.512492,-1776.494261,1838.629195
1148.168922,-8808.450710,-740.205942,1072.533697
1148.169242,-9252.574275,296.082377,612.876398
1148.169563,-9474.636058,444.123565,459.657299
1148.169884,-9622.677246,2368.659014,76.609550
1148.170205,-10140.821405,2664.741391,-306.438199
1148.170525,-10288.862594,2368.659014,0.000000
1148.170846,-10510.924376,1924.535449,229.828649
1148.171167,-10658.965565,888.247130,536.266849
1148.171488,-10066.800811,0.000000,1532.190996
1148.171809,-9918.759623,-1332.370696,1991.848295
1148.172129,-9400.615463,-2368.659014,2298.286494
1148.172450,-8734.430116,-2368.659014,2145.067394
1148.172771,-8438.347739,-3256.906145,2221.676944
1148.173092,-8364.327145,-3182.885551,2145.067394
1148.173412,-8216.285956,-2294.638420,1532.190996
1148.173733,-8660.409521,-1480.411884,766.095498
1148.174054,-8438.347739,-444.123565,919.314598
1148.174375,-9548.656652,1110.308913,0.000000
1148.174696,-10066.800811,2220.617826,-383.047749
1148.175016,-10436.903782,2812.782580,-306.438199
1148.175337,-10732.986159,3330.926739,0.000000
1148.175658,-11029.068536,2590.720797,842.705048
1148.175979,-11177.109724,1924.535449,689.485948
1148.176299,-10955.047942,666.185348,842.705048
1148.176620,-10436.903782,-888.247130,1225.752797
1148.176941,-9474.636058,-1850.514855,2911.162892
1148.177262,-9326.594869,-2516.700203,2374.896044
1148.177582,-8882.471304,-2960.823768,2604.724693
1148.177903,-8734.430116,-2960.823768,2834.553343
1148.178224,-8808.450710,-3256.906145,2528.115143
1148.178545,-8364.327145,-2590.720797,4443.353888
1148.178866,-8734.430116,-1998.556043,1685.410096
1148.179186,-9104.533087,-666.185348,995.924147
1148.179507,-9252.574275,592.164754,536.266849
1148.179828,-9474.636058,1702.473667,0.000000
1148.180149,-9178.553681,2664.741391,919.314598
1148.180469,-10510.924376,2738.761985,153.219100
1148.180790,-10436.903782,2146.597232,153.219100
1148.181111,-10584.944971,1110.308913,689.485948
1148.181432,-10362.883188,222.061783,1072.533697
1148.181753,-9770.718434,-1184.329507,459.657299
1148.182073,-9474.636058,-2146.597232,1455.581446
1148.182394,-8734.430116,-2738.761985,1532.190996
1148.182715,-8586.388927,-2960.823768,1302.362347
1148.183036,-8586.388927,-2886.803174,-1532.190996
1148.183356,-8438.347739,-2516.700203,995.924147
1148.183677,-8734.430116,-1850.514855,689.485948
1148.183998,-9104.533087,-740.205942,153.219100
1148.184319,-9252.574275,0.000000,0.000000
1148.184639,-10510.924376,2368.659014,-76.609550
1148.184960,-10214.842000,2516.700203,-153.219100
1148.185281,-10881.027347,2738.761985,306.438199
1148.185602,-11177.109724,2442.679609,229.828649
1148.185923,-10732.986159,1850.514855,459.657299
1148.186243,-11251.130318,1406.391290,766.095498
1148.186564,-10362.883188,0.000000,1302.362347
1148.186885,-9992.780217,-1184.329507,1685.410096
1148.187206,-9400.615463,-2220.617826,1608.800546
1148.187526,-9326.594869,-2812.782580,1608.800546
1148.187847,-9104.533087,-2738.761985,2451.505594
1148.188168,-8956.491898,-2590.720797,2604.724693
1148.188489,-8586.388927,-2442.679609,2528.115143
1148.188810,-8734.430116,-1924.535449,1685.410096
1148.189130,-7994.224174,-1850.514855,1302.362347
1148.189451,-9178.553681,444.123565,536.266849
1148.189772,-9474.636058,1332.370696,76.609550
1148.190093,-9474.636058,2220.617826,-689.485948
1148.190413,-10066.800811,2590.720797,-459.657299
1148.190734,-11325.150913,3256.906145,76.609550
1148.191055,-10658.965565,1702.473667,536.266849
1148.191376,-10658.965565,740.205942,1149.143247
1148.191696,-10288.862594,-296.082377,1302.362347
1148.192017,-9696.697840,-1480.411884,306.438199
1148.192338,-9252.574275,-2294.638420,1838.629195
1148.192659,-8586.388927,-2960.823768,1455.581446
1148.192980,-8438.347739,-3182.885551,1762.019645
1148.193300,-8586.388927,-3108.864956,1762.019645
1148.193621,-8142.265362,-2368.659014,383.047749
1148.193942,-8882.471304,-1628.453072,919.314598
1148.194263,-9104.533087,-74.020594,612.876398
1148.194583,-9474.636058,1036.288319,229.828649
1148.194904,-10066.800811,1850.514855,0.000000
1148.195225,-10362.883188,2886.803174,612.876398
1148.195546,-10807.006753,2738.761985,0.000000
1148.195867,-11103.089130,2516.700203,153.219100
1148.196187,-10807.006753,1628.453072,459.657299
1148.196508,-10807.006753,962.267725,76.609550
1148.196829,-10436.903782,-296.082377,1608.800546
1148.197150,-9918.759623,-1554.432478,2221.676944
1148.197470,-8956.491898,-2368.659014,2528.115143
1148.197791,-8956.491898,-3182.885551,2911.162892
1148.198112,-8364.327145,-3256.906145,2681.334243
1148.198433,-8586.388927,-3034.844362,3064.381992
1148.198753,-8660.409521,-2442.679609,2681.334243
1148.199074,-8660.409521,-1850.514855,1991.848295
1148.199395,-9178.553681,-814.226536,1608.800546
1148.199716,-9252.574275,814.226536,612.876398
1148.200037,-9770.718434,1480.411884,459.657299
1148.200357,-9770.718434,1776.494261,153.219100
1148.200678,-10436.903782,2146.597232,306.438199
1148.200999,-10658.965565,1776.494261,536.266849
1148.201320,-10362.883188,740.205942,1455.581446
1148.201640,-10510.924376,-148.041188,1149.143247
1148.201961,-10214.842000,-1184.329507,1225.752797
1148.202282,-9474.636058,-2220.617826,1378.971896
1148.202603,-8808.450710,-3182.885551,1532.190996
1148.202924,-8734.430116,-2590.720797,1455.581446
1148.203244,-8438.347739,-2590.720797,1302.362347
1148.203565,-8512.368333,-2442.679609,1149.143247
1148.203886,-8660.409521,-1850.514855,536.266849
1148.204207,-9104.533087,-1850.514855,459.657299
1148.204527,-9548.656652,444.123565,76.609550
1148.204848,-10066.800811,1776.494261,0.000000
1148.205169,-10288.862594,2368.659014,0.000000
1148.205490,-10658.965565,2960.823768,-459.657299
1148.205810,-11325.150913,3256.906145,459.657299
1148.206131,-10881.027347,2220.617826,0.000000
1148.206452,-10658.965565,1184.329507,306.438199
1148.206773,-10362.883188,222.061783,919.314598
1148.207094,-9770.718434,-740.205942,3753.867940
1148.207414,-9474.636058,-1998.556043,2374.896044
1148.207735,-9104.533087,-2738.761985,2374.896044
1148.208056,-9104.533087,-2812.782580,2298.286494
1148.208377,-9030.512492,-2812.782580,2451.505594
1148.208697,-8290.306550,-2294.638420,5362.668486
1148.209018,-8660.409521,-2146.597232,1991.848295
1148.209339,-8956.491898,-814.226536,1072.533697
1148.209660,-9178.553681,222.061783,842.705048
1148.209981,-9400.615463,962.267725,229.828649
1148.210301,-9622.677246,740.205942,383.047749
1148.210622,-10140.821405,2442.679609,0.000000
1148.210943,-10584.944971,2146.597232,306.438199
1148.211264,-10584.944971,1702.473667,919.314598
1148.211584,-10658.965565,888.247130,2068.457845
1148.211905,-9918.759623,-296.082377,1762.019645
1148.212226,-9696.697840,-1258.350101,1915.238745
1148.212547,-9252.574275,-2294.638420,2451.505594
1148.212867,-8882.471304,-2812.782580,2451.505594
1148.213188,-9104.533087,-3108.864956,536.266849
1148.213509,-8364.327145,-2886.803174,1915.238745
1148.213830,-8586.388927,-2146.597232,1685.410096
1148.214151,-8808.450710,-1406.391290,1072.533697
1148.214471,-9178.553681,-148.041188,919.314598
1148.214792,-8734.430116,444.123565,-2221.676944
1148.215113,-9918.759623,1998.556043,0.000000
1148.215434,-10288.862594,2960.823768,0.000000
1148.215754,-10732.986159,2886.803174,-76.609550
1148.216075,-11029.068536,2590.720797,153.219100
1148.216396,-11029.068536,2368.659014,306.438199
1148.216717,-10658.965565,888.247130,1072.533697
1148.217038,-10510.924376,-296.082377,1762.019645
1148.217358,-9992.780217,-1554.432478,1838.629195
1148.217679,-9474.636058,-2664.741391,1991.848295
1148.218000,-9030.512492,-2516.700203,2145.067394
1148.218320,-8734.430116,-2812.782580,2451.505594
1148.218641,-8586.388927,-3108.864956,2451.505594
1148.218962,-8586.388927,-2590.720797,2298.286494
1148.219282,-8586.388927,-2146.597232,1455.581446
1148.219603,-8290.306550,-1628.453072,383.047749
1148.219924,-9104.533087,74.020594,689.485948
1148.220244,-9474.636058,1036.288319,0.000000
1148.220565,-10066.800811,1702.473667,0.000000
1148.220885,-10362.883188,1998.556043,0.000000
1148.221206,-10955.047942,1998.556043,0.000000
1148.221527,-10584.944971,888.247130,383.047749
1148.221847,-10436.903782,0.000000,842.705048
1148.222168,-10066.800811,-1258.350101,1455.581446
1148.222489,-9474.636058,-1924.535449,1225.752797
1148.222809,-8364.327145,-2590.720797,1915.238745
1148.223130,-8586.388927,-3404.947333,1608.800546
1148.223451,-8364.327145,-3330.926739,1991.848295
1148.223771,-8586.388927,-2960.823768,1838.629195
1148.224092,-8512.368333,-1850.514855,1378.971896
1148.224413,-8660.409521,-1184.329507,919.314598
1148.224733,-9252.574275,0.000000,459.657299
1148.225054,-9844.739029,1554.432478,306.438199
1148.225375,-10436.903782,2368.659014,-76.609550
1148.225695,-11029.068536,2960.823768,1378.971896
1148.226016,-10807.006753,2812.782580,842.705048
1148.226337,-10955.047942,2294.638420,459.657299
1148.226657,-10732.986159,1332.370696,1149.143247
1148.226978,-10658.965565,370.102971,1685.410096
1148.227299,-10140.821405,-592.164754,689.485948
1148.227619,-9252.574275,-2368.659014,2068.457845
1148.227940,-8956.491898,-3182.885551,2145.067394
1148.228261,-8882.471304,-3182.885551,2451.505594
1148.228581,-8956.491898,-2960.823768,2987.772442
1148.228902,-7772.162391,-2590.720797,2528.115143
1148.229222,-8734.430116,-2146.597232,1991.848295
1148.229543,-9178.553681,-1184.329507,1149.143247
1148.229864,-9326.594869,-148.041188,1072.533697
1148.230184,-9622.677246,1406.391290,1608.800546
1148.230505,-9770.718434,2146.597232,459.657299
1148.230826,-10066.800811,2738.761985,-536.266849
1148.231146,-10362.883188,2886.803174,-536.266849
1148.231467,-10584.944971,2368.659014,0.000000
1148.231788,-10066.800811,1406.391290,-306.438199
1148.232108,-10288.862594,444.123565,842.705048
1148.232429,-9770.718434,-962.267725,1455.581446
1148.232750,-9326.594869,-2072.576638,1838.629195
1148.233070,-8956.491898,-2960.823768,2068.457845
1148.233391,-7624.121203,-3627.009116,1915.238745
1148.233712,-8438.347739,-3034.844362,1838.629195
1148.234032,-8512.368333,-2368.659014,1991.848295
1148.234353,-8660.409521,-1628.453072,995.924147
1148.234674,-9030.512492,-370.102971,229.828649
1148.234994,-9548.656652,666.185348,0.000000
1148.235315,-9696.697840,2146.597232,-306.438199
1148.235636,-10214.842000,2812.782580,-383.047749
1148.235956,-10658.965565,3182.885551,-229.828649
1148.236277,-10955.047942,2886.803174,842.705048
1148.236598,-10732.986159,2072.576638,766.095498
1148.236918,-10955.047942,1110.308913,1072.533697
1148.237239,-10362.883188,-148.041188,1685.410096
1148.237559,-9696.697840,-1628.453072,1991.848295
1148.237880,-9030.512492,-2072.576638,2451.505594
1148.238201,-8956.491898,-2590.720797,2451.505594
1148.238521,-8808.450710,-2960.823768,2834.553343
1148.238842,-8734.430116,-2738.761985,2681.334243
1148.239163,-8586.388927,-2220.617826,2834.553343
1148.239483,-9326.594869,-1480.411884,1915.238745
1148.239804,-9104.533087,-740.205942,1762.019645
1148.240125,-9326.594869,148.041188,919.314598
1148.240445,-9474.636058,1480.411884,459.657299
1148.240766,-10066.800811,2072.576638,536.266849
1148.241087,-10066.800811,2368.659014,0.000000
1148.241407,-10658.965565,2294.638420,536.266849
1148.241728,-10658.965565,1406.391290,612.876398
1148.242049,-10510.924376,74.020594,919.314598
1148.242369,-10140.821405,-888.247130,1072.533697
1148.242690,-9474.636058,-2516.700203,1302.362347
1148.243011,-9178.553681,-3034.844362,1685.410096
1148.243331,-8882.471304,-3478.967927,1455.581446
1148.243652,-8734.430116,-3256.906145,1991.848295
1148.243973,-8438.347739,-2738.761985,689.485948
1148.244293,-8364.327145,-1998.556043,842.705048
1148.244614,-9252.574275,-888.247130,229.828649
1148.244935,-9400.615463,370.102971,536.266849
1148.245255,-9770.718434,1110.308913,-229.828649
1148.245576,-9696.697840,1850.514855,-383.047749
1148.245896,-10510.924376,2590.720797,-842.705048
1148.246217,-10807.006753,2738.761985,0.000000
1148.246538,-11029.068536,2220.617826,153.219100
1148.246858,-9918.759623,888.247130,-1915.238745
1148.247179,-10436.903782,222.061783,459.657299
1148.247500,-10288.862594,-888.247130,1455.581446
1148.247820,-9548.656652,-1924.535449,2298.286494
1148.248141,-9252.574275,-2664.741391,2068.457845
1148.248462,-8882.471304,-3182.885551,2757.943793
1148.248782,-8734.430116,-3034.844362,2374.896044
1148.249103,-8660.409521,-2442.679609,2068.457845
1148.249424,-8808.450710,-2220.617826,1685.410096
1148.249744,-8660.409521,-888.247130,1302.362347
1148.250065,-9400.615463,0.000000,76.609550
1148.250386,-9548.656652,1258.350101,153.219100
1148.250706,-10066.800811,1850.514855,0.000000
1148.251027,-10140.821405,2442.679609,0.000000
1148.251348,-10436.903782,2590.720797,-383.047749
1148.251668,-10658.965565,2220.617826,306.438199
1148.251989,-10807.006753,1036.288319,1149.143247
1148.252310,-10436.903782,0.000000,1685.410096
1148.252630,-9992.780217,-1110.308913,1838.629195
1148.252951,-9474.636058,-1554.432478,1762.019645
1148.253272,-8660.409521,-2590.720797,1915.238745
1148.253592,-8808.450710,-2886.803174,2221.676944
1148.253913,-8438.347739,-2812.782580,1991.848295
1148.254233,-8438.347739,-2146.597232,1225.752797
1148.254554,-9400.615463,-1110.308913,2068.457845
1148.254875,-9030.512492,0.000000,995.924147
1148.255195,-9548.656652,1036.288319,459.657299
1148.255516,-10066.800811,1924.535449,0.000000
1148.255837,-10140.821405,2738.761985,0.000000
1148.256157,-10066.800811,3182.885551,-229.828649
1148.256478,-10955.047942,2664.741391,153.219100
1148.256799,-10807.006753,2220.617826,306.438199
1148.257119,-10732.986159,1036.288319,766.095498
1148.257440,-10214.842000,-148.041188,1378.971896
1148.257761,-9400.615463,-1628.453072,1685.410096
1148.258081,-9252.574275,-2812.782580,2068.457845
1148.258402,-8882.471304,-3034.844362,2451.505594
1148.258723,-8734.430116,-3256.906145,2604.724693
1148.259043,-8438.347739,-3256.906145,2451.505594
1148.259364,-8068.244768,-2812.782580,2681.334243
1148.259685,-8808.450710,-2072.576638,2221.676944
1148.260005,-8660.409521,-888.247130,1378.971896
1148.260326,-9252.574275,222.061783,1378.971896
1148.260647,-8808.450710,814.226536,1149.143247
1148.260967,-9844.739029,2146.597232,612.876398
1148.261288,-10436.903782,2368.659014,919.314598
1148.261609,-10288.862594,1628.453072,842.705048
1148.261929,-10584.944971,888.247130,919.314598
1148.262250,-10214.842000,296.082377,2145.067394
1148.262570,-10066.800811,-814.226536,1455.581446
1148.262891,-9770.718434,-1924.535449,2068.457845
1148.263212,-9104.533087,-2812.782580,1991.848295
1148.263532,-8882.471304,-2960.823768,2068.457845
1148.263853,-9252.574275,-3034.844362,2911.162892
1148.264174,-8438.347739,-3034.844362,1762.019645
1148.264494,-8956.491898,-2516.700203,1455.581446
1148.264815,-9252.574275,-1776.494261,766.095498
1148.265136,-9400.615463,-592.164754,76.609550
1148.265456,-9844.739029,888.247130,-383.047749
1148.265777,-10214.842000,1998.556043,-612.876398
1148.266098,-10436.903782,2368.659014,-612.876398
1148.266418,-10955.047942,2738.761985,-383.047749
1148.266739,-11177.109724,2368.659014,-612.876398
1148.267060,-10807.006753,1332.370696,229.828649
1148.267380,-10658.965565,0.000000,306.438199
1148.267701,-9992.780217,-1258.350101,995.924147
1148.268022,-9474.636058,-2220.617826,1302.362347
1148.268342,-8882.471304,-2368.659014,1225.752797
1148.268663,-8882.471304,-2960.823768,2145.067394
1148.268984,-8586.388927,-2738.761985,2221.676944
1148.269304,-8660.409521,-2664.741391,2221.676944
1148.269625,-8438.347739,-1850.514855,1455.581446
1148.269946,-8364.327145,-1184.329507,306.438199
1148.270266,-8956.491898,296.082377,0.000000
1148.270587,-9474.636058,1110.308913,0.000000
1148.270907,-9548.656652,1924.535449,-306.438199
1148.271228,-10288.862594,2294.638420,-459.657299
1148.271549,-10510.924376,2294.638420,919.314598
1148.271869,-10658.965565,1924.535449,306.438199
1148.272190,-10658.965565,1406.391290,612.876398
1148.272511,-10214.842000,518.144159,1302.362347
1148.272831,-9918.759623,-888.247130,766.095498
1148.273152,-9548.656652,-1628.453072,1455.581446
1148.273473,-9030.512492,-2664.741391,2298.286494
1148.273793,-8216.285956,-3034.844362,2068.457845
1148.274114,-8512.368333,-2738.761985,1838.629195
1148.274435,-8512.368333,-1924.535449,1302.362347
1148.274755,-8364.327145,-1184.329507,1072.533697
1148.275076,-9252.574275,148.041188,536.266849
1148.275397,-9474.636058,1258.350101,0.000000
1148.275717,-9992.780217,2590.720797,-153.219100
1148.276038,-10584.944971,3997.112087,-306.438199
1148.276359,-10732.986159,3627.009116,306.438199
1148.276679,-10955.047942,2960.823768,153.219100
1148.277000,-11251.130318,2072.576638,766.095498
1148.277321,-10807.006753,1110.308913,1685.410096
1148.277641,-10658.965565,-962.267725,2451.505594
1148.277962,-9918.759623,-1850.514855,2145.067394
1148.278283,-9474.636058,-2442.679609,2681.334243
1148.278603,-8734.430116,-3108.864956,2987.772442
1148.278924,-8512.368333,-3256.906145,2987.772442
1148.279244,-8216.285956,-2664.741391,2681.334243
1148.279565,-8364.327145,-2960.823768,2068.457845
1148.279886,-8586.388927,-2072.576638,1838.629195
1148.280206,-8956.491898,-814.226536,1302.362347
1148.280527,-9326.594869,296.082377,766.095498
1148.280848,-9474.636058,1480.411884,383.047749
1148.281168,-9992.780217,2294.638420,-153.219100
1148.281489,-10658.965565,2516.700203,76.609550
1148.281810,-10658.965565,2072.576638,459.657299
1148.282130,-10362.883188,1702.473667,842.705048
1148.282451,-10140.821405,-296.082377,459.657299
1148.282772,-9992.780217,-1332.370696,842.705048
1148.283092,-9696.697840,-2220.617826,1149.143247
1148.283413,-9252.574275,-2738.761985,1225.752797
1148.283734,-8956.491898,-3256.906145,0.000000
1148.284054,-9030.512492,-3182.885551,1532.190996
1148.284375,-8586.388927,-3034.844362,842.705048
1148.284696,-8808.450710,-2516.700203,536.266849
1148.285016,-8956.491898,-1406.391290,0.000000
1148.285337,-9104.533087,444.123565,229.828649
1148.285658,-9548.656652,1110.308913,-306.438199
1148.285978,-10066.800811,2072.576638,-229.828649
1148.286299,-10658.965565,2442.679609,-612.876398
1148.286620,-11251.130318,2738.761985,153.219100
1148.286940,-11103.089130,1924.535449,842.705048
1148.287261,-11325.150913,1184.329507,842.705048
1148.287581,-10807.006753,0.000000,1225.752797
1148.287902,-10140.821405,-888.247130,1455.581446
1148.288223,-9622.677246,-1924.535449,2068.457845
1148.288543,-9178.553681,-2812.782580,2681.334243
1148.288864,-8882.471304,-2960.823768,2681.334243
1148.289185,-8586.388927,-2886.803174,2757.943793
1148.289505,-8734.430116,-2368.659014,2298.286494
1148.289826,-8512.368333,-1628.453072,2757.943793
1148.290147,-8808.450710,-814.226536,1378.971896
1148.290467,-9252.574275,296.082377,1072.533697
1148.290788,-9474.636058,1258.350101,536.266849
1148.291109,-9770.718434,2294.638420,229.828649
1148.291429,-9918.759623,2294.638420,-229.828649
1148.291750,-10214.842000,2812.782580,0.000000
1148.292071,-10732.986159,2294.638420,919.314598
1148.292391,-10658.965565,1480.411884,1225.752797
1148.292712,-10288.862594,74.020594,1838.629195
1148.293033,-9326.594869,-1406.391290,919.314598
1148.293353,-9178.553681,-2442.679609,2145.067394
1148.293674,-8586.388927,-3256.906145,2145.067394
1148.293995,-8290.306550,-3330.926739,1991.848295
1148.294315,-7846.182985,-2960.823768,1532.190996
1148.294636,-7920.203579,-2368.659014,459.657299
1148.294957,-8660.409521,-1258.350101,766.095498
1148.295277,-9030.512492,222.061783,612.876398
1148.295598,-9474.636058,1184.329507,76.609550
1148.295918,-10140.821405,2368.659014,-229.828649
1148.296239,-10658.965565,3330.926739,-536.266849
1148.296560,-11029.068536,3404.947333,0.000000
1148.296880,-11325.150913,2738.761985,76.609550
1148.297201,-11029.068536,2146.597232,306.438199
1148.297522,-10807.006753,518.144159,1149.143247
1148.297842,-10214.842000,0.000000,1532.190996
1148.298163,-9770.718434,-1406.391290,1991.848295
1148.298484,-9252.574275,-2220.617826,1991.848295
1148.298804,-8734.430116,-2886.803174,1991.848295
1148.299125,-8512.368333,-3182.885551,1532.190996
1148.299446,-8660.409521,-3034.844362,2374.896044
1148.299766,-8438.347739,-2590.720797,1838.629195
1148.300087,-8586.388927,-1554.432478,1455.581446
1148.300408,-9326.594869,-370.102971,1149.143247
1148.300728,-9252.574275,814.226536,1685.410096
1148.301049,-9918.759623,1850.514855,536.266849
1148.301370,-10288.862594,2294.638420,229.828649
1148.301690,-10510.924376,2368.659014,229.828649
1148.302011,-10584.944971,1480.411884,383.047749
1148.302332,-10732.986159,962.267725,995.924147
1148.302652,-10140.821405,0.000000,842.705048
1148.302973,-9622.677246,-1332.370696,1378.971896
1148.303294,-9252.574275,-2146.597232,1685.410096
1148.303614,-8882.471304,-2960.823768,1991.848295
1148.303935,-8364.327145,-3182.885551,1762.019645
1148.304255,-8734.430116,-3330.926739,1991.848295
1148.304576,-8364.327145,-3034.844362,1532.190996
1148.304897,-8512.368333,-2442.679609,1072.533697
1148.305217,-8734.430116,-1110.308913,229.828649
1148.305538,-9326.594869,0.000000,383.047749
1148.305859,-9918.759623,1332.370696,0.000000
1148.306179,-10140.821405,2368.659014,0.000000
1148.306500,-10584.944971,2368.659014,0.000000
1148.306821,-10584.944971,2960.823768,-229.828649
1148.307141,-10955.047942,2072.576638,842.705048
1148.307462,-10881.027347,1036.288319,919.314598
1148.307783,-10436.903782,0.000000,1838.629195
1148.308103,-9844.739029,-1406.391290,1762.019645
1148.308424,-9178.553681,-2220.617826,2987.772442
1148.308745,-8956.491898,-2960.823768,2298.286494
1148.309065,-8660.409521,-2886.803174,2451.505594
1148.309386,-8660.409521,-2664.741391,2451.505594
1148.309707,-8660.409521,-2368.659014,2068.457845
1148.310027,-8956.491898,-1776.494261,1072.533697
1148.310348,-8882.471304,-666.185348,842.705048
1148.310669,-9400.615463,444.123565,612.876398
1148.310989,-9622.677246,1332.370696,153.219100
1148.311310,-10066.800811,2368.659014,0.000000
1148.311631,-10066.800811,3034.844362,-229.828649
1148.311951,-10955.047942,2442.679609,0.000000
1148.312272,-10732.986159,1776.494261,536.266849
1148.312593,-10732.986159,740.205942,995.924147
1148.312913,-10288.862594,-444.123565,1532.190996
1148.313234,-9770.718434,-1480.411884,2145.067394
1148.313554,-9326.594869,-2368.659014,1302.362347
1148.313875,-8660.409521,-3108.864956,1915.238745
1148.314196,-8512.368333,-3552.988522,2145.067394
1148.314516,-8438.347739,-3256.906145,1762.019645
1148.314837,-8364.327145,-2516.700203,0.000000
1148.315158,-8734.430116,-1258.350101,1072.533697
1148.315478,-9178.553681,-444.123565,459.657299
1148.315799,-9474.636058,1184.329507,0.000000
1148.316120,-10140.821405,2368.659014,0.000000
1148.316440,-10362.883188,2516.700203,383.047749
1148.316761,-10732.986159,2664.741391,153.219100
1148.317082,-11103.089130,2368.659014,0.000000
1148.317402,-11029.068536,1702.473667,0.000000
1148.317723,-10510.924376,666.185348,536.266849
1148.318044,-10066.800811,-444.123565,1455.581446
1148.318364,-9474.636058,-1850.514855,1608.800546
1148.318685,-9104.533087,-2590.720797,1532.190996
1148.319006,-8882.471304,-3034.844362,1991.848295
1148.319326,-8734.430116,-3034.844362,2451.505594
1148.319647,-7994.224174,-3182.885551,2528.115143
1148.319968,-8438.347739,-2812.782580,1991.848295
1148.320288,-8734.430116,-1702.473667,1302.362347
1148.320609,-9104.533087,-444.123565,1455.581446
1148.320929,-9622.677246,962.267725,842.705048
1148.321250,-9844.739029,1702.473667,842.705048
1148.321570,-10140.821405,2072.576638,459.657299
1148.321891,-10362.883188,1998.556043,153.219100
1148.322211,-10584.944971,2072.576638,612.876398
1148.322532,-10362.883188,1184.329507,1072.533697
1148.322852,-10584.944971,0.000000,1838.629195
1148.323173,-9844.739029,-962.267725,1532.190996
1148.323494,-9622.677246,-1998.556043,1455.581446
1148.323814,-9030.512492,-2442.679609,1991.848295
1148.324135,-8512.368333,-2664.741391,2145.067394
1148.324455,-8956.491898,-2516.700203,2451.505594
1148.324776,-8586.388927,-2368.659014,1838.629195
1148.325096,-8808.450710,-1924.535449,1225.752797
1148.325417,-9030.512492,-962.267725,919.314598
1148.325737,-9400.615463,-518.144159,459.657299
1148.326058,-9770.718434,1110.308913,459.657299
1148.326379,-10140.821405,1998.556043,153.219100
1148.326699,-10510.924376,2294.638420,0.000000
1148.327020,-10955.047942,2442.679609,76.609550
1148.327340,-11177.109724,2294.638420,842.705048
1148.327661,-11029.068536,1258.350101,1149.143247
1148.327981,-10658.965565,-370.102971,1225.752797
1148.328302,-9770.718434,-1332.370696,1149.143247
1148.328622,-9326.594869,-2368.659014,1455.581446
1148.328943,-9252.574275,-3034.844362,1762.019645
1148.329264,-8660.409521,-2960.823768,2451.505594
1148.329584,-8512.368333,-2664.741391,2374.896044
1148.329905,-8290.306550,-2442.679609,2145.067394
1148.330225,-8734.430116,-1850.514855,1532.190996
1148.330546,-9030.512492,-888.247130,919.314598
1148.330866,-9178.553681,74.020594,383.047749
1148.331187,-9548.656652,1406.391290,76.609550
1148.331507,-9622.677246,2368.659014,-306.438199
1148.331828,-10140.821405,2664.741391,-689.485948
1148.332148,-10288.862594,2368.659014,-229.828649
1148.332469,-10288.862594,1702.473667,0.000000
1148.332790,-10510.924376,1110.308913,0.000000
1148.333110,-10066.800811,0.000000,536.266849
1148.333431,-9622.677246,-814.226536,306.438199
1148.333751,-9326.594869,-1998.556043,1532.190996
1148.334072,-8956.491898,-2960.823768,1838.629195
1148.334392,-8586.388927,-3256.906145,1915.238745
1148.334713,-8512.368333,-3478.967927,1685.410096
1148.335033,-9252.574275,-1924.535449,1762.019645
1148.335354,-8734.430116,-1776.494261,536.266849
1148.335675,-8956.491898,-370.102971,76.609550
1148.335995,-9400.615463,1036.288319,0.000000
1148.336316,-10214.842000,2220.617826,0.000000
1148.336636,-9770.718434,3034.844362,0.000000
1148.336957,-10955.047942,3330.926739,0.000000
1148.337277,-11251.130318,2738.761985,229.828649
1148.337598,-10955.047942,1702.473667,612.876398
1148.337918,-10955.047942,740.205942,1072.533697
1148.338239,-10214.842000,-370.102971,1532.190996
1148.338559,-9770.718434,-1406.391290,2298.286494
1148.338880,-9400.615463,-2368.659014,2528.115143
1148.339201,-8882.471304,-2886.803174,2834.553343
1148.339521,-8882.471304,-3182.885551,1532.190996
1148.339842,-8734.430116,-3034.844362,2604.724693
1148.340162,-8586.388927,-2516.700203,2757.943793
1148.340483,-8882.471304,-1628.453072,2451.505594
1148.340803,-9326.594869,-518.144159,1762.019645
1148.341124,-9400.615463,1036.288319,1915.238745
1148.341444,-9622.677246,1554.432478,919.314598
1148.341765,-10066.800811,2442.679609,459.657299
1148.342086,-10362.883188,2664.741391,229.828649
1148.342406,-10436.903782,2368.659014,536.266849
1148.342727,-10584.944971,1850.514855,1685.410096
1148.343047,-10288.862594,296.082377,1072.533697
1148.343368,-10066.800811,-740.205942,1378.971896
1148.343688,-9474.636058,-1850.514855,1532.190996
1148.344009,-9104.533087,-2368.659014,1608.800546
1148.344329,-8882.471304,-2886.803174,1225.752797
1148.344650,-8512.368333,-3330.926739,1838.629195
1148.344970,-8290.306550,-2738.761985,1072.533697
1148.345291,-8512.368333,-2220.617826,536.266849
1148.345612,-9030.512492,-962.267725,229.828649
1148.345932,-9326.594869,0.000000,-383.047749
1148.346253,-9770.718434,1184.329507,-153.219100
1148.346573,-10066.800811,2220.617826,-306.438199
1148.346894,-10658.965565,2368.659014,-229.828649
1148.347214,-10881.027347,1998.556043,0.000000
1148.347535,-10881.027347,1776.494261,153.219100
1148.347855,-10658.965565,1332.370696,383.047749
1148.348176,-10584.944971,222.061783,919.314598
1148.348497,-10140.821405,-666.185348,1532.190996
1148.348817,-9622.677246,-1258.350101,2374.896044
1148.349138,-8956.491898,-2294.638420,2068.457845
1148.349458,-8882.471304,-2812.782580,2221.676944
1148.349779,-8882.471304,-2664.741391,2757.943793
1148.350099,-8956.491898,-2368.659014,2451.505594
1148.350420,-8438.347739,-1924.535449,2757.943793
1148.350740,-8956.491898,-1258.350101,1302.362347
1148.351061,-9400.615463,148.041188,1072.533697
1148.351381,-9622.677246,888.247130,612.876398
1148.351702,-9696.697840,1702.473667,0.000000
1148.352023,-10288.862594,2368.659014,-689.485948
1148.352343,-10214.842000,2294.638420,0.000000
1148.352664,-10584.944971,1924.535449,459.657299
1148.352984,-10732.986159,1110.308913,1378.971896
1148.353305,-10066.800811,-74.020594,1455.581446
1148.353625,-9474.636058,-1110.308913,1608.800546
1148.353946,-9474.636058,-2294.638420,2145.067394
1148.354266,-8882.471304,-3108.864956,2298.286494
1148.354587,-8586.388927,-3108.864956,2068.457845
1148.354908,-7920.203579,-2738.761985,919.314598
1148.355228,-8216.285956,-2516.700203,1302.362347
1148.355549,-8660.409521,-1554.432478,995.924147
1148.355869,-8956.491898,-444.123565,229.828649
1148.356190,-9252.574275,518.144159,0.000000
1148.356510,-9844.739029,1628.453072,76.609550
1148.356831,-10658.965565,2886.803174,-153.219100
1148.357151,-10807.006753,2886.803174,383.047749
1148.357472,-10955.047942,2664.741391,383.047749
1148.357793,-10955.047942,1702.473667,612.876398
1148.358113,-11177.109724,888.247130,229.828649
1148.358434,-10140.821405,-592.164754,1455.581446
1148.358754,-9622.677246,-2146.597232,2068.457845
1148.359075,-9252.574275,-2738.761985,2374.896044
1148.359395,-8956.491898,-3108.864956,2374.896044
1148.359716,-9104.533087,-3256.906145,3064.381992
1148.360036,-8586.388927,-3182.885551,2834.553343
1148.360357,-8512.368333,-2442.679609,2374.896044
1148.360677,-8808.450710,-2146.597232,1762.019645
1148.360998,-8956.491898,-666.185348,1072.533697
1148.361319,-9548.656652,592.164754,995.924147
1148.361639,-9622.677246,1258.350101,306.438199
1148.361960,-9992.780217,1998.556043,0.000000
1148.362280,-10510.924376,2294.638420,0.000000
1148.362601,-10584.944971,2442.679609,229.828649
1148.362921,-11029.068536,1554.432478,536.266849
1148.363242,-10584.944971,148.041188,919.314598
1148.363562,-10288.862594,-592.164754,1225.752797
1148.363883,-9770.718434,-1924.535449,1225.752797
1148.364204,-8660.409521,-2516.700203,1762.019645
1148.364524,-8956.491898,-2812.782580,1838.629195
1148.364845,-8734.430116,-2960.823768,1378.971896
1148.365165,-8216.285956,-2442.679609,1072.533697
1148.365486,-8512.368333,-2146.597232,459.657299
1148.365806,-8808.450710,-1480.411884,-383.047749
1148.366127,-9252.574275,74.020594,0.000000
1148.366447,-9770.718434,1184.329507,0.000000
1148.366768,-10214.842000,2442.679609,0.000000
1148.367088,-10732.986159,2664.741391,0.000000
1148.367409,-11177.109724,2516.700203,-383.047749
1148.367730,-10807.006753,1924.535449,229.828649
1148.368050,-10881.027347,1258.350101,689.485948
1148.368371,-10436.903782,74.020594,1532.190996
1148.368691,-9178.553681,-1258.350101,919.314598
1148.369012,-9622.677246,-2072.576638,1532.190996
1148.369332,-8586.388927,-2886.803174,2068.457845
1148.369653,-8734.430116,-3034.844362,2451.505594
1148.369973,-8438.347739,-3256.906145,2298.286494
1148.370294,-8734.430116,-2368.659014,3907.087040
1148.370615,-8808.450710,-2072.576638,1991.848295
1148.370935,-8808.450710,-962.267725,1455.581446
1148.371256,-9252.574275,0.000000,612.876398
1148.371576,-9622.677246,1406.391290,459.657299
1148.371897,-10140.821405,2664.741391,-1378.971896
1148.372217,-10362.883188,2812.782580,0.000000
1148.372538,-10214.842000,2516.700203,153.219100
1148.372858,-10732.986159,2072.576638,536.266849
1148.373179,-10510.924376,888.247130,995.924147
1148.373499,-10732.986159,296.082377,1378.971896
1148.373820,-9844.739029,-1110.308913,1915.238745
1148.374141,-9474.636058,-2516.700203,2145.067394
1148.374461,-8882.471304,-2812.782580,2451.505594
1148.374782,-8734.430116,-3478.967927,2221.676944
1148.375102,-8512.368333,-3108.864956,2528.115143
1148.375423,-8734.430116,-2368.659014,1455.581446
1148.375743,-9030.512492,-1554.432478,919.314598
1148.376064,-9030.512492,222.061783,76.609550
1148.376384,-9844.739029,1406.391290,-153.219100
1148.376705,-9622.677246,2516.700203,-459.657299
1148.377026,-10807.006753,3034.844362,-383.047749
1148.377346,-10955.047942,3330.926739,-306.438199
1148.377667,-10955.047942,2664.741391,76.609550
1148.377987,-10436.903782,1554.432478,-766.095498
1148.378308,-10732.986159,518.144159,919.314598
1148.378628,-10362.883188,-962.267725,1455.581446
1148.378949,-9770.718434,-2146.597232,1685.410096
1148.379269,-9178.553681,-2886.803174,1915.238745
1148.379590,-8734.430116,-3256.906145,1532.190996
1148.379911,-8660.409521,-3108.864956,2604.724693
1148.380231,-8660.409521,-2886.803174,2604.724693
1148.380552,-8216.285956,-2220.617826,2298.286494
1148.380872,-8438.347739,-1998.556043,1455.581446
1148.381193,-8660.409521,-666.185348,842.705048
1148.381513,-9474.636058,592.164754,766.095498
1148.381834,-9548.656652,1480.411884,0.000000
1148.382154,-9622.677246,2368.659014,0.000000
1148.382475,-10214.842000,2590.720797,383.047749
1148.382795,-10881.027347,2368.659014,76.609550
1148.383116,-10881.027347,1850.514855,1072.533697
1148.383437,-10510.924376,592.164754,1225.752797
1148.383757,-10288.862594,-888.247130,1608.800546
1148.384078,-9844.739029,-2368.659014,0.000000
1148.384398,-9252.574275,-2738.761985,1915.238745
1148.384719,-8734.430116,-2960.823768,1685.410096
1148.385039,-8586.388927,-3034.844362,1532.190996
1148.385360,-8290.306550,-2590.720797,842.705048
1148.385680,-8512.368333,-1554.432478,1149.143247
1148.386001,-9030.512492,-888.247130,306.438199
1148.386322,-9474.636058,222.061783,76.609550
1148.386642,-10066.800811,1406.391290,-153.219100
1148.386963,-10436.903782,2220.617826,-459.657299
1148.387283,-10362.883188,3108.864956,0.000000
1148.387604,-11251.130318,2738.761985,229.828649
1148.387924,-11177.109724,2146.597232,536.266849
1148.388245,-10881.027347,1036.288319,842.705048
1148.388565,-10510.924376,74.020594,1455.581446
1148.388886,-10140.821405,-814.226536,1991.848295
1148.389206,-9474.636058,-1924.535449,2068.457845
1148.389527,-9104.533087,-2516.700203,2068.457845
1148.389848,-8808.450710,-3034.844362,2451.505594
1148.390168,-8660.409521,-3256.906145,2987.772442
1148.390489,-8438.347739,-2590.720797,2451.505594
1148.390809,-8734.430116,-1924.535449,1915.238745
1148.391130,-9030.512492,-1036.288319,919.314598
1148.391450,-9326.594869,370.102971,612.876398
1148.391771,-9474.636058,1628.453072,842.705048
1148.392091,-9918.759623,2220.617826,153.219100
1148.392412,-9992.780217,2220.617826,76.609550
1148.392733,-10362.883188,2146.597232,229.828649
1148.393053,-10658.965565,1554.432478,536.266849
1148.393374,-9770.718434,148.041188,1762.019645
1148.393694,-10066.800811,-370.102971,1608.800546
1148.394015,-9622.677246,-1184.329507,1915.238745
1148.394335,-9252.574275,-2072.576638,1991.848295
1148.394656,-8660.409521,-2886.803174,2145.067394
1148.394976,-8290.306550,-3404.947333,1685.410096
1148.395297,-8512.368333,-3034.844362,1532.190996
1148.395617,-8216.285956,-2220.617826,1302.362347
1148.395938,-8808.450710,-1406.391290,766.095498
1148.396259,-9178.553681,0.000000,459.657299
1148.396579,-9474.636058,1184.329507,-153.219100
1148.396900,-10214.842000,2294.638420,-229.828649
1148.397220,-10510.924376,3182.885551,-229.828649
1148.397541,-10881.027347,3182.885551,0.000000
1148.397861,-11177.109724,2886.803174,995.924147
1148.398182,-10955.047942,1924.535449,229.828649
1148.398502,-10881.027347,592.164754,536.266849
1148.398823,-10214.842000,-814.226536,1378.971896
1148.399144,-9844.739029,-1998.556043,1991.848295
1148.399464,-8882.471304,-2368.659014,2298.286494
1148.399785,-8956.491898,-3108.864956,2145.067394
1148.400105,-8734.430116,-3108.864956,2911.162892
1148.400426,-8660.409521,-2960.823768,2604.724693
1148.400746,-8512.368333,-2516.700203,2298.286494
1148.401067,-8216.285956,-1850.514855,2757.943793
1148.401387,-9030.512492,-592.164754,1149.143247
1148.401708,-9400.615463,370.102971,612.876398
1148.402028,-9696.697840,1480.411884,76.609550
1148.402349,-9992.780217,2368.659014,153.219100
1148.402670,-10732.986159,2812.782580,306.438199
1148.402990,-10436.903782,2146.597232,383.047749
1148.403311,-10510.924376,1406.391290,689.485948
1148.403631,-10658.965565,148.041188,1302.362347
1148.403952,-10066.800811,-962.267725,995.924147
1148.404272,-9474.636058,-2220.617826,1608.800546
1148.404593,-9178.553681,-2294.638420,1608.800546
1148.404913,-8586.388927,-2960.823768,1838.629195
1148.405234,-8586.388927,-2812.782580,1532.190996
1148.405555,-7920.203579,-2368.659014,842.705048
1148.405875,-8512.368333,-1554.432478,536.266849
1148.406196,-8734.430116,-814.226536,383.047749
1148.406516,-9178.553681,148.041188,229.828649
1148.406837,-9918.759623,1258.350101,-229.828649
1148.407157,-10214.842000,2812.782580,306.438199
1148.407478,-10658.965565,2368.659014,-306.438199
1148.407798,-10955.047942,2220.617826,0.000000
1148.408119,-10955.047942,1628.453072,459.657299
1148.408440,-10658.965565,592.164754,536.266849
1148.408760,-10510.924376,-592.164754,1915.238745
1148.409081,-9622.677246,-1480.411884,1378.971896
1148.409401,-9400.615463,-2516.700203,2145.067394
1148.409722,-9030.512492,-3256.906145,2145.067394
1148.410042,-8586.388927,-3627.009116,2451.505594
1148.410363,-8438.347739,-3330.926739,2528.115143
1148.410683,-8586.388927,-2664.741391,2451.505594
1148.411004,-8882.471304,-2368.659014,2374.896044
1148.411324,-8956.491898,-1184.329507,1378.971896
1148.411645,-9104.533087,148.041188,1072.533697
1148.411966,-9104.533087,1036.288319,-306.438199
1148.412286,-9770.718434,1998.556043,0.000000
1148.412607,-10066.800811,2368.659014,0.000000
1148.412927,-10362.883188,2220.617826,-76.609550
1148.413248,-10436.903782,2368.659014,766.095498
1148.413568,-10732.986159,1036.288319,842.705048
1148.413889,-10436.903782,74.020594,1685.410096
1148.414209,-9992.780217,-1110.308913,1608.800546
1148.414530,-9696.697840,-1554.432478,2221.676944
1148.414851,-8660.409521,-2368.659014,2987.772442
1148.415171,-8586.388927,-2442.679609,1915.238745
1148.415492,-8364.327145,-2590.720797,1532.190996
1148.415812,-8586.388927,-2294.638420,1072.533697
1148.416133,-8438.347739,-1480.411884,612.876398
1148.416453,-9252.574275,-148.041188,842.705048
1148.416774,-9474.636058,962.267725,76.609550
1148.417094,-10362.883188,2368.659014,0.000000
1148.417415,-10658.965565,2886.803174,-76.609550
1148.417735,-10881.027347,3034.844362,306.438199
1148.418056,-10881.027347,2294.638420,536.266849
1148.418377,-10881.027347,1480.411884,842.705048
1148.418697,-10807.006753,74.020594,995.924147
1148.419018,-9918.759623,-962.267725,2068.457845
1148.419338,-9696.697840,-2072.576638,1608.800546
1148.419659,-9178.553681,-2886.803174,2451.505594
1148.419979,-8734.430116,-3256.906145,2528.115143
1148.420300,-8438.347739,-3330.926739,3140.991542
1148.420621,-8512.368333,-3108.864956,3140.991542
1148.420941,-8068.244768,-3182.885551,2911.162892
1148.421262,-8586.388927,-1628.453072,2068.457845
1148.421582,-8808.450710,-444.123565,1378.971896
1148.421903,-9104.533087,814.226536,1225.752797
1148.422223,-9770.718434,2220.617826,919.314598
1148.422544,-9548.656652,1998.556043,-536.266849
1148.422865,-10288.862594,2516.700203,229.828649
1148.423185,-10584.944971,2072.576638,459.657299
1148.423506,-10807.006753,1406.391290,1072.533697
1148.423826,-10214.842000,0.000000,1149.143247
1148.424147,-10066.800811,-1110.308913,1149.143247
1148.424467,-9770.718434,-2072.576638,1378.971896
1148.424788,-8956.491898,-2960.823768,1455.581446
1148.425109,-8882.471304,-2960.823768,1149.143247
1148.425429,-8586.388927,-3108.864956,1149.143247
1148.425750,-8512.368333,-2516.700203,153.219100
1148.426070,-8808.450710,-2072.576638,153.219100
1148.426391,-9030.512492,-1110.308913,76.609550
1148.426711,-9474.636058,-74.020594,-459.657299
1148.427032,-9992.780217,1406.391290,-995.924147
1148.427353,-10658.965565,1924.535449,-306.438199
1148.427673,-10658.965565,2220.617826,-383.047749
1148.427994,-11103.089130,1998.556043,0.000000
1148.428314,-10955.047942,1406.391290,229.828649
1148.428635,-10807.006753,1184.329507,0.000000
1148.428956,-10214.842000,-370.102971,766.095498
1148.429276,-9696.697840,-1332.370696,1608.800546
1148.429597,-9178.553681,-2220.617826,2068.457845
1148.429917,-9030.512492,-2590.720797,1838.629195
1148.430238,-9178.553681,-2368.659014,3064.381992
1148.430558,-8364.327145,-2664.741391,2374.896044
1148.430879,-8956.491898,-2220.617826,2221.676944
1148.431200,-8734.430116,-1628.453072,1762.019645
1148.431520,-8956.491898,-666.185348,1302.362347
1148.431841,-9400.615463,148.041188,536.266849
1148.432161,-9770.718434,1628.453072,383.047749
1148.432482,-9844.739029,2220.617826,0.000000
1148.432802,-10288.862594,2516.700203,229.828649
1148.433123,-10362.883188,2368.659014,0.000000
1148.433444,-10362.883188,2220.617826,0.000000
1148.433764,-10881.027347,814.226536,1532.190996
1148.434085,-10140.821405,-222.061783,2221.676944
1148.434405,-9622.677246,-1480.411884,2145.067394
1148.434726,-9326.594869,-2516.700203,1762.019645
1148.435046,-8364.327145,-3034.844362,2298.286494
1148.435367,-8512.368333,-3256.906145,2298.286494
1148.435688,-8438.347739,-3034.844362,1991.848295
1148.436008,-8364.327145,-2294.638420,1532.190996
1148.436329,-8734.430116,-1702.473667,1762.019645
1148.436649,-9178.553681,0.000000,842.705048
1148.436970,-9770.718434,1184.329507,383.047749
1148.437291,-10140.821405,2220.617826,0.000000
1148.437611,-10362.883188,2886.803174,-306.438199
1148.437932,-9992.780217,3701.029710,0.000000
1148.438252,-11103.089130,2590.720797,383.047749
1148.438573,-10955.047942,1702.473667,536.266849
1148.438893,-10732.986159,518.144159,1149.143247
1148.439214,-10066.800811,-592.164754,1225.752797
1148.439535,-9622.677246,-1184.329507,1378.971896
1148.439855,-9400.615463,-2368.659014,2298.286494
1148.440176,-8734.430116,-2812.782580,2604.724693
1148.440496,-8956.491898,-2886.803174,2528.115143
1148.440817,-8438.347739,-2664.741391,2145.067394
1148.441137,-8512.368333,-2738.761985,2068.457845
1148.441458,-8734.430116,-1406.391290,1149.143247
1148.441779,-8956.491898,-148.041188,536.266849
1148.442099,-9400.615463,962.267725,153.219100
1148.442420,-9548.656652,1850.514855,229.828649
1148.442740,-9844.739029,2072.576638,0.000000
1148.443061,-10510.924376,2072.576638,0.000000
1148.443381,-10807.006753,1628.453072,229.828649
1148.443702,-10436.903782,888.247130,383.047749
1148.444023,-10140.821405,0.000000,459.657299
1148.444343,-10066.800811,-1110.308913,1532.190996
1148.444664,-9622.677246,-2220.617826,1608.800546
1148.444984,-9030.512492,-2368.659014,1762.019645
1148.445305,-8808.450710,-2590.720797,1532.190996
1148.445625,-8586.388927,-2072.576638,2145.067394
1148.445946,-8660.409521,-2146.597232,1455.581446
1148.446267,-8660.409521,-1554.432478,612.876398
1148.446587,-9104.533087,-740.205942,0.000000
1148.446908,-9252.574275,444.123565,0.000000
1148.447228,-10214.842000,1924.535449,-229.828649
1148.447549,-10214.842000,2368.659014,153.219100
1148.447870,-10510.924376,2442.679609,0.000000
1148.448190,-10955.047942,2146.597232,306.438199
1148.448511,-10732.986159,1480.411884,459.657299
1148.448831,-10066.800811,666.185348,1378.971896
1148.449152,-10288.862594,-296.082377,1762.019645
1148.449472,-9696.697840,-1184.329507,1838.629195
1148.449793,-9252.574275,-2072.576638,2374.896044
1148.450114,-8808.450710,-2664.741391,1225.752797
1148.450434,-8734.430116,-3108.864956,2681.334243
1148.450755,-8882.471304,-2516.700203,2681.334243
1148.451075,-8586.388927,-2220.617826,2145.067394
1148.451396,-8734.430116,-1776.494261,1838.629195
1148.451716,-8882.471304,-740.205942,1608.800546
1148.452037,-9400.615463,592.164754,612.876398
1148.452358,-9844.739029,1406.391290,612.876398
1148.452678,-9844.739029,2442.679609,536.266849
1148.452999,-10140.821405,2516.700203,229.828649
1148.453319,-11029.068536,1480.411884,-689.485948
1148.453640,-10658.965565,1480.411884,229.828649
1148.453960,-10436.903782,666.185348,1072.533697
1148.454281,-10066.800811,-296.082377,1608.800546
1148.454602,-9844.739029,-1332.370696,1838.629195
1148.454922,-8808.450710,-2294.638420,1608.800546
1148.455243,-8660.409521,-2960.823768,1915.238745
1148.455563,-8438.347739,-2886.803174,1762.019645
1148.455884,-8512.368333,-2812.782580,1685.410096
1148.456205,-8512.368333,-2294.638420,1455.581446
1148.456525,-8956.491898,-1258.350101,536.266849
1148.456846,-9474.636058,0.000000,383.047749
1148.457166,-9770.718434,1258.350101,-153.219100
1148.457487,-10214.842000,2072.576638,0.000000
1148.457807,-11029.068536,3256.906145,0.000000
1148.458128,-10955.047942,2886.803174,-383.047749
1148.458449,-10955.047942,2442.679609,-229.828649
1148.458769,-10658.965565,1554.432478,153.219100
1148.459090,-10807.006753,666.185348,842.705048
1148.459410,-9992.780217,-222.061783,2298.286494
1148.459731,-9770.718434,-1850.514855,1838.629195
1148.460051,-9252.574275,-2442.679609,2145.067394
1148.460372,-9030.512492,-2812.782580,2604.724693
1148.460693,-9030.512492,-2960.823768,2911.162892
1148.461013,-8216.285956,-2960.823768,2528.115143
1148.461334,-8586.388927,-2294.638420,2298.286494
1148.461654,-8660.409521,-1406.391290,1762.019645
1148.461975,-9030.512492,-296.082377,1225.752797
1148.462295,-9400.615463,814.226536,1072.533697
1148.462616,-9770.718434,1998.556043,229.828649
1148.462937,-9992.780217,2146.597232,383.047749
1148.463257,-10288.862594,2368.659014,229.828649
1148.463578,-10436.903782,1702.473667,383.047749
1148.463898,-10955.047942,2220.617826,995.924147
1148.464219,-10288.862594,0.000000,1532.190996
1148.464539,-9770.718434,-1110.308913,1225.752797
1148.464860,-9474.636058,-1998.556043,1685.410096
1148.465181,-9030.512492,-2368.659014,1685.410096
1148.465501,-7994.224174,-2590.720797,2221.676944
1148.465822,-8586.388927,-2664.741391,1685.410096
1148.466142,-8216.285956,-2664.741391,1072.533697
1148.466463,-8586.388927,-1924.535449,995.924147
1148.466784,-8956.491898,-1110.308913,536.266849
1148.467104,-9770.718434,74.020594,-383.047749
1148.467425,-9918.759623,1406.391290,-153.219100
1148.467745,-10214.842000,2220.617826,0.000000
1148.468066,-10510.924376,2368.659014,0.000000
1148.468386,-10955.047942,1776.494261,-459.657299
1148.468707,-10732.986159,1110.308913,536.266849
1148.469028,-10807.006753,444.123565,689.485948
1148.469348,-10214.842000,-296.082377,1685.410096
1148.469669,-9770.718434,-1258.350101,1455.581446
1148.469989,-9178.553681,-1628.453072,2298.286494
1148.470310,-9326.594869,-2738.761985,2068.457845
1148.470630,-8734.430116,-2590.720797,2145.067394
1148.470951,-8956.491898,-2368.659014,2604.724693
1148.471272,-8660.409521,-2368.659014,2451.505594
1148.471592,-8956.491898,-1480.411884,1302.362347
1148.471913,-8882.471304,-666.185348,1608.800546
1148.472233,-9326.594869,74.020594,919.314598
1148.472554,-9474.636058,1036.288319,459.657299
1148.472874,-9918.759623,1702.473667,229.828649
1148.473195,-10362.883188,2146.597232,-536.266849
1148.473516,-10510.924376,1998.556043,0.000000
1148.473836,-10658.965565,1850.514855,383.047749
1148.474157,-10584.944971,814.226536,766.095498
1148.474477,-10288.862594,0.000000,1378.971896
1148.474798,-9474.636058,-1332.370696,1455.581446
1148.475119,-9326.594869,-2516.700203,1915.238745
1148.475439,-8956.491898,-3034.844362,1838.629195
1148.475760,-8660.409521,-3108.864956,2221.676944
1148.476080,-8586.388927,-2146.597232,1685.410096
1148.476401,-8512.368333,-2368.659014,1455.581446
1148.476721,-8808.450710,-1110.308913,995.924147
1148.477042,-9178.553681,0.000000,689.485948
1148.477363,-9474.636058,1258.350101,0.000000
1148.477683,-10584.944971,2220.617826,459.657299
1148.478004,-10288.862594,2960.823768,-536.266849
1148.478324,-10658.965565,3108.864956,-306.438199
1148.478645,-11029.068536,2960.823768,-229.828649
1148.478965,-10881.027347,1998.556043,306.438199
1148.479286,-10066.800811,518.144159,1149.143247
1148.479607,-10214.842000,-666.185348,1378.971896
1148.479927,-9696.697840,-1480.411884,1685.410096
1148.480248,-9326.594869,-2516.700203,2221.676944
1148.480568,-9030.512492,-2738.761985,2604.724693
1148.480889,-8290.306550,-3182.885551,2757.943793
1148.481209,-8734.430116,-2738.761985,2451.505594
1148.481530,-8364.327145,-2368.659014,1991.848295
1148.481851,-8586.388927,-1702.473667,1149.143247
1148.482171,-9030.512492,-444.123565,229.828649
1148.482492,-9474.636058,888.247130,842.705048
1148.482812,-9770.718434,1628.453072,153.219100
1148.483133,-9696.697840,2220.617826,153.219100
1148.483454,-10288.862594,2220.617826,76.609550
1148.483774,-10881.027347,2664.741391,1149.143247
1148.484095,-10807.006753,1184.329507,1149.143247
1148.484415,-10584.944971,148.041188,1455.581446
1148.484736,-10066.800811,-814.226536,1762.019645
1148.485056,-9696.697840,-1998.556043,1532.190996
1148.485377,-8438.347739,-2294.638420,2528.115143
1148.485698,-8956.491898,-2812.782580,2374.896044
1148.486018,-8734.430116,-3182.885551,2298.286494
1148.486339,-8142.265362,-2516.700203,1608.800546
1148.486659,-8882.471304,-1850.514855,1072.533697
1148.486980,-8586.388927,-1406.391290,919.314598
1148.487300,-9474.636058,370.102971,306.438199
1148.487621,-10066.800811,1554.432478,-459.657299
1148.487942,-10066.800811,2294.638420,0.000000
1148.488262,-10658.965565,3034.844362,-306.438199
1148.488583,-10955.047942,2442.679609,-229.828649
1148.488903,-10955.047942,1628.453072,536.266849
1148.489224,-10807.006753,592.164754,842.705048
1148.489544,-10658.965565,-296.082377,995.924147
1148.489865,-9992.780217,-962.267725,995.924147
1148.490186,-9326.594869,-2368.659014,1838.629195
1148.490506,-9104.533087,-2960.823768,1915.238745
1148.490827,-8734.430116,-2886.803174,1915.238745
1148.491147,-8586.388927,-2960.823768,1915.238745
1148.491468,-8882.471304,-2738.761985,1762.019645
1148.491788,-8808.450710,-1924.535449,1149.143247
1148.492109,-8586.388927,-962.267725,919.314598
1148.492430,-9104.533087,222.061783,0.000000
1148.492750,-9474.636058,1776.494261,0.000000
1148.493071,-9474.636058,2442.679609,0.000000
1148.493391,-10436.903782,3034.844362,-229.828649
1148.493712,-10510.924376,2368.659014,0.000000
1148.494033,-10510.924376,1776.494261,76.609550
1148.494353,-10807.006753,962.267725,2145.067394
1148.494674,-10732.986159,0.000000,1225.752797
1148.494994,-9992.780217,-1332.370696,1915.238745
1148.495315,-9104.533087,-2516.700203,2145.067394
1148.495635,-8660.409521,-3256.906145,1685.410096
1148.495956,-8216.285956,-3775.050304,2528.115143
1148.496277,-8216.285956,-2886.803174,1915.238745
1148.496597,-8216.285956,-2294.638420,1685.410096
1148.496918,-8512.368333,-1258.350101,919.314598
1148.497238,-8956.491898,-370.102971,229.828649
1148.497559,-8660.409521,814.226536,-766.095498
1148.497879,-10066.800811,2072.576638,0.000000
1148.498200,-10584.944971,2590.720797,153.219100
1148.498521,-10807.006753,2886.803174,229.828649
1148.498841,-10955.047942,2442.679609,459.657299
1148.499162,-10510.924376,1110.308913,1608.800546
1148.499482,-10732.986159,666.185348,1685.410096
1148.499803,-10362.883188,-444.123565,1838.629195
1148.500123,-9770.718434,-1628.453072,2374.896044
1148.500444,-9252.574275,-2442.679609,2374.896044
1148.500765,-9030.512492,-2738.761985,2298.286494
1148.501085,-8734.430116,-3034.844362,2987.772442
1148.501406,-8660.409521,-2812.782580,3370.820191
1148.501726,-8438.347739,-2516.700203,2451.505594
1148.502047,-8438.347739,-1554.432478,1378.971896
1148.502368,-8882.471304,-592.164754,1225.752797
1148.502688,-9030.512492,518.144159,536.266849
1148.503009,-9770.718434,1628.453072,153.219100
1148.503329,-10140.821405,2294.638420,229.828649
1148.503650,-9844.739029,2368.659014,0.000000
1148.503970,-10732.986159,1924.535449,459.657299
1148.504291,-10584.944971,1184.329507,919.314598
1148.504612,-10584.944971,74.020594,1149.143247
1148.504932,-10214.842000,-1036.288319,1378.971896
1148.505253,-9918.759623,-2368.659014,1608.800546
1148.505573,-9252.574275,-2590.720797,1072.533697
1148.505894,-8734.430116,-2738.761985,1378.971896
1148.506214,-8586.388927,-2664.741391,1072.533697
1148.506535,-8290.306550,-2368.659014,536.266849
1148.506856,-8216.285956,-1998.556043,536.266849
1148.507176,-8882.471304,-888.247130,76.609550
1148.507497,-9326.594869,148.041188,-76.609550
1148.507817,-9844.739029,1258.350101,-153.219100
1148.508138,-10214.842000,2294.638420,-306.438199
1148.508458,-10732.986159,2886.803174,-383.047749
1148.508779,-11029.068536,2886.803174,76.609550
1148.509100,-11103.089130,2220.617826,536.266849
1148.509420,-10881.027347,1480.411884,689.485948
1148.509741,-9622.677246,0.000000,459.657299
1148.510061,-9844.739029,-962.267725,1455.581446
1148.510382,-9622.677246,-2294.638420,2145.067394
1148.510702,-8808.450710,-2590.720797,2221.676944
1148.511023,-9030.512492,-2738.761985,2604.724693
1148.511344,-8512.368333,-2516.700203,3140.991542
1148.511664,-8734.430116,-2664.741391,2374.896044
1148.511985,-8808.450710,-2146.597232,1838.629195
1148.512305,-8808.450710,-962.267725,1149.143247
1148.512626,-9030.512492,0.000000,612.876398
1148.512947,-10066.800811,1702.473667,229.828649
1148.513267,-9622.677246,1924.535449,0.000000
1148.513588,-10288.862594,2146.597232,0.000000
1148.513908,-10288.862594,2146.597232,0.000000
1148.514229,-10584.944971,1628.453072,919.314598
1148.514549,-10881.027347,444.123565,1455.581446
1148.514870,-10288.862594,-370.102971,1838.629195
1148.515191,-9844.739029,-1850.514855,1991.848295
1148.515511,-9326.594869,-2516.700203,2451.505594
1148.515832,-8290.306550,-3478.967927,1685.410096
1148.516152,-8512.368333,-3478.967927,2068.457845
1148.516473,-8290.306550,-3330.926739,1762.019645
1148.516793,-8364.327145,-2590.720797,1302.362347
1148.517114,-8512.368333,-1628.453072,383.047749
1148.517435,-9474.636058,0.000000,1072.533697
1148.517755,-9474.636058,1184.329507,0.000000
1148.518076,-9918.759623,2294.638420,-383.047749
1148.518396,-10658.965565,3108.864956,-229.828649
1148.518717,-11103.089130,3256.906145,0.000000
1148.519038,-10362.883188,2368.659014,0.000000
1148.519359,-11177.109724,1628.453072,766.095498
1148.519680,-10881.027347,740.205942,1378.971896
1148.520000,-10362.883188,-592.164754,1532.190996
1148.520321,-9844.739029,-1850.514855,2604.724693
1148.520642,-9252.574275,-2590.720797,2451.505594
1148.520963,-8660.409521,-2960.823768,2298.286494
1148.521283,-8512.368333,-3256.906145,2604.724693
1148.521604,-8660.409521,-3182.885551,2451.505594
1148.521925,-8586.388927,-2368.659014,1685.410096
1148.522245,-8660.409521,-1998.556043,1532.190996
1148.522566,-9178.553681,-518.144159,1072.533697
1148.522887,-9400.615463,814.226536,919.314598
1148.523208,-9770.718434,1924.535449,612.876398
1148.523528,-10510.924376,2442.679609,-1532.190996
1148.523849,-10584.944971,2442.679609,306.438199
1148.524170,-10584.944971,1924.535449,612.876398
1148.524491,-10658.965565,1110.308913,1225.752797
1148.524811,-10436.903782,0.000000,1762.019645
1148.525132,-9844.739029,-1776.494261,2451.505594
1148.525453,-9400.615463,-2294.638420,1838.629195
1148.525774,-8956.491898,-2960.823768,2145.067394
1148.526094,-8586.388927,-3034.844362,1762.019645
1148.526415,-8512.368333,-3034.844362,1838.629195
1148.526736,-7994.224174,-3182.885551,1072.533697
1148.527056,-8734.430116,-1924.535449,919.314598
1148.527377,-9178.553681,-518.144159,459.657299
1148.527698,-9474.636058,888.247130,0.000000
1148.528019,-9844.739029,2072.576638,0.000000
1148.528339,-10140.821405,2886.803174,0.000000
1148.528660,-10807.006753,2812.782580,-306.438199
1148.528981,-10955.047942,2664.741391,153.219100
1148.529302,-11103.089130,1998.556043,536.266849
1148.529622,-10510.924376,1480.411884,612.876398
1148.529943,-10066.800811,-518.144159,612.876398
1148.530264,-9696.697840,-1776.494261,1455.581446
1148.530585,-9252.574275,-2812.782580,1685.410096
1148.530905,-9030.512492,-3256.906145,1838.629195
1148.531226,-8512.368333,-2886.803174,1838.629195
1148.531547,-8586.388927,-2812.782580,2298.286494
1148.531867,-8734.430116,-2220.617826,1991.848295
1148.532188,-8734.430116,-1628.453072,1685.410096
1148.532509,-9030.512492,-444.123565,1149.143247
1148.532830,-8882.471304,1110.308913,1532.190996
1148.533150,-9474.636058,1850.514855,229.828649
1148.533471,-10066.800811,2442.679609,76.609550
1148.533792,-10214.842000,3034.844362,0.000000
1148.534113,-10362.883188,2516.700203,0.000000
1148.534433,-10658.965565,1702.473667,0.000000
1148.534754,-10732.986159,592.164754,1455.581446
1148.535075,-10436.903782,-592.164754,1838.629195
1148.535396,-9918.759623,-1628.453072,2145.067394
1148.535716,-9326.594869,-2960.823768,2604.724693
1148.536037,-8512.368333,-3627.009116,2911.162892
1148.536358,-8290.306550,-3627.009116,2451.505594
1148.536678,-8438.347739,-2960.823768,1762.019645
1148.536999,-8364.327145,-2368.659014,1302.362347
1148.537320,-8808.450710,-444.123565,612.876398
1148.537641,-9326.594869,222.061783,306.438199
1148.537961,-9770.718434,1406.391290,-383.047749
1148.538282,-10362.883188,2516.700203,-306.438199
1148.538603,-10510.924376,3182.885551,-459.657299
1148.538924,-10658.965565,3849.070898,-229.828649
1148.539244,-11177.109724,2368.659014,306.438199
1148.539565,-10881.027347,1110.308913,306.438199
1148.539886,-10807.006753,296.082377,919.314598
1148.540207,-10362.883188,-962.267725,1302.362347
1148.540527,-10214.842000,-1554.432478,2145.067394
1148.540848,-8734.430116,-3108.864956,1685.410096
1148.541169,-8660.409521,-3404.947333,2298.286494
1148.541490,-8512.368333,-3330.926739,2451.505594
1148.541810,-8438.347739,-2886.803174,2374.896044
1148.542131,-8364.327145,-2146.597232,1532.190996
1148.542452,-8512.368333,-1184.329507,1225.752797
1148.542772,-9178.553681,0.000000,766.095498
1148.543093,-9178.553681,1110.308913,229.828649
1148.543414,-9770.718434,2072.576638,-76.609550
1148.543735,-9622.677246,2516.700203,229.828649
1148.544055,-10584.944971,2442.679609,0.000000
1148.544376,-10658.965565,2072.576638,612.876398
1148.544697,-10807.006753,962.267725,919.314598
1148.545018,-10362.883188,-666.185348,766.095498
1148.545338,-10288.862594,-1554.432478,1532.190996
1148.545659,-9548.656652,-2146.597232,1838.629195
1148.545980,-9178.553681,-2738.761985,1762.019645
1148.546301,-8438.347739,-2812.782580,1915.238745
1148.546621,-8290.306550,-3627.009116,1225.752797
1148.546942,-8364.327145,-2442.679609,1685.410096
1148.547263,-8660.409521,-1554.432478,1225.752797
1148.547583,-9104.533087,-814.226536,689.485948
1148.547904,-9474.636058,814.226536,229.828649
1148.548225,-9992.780217,2368.659014,995.924147
1148.548546,-10658.965565,2738.761985,459.657299
1148.548866,-10584.944971,3034.844362,153.219100
1148.549187,-11029.068536,2664.741391,383.047749
1148.549508,-10732.986159,1776.494261,842.705048
1148.549829,-11103.089130,518.144159,1838.629195
1148.550149,-10362.883188,-222.061783,1991.848295
1148.550470,-9770.718434,-1924.535449,2068.457845
1148.550791,-9104.533087,-2664.741391,2604.724693
1148.551112,-8808.450710,-3034.844362,3294.210641
1148.551432,-8734.430116,-2960.823768,2834.553343
1148.551753,-8438.347739,-2664.741391,2604.724693
1148.552074,-8512.368333,-2368.659014,2298.286494
1148.552394,-8586.388927,-1702.473667,1608.800546
1148.552715,-8956.491898,-740.205942,1225.752797
1148.553036,-9326.594869,740.205942,306.438199
1148.553357,-9770.718434,1998.556043,76.609550
1148.553677,-9696.697840,2368.659014,-383.047749
1148.553998,-10584.944971,2812.782580,-612.876398
1148.554319,-10510.924376,2368.659014,-919.314598
1148.554640,-10955.047942,1554.432478,459.657299
1148.554960,-10955.047942,222.061783,1072.533697
1148.555281,-10214.842000,-740.205942,1378.971896
1148.555602,-9696.697840,-1776.494261,1685.410096
1148.555923,-8586.388927,-2516.700203,1838.629195
1148.556243,-8586.388927,-3034.844362,1302.362347
1148.556564,-8142.265362,-3330.926739,1225.752797
1148.556885,-8290.306550,-2886.803174,766.095498
1148.557205,-8586.388927,-2072.576638,995.924147
1148.557526,-8364.327145,-1406.391290,689.485948
1148.557847,-9400.615463,444.123565,-153.219100
1148.558168,-9696.697840,1480.411884,-383.047749
1148.558488,-10288.862594,2812.782580,-459.657299
1148.558809,-10807.006753,3256.906145,0.000000
1148.559130,-11177.109724,3701.029710,153.219100
1148.559451,-11177.109724,2590.720797,0.000000
1148.559771,-11103.089130,1776.494261,459.657299
1148.560092,-10732.986159,518.144159,995.924147
1148.560413,-10066.800811,-962.267725,1149.143247
1148.560734,-9326.594869,-1702.473667,459.657299
1148.561054,-9104.533087,-2664.741391,2145.067394
1148.561375,-8734.430116,-3330.926739,2451.505594
1148.561696,-8660.409521,-3182.885551,2681.334243
1148.562016,-8512.368333,-2812.782580,2757.943793
1148.562337,-8512.368333,-2294.638420,3677.258390
1148.562658,-8512.368333,-2072.576638,2068.457845
1148.562979,-9178.553681,-444.123565,1455.581446
1148.563299,-9474.636058,592.164754,995.924147
1148.563620,-9696.697840,1702.473667,766.095498
1148.563941,-9918.759623,2368.659014,842.705048
1148.564262,-10436.903782,2146.597232,612.876398
1148.564582,-10436.903782,2072.576638,842.705048
1148.564903,-10510.924376,1110.308913,1302.362347
1148.565224,-10436.903782,0.000000,1608.800546
1148.565545,-10214.842000,-1406.391290,1838.629195
1148.565865,-9474.636058,-2146.597232,1225.752797
1148.566186,-9104.533087,-2738.761985,1838.629195
1148.566507,-8438.347739,-2960.823768,1915.238745
1148.566828,-8438.347739,-2738.761985,2145.067394
1148.567148,-8438.347739,-1998.556043,1532.190996
1148.567469,-8808.450710,-1258.350101,1072.533697
1148.567790,-9104.533087,-666.185348,306.438199
1148.568110,-9474.636058,740.205942,0.000000
1148.568431,-9992.780217,1776.494261,0.000000
1148.568752,-10362.883188,2294.638420,0.000000
1148.569073,-10732.986159,2442.679609,0.000000
1148.569393,-10881.027347,1924.535449,0.000000
1148.569714,-10732.986159,1258.350101,-306.438199
1148.570035,-10807.006753,518.144159,459.657299
1148.570356,-10584.944971,0.000000,1455.581446
1148.570676,-9918.759623,-1332.370696,1838.629195
1148.570997,-9326.594869,-2368.659014,1685.410096
1148.571318,-9104.533087,-2960.823768,1838.629195
1148.571639,-8956.491898,-2812.782580,2451.505594
1148.571959,-9252.574275,-3182.885551,2987.772442
1148.572280,-8586.388927,-2664.741391,1762.019645
1148.572601,-8734.430116,-1702.473667,1225.752797
1148.572921,-8956.491898,-740.205942,612.876398
1148.573242,-9400.615463,444.123565,459.657299
1148.573563,-9696.697840,1554.432478,306.438199
1148.573884,-9992.780217,1924.535449,-306.438199
1148.574204,-10066.800811,2368.659014,0.000000
1148.574525,-10658.965565,1998.556043,0.000000
1148.574846,-11103.089130,1924.535449,383.047749
1148.575167,-10658.965565,666.185348,1072.533697
1148.575487,-10140.821405,-222.061783,1532.190996
1148.575808,-9770.718434,-1480.411884,2298.286494
1148.576129,-9252.574275,-2886.803174,2298.286494
1148.576450,-8512.368333,-3034.844362,1991.848295
1148.576770,-8438.347739,-2886.803174,1915.238745
1148.577091,-8290.306550,-2664.741391,1685.410096
1148.577412,-8142.265362,-2220.617826,1149.143247
1148.577732,-8956.491898,-1184.329507,766.095498
1148.578053,-9326.594869,-518.144159,689.485948
1148.578374,-9548.656652,888.247130,0.000000
1148.578695,-10288.862594,2368.659014,229.828649
1148.579015,-10807.006753,3330.926739,76.609550
1148.579336,-11177.109724,3404.947333,536.266849
1148.579657,-11177.109724,3256.906145,612.876398
1148.579978,-11251.130318,1924.535449,995.924147
1148.580298,-10510.924376,518.144159,1302.362347
1148.580619,-10288.862594,-888.247130,1685.410096
1148.580940,-9104.533087,-1480.411884,2451.505594
1148.581261,-9178.553681,-2442.679609,1838.629195
1148.581581,-8734.430116,-3034.844362,2451.505594
1148.581902,-8512.368333,-2738.761985,2834.553343
1148.582223,-8660.409521,-2960.823768,2451.505594
1148.582543,-8734.430116,-2220.617826,2298.286494
1148.582864,-8956.491898,-1776.494261,1685.410096
1148.583185,-9104.533087,-888.247130,1455.581446
1148.583506,-9474.636058,148.041188,689.485948
1148.583826,-9770.718434,1628.453072,306.438199
1148.584147,-10807.006753,2146.597232,306.438199
1148.584468,-10510.924376,2368.659014,76.609550
1148.584789,-9992.780217,1776.494261,0.000000
1148.585109,-10510.924376,1110.308913,612.876398
1148.585430,-10436.903782,148.041188,1149.143247
1148.585751,-10288.862594,-962.267725,1455.581446
1148.586072,-9326.594869,-2220.617826,1302.362347
1148.586392,-8808.450710,-2516.700203,1302.362347
1148.586713,-8882.471304,-2812.782580,1302.362347
1148.587034,-8808.450710,-2516.700203,1225.752797
1148.587355,-8586.388927,-2220.617826,1072.533697
1148.587675,-8808.450710,-1554.432478,689.485948
1148.587996,-9104.533087,-444.123565,229.828649
1148.588317,-9474.636058,518.144159,76.609550
1148.588637,-9770.718434,1850.514855,919.314598
1148.588958,-10214.842000,2146.597232,-383.047749
1148.589279,-10510.924376,2220.617826,-306.438199
1148.589600,-10732.986159,2220.617826,0.000000
1148.589920,-10732.986159,1850.514855,0.000000
1148.590241,-10214.842000,592.164754,229.828649
1148.590562,-10288.862594,0.000000,1455.581446
1148.590883,-9844.739029,-1036.288319,1762.019645
1148.591203,-9252.574275,-2072.576638,2145.067394
1148.591524,-9326.594869,-2590.720797,2374.896044
1148.591845,-8882.471304,-2664.741391,2987.772442
1148.592166,-9030.512492,-2812.782580,2911.162892
1148.592486,-8808.450710,-2294.638420,2528.115143
1148.592807,-8734.430116,-1924.535449,2145.067394
1148.593128,-8660.409521,-814.226536,1608.800546
1148.593448,-9252.574275,222.061783,1072.533697
1148.593769,-9474.636058,1184.329507,842.705048
1148.594090,-9844.739029,2072.576638,383.047749
1148.594411,-10288.862594,2072.576638,153.219100
1148.594731,-10214.842000,1702.473667,1225.752797
1148.595052,-10732.986159,1628.453072,995.924147
1148.595373,-10510.924376,296.082377,1302.362347
1148.595694,-10214.842000,-370.102971,1532.190996
1148.596014,-9844.739029,-1702.473667,2374.896044
1148.596335,-9474.636058,-1924.535449,2834.553343
1148.596656,-8956.491898,-2738.761985,2298.286494
1148.596977,-8660.409521,-2960.823768,1915.238745
1148.597297,-8216.285956,-2738.761985,1685.410096
1148.597618,-8290.306550,-2146.597232,1302.362347
1148.597939,-8216.285956,-1406.391290,153.219100
1148.598259,-9104.533087,-222.061783,229.828649
1148.598580,-9622.677246,1332.370696,0.000000
1148.598901,-10214.842000,2072.576638,-306.438199
1148.599222,-10510.924376,3034.844362,-689.485948
1148.599542,-11029.068536,2960.823768,-459.657299
1148.599863,-10955.047942,2516.700203,76.609550
1148.600184,-11103.089130,1850.514855,229.828649
1148.600505,-10881.027347,666.185348,842.705048
1148.600825,-10436.903782,-296.082377,1378.971896
1148.601146,-9696.697840,-1850.514855,1149.143247
1148.601467,-9178.553681,-3108.864956,1685.410096
1148.601788,-8956.491898,-3108.864956,2451.505594
1148.602108,-8734.430116,-3034.844362,2451.505594
1148.602429,-7772.162391,-2960.823768,2145.067394
1148.602750,-8068.244768,-2368.659014,1838.629195
1148.603070,-8660.409521,-1850.514855,1072.533697
1148.603391,-8808.450710,-444.123565,612.876398
1148.603712,-9326.594869,666.185348,383.047749
1148.604033,-9104.533087,1406.391290,-229.828649
1148.604353,-10066.800811,2220.617826,0.000000
1148.604674,-10510.924376,2072.576638,153.219100
1148.604995,-10807.006753,1776.494261,306.438199
1148.605316,-10807.006753,1036.288319,689.485948
1148.605636,-10658.965565,0.000000,2451.505594
1148.605957,-9992.780217,-814.226536,1685.410096
1148.606278,-9622.677246,-1924.535449,1685.410096
1148.606599,-8956.491898,-2516.700203,1532.190996
1148.606919,-8808.450710,-2516.700203,1915.238745
1148.607240,-8660.409521,-2516.700203,1302.362347
1148.607561,-8364.327145,-2294.638420,1302.362347
1148.607881,-8734.430116,-1406.391290,1072.533697
1148.608202,-9178.553681,-518.144159,459.657299
1148.608523,-10140.821405,444.123565,306.438199
1148.608844,-10362.883188,1702.473667,459.657299
1148.609164,-10510.924376,2368.659014,229.828649
1148.609485,-10881.027347,2590.720797,76.609550
1148.609806,-11103.089130,2516.700203,766.095498
1148.610127,-9992.780217,1628.453072,1378.971896
1148.610447,-10881.027347,1036.288319,1378.971896
1148.610768,-10362.883188,-296.082377,1685.410096
1148.611089,-9770.718434,-1258.350101,1991.848295
1148.611410,-9326.594869,-2368.659014,2451.505594
1148.611730,-9178.553681,-2516.700203,3140.991542
1148.612051,-8808.450710,-3108.864956,2528.115143
1148.612372,-8512.368333,-3108.864956,2068.457845
1148.612693,-8364.327145,-2516.700203,2298.286494
1148.613013,-8808.450710,-1850.514855,1608.800546
1148.613334,-8734.430116,-740.205942,306.438199
1148.613655,-9252.574275,0.000000,612.876398
1148.613975,-9770.718434,1258.350101,459.657299
1148.614296,-9844.739029,1998.556043,0.000000
1148.614617,-10214.842000,2072.576638,-229.828649
1148.614938,-9992.780217,1998.556043,-153.219100
1148.615258,-10436.903782,1480.411884,153.219100
1148.615579,-10362.883188,814.226536,1072.533697
1148.615900,-10066.800811,-518.144159,1302.362347
1148.616221,-9696.697840,-1702.473667,1762.019645
1148.616541,-9400.615463,-2664.741391,1149.143247
1148.616862,-8808.450710,-3330.926739,1991.848295
1148.617183,-8660.409521,-3404.947333,1685.410096
1148.617504,-8512.368333,-3108.864956,1302.362347
1148.617824,-8438.347739,-2516.700203,1225.752797
1148.618145,-8956.491898,-1480.411884,919.314598
1148.618466,-9326.594869,-222.061783,536.266849
1148.618786,-9770.718434,1258.350101,0.000000
1148.619107,-10140.821405,2516.700203,-383.047749
1148.619428,-10658.965565,3478.967927,306.438199
1148.619749,-11177.109724,3330.926739,0.000000
1148.620069,-11251.130318,2812.782580,153.219100
1148.620390,-10881.027347,1776.494261,536.266849
1148.620711,-10955.047942,962.267725,1455.581446
1148.621032,-10807.006753,-296.082377,3524.039291
1148.621352,-9844.739029,-2072.576638,2298.286494
1148.621673,-9104.533087,-2664.741391,2298.286494
1148.621994,-8882.471304,-2960.823768,2604.724693
1148.622315,-8586.388927,-3034.844362,2604.724693
1148.622636,-8142.265362,-2590.720797,1838.629195
1148.622956,-8512.368333,-2664.741391,2451.505594
1148.623277,-8660.409521,-1850.514855,1762.019645
1148.623598,-9104.533087,-444.123565,995.924147
1148.623919,-9474.636058,740.205942,995.924147
1148.624240,-9104.533087,1924.535449,153.219100
1148.624560,-9918.759623,2294.638420,0.000000
1148.624881,-10140.821405,1776.494261,0.000000
1148.625202,-10362.883188,1850.514855,459.657299
1148.625523,-10732.986159,1110.308913,919.314598
1148.625844,-9992.780217,-592.164754,1378.971896
1148.626164,-9770.718434,-1258.350101,1225.752797
1148.626485,-9474.636058,-2146.597232,1378.971896
1148.626806,-8956.491898,-2368.659014,1762.019645
1148.627127,-8882.471304,-2516.700203,1915.238745
1148.627448,-8512.368333,-2886.803174,1838.629195
1148.627768,-8364.327145,-2220.617826,995.924147
1148.628089,-8660.409521,-1184.329507,383.047749
1148.628410,-8956.491898,-222.061783,306.438199
1148.628731,-9030.512492,1184.329507,995.924147
1148.629052,-9844.739029,2072.576638,0.000000
1148.629372,-10362.883188,2368.659014,-306.438199
1148.629693,-10807.006753,2590.720797,-229.828649
1148.630014,-11029.068536,2146.597232,0.000000
1148.630335,-11177.109724,1480.411884,229.828649
1148.630656,-10807.006753,740.205942,1072.533697
1148.630976,-10510.924376,0.000000,1532.190996
1148.631297,-10214.842000,-1110.308913,1991.848295
1148.631618,-9326.594869,-2368.659014,2068.457845
1148.631939,-7846.182985,-3478.967927,2911.162892
1148.632260,-8586.388927,-3108.864956,2221.676944
1148.632580,-8512.368333,-2590.720797,2145.067394
1148.632901,-8586.388927,-2368.659014,2145.067394
1148.633222,-8660.409521,-1998.556043,1225.752797
1148.633543,-8364.327145,-1036.288319,153.219100
1148.633864,-9252.574275,370.102971,306.438199
1148.634184,-9696.697840,1258.350101,0.000000
1148.634505,-9844.739029,2220.617826,-153.219100
1148.634826,-10436.903782,2368.659014,0.000000
1148.635147,-10288.862594,2146.597232,153.219100
1148.635468,-10732.986159,1110.308913,536.266849
1148.635788,-10510.924376,296.082377,842.705048
1148.636109,-10066.800811,-814.226536,1455.581446
1148.636430,-9770.718434,-1702.473667,2145.067394
1148.636751,-8956.491898,-2812.782580,1762.019645
1148.637072,-8586.388927,-3330.926739,1991.848295
1148.637392,-8364.327145,-3182.885551,1532.190996
1148.637713,-8290.306550,-2886.803174,1378.971896
1148.638034,-8364.327145,-1184.329507,1378.971896
1148.638355,-8512.368333,-1258.350101,459.657299
1148.638676,-9030.512492,74.020594,0.000000
1148.638996,-9992.780217,1628.453072,76.609550
1148.639317,-10436.903782,2738.761985,0.000000
1148.639638,-9992.780217,2516.700203,0.000000
1148.639959,-11177.109724,3182.885551,229.828649
1148.640280,-11399.171507,2442.679609,459.657299
1148.640600,-11177.109724,1480.411884,1225.752797
1148.640921,-10732.986159,444.123565,1455.581446
1148.641242,-10214.842000,-814.226536,995.924147
1148.641563,-9696.697840,-1776.494261,2068.457845
1148.641884,-9178.553681,-2516.700203,2145.067394
1148.642204,-8808.450710,-2664.741391,2757.943793
1148.642525,-8586.388927,-2590.720797,3753.867940
1148.642846,-8586.388927,-2590.720797,2911.162892
1148.643167,-8586.388927,-2442.679609,2451.505594
1148.643488,-8956.491898,-1480.411884,2145.067394
1148.643808,-9252.574275,-666.185348,1838.629195
1148.644129,-9474.636058,814.226536,1149.143247
1148.644450,-9696.697840,1184.329507,612.876398
1148.644771,-10066.800811,2072.576638,153.219100
1148.645092,-10288.862594,2072.576638,229.828649
1148.645412,-10436.903782,1332.370696,306.438199
1148.645733,-9696.697840,814.226536,766.095498
1148.646054,-10288.862594,-148.041188,919.314598
1148.646375,-9770.718434,-1184.329507,1762.019645
1148.646696,-9400.615463,-2072.576638,1455.581446
1148.647016,-9030.512492,-2664.741391,1455.581446
1148.647337,-9326.594869,-2886.803174,2451.505594
1148.647658,-8586.388927,-2442.679609,1225.752797
1148.647979,-8364.327145,-2146.597232,766.095498
1148.648300,-8734.430116,-1480.411884,153.219100
1148.648621,-8956.491898,-370.102971,-306.438199
1148.648941,-9474.636058,962.267725,-1072.533697
1148.649262,-10140.821405,2220.617826,-689.485948
1148.649583,-10658.965565,2886.803174,-229.828649
1148.649904,-10732.986159,2886.803174,0.000000
1148.650225,-11251.130318,3182.885551,76.609550
1148.650545,-10955.047942,1850.514855,153.219100
1148.650866,-10732.986159,814.226536,766.095498
1148.651187,-10140.821405,-592.164754,1378.971896
1148.651508,-9548.656652,-1554.432478,1378.971896
1148.651829,-8734.430116,-2368.659014,3140.991542
1148.652149,-8808.450710,-2590.720797,2374.896044
1148.652470,-8734.430116,-2442.679609,2221.676944
1148.652791,-8660.409521,-2664.741391,1991.848295
1148.653112,-8660.409521,-2220.617826,2068.457845
1148.653433,-8660.409521,-1850.514855,2221.676944
1148.653753,-8956.491898,-666.185348,995.924147
1148.654074,-9474.636058,296.082377,536.266849
1148.654395,-9548.656652,1406.391290,229.828649
1148.654716,-9992.780217,2516.700203,0.000000
1148.655037,-10214.842000,2220.617826,-383.047749
1148.655357,-10510.924376,1998.556043,383.047749
1148.655678,-10658.965565,1406.391290,919.314598
1148.655999,-10584.944971,74.020594,1762.019645
1148.656320,-9844.739029,-740.205942,1455.581446
1148.656641,-9474.636058,-2146.597232,2374.896044
1148.656961,-9030.512492,-2960.823768,2068.457845
1148.657282,-8660.409521,-3330.926739,2221.676944
1148.657603,-8364.327145,-3256.906145,2145.067394
1148.657924,-7846.182985,-2738.761985,1302.362347
1148.658245,-8364.327145,-1998.556043,1455.581446
1148.658565,-8956.491898,-962.267725,1149.143247
1148.658886,-9400.615463,0.000000,612.876398
1148.659207,-9622.677246,1184.329507,306.438199
1148.659528,-10510.924376,2220.617826,612.876398
1148.659849,-10807.006753,2960.823768,229.828649
1148.660169,-11029.068536,3034.844362,689.485948
1148.660490,-11103.089130,2368.659014,306.438199
1148.660811,-11547.212695,2072.576638,2681.334243
1148.661132,-10584.944971,592.164754,1302.362347
1148.661453,-10140.821405,-666.185348,1762.019645
1148.661773,-9548.656652,-1850.514855,1915.238745
1148.662094,-9178.553681,-2664.741391,2221.676944
1148.662415,-8438.347739,-2590.720797,2298.286494
1148.662736,-8734.430116,-3182.885551,2528.115143
1148.663057,-8438.347739,-3108.864956,2604.724693
1148.663377,-8660.409521,-2294.638420,2145.067394
1148.663698,-9030.512492,-1406.391290,1378.971896
1148.664019,-9104.533087,-370.102971,842.705048
1148.664340,-9474.636058,888.247130,536.266849
1148.664661,-9770.718434,2146.597232,459.657299
1148.664981,-9918.759623,2146.597232,0.000000
1148.665302,-9622.677246,2146.597232,-153.219100
1148.665623,-10362.883188,1702.473667,-76.609550
1148.665944,-10658.965565,1036.288319,766.095498
1148.666265,-10436.903782,0.000000,1149.143247
1148.666585,-9992.780217,-1258.350101,1149.143247
1148.666906,-9548.656652,-1776.494261,1378.971896
1148.667227,-9030.512492,-2516.700203,1762.019645
1148.667548,-8660.409521,-2442.679609,1225.752797
1148.667869,-8512.368333,-2368.659014,995.924147
1148.668189,-8216.285956,-2294.638420,766.095498
1148.668510,-8660.409521,-1332.370696,919.314598
1148.668831,-9030.512492,-370.102971,0.000000
1148.669152,-9548.656652,814.226536,0.000000
1148.669473,-9844.739029,1998.556043,-306.438199
1148.669793,-10436.903782,2516.700203,76.609550
1148.670114,-10658.965565,2590.720797,0.000000
1148.670435,-10881.027347,2368.659014,76.609550
1148.670756,-10955.047942,1924.535449,536.266849
1148.671077,-10881.027347,814.226536,919.314598
1148.671397,-10214.842000,-222.061783,842.705048
1148.671718,-9770.718434,-1628.453072,1762.019645
1148.672039,-9252.574275,-2294.638420,2145.067394
1148.672360,-8882.471304,-2664.741391,2528.115143
1148.672681,-8734.430116,-3108.864956,2604.724693
1148.673001,-8216.285956,-2812.782580,2834.553343
1148.673322,-8512.368333,-2442.679609,2374.896044
1148.673643,-8882.471304,-1702.473667,2145.067394
1148.673964,-8734.430116,-888.247130,1455.581446
1148.674285,-8364.327145,0.000000,1149.143247
1148.674605,-9474.636058,1184.329507,-229.828649
1148.674926,-9844.739029,1998.556043,153.219100
1148.675247,-10362.883188,2368.659014,306.438199
