#time,accel_x,accel_y,accel_z
786.951667,-9992.780217,-2442.679609,-1608.800546
786.951988,-9918.759623,-2368.659014,-1072.533697
786.952309,-9918.759623,-1628.453072,-306.438199
786.952630,-9474.636058,-1036.288319,1455.581446
786.952951,-10436.903782,-1184.329507,1838.629195
786.953272,-9474.636058,-1480.411884,1685.410096
786.953593,-9696.697840,-1628.453072,842.705048
786.953914,-9178.553681,-1258.350101,689.485948
786.954235,-8734.430116,-962.267725,536.266849
786.954555,-9178.553681,-296.082377,1149.143247
786.954876,-9252.574275,74.020594,76.609550
786.955197,-9696.697840,-74.020594,76.609550
786.955518,-9696.697840,-296.082377,383.047749
786.955839,-10658.965565,-518.144159,689.485948
786.956160,-10362.883188,-518.144159,1302.362347
786.956481,-10362.883188,-962.267725,612.876398
786.956802,-9918.759623,-1406.391290,-689.485948
786.957123,-9474.636058,-1332.370696,0.000000
786.957444,-9252.574275,-1702.473667,229.828649
786.957765,-9030.512492,-1628.453072,153.219100
786.958086,-9178.553681,-1924.535449,-229.828649
786.958407,-8734.430116,-2368.659014,-153.219100
786.958728,-8956.491898,-2368.659014,-76.609550
786.959049,-9252.574275,-2960.823768,0.000000
786.959370,-9252.574275,-3256.906145,153.219100
786.959691,-9178.553681,-3182.885551,-1072.533697
786.960012,-9400.615463,-3627.009116,-995.924147
786.960333,-9178.553681,-3404.947333,-1302.362347
786.960654,-8956.491898,-3108.864956,-1915.238745
786.960975,-8808.450710,-3182.885551,-2834.553343
786.961296,-9622.677246,-2664.741391,-2604.724693
786.961616,-9400.615463,-2664.741391,-2757.943793
786.961937,-9696.697840,-2960.823768,-2604.724693
786.962258,-9548.656652,-3108.864956,-2528.115143
786.962579,-9770.718434,-3256.906145,-2757.943793
786.962900,-9844.739029,-2886.803174,-3064.381992
786.963221,-9548.656652,-2738.761985,-2987.772442
786.963542,-9770.718434,-2664.741391,-3140.991542
786.963863,-10066.800811,-1998.556043,-2987.772442
786.964184,-9696.697840,-2072.576638,-2681.334243
786.964505,-9992.780217,-2368.659014,-2528.115143
786.964826,-10214.842000,-2368.659014,-2604.724693
786.965147,-10140.821405,-2294.638420,-3064.381992
786.965468,-10066.800811,-2220.617826,-2374.896044
786.965789,-10066.800811,-1258.350101,-2298.286494
786.966110,-9992.780217,-1110.308913,-1762.019645
786.966431,-9844.739029,-1258.350101,-995.924147
786.966752,-9918.759623,-1924.535449,-1762.019645
786.967073,-9400.615463,-1776.494261,-1608.800546
786.967394,-9696.697840,-2072.576638,-1378.971896
786.967715,-9326.594869,-2220.617826,-1072.533697
786.968036,-9474.636058,-2442.679609,-842.705048
786.968357,-9104.533087,-2960.823768,-842.705048
786.968677,-9104.533087,-2812.782580,-459.657299
786.968998,-9400.615463,-2442.679609,689.485948
786.969319,-9622.677246,-1924.535449,1532.190996
786.969640,-9770.718434,-1924.535449,2298.286494
786.969961,-9770.718434,-1480.411884,2681.334243
786.970282,-9474.636058,-888.247130,3064.381992
786.970603,-9474.636058,-592.164754,2987.772442
786.970924,-9104.533087,-370.102971,3370.820191
786.971245,-8734.430116,-740.205942,2911.162892
786.971566,-9104.533087,-370.102971,3370.820191
786.971887,-9030.512492,-592.164754,3370.820191
786.972208,-8734.430116,-888.247130,3677.258390
786.972529,-9178.553681,-370.102971,3600.648841
786.972850,-9252.574275,-296.082377,3370.820191
786.973171,-9252.574275,-222.061783,3677.258390
786.973492,-9548.656652,-740.205942,4826.401637
786.973813,-9992.780217,148.041188,4366.744339
786.974134,-10140.821405,444.123565,4443.353888
786.974455,-10140.821405,1036.288319,4060.306139
786.974775,-10066.800811,1406.391290,3600.648841
786.975096,-9548.656652,1332.370696,3294.210641
786.975417,-9474.636058,1554.432478,2451.505594
786.975737,-9474.636058,962.267725,1378.971896
786.976058,-9252.574275,962.267725,766.095498
786.976379,-8882.471304,518.144159,383.047749
786.976699,-9474.636058,592.164754,229.828649
786.977020,-9918.759623,740.205942,-76.609550
786.977341,-9918.759623,666.185348,-76.609550
786.977661,-10066.800811,740.205942,383.047749
786.977982,-10510.924376,888.247130,153.219100
786.978303,-10658.965565,888.247130,229.828649
786.978624,-10362.883188,1036.288319,0.000000
786.978944,-10140.821405,1258.350101,-306.438199
786.979265,-9548.656652,1628.453072,-919.314598
786.979586,-9474.636058,1776.494261,-995.924147
786.979906,-9252.574275,1480.411884,-919.314598
786.980227,-9178.553681,1036.288319,-1608.800546
786.980548,-7994.224174,1110.308913,-919.314598
786.980868,-9252.574275,740.205942,-1455.581446
786.981189,-9400.615463,518.144159,-76.609550
786.981510,-9622.677246,666.185348,0.000000
786.981830,-9918.759623,740.205942,612.876398
786.982151,-9918.759623,666.185348,995.924147
786.982472,-10140.821405,222.061783,1225.752797
786.982792,-9918.759623,222.061783,1378.971896
786.983113,-9474.636058,0.000000,1072.533697
786.983434,-9030.512492,-74.020594,536.266849
786.983754,-8956.491898,-296.082377,229.828649
786.984075,-8660.409521,-814.226536,-153.219100
786.984396,-8882.471304,-1258.350101,-153.219100
786.984716,-8734.430116,-1480.411884,-536.266849
786.985037,-9104.533087,-2220.617826,0.000000
786.985358,-9178.553681,-2516.700203,306.438199
786.985678,-9622.677246,-2738.761985,919.314598
786.985999,-10066.800811,-2442.679609,1532.190996
786.986320,-10436.903782,-2294.638420,2451.505594
786.986641,-10288.862594,-2072.576638,2604.724693
786.986961,-10066.800811,-1924.535449,2681.334243
786.987282,-9844.739029,-1776.494261,2451.505594
786.987603,-9548.656652,-1184.329507,2451.505594
786.987923,-9474.636058,-1036.288319,2451.505594
786.988244,-9326.594869,-1036.288319,2757.943793
786.988565,-9030.512492,-1258.350101,2145.067394
786.988885,-9030.512492,-1184.329507,3064.381992
786.989206,-9474.636058,-814.226536,2451.505594
786.989527,-9548.656652,-444.123565,3064.381992
786.989847,-9844.739029,-370.102971,3217.601092
786.990168,-10214.842000,-148.041188,3370.820191
786.990489,-9992.780217,-518.144159,2681.334243
786.990809,-10584.944971,0.000000,2987.772442
786.991130,-10288.862594,-148.041188,2911.162892
786.991451,-9992.780217,148.041188,2528.115143
786.991771,-8882.471304,0.000000,1838.629195
786.992092,-9178.553681,0.000000,842.705048
786.992413,-8882.471304,-296.082377,153.219100
786.992733,-9104.533087,-296.082377,-383.047749
786.993054,-8438.347739,-370.102971,-1762.019645
786.993375,-8734.430116,-740.205942,-995.924147
786.993695,-9548.656652,-814.226536,-766.095498
786.994016,-9326.594869,-1036.288319,-612.876398
786.994337,-9696.697840,-1036.288319,0.000000
786.994657,-9844.739029,-1406.391290,229.828649
786.994978,-9918.759623,-740.205942,229.828649
786.995299,-10288.862594,-666.185348,536.266849
786.995620,-9770.718434,-222.061783,459.657299
786.995940,-9474.636058,222.061783,76.609550
786.996261,-9178.553681,296.082377,0.000000
786.996582,-9030.512492,666.185348,0.000000
786.996902,-8956.491898,740.205942,-153.219100
786.997223,-9400.615463,1628.453072,383.047749
786.997544,-9178.553681,1258.350101,153.219100
786.997864,-9326.594869,1110.308913,766.095498
786.998185,-9770.718434,1258.350101,1838.629195
786.998506,-10140.821405,1332.370696,2451.505594
786.998826,-10214.842000,1332.370696,2757.943793
786.999147,-10807.006753,1258.350101,3370.820191
786.999468,-10510.924376,1332.370696,2987.772442
786.999788,-10436.903782,1036.288319,2451.505594
787.000109,-10214.842000,1110.308913,1685.410096
787.000430,-9474.636058,962.267725,1149.143247
787.000750,-9252.574275,518.144159,459.657299
787.001071,-9178.553681,148.041188,76.609550
787.001392,-8956.491898,0.000000,76.609550
787.001712,-9104.533087,-888.247130,-459.657299
787.002033,-9622.677246,-1184.329507,-76.609550
787.002354,-9770.718434,-1332.370696,766.095498
787.002674,-10584.944971,-1258.350101,1532.190996
787.002995,-10658.965565,-1036.288319,2451.505594
787.003316,-10732.986159,-1184.329507,2528.115143
787.003637,-10288.862594,-814.226536,2451.505594
787.003957,-9992.780217,-962.267725,2374.896044
787.004278,-9252.574275,-592.164754,2068.457845
787.004599,-9474.636058,-370.102971,1762.019645
787.004919,-8586.388927,-740.205942,1302.362347
787.005240,-8956.491898,-814.226536,842.705048
787.005561,-9252.574275,-592.164754,459.657299
787.005881,-9104.533087,-888.247130,1225.752797
787.006202,-9400.615463,-444.123565,1685.410096
787.006523,-9622.677246,-592.164754,1991.848295
787.006843,-9918.759623,-518.144159,2451.505594
787.007164,-10436.903782,-222.061783,2987.772442
787.007485,-10214.842000,-592.164754,2911.162892
787.007805,-9844.739029,-370.102971,2298.286494
787.008126,-9770.718434,-296.082377,1532.190996
787.008447,-9104.533087,-296.082377,766.095498
787.008767,-9030.512492,-518.144159,229.828649
787.009088,-8660.409521,-370.102971,-306.438199
787.009409,-8734.430116,-888.247130,-1455.581446
787.009729,-8512.368333,-666.185348,-2145.067394
787.010050,-8808.450710,-1702.473667,-1991.848295
787.010371,-9252.574275,-1184.329507,-1455.581446
787.010691,-9474.636058,-1406.391290,-1302.362347
787.011012,-9770.718434,-1332.370696,-766.095498
787.011333,-10288.862594,-1036.288319,-229.828649
787.011654,-10436.903782,-962.267725,153.219100
787.011974,-10510.924376,-814.226536,612.876398
787.012295,-10140.821405,-962.267725,689.485948
787.012616,-9326.594869,-592.164754,-229.828649
787.012936,-9400.615463,-370.102971,383.047749
787.013257,-9104.533087,-222.061783,459.657299
787.013578,-8734.430116,-222.061783,459.657299
787.013898,-8438.347739,-518.144159,1225.752797
787.014219,-9030.512492,-222.061783,919.314598
787.014540,-9474.636058,-148.041188,1608.800546
787.014860,-9770.718434,0.000000,2757.943793
787.015181,-10436.903782,0.000000,3370.820191
787.015502,-10732.986159,222.061783,4136.915689
787.015822,-10881.027347,0.000000,4136.915689
787.016143,-10732.986159,-222.061783,4060.306139
787.016464,-10140.821405,0.000000,3217.601092
787.016784,-9918.759623,74.020594,2987.772442
787.017105,-9326.594869,0.000000,2068.457845
787.017426,-8956.491898,0.000000,1302.362347
787.017746,-8660.409521,-370.102971,612.876398
787.018067,-8660.409521,-666.185348,153.219100
787.018388,-8956.491898,-1036.288319,0.000000
787.018708,-9548.656652,-1332.370696,306.438199
787.019029,-9474.636058,-1258.350101,689.485948
787.019350,-10140.821405,-814.226536,919.314598
787.019671,-10881.027347,-296.082377,1532.190996
787.019991,-10584.944971,-296.082377,1532.190996
787.020312,-10658.965565,0.000000,1685.410096
787.020633,-10214.842000,0.000000,1378.971896
787.020953,-9622.677246,0.000000,766.095498
787.021274,-9474.636058,-148.041188,306.438199
787.021595,-9030.512492,-444.123565,536.266849
787.021915,-8660.409521,-148.041188,306.438199
787.022236,-9030.512492,-222.061783,1455.581446
787.022557,-8734.430116,-148.041188,459.657299
787.022877,-9474.636058,-296.082377,1149.143247
787.023198,-9696.697840,0.000000,1532.190996
787.023519,-10436.903782,0.000000,1991.848295
787.023839,-10658.965565,444.123565,2451.505594
787.024160,-10584.944971,222.061783,2528.115143
787.024481,-10066.800811,0.000000,2145.067394
787.024801,-10140.821405,74.020594,1455.581446
787.025122,-9178.553681,370.102971,842.705048
787.025443,-9326.594869,148.041188,153.219100
787.025763,-8660.409521,0.000000,-689.485948
787.026084,-8734.430116,74.020594,-1072.533697
787.026405,-9400.615463,370.102971,-1915.238745
787.026725,-9104.533087,-444.123565,-1455.581446
787.027046,-9474.636058,-1110.308913,-842.705048
787.027367,-9844.739029,-1036.288319,-612.876398
787.027688,-10362.883188,-814.226536,76.609550
787.028008,-10510.924376,-814.226536,612.876398
787.028329,-10658.965565,-518.144159,1302.362347
787.028650,-10362.883188,-518.144159,1072.533697
787.028970,-9918.759623,-592.164754,1072.533697
787.029291,-9548.656652,-592.164754,612.876398
787.029612,-9326.594869,-592.164754,459.657299
787.029932,-8808.450710,-888.247130,153.219100
787.030253,-8734.430116,-962.267725,0.000000
787.030574,-8808.450710,-518.144159,0.000000
787.030894,-9030.512492,-814.226536,919.314598
787.031215,-9400.615463,-740.205942,1685.410096
787.031536,-9992.780217,-444.123565,2834.553343
787.031856,-9992.780217,-370.102971,3064.381992
787.032177,-10510.924376,0.000000,4290.134789
787.032498,-10288.862594,0.000000,4443.353888
787.032818,-10214.842000,-148.041188,4213.525239
787.033139,-9252.574275,0.000000,3217.601092
787.033460,-9178.553681,-222.061783,2451.505594
787.033780,-8956.491898,-370.102971,1455.581446
787.034101,-8512.368333,-370.102971,919.314598
787.034422,-8512.368333,-592.164754,229.828649
787.034742,-8438.347739,-592.164754,-1149.143247
787.035063,-8660.409521,-1332.370696,-459.657299
787.035384,-9178.553681,-1110.308913,-383.047749
787.035705,-9918.759623,-1110.308913,536.266849
787.036025,-10288.862594,-814.226536,1532.190996
787.036346,-10807.006753,-888.247130,1762.019645
787.036667,-10658.965565,-666.185348,1685.410096
787.036987,-10436.903782,-592.164754,1685.410096
787.037308,-10140.821405,-222.061783,1225.752797
787.037629,-9252.574275,-444.123565,1608.800546
787.037949,-9252.574275,0.000000,536.266849
787.038270,-8956.491898,0.000000,76.609550
787.038591,-8882.471304,74.020594,0.000000
787.038911,-9252.574275,222.061783,1455.581446
787.039232,-9474.636058,0.000000,536.266849
787.039553,-9770.718434,-148.041188,1072.533697
787.039873,-9844.739029,-444.123565,1455.581446
787.040194,-10658.965565,0.000000,1991.848295
787.040515,-10807.006753,296.082377,2451.505594
787.040835,-10807.006753,296.082377,2757.943793
787.041156,-10436.903782,296.082377,2681.334243
787.041477,-9844.739029,222.061783,2068.457845
787.041797,-9696.697840,814.226536,1455.581446
787.042118,-9326.594869,0.000000,766.095498
787.042439,-8734.430116,-148.041188,0.000000
787.042759,-8364.327145,-296.082377,-612.876398
787.043080,-9104.533087,-296.082377,536.266849
787.043401,-8882.471304,-592.164754,-612.876398
787.043721,-9400.615463,-518.144159,0.000000
787.044042,-9992.780217,-592.164754,383.047749
787.044363,-10288.862594,-370.102971,689.485948
787.044684,-10732.986159,0.000000,919.314598
787.045004,-10436.903782,222.061783,1762.019645
787.045325,-10288.862594,222.061783,1378.971896
787.045646,-9770.718434,296.082377,1149.143247
787.045966,-9696.697840,74.020594,689.485948
787.046287,-9178.553681,296.082377,612.876398
787.046608,-9178.553681,0.000000,919.314598
787.046928,-8660.409521,370.102971,919.314598
787.047249,-9104.533087,-666.185348,536.266849
787.047570,-9326.594869,222.061783,1225.752797
787.047890,-9622.677246,0.000000,2068.457845
787.048211,-9844.739029,0.000000,2681.334243
787.048532,-10436.903782,0.000000,3524.039291
787.048852,-10140.821405,-296.082377,3294.210641
787.049173,-10436.903782,0.000000,3907.087040
787.049494,-10140.821405,74.020594,3370.820191
787.049814,-9844.739029,0.000000,2298.286494
787.050135,-9696.697840,0.000000,842.705048
787.050456,-9178.553681,-222.061783,612.876398
787.050776,-8660.409521,-296.082377,76.609550
787.051097,-8512.368333,-592.164754,-766.095498
787.051418,-8142.265362,-1258.350101,612.876398
787.051738,-8808.450710,-962.267725,-842.705048
787.052059,-9622.677246,-1110.308913,-766.095498
787.052380,-9696.697840,-1258.350101,153.219100
787.052701,-10288.862594,-1184.329507,383.047749
787.053021,-10288.862594,-888.247130,612.876398
787.053342,-10436.903782,-888.247130,995.924147
787.053663,-10214.842000,-814.226536,842.705048
787.053983,-9696.697840,-666.185348,689.485948
787.054304,-9474.636058,74.020594,306.438199
787.054625,-9326.594869,-370.102971,306.438199
787.054945,-8512.368333,-666.185348,153.219100
787.055266,-8660.409521,-962.267725,0.000000
787.055587,-8216.285956,-296.082377,0.000000
787.055907,-9178.553681,-222.061783,612.876398
787.056228,-9548.656652,0.000000,1302.362347
787.056549,-9918.759623,-74.020594,1838.629195
787.056869,-10214.842000,0.000000,2451.505594
787.057190,-10436.903782,0.000000,2604.724693
787.057511,-10510.924376,-518.144159,3370.820191
787.057831,-10658.965565,-444.123565,3064.381992
787.058152,-9918.759623,-592.164754,2528.115143
787.058473,-9548.656652,-370.102971,1378.971896
787.058793,-9104.533087,-222.061783,1455.581446
787.059114,-8734.430116,-296.082377,689.485948
787.059435,-8660.409521,-592.164754,153.219100
787.059755,-7624.121203,-1332.370696,995.924147
787.060076,-9030.512492,-962.267725,0.000000
787.060397,-9474.636058,-740.205942,306.438199
787.060718,-10066.800811,-962.267725,842.705048
787.061038,-10510.924376,-444.123565,2068.457845
787.061359,-10955.047942,-370.102971,1838.629195
787.061680,-10584.944971,-444.123565,2298.286494
787.062000,-10510.924376,-518.144159,1838.629195
787.062321,-9844.739029,-666.185348,919.314598
787.062642,-9844.739029,-370.102971,383.047749
787.062962,-9252.574275,-370.102971,536.266849
787.063283,-9104.533087,-148.041188,383.047749
787.063604,-8808.450710,-370.102971,76.609550
787.063924,-9178.553681,74.020594,-612.876398
787.064245,-9252.574275,-370.102971,1072.533697
787.064566,-9770.718434,-222.061783,1685.410096
787.064886,-10066.800811,-444.123565,2298.286494
787.065207,-10140.821405,0.000000,2757.943793
787.065528,-10584.944971,0.000000,2757.943793
787.065848,-10066.800811,148.041188,2681.334243
787.066169,-10066.800811,222.061783,2298.286494
787.066490,-9474.636058,148.041188,1532.190996
787.066810,-9400.615463,0.000000,766.095498
787.067131,-8956.491898,0.000000,-153.219100
787.067452,-8734.430116,0.000000,-383.047749
787.067772,-8808.450710,-592.164754,-1225.752797
787.068093,-8660.409521,-1110.308913,-1991.848295
787.068414,-8956.491898,-1036.288319,-1455.581446
787.068735,-9844.739029,-962.267725,-1225.752797
787.069055,-9770.718434,-296.082377,-612.876398
787.069376,-10362.883188,-518.144159,383.047749
787.069697,-10436.903782,-370.102971,459.657299
787.070017,-10436.903782,-148.041188,383.047749
787.070338,-10066.800811,0.000000,383.047749
787.070659,-9696.697840,296.082377,536.266849
787.070979,-9474.636058,0.000000,612.876398
787.071300,-9104.533087,148.041188,383.047749
787.071621,-8808.450710,0.000000,0.000000
787.071941,-8808.450710,0.000000,0.000000
787.072262,-9400.615463,-296.082377,2374.896044
787.072583,-9474.636058,-296.082377,1302.362347
787.072903,-9770.718434,-444.123565,1762.019645
787.073224,-9992.780217,-222.061783,2298.286494
787.073545,-10436.903782,-222.061783,3140.991542
787.073865,-10288.862594,-222.061783,3370.820191
787.074186,-10288.862594,-370.102971,3753.867940
787.074507,-10066.800811,-148.041188,3447.429741
787.074827,-9770.718434,-148.041188,3064.381992
787.075148,-9474.636058,0.000000,1762.019645
787.075469,-9030.512492,0.000000,1685.410096
787.075790,-8808.450710,-518.144159,689.485948
787.076110,-8586.388927,-740.205942,383.047749
787.076431,-9030.512492,-1702.473667,229.828649
787.076752,-9030.512492,-1184.329507,0.000000
787.077072,-9030.512492,-1628.453072,306.438199
787.077393,-9770.718434,-1036.288319,612.876398
787.077714,-10214.842000,-1036.288319,1378.971896
787.078034,-10436.903782,-740.205942,1685.410096
787.078355,-10288.862594,-666.185348,1915.238745
787.078676,-10362.883188,-666.185348,1762.019645
787.078996,-9622.677246,-740.205942,1685.410096
787.079317,-8956.491898,-1110.308913,1225.752797
787.079638,-9104.533087,-222.061783,766.095498
787.079959,-8808.450710,0.000000,536.266849
787.080279,-8882.471304,-222.061783,383.047749
787.080600,-9030.512492,0.000000,-536.266849
787.080921,-9326.594869,0.000000,459.657299
787.081241,-9622.677246,148.041188,1072.533697
787.081562,-10066.800811,74.020594,1685.410096
787.081883,-10510.924376,296.082377,2451.505594
787.082203,-10584.944971,148.041188,2451.505594
787.082524,-10436.903782,222.061783,2528.115143
787.082845,-10288.862594,74.020594,1991.848295
787.083166,-9770.718434,0.000000,1378.971896
787.083486,-9252.574275,-296.082377,612.876398
787.083807,-9030.512492,0.000000,153.219100
787.084128,-9104.533087,-296.082377,-459.657299
787.084448,-8882.471304,-888.247130,-1072.533697
787.084769,-9400.615463,-370.102971,-459.657299
787.085090,-9252.574275,-1258.350101,-919.314598
787.085410,-9548.656652,-1554.432478,-766.095498
787.085731,-9992.780217,-1332.370696,-459.657299
787.086052,-10288.862594,-1110.308913,459.657299
787.086372,-10436.903782,-888.247130,689.485948
787.086693,-10214.842000,-592.164754,842.705048
787.087014,-10288.862594,-444.123565,919.314598
787.087335,-9548.656652,-666.185348,689.485948
787.087655,-8956.491898,-962.267725,0.000000
787.087976,-9104.533087,0.000000,689.485948
787.088297,-9178.553681,148.041188,612.876398
787.088617,-9030.512492,74.020594,536.266849
787.088938,-9326.594869,148.041188,153.219100
787.089259,-9474.636058,0.000000,1302.362347
787.089579,-9918.759623,148.041188,2451.505594
787.089900,-9918.759623,222.061783,2604.724693
787.090221,-10214.842000,370.102971,3524.039291
787.090541,-10436.903782,148.041188,3907.087040
787.090862,-10214.842000,74.020594,3753.867940
787.091183,-9992.780217,74.020594,3447.429741
787.091504,-9770.718434,148.041188,2604.724693
787.091824,-8660.409521,-148.041188,2604.724693
787.092145,-8660.409521,0.000000,1302.362347
787.092466,-8882.471304,-444.123565,919.314598
787.092786,-8512.368333,-444.123565,536.266849
787.093107,-8364.327145,-370.102971,-842.705048
787.093428,-9178.553681,-1258.350101,0.000000
787.093748,-9622.677246,-1628.453072,229.828649
787.094069,-9844.739029,-1184.329507,995.924147
787.094390,-10362.883188,-962.267725,1378.971896
787.094710,-10584.944971,-592.164754,1838.629195
787.095031,-10214.842000,-296.082377,1762.019645
787.095352,-10214.842000,-148.041188,1608.800546
787.095673,-9844.739029,-222.061783,1378.971896
787.095993,-9474.636058,74.020594,1302.362347
787.096314,-8808.450710,148.041188,76.609550
787.096635,-9104.533087,296.082377,0.000000
787.096955,-8808.450710,222.061783,0.000000
787.097276,-8660.409521,296.082377,1225.752797
787.097597,-9474.636058,222.061783,766.095498
787.097917,-9696.697840,148.041188,1225.752797
787.098238,-10214.842000,222.061783,1915.238745
787.098559,-10510.924376,222.061783,2451.505594
787.098879,-10362.883188,518.144159,2681.334243
787.099200,-10362.883188,370.102971,2374.896044
787.099521,-9770.718434,296.082377,2145.067394
787.099842,-9622.677246,222.061783,1532.190996
787.100162,-8882.471304,0.000000,1072.533697
787.100483,-9030.512492,0.000000,0.000000
787.100804,-8734.430116,-592.164754,0.000000
787.101124,-8660.409521,-740.205942,-995.924147
787.101445,-8882.471304,-1554.432478,-1608.800546
787.101766,-9400.615463,-1258.350101,-919.314598
787.102086,-9400.615463,-1258.350101,-459.657299
787.102407,-9918.759623,-1258.350101,0.000000
787.102728,-10066.800811,-1110.308913,612.876398
787.103048,-10510.924376,-962.267725,842.705048
787.103369,-10510.924376,-592.164754,1302.362347
787.103690,-10214.842000,-740.205942,919.314598
787.104011,-9696.697840,-518.144159,536.266849
787.104331,-9770.718434,-148.041188,306.438199
787.104652,-9252.574275,-370.102971,612.876398
787.104973,-9030.512492,-296.082377,766.095498
787.105293,-8882.471304,-222.061783,459.657299
787.105614,-9548.656652,-222.061783,76.609550
787.105935,-9474.636058,-296.082377,1685.410096
787.106255,-9548.656652,-370.102971,2298.286494
787.106576,-10066.800811,-370.102971,2757.943793
787.106897,-10214.842000,0.000000,3600.648841
787.107218,-10436.903782,-592.164754,3064.381992
787.107538,-10288.862594,-148.041188,3907.087040
787.107859,-10066.800811,0.000000,3524.039291
787.108180,-9918.759623,0.000000,2834.553343
787.108500,-9696.697840,-222.061783,1838.629195
787.108821,-9030.512492,-518.144159,1072.533697
787.109142,-9030.512492,-592.164754,536.266849
787.109462,-8660.409521,-814.226536,229.828649
787.109783,-8882.471304,-962.267725,995.924147
787.110104,-8882.471304,-962.267725,0.000000
787.110424,-9400.615463,-962.267725,0.000000
787.110745,-9992.780217,-962.267725,689.485948
787.111066,-10510.924376,-888.247130,1072.533697
787.111387,-10288.862594,-962.267725,1378.971896
787.111707,-10436.903782,-888.247130,1608.800546
787.112028,-10066.800811,-518.144159,1455.581446
787.112349,-9622.677246,-518.144159,919.314598
787.112669,-9474.636058,148.041188,536.266849
787.112990,-8956.491898,0.000000,-306.438199
787.113311,-8586.388927,74.020594,-612.876398
787.113631,-8808.450710,0.000000,-536.266849
787.113952,-8882.471304,666.185348,306.438199
787.114273,-9178.553681,0.000000,76.609550
787.114593,-9770.718434,222.061783,766.095498
787.114914,-10066.800811,222.061783,1762.019645
787.115235,-10584.944971,148.041188,2298.286494
787.115556,-10362.883188,222.061783,2451.505594
787.115876,-10362.883188,0.000000,2451.505594
787.116197,-9992.780217,148.041188,2221.676944
787.116518,-9400.615463,296.082377,1378.971896
787.116838,-8956.491898,0.000000,1149.143247
787.117159,-8660.409521,-74.020594,-229.828649
787.117480,-8512.368333,-296.082377,-306.438199
787.117800,-8586.388927,-592.164754,-612.876398
787.118121,-8586.388927,-2220.617826,153.219100
787.118442,-9326.594869,-1332.370696,-766.095498
787.118762,-9844.739029,-1184.329507,-153.219100
787.119083,-10140.821405,-1110.308913,612.876398
787.119404,-10510.924376,-888.247130,1225.752797
787.119725,-10510.924376,-888.247130,1455.581446
787.120045,-10436.903782,-296.082377,1149.143247
787.120366,-10066.800811,-666.185348,995.924147
787.120687,-9770.718434,0.000000,919.314598
787.121007,-9400.615463,-444.123565,1532.190996
787.121328,-9178.553681,0.000000,919.314598
787.121649,-8882.471304,-444.123565,842.705048
787.121969,-9030.512492,-296.082377,1072.533697
787.122290,-9474.636058,-296.082377,995.924147
787.122611,-9474.636058,-296.082377,1838.629195
787.122931,-9770.718434,-370.102971,2374.896044
787.123252,-9918.759623,0.000000,2834.553343
787.123573,-10436.903782,148.041188,3447.429741
787.123894,-10807.006753,222.061783,3677.258390
787.124214,-10288.862594,0.000000,3753.867940
787.124535,-10140.821405,-74.020594,2911.162892
787.124856,-9696.697840,-148.041188,2451.505594
787.125176,-9030.512492,-444.123565,1225.752797
787.125497,-8956.491898,-370.102971,995.924147
787.125818,-8808.450710,-518.144159,0.000000
787.126138,-8808.450710,-888.247130,-229.828649
787.126459,-8142.265362,-1776.494261,536.266849
787.126780,-9030.512492,-1332.370696,-306.438199
787.127101,-9770.718434,-1480.411884,229.828649
787.127421,-9992.780217,-1258.350101,536.266849
787.127742,-10362.883188,-962.267725,995.924147
787.128063,-10288.862594,-740.205942,1302.362347
787.128383,-10362.883188,-740.205942,1532.190996
787.128704,-10214.842000,-370.102971,1302.362347
787.129025,-9770.718434,-444.123565,612.876398
787.129345,-9474.636058,0.000000,0.000000
787.129666,-9030.512492,-518.144159,0.000000
787.129987,-8734.430116,-370.102971,-306.438199
787.130307,-8882.471304,-518.144159,0.000000
787.130628,-9548.656652,-592.164754,-919.314598
787.130949,-9474.636058,-148.041188,689.485948
787.131270,-9770.718434,-222.061783,1378.971896
787.131590,-10362.883188,-74.020594,2068.457845
787.131911,-10436.903782,0.000000,2451.505594
787.132232,-10436.903782,0.000000,2374.896044
787.132552,-10288.862594,74.020594,2451.505594
787.132873,-10066.800811,222.061783,2221.676944
787.133194,-9622.677246,222.061783,1608.800546
787.133514,-9400.615463,518.144159,1149.143247
787.133835,-9030.512492,148.041188,306.438199
787.134156,-8808.450710,0.000000,0.000000
787.134476,-8808.450710,-518.144159,-536.266849
787.134797,-8882.471304,-1258.350101,-995.924147
787.135118,-9326.594869,-740.205942,-689.485948
787.135439,-9548.656652,-740.205942,0.000000
787.135759,-10436.903782,-814.226536,612.876398
787.136080,-10436.903782,-444.123565,1072.533697
787.136401,-10732.986159,-518.144159,1225.752797
787.136721,-10436.903782,-370.102971,1455.581446
787.137042,-10140.821405,-518.144159,1608.800546
787.137363,-9770.718434,0.000000,1225.752797
787.137683,-9548.656652,-444.123565,1378.971896
787.138004,-9030.512492,0.000000,842.705048
787.138325,-9104.533087,0.000000,919.314598
787.138645,-8808.450710,0.000000,919.314598
787.138966,-8808.450710,0.000000,1915.238745
787.139287,-9326.594869,74.020594,1762.019645
787.139608,-9474.636058,0.000000,1915.238745
787.139928,-9844.739029,0.000000,2451.505594
787.140249,-10288.862594,74.020594,2911.162892
787.140570,-10436.903782,74.020594,3370.820191
787.140890,-10214.842000,222.061783,3217.601092
787.141211,-9844.739029,74.020594,2528.115143
787.141532,-9474.636058,222.061783,2451.505594
787.141852,-8586.388927,-148.041188,1608.800546
787.142173,-9030.512492,0.000000,995.924147
787.142494,-8512.368333,-666.185348,229.828649
787.142814,-8586.388927,-962.267725,-306.438199
787.143135,-8734.430116,-1406.391290,-76.609550
787.143456,-9104.533087,-1036.288319,-153.219100
787.143777,-9474.636058,-1258.350101,383.047749
787.144097,-9770.718434,-1110.308913,689.485948
787.144418,-10214.842000,-740.205942,1149.143247
787.144739,-10362.883188,-592.164754,995.924147
787.145059,-10436.903782,-444.123565,1532.190996
787.145380,-10214.842000,-518.144159,766.095498
787.145701,-9696.697840,-518.144159,766.095498
787.146021,-9474.636058,-370.102971,383.047749
787.146342,-9030.512492,0.000000,229.828649
787.146663,-9178.553681,0.000000,306.438199
787.146983,-9030.512492,0.000000,0.000000
787.147304,-9400.615463,148.041188,459.657299
787.147625,-9548.656652,0.000000,1225.752797
787.147946,-9992.780217,148.041188,1762.019645
787.148266,-10362.883188,444.123565,2451.505594
787.148587,-10362.883188,444.123565,2834.553343
787.148908,-10288.862594,370.102971,3140.991542
787.149228,-10288.862594,148.041188,3370.820191
787.149549,-10140.821405,740.205942,1915.238745
787.149870,-9548.656652,148.041188,1532.190996
787.150190,-9252.574275,0.000000,612.876398
787.150511,-8882.471304,-222.061783,76.609550
787.150832,-8586.388927,-1258.350101,-383.047749
787.151153,-9104.533087,-740.205942,-612.876398
787.151473,-9030.512492,-1184.329507,-766.095498
787.151794,-9326.594869,-1628.453072,-459.657299
787.152115,-9770.718434,-1776.494261,0.000000
787.152435,-10214.842000,-1554.432478,-536.266849
787.152756,-9918.759623,-1332.370696,612.876398
787.153077,-10362.883188,-814.226536,1302.362347
787.153397,-9918.759623,-666.185348,1378.971896
787.153718,-9696.697840,-888.247130,1302.362347
787.154039,-9474.636058,-444.123565,995.924147
787.154359,-9326.594869,-370.102971,995.924147
787.154680,-8882.471304,-444.123565,536.266849
787.155001,-8808.450710,0.000000,919.314598
787.155322,-9104.533087,-814.226536,1302.362347
787.155642,-8882.471304,-592.164754,919.314598
787.155963,-9474.636058,0.000000,1991.848295
787.156284,-9696.697840,74.020594,2298.286494
787.156604,-10066.800811,296.082377,2757.943793
787.156925,-10214.842000,888.247130,3217.601092
787.157246,-10288.862594,444.123565,3140.991542
787.157566,-9992.780217,592.164754,3064.381992
787.157887,-9992.780217,444.123565,2451.505594
787.158208,-9326.594869,592.164754,1991.848295
787.158528,-9326.594869,296.082377,1072.533697
787.158849,-8660.409521,0.000000,459.657299
787.159170,-8956.491898,0.000000,76.609550
787.159491,-8882.471304,-296.082377,0.000000
787.159811,-9474.636058,-1036.288319,-1149.143247
787.160132,-9474.636058,-962.267725,-153.219100
787.160453,-9770.718434,-1036.288319,229.828649
787.160773,-10214.842000,-962.267725,536.266849
787.161094,-10288.862594,-1184.329507,1302.362347
787.161415,-10807.006753,-592.164754,1685.410096
787.161735,-10510.924376,-370.102971,1532.190996
787.162056,-10140.821405,-592.164754,1149.143247
787.162377,-9918.759623,-370.102971,1072.533697
787.162697,-9474.636058,148.041188,766.095498
787.163018,-9252.574275,0.000000,306.438199
787.163339,-9030.512492,0.000000,0.000000
787.163660,-8882.471304,-148.041188,-153.219100
787.163980,-8808.450710,-592.164754,612.876398
787.164301,-9474.636058,0.000000,919.314598
787.164622,-9622.677246,0.000000,1225.752797
787.164942,-10066.800811,148.041188,2221.676944
787.165263,-10140.821405,370.102971,2451.505594
787.165584,-10288.862594,444.123565,2604.724693
787.165904,-10288.862594,222.061783,2451.505594
787.166225,-9770.718434,74.020594,1762.019645
787.166546,-9326.594869,0.000000,1149.143247
787.166866,-8734.430116,-370.102971,995.924147
787.167187,-8882.471304,-296.082377,76.609550
787.167508,-8808.450710,-592.164754,-306.438199
787.167829,-8660.409521,-666.185348,-766.095498
787.168149,-8882.471304,-888.247130,1455.581446
787.168470,-9178.553681,-1258.350101,-689.485948
787.168791,-9548.656652,-1258.350101,0.000000
787.169111,-10140.821405,-1184.329507,842.705048
787.169432,-10436.903782,-1184.329507,1225.752797
787.169753,-10510.924376,-1110.308913,995.924147
787.170073,-10288.862594,-962.267725,1302.362347
787.170394,-10140.821405,-740.205942,1532.190996
787.170715,-9696.697840,-370.102971,919.314598
787.171036,-9326.594869,0.000000,1455.581446
787.171356,-9326.594869,0.000000,919.314598
787.171677,-9252.574275,-222.061783,689.485948
787.171998,-9252.574275,-148.041188,536.266849
787.172318,-9104.533087,0.000000,459.657299
787.172639,-9844.739029,0.000000,1532.190996
787.172960,-9770.718434,0.000000,2451.505594
787.173280,-10288.862594,148.041188,2757.943793
787.173596,-10362.883188,74.020594,2911.162892
787.173917,-10214.842000,-296.082377,2987.772442
787.174237,-10066.800811,0.000000,3217.601092
787.174558,-9918.759623,0.000000,2451.505594
787.174879,-9474.636058,0.000000,1991.848295
787.175200,-8808.450710,-222.061783,842.705048
787.175520,-9030.512492,-296.082377,459.657299
787.175841,-8734.430116,-740.205942,153.219100
787.176162,-8660.409521,-962.267725,-383.047749
787.176483,-9104.533087,-1406.391290,-229.828649
787.176803,-9474.636058,-1110.308913,0.000000
787.177124,-9770.718434,-1110.308913,153.219100
787.177445,-10066.800811,-1110.308913,536.266849
787.177766,-10362.883188,-666.185348,1378.971896
787.178087,-10510.924376,-222.061783,1762.019645
787.178407,-9992.780217,-592.164754,1685.410096
787.178728,-9992.780217,-592.164754,1302.362347
787.179049,-9548.656652,-518.144159,1072.533697
787.179370,-9326.594869,-370.102971,76.609550
787.179690,-8586.388927,-148.041188,229.828649
787.180011,-8734.430116,0.000000,306.438199
787.180332,-8734.430116,0.000000,229.828649
787.180653,-9400.615463,296.082377,-612.876398
787.180973,-9474.636058,-222.061783,612.876398
787.181294,-9770.718434,222.061783,1302.362347
787.181615,-10658.965565,222.061783,2221.676944
787.181936,-10584.944971,666.185348,2451.505594
787.182257,-10362.883188,444.123565,2757.943793
787.182577,-10362.883188,296.082377,2681.334243
787.182898,-9770.718434,370.102971,2068.457845
787.183219,-9548.656652,148.041188,1532.190996
787.183540,-9178.553681,0.000000,842.705048
787.183860,-8882.471304,-296.082377,153.219100
787.184181,-8808.450710,-814.226536,-383.047749
787.184502,-8586.388927,-1184.329507,-919.314598
787.184823,-8882.471304,-1480.411884,-1608.800546
787.185143,-9622.677246,-1332.370696,-383.047749
787.185464,-9918.759623,-1332.370696,153.219100
787.185785,-10214.842000,-1184.329507,612.876398
787.186106,-10584.944971,-962.267725,919.314598
787.186427,-10510.924376,-814.226536,1608.800546
787.186747,-10658.965565,-222.061783,1685.410096
787.187068,-10140.821405,-444.123565,1302.362347
787.187389,-9622.677246,0.000000,1072.533697
787.187710,-8290.306550,-740.205942,1455.581446
787.188030,-9030.512492,-296.082377,919.314598
787.188351,-9178.553681,-296.082377,1302.362347
787.188672,-9030.512492,-296.082377,766.095498
787.188993,-9326.594869,-740.205942,842.705048
787.189313,-9474.636058,-148.041188,1915.238745
787.189634,-9918.759623,222.061783,2604.724693
787.189955,-9844.739029,296.082377,2911.162892
787.190276,-10436.903782,370.102971,3294.210641
787.190597,-9992.780217,0.000000,2834.553343
787.190917,-10288.862594,296.082377,2911.162892
787.191238,-9696.697840,0.000000,2604.724693
787.191559,-9474.636058,74.020594,1838.629195
787.191880,-9252.574275,222.061783,995.924147
787.192200,-8882.471304,-222.061783,76.609550
787.192521,-8808.450710,-740.205942,-459.657299
787.192842,-8660.409521,-148.041188,-612.876398
787.193163,-9030.512492,-444.123565,842.705048
787.193483,-9178.553681,-814.226536,-383.047749
787.193804,-9548.656652,-1184.329507,76.609550
787.194125,-9844.739029,-962.267725,459.657299
787.194446,-10214.842000,-888.247130,1072.533697
787.194766,-10066.800811,-592.164754,1532.190996
787.195087,-10066.800811,-740.205942,1149.143247
787.195408,-9844.739029,-444.123565,689.485948
787.195729,-9400.615463,-370.102971,536.266849
787.196050,-8882.471304,0.000000,689.485948
787.196370,-9030.512492,74.020594,0.000000
787.196691,-8882.471304,0.000000,-306.438199
787.197012,-9104.533087,74.020594,0.000000
787.197333,-9918.759623,0.000000,459.657299
787.197653,-9474.636058,296.082377,842.705048
787.197974,-9844.739029,296.082377,1915.238745
787.198295,-10288.862594,444.123565,2528.115143
787.198616,-10510.924376,370.102971,2911.162892
787.198936,-10214.842000,148.041188,3294.210641
787.199257,-10288.862594,148.041188,3447.429741
787.199578,-9696.697840,222.061783,2757.943793
787.199899,-9474.636058,74.020594,2298.286494
787.200220,-9622.677246,666.185348,2757.943793
787.200540,-8956.491898,-444.123565,919.314598
787.200861,-8660.409521,-962.267725,76.609550
787.201182,-8882.471304,-1776.494261,-612.876398
787.201503,-8956.491898,-1702.473667,-536.266849
787.201823,-9474.636058,-1776.494261,-306.438199
787.202144,-9474.636058,-1184.329507,76.609550
787.202465,-10214.842000,-1184.329507,919.314598
787.202786,-10510.924376,-1036.288319,1302.362347
787.203106,-10732.986159,-962.267725,1072.533697
787.203427,-10288.862594,-1036.288319,1685.410096
787.203748,-9992.780217,-666.185348,1915.238745
787.204069,-9844.739029,-592.164754,1685.410096
787.204390,-9104.533087,-592.164754,1838.629195
787.204710,-8586.388927,-370.102971,842.705048
787.205031,-9104.533087,-296.082377,229.828649
787.205352,-8882.471304,0.000000,689.485948
787.205673,-9178.553681,444.123565,766.095498
787.205993,-9474.636058,-222.061783,1378.971896
787.206314,-9844.739029,0.000000,1838.629195
787.206635,-10288.862594,148.041188,2298.286494
787.206956,-10658.965565,0.000000,3217.601092
787.207276,-10140.821405,0.000000,3294.210641
787.207597,-10658.965565,74.020594,2451.505594
787.207918,-9844.739029,0.000000,2145.067394
787.208239,-9474.636058,74.020594,1762.019645
787.208560,-9918.759623,74.020594,1532.190996
787.208880,-9030.512492,0.000000,-153.219100
787.209201,-8586.388927,-740.205942,-612.876398
787.209522,-8586.388927,-592.164754,-919.314598
787.209843,-9030.512492,-296.082377,-1608.800546
787.210163,-9474.636058,-1184.329507,-76.609550
787.210484,-9844.739029,-1110.308913,0.000000
787.210805,-9992.780217,-814.226536,766.095498
787.211126,-10658.965565,-666.185348,995.924147
787.211446,-10362.883188,-444.123565,1532.190996
787.211767,-10214.842000,-666.185348,766.095498
787.212088,-9844.739029,-296.082377,536.266849
787.212409,-9474.636058,-148.041188,612.876398
787.212730,-9474.636058,148.041188,1455.581446
787.213050,-9030.512492,-148.041188,0.000000
787.213371,-8660.409521,-296.082377,-153.219100
787.213692,-8956.491898,-148.041188,0.000000
787.214013,-9252.574275,-814.226536,229.828649
787.214333,-9400.615463,-222.061783,1532.190996
787.214654,-9992.780217,-222.061783,2145.067394
787.214975,-10066.800811,-370.102971,2911.162892
787.215296,-10436.903782,-296.082377,3140.991542
787.215616,-9770.718434,0.000000,3217.601092
787.215937,-10214.842000,222.061783,3140.991542
787.216258,-9548.656652,74.020594,2451.505594
787.216579,-9326.594869,296.082377,1762.019645
787.216899,-8438.347739,0.000000,153.219100
787.217220,-8956.491898,0.000000,229.828649
787.217541,-8512.368333,-888.247130,-536.266849
787.217862,-8734.430116,-888.247130,-612.876398
787.218183,-9030.512492,-1480.411884,-766.095498
787.218503,-9474.636058,-888.247130,-459.657299
787.218824,-9844.739029,-1036.288319,0.000000
787.219145,-10362.883188,-518.144159,536.266849
787.219466,-10658.965565,-296.082377,1378.971896
787.219786,-10510.924376,-148.041188,1915.238745
787.220107,-10584.944971,0.000000,2068.457845
787.220428,-10214.842000,0.000000,1302.362347
787.220749,-9844.739029,-296.082377,1149.143247
787.221069,-9622.677246,-148.041188,766.095498
787.221390,-9030.512492,-444.123565,689.485948
787.221711,-8586.388927,-370.102971,229.828649
787.222032,-9104.533087,-296.082377,229.828649
787.222353,-9252.574275,-1036.288319,-842.705048
787.222673,-9918.759623,0.000000,1685.410096
787.222994,-10066.800811,0.000000,2298.286494
787.223315,-10584.944971,370.102971,2911.162892
787.223636,-10732.986159,370.102971,3140.991542
787.223956,-10436.903782,74.020594,2911.162892
787.224277,-10140.821405,0.000000,2834.553343
787.224598,-9844.739029,0.000000,1838.629195
787.224919,-9252.574275,-296.082377,1532.190996
787.225239,-8808.450710,74.020594,153.219100
787.225560,-8808.450710,-592.164754,229.828649
787.225881,-8290.306550,-666.185348,-306.438199
787.226202,-8734.430116,-962.267725,-536.266849
787.226523,-9104.533087,-814.226536,0.000000
787.226843,-9326.594869,-1332.370696,153.219100
787.227164,-9918.759623,-1184.329507,383.047749
787.227485,-10140.821405,-888.247130,1225.752797
787.227806,-10288.862594,-592.164754,1532.190996
787.228126,-10288.862594,-296.082377,1915.238745
787.228447,-10214.842000,-370.102971,1455.581446
787.228768,-10066.800811,-74.020594,1455.581446
787.229089,-9252.574275,-222.061783,689.485948
787.229409,-9030.512492,0.000000,689.485948
787.229730,-8808.450710,-296.082377,0.000000
787.230051,-8956.491898,-370.102971,-306.438199
787.230372,-9104.533087,-518.144159,229.828649
787.230693,-9400.615463,0.000000,0.000000
787.231013,-9696.697840,148.041188,1149.143247
787.231334,-10214.842000,296.082377,1915.238745
787.231655,-10288.862594,444.123565,2298.286494
787.231976,-10584.944971,148.041188,2757.943793
787.232296,-10584.944971,0.000000,2451.505594
787.232617,-10362.883188,0.000000,2528.115143
787.232938,-9548.656652,-518.144159,1762.019645
787.233259,-9474.636058,-296.082377,689.485948
787.233579,-9030.512492,0.000000,-383.047749
787.233900,-9030.512492,-592.164754,-306.438199
787.234221,-8734.430116,-592.164754,-612.876398
787.234542,-8956.491898,-1036.288319,-919.314598
787.234863,-9326.594869,-1110.308913,-383.047749
787.235183,-9622.677246,-1332.370696,0.000000
787.235504,-10066.800811,-1480.411884,306.438199
787.235825,-10214.842000,-1628.453072,1149.143247
787.236146,-10584.944971,-1332.370696,1762.019645
787.236466,-10288.862594,-1332.370696,2145.067394
787.236787,-9992.780217,-518.144159,1685.410096
787.237108,-9622.677246,-592.164754,995.924147
787.237429,-9178.553681,-148.041188,842.705048
787.237749,-8734.430116,74.020594,1225.752797
787.238070,-8956.491898,0.000000,689.485948
787.238391,-9030.512492,0.000000,842.705048
787.238712,-9252.574275,-444.123565,1072.533697
787.239032,-9326.594869,-518.144159,1838.629195
787.239353,-9474.636058,-296.082377,1685.410096
787.239674,-9770.718434,0.000000,2451.505594
787.239995,-9918.759623,296.082377,2987.772442
787.240316,-10066.800811,74.020594,3370.820191
787.240636,-10510.924376,888.247130,3140.991542
787.240957,-10066.800811,-222.061783,2681.334243
787.241278,-9474.636058,0.000000,1991.848295
787.241599,-9252.574275,222.061783,1685.410096
787.241919,-8956.491898,74.020594,1762.019645
787.242240,-8808.450710,74.020594,306.438199
787.242561,-8734.430116,-222.061783,0.000000
787.242882,-8882.471304,-740.205942,-459.657299
787.243202,-9104.533087,-1184.329507,-612.876398
787.243523,-9918.759623,-814.226536,-536.266849
787.243844,-10214.842000,-814.226536,-76.609550
787.244165,-9918.759623,-592.164754,383.047749
787.244486,-10510.924376,-222.061783,459.657299
787.244806,-10584.944971,0.000000,1608.800546
787.245127,-10658.965565,0.000000,842.705048
787.245448,-10066.800811,74.020594,536.266849
787.245769,-9696.697840,-74.020594,76.609550
787.246089,-9326.594869,296.082377,-229.828649
787.246410,-8956.491898,0.000000,-306.438199
787.246731,-8956.491898,148.041188,-459.657299
787.247052,-9030.512492,-296.082377,-229.828649
787.247372,-9400.615463,148.041188,0.000000
787.247693,-9548.656652,222.061783,995.924147
787.248014,-10140.821405,148.041188,1532.190996
787.248335,-10658.965565,444.123565,2528.115143
787.248656,-10436.903782,148.041188,2911.162892
787.248976,-10881.027347,74.020594,2681.334243
787.249297,-9696.697840,-296.082377,2451.505594
787.249618,-9474.636058,-222.061783,2145.067394
787.249939,-9178.553681,-296.082377,1302.362347
787.250259,-8734.430116,0.000000,842.705048
787.250580,-8512.368333,-518.144159,383.047749
787.250901,-8512.368333,-666.185348,0.000000
787.251222,-8808.450710,-962.267725,-229.828649
787.251542,-9326.594869,-1184.329507,0.000000
787.251863,-9326.594869,-1480.411884,919.314598
787.252184,-9844.739029,-1332.370696,919.314598
787.252505,-10288.862594,-1480.411884,1455.581446
787.252826,-10214.842000,-1036.288319,1915.238745
787.253146,-9622.677246,148.041188,2987.772442
787.253467,-10066.800811,-444.123565,2068.457845
787.253788,-9770.718434,-296.082377,1762.019645
787.254109,-9696.697840,0.000000,1608.800546
787.254429,-9400.615463,74.020594,2911.162892
787.254750,-9178.553681,-74.020594,1685.410096
787.255071,-9178.553681,-148.041188,1532.190996
787.255392,-9400.615463,0.000000,1685.410096
787.255712,-9696.697840,0.000000,2221.676944
787.256033,-9548.656652,0.000000,2374.896044
787.256354,-10066.800811,296.082377,2451.505594
787.256675,-10214.842000,222.061783,3217.601092
787.256996,-10362.883188,0.000000,3064.381992
787.257316,-10881.027347,-296.082377,2145.067394
787.257637,-9992.780217,0.000000,2528.115143
787.257958,-9696.697840,-222.061783,1762.019645
787.258279,-9474.636058,-222.061783,1225.752797
787.258599,-9178.553681,-296.082377,842.705048
787.258920,-8882.471304,-444.123565,-76.609550
787.259241,-8660.409521,-666.185348,-383.047749
787.259562,-8956.491898,-888.247130,-842.705048
787.259882,-9030.512492,-1110.308913,-919.314598
787.260203,-9548.656652,-1036.288319,-459.657299
787.260524,-9844.739029,-1110.308913,0.000000
787.260845,-10140.821405,-888.247130,536.266849
787.261165,-10436.903782,-592.164754,689.485948
787.261486,-9844.739029,-814.226536,842.705048
787.261807,-9918.759623,0.000000,536.266849
787.262128,-9696.697840,0.000000,0.000000
787.262449,-9252.574275,222.061783,-536.266849
787.262769,-8734.430116,518.144159,-306.438199
787.263090,-8734.430116,444.123565,-536.266849
787.263411,-9104.533087,148.041188,-76.609550
787.263732,-9474.636058,148.041188,-153.219100
787.264052,-9474.636058,-296.082377,459.657299
787.264373,-9844.739029,-148.041188,1685.410096
787.264694,-10436.903782,0.000000,2528.115143
787.265015,-10510.924376,0.000000,2681.334243
787.265335,-10658.965565,0.000000,2987.772442
787.265656,-11399.171507,444.123565,2451.505594
787.265977,-10066.800811,0.000000,2757.943793
787.266298,-9548.656652,0.000000,2145.067394
787.266619,-9104.533087,-296.082377,1608.800546
787.266939,-8734.430116,-370.102971,1915.238745
787.267260,-8660.409521,-740.205942,229.828649
787.267581,-8882.471304,-1036.288319,76.609550
787.267902,-9252.574275,-1332.370696,0.000000
787.268222,-9474.636058,-1406.391290,0.000000
787.268543,-9918.759623,-1702.473667,153.219100
787.268864,-10066.800811,-1480.411884,766.095498
787.269185,-10436.903782,-1332.370696,1072.533697
787.269505,-10510.924376,-740.205942,1378.971896
787.269826,-10066.800811,-814.226536,766.095498
787.270147,-10066.800811,-148.041188,1302.362347
787.270468,-9622.677246,0.000000,1302.362347
787.270789,-9474.636058,296.082377,1455.581446
787.271109,-9474.636058,222.061783,1762.019645
787.271430,-9104.533087,444.123565,919.314598
787.271751,-9400.615463,0.000000,1149.143247
787.272072,-9104.533087,0.000000,1378.971896
787.272392,-9474.636058,0.000000,1838.629195
787.272713,-9474.636058,148.041188,2145.067394
787.273034,-9844.739029,148.041188,2145.067394
787.273355,-10140.821405,222.061783,2681.334243
787.273675,-10288.862594,-74.020594,2451.505594
787.273996,-10436.903782,148.041188,2298.286494
787.274317,-9918.759623,148.041188,2145.067394
787.274638,-9474.636058,0.000000,1455.581446
787.274959,-9104.533087,0.000000,995.924147
787.275279,-9030.512492,-296.082377,919.314598
787.275600,-8808.450710,-296.082377,-153.219100
787.275921,-8956.491898,-444.123565,-306.438199
787.276241,-8956.491898,-740.205942,-536.266849
787.276562,-9030.512492,-1036.288319,-459.657299
787.276883,-9474.636058,-1332.370696,-153.219100
787.277203,-9844.739029,-1036.288319,306.438199
787.277524,-10214.842000,-962.267725,995.924147
787.277844,-10140.821405,-740.205942,766.095498
787.278165,-9918.759623,-518.144159,2298.286494
787.278486,-10066.800811,-592.164754,995.924147
787.278806,-9844.739029,-222.061783,536.266849
787.279127,-9474.636058,74.020594,306.438199
787.279447,-9400.615463,74.020594,76.609550
787.279768,-8956.491898,-148.041188,306.438199
787.280089,-9326.594869,-296.082377,306.438199
787.280409,-9104.533087,-296.082377,536.266849
787.280730,-9474.636058,0.000000,766.095498
787.281050,-10214.842000,148.041188,1685.410096
787.281371,-10066.800811,74.020594,2298.286494
787.281692,-10214.842000,222.061783,2681.334243
787.282012,-10362.883188,370.102971,2834.553343
787.282333,-10214.842000,444.123565,3370.820191
787.282653,-10214.842000,222.061783,2604.724693
787.282974,-9696.697840,0.000000,2374.896044
787.283294,-9326.594869,0.000000,1149.143247
787.283615,-8956.491898,0.000000,383.047749
787.283936,-9030.512492,-740.205942,-153.219100
787.284256,-9178.553681,-740.205942,-383.047749
787.284577,-9252.574275,-1332.370696,-612.876398
787.284897,-9474.636058,-1702.473667,-689.485948
787.285218,-9622.677246,-1036.288319,229.828649
787.285539,-10288.862594,-1554.432478,612.876398
787.285859,-10288.862594,-1480.411884,1378.971896
787.286180,-10436.903782,-1184.329507,919.314598
787.286500,-10066.800811,-666.185348,1225.752797
787.286821,-9844.739029,-888.247130,995.924147
787.287142,-9548.656652,-370.102971,1455.581446
787.287462,-9770.718434,-296.082377,1072.533697
787.287783,-9104.533087,0.000000,766.095498
787.288103,-9030.512492,-148.041188,383.047749
787.288424,-8956.491898,-148.041188,919.314598
787.288745,-9104.533087,-592.164754,919.314598
787.289065,-9326.594869,-444.123565,1608.800546
787.289386,-9992.780217,-592.164754,1378.971896
787.289706,-9992.780217,148.041188,2298.286494
787.290027,-10214.842000,370.102971,2681.334243
787.290348,-10436.903782,444.123565,2834.553343
787.290668,-10288.862594,666.185348,1608.800546
787.290989,-10214.842000,592.164754,2221.676944
787.291309,-9548.656652,444.123565,1915.238745
787.291630,-9400.615463,74.020594,1302.362347
787.291950,-9104.533087,-222.061783,536.266849
787.292271,-8660.409521,-444.123565,0.000000
787.292592,-8882.471304,-592.164754,0.000000
787.292912,-8882.471304,-592.164754,0.000000
787.293233,-9400.615463,-962.267725,-306.438199
787.293553,-9030.512492,-740.205942,995.924147
787.293874,-9918.759623,-888.247130,842.705048
787.294195,-10288.862594,-444.123565,1149.143247
787.294515,-10658.965565,-222.061783,1225.752797
787.294836,-10288.862594,-370.102971,995.924147
787.295156,-10066.800811,-592.164754,1455.581446
787.295477,-9844.739029,-148.041188,766.095498
787.295798,-9474.636058,0.000000,689.485948
787.296118,-8956.491898,0.000000,229.828649
787.296439,-9474.636058,370.102971,459.657299
787.296759,-8956.491898,-370.102971,459.657299
787.297080,-8882.471304,-666.185348,612.876398
787.297401,-9326.594869,-666.185348,689.485948
787.297721,-10066.800811,-518.144159,1532.190996
787.298042,-10066.800811,-296.082377,2298.286494
787.298362,-10140.821405,148.041188,2528.115143
787.298683,-9992.780217,518.144159,3294.210641
787.299004,-10214.842000,296.082377,3140.991542
787.299324,-10140.821405,444.123565,2374.896044
787.299645,-9548.656652,296.082377,1608.800546
787.299965,-9178.553681,0.000000,689.485948
787.300286,-8660.409521,-296.082377,383.047749
787.300606,-9252.574275,-592.164754,-459.657299
787.300927,-8734.430116,-814.226536,-842.705048
787.301248,-8882.471304,-1258.350101,-1149.143247
787.301568,-9326.594869,-962.267725,-612.876398
787.301889,-10214.842000,-1406.391290,-306.438199
787.302209,-10140.821405,-1184.329507,459.657299
787.302530,-10584.944971,-1258.350101,919.314598
787.302851,-10362.883188,-1258.350101,766.095498
787.303171,-10140.821405,-1110.308913,2451.505594
787.303492,-9992.780217,-888.247130,1072.533697
787.303812,-9770.718434,-518.144159,1072.533697
787.304133,-9252.574275,0.000000,842.705048
787.304454,-9252.574275,0.000000,536.266849
787.304774,-9104.533087,0.000000,306.438199
787.305095,-9326.594869,-296.082377,919.314598
787.305415,-9326.594869,-888.247130,995.924147
787.305736,-9770.718434,-370.102971,1455.581446
787.306057,-8364.327145,-1110.308913,2068.457845
787.306377,-9992.780217,0.000000,2451.505594
787.306698,-9992.780217,296.082377,3140.991542
787.307018,-10584.944971,296.082377,3294.210641
787.307339,-10214.842000,444.123565,3983.696590
787.307660,-10066.800811,444.123565,2451.505594
787.307980,-9696.697840,444.123565,2145.067394
787.308301,-9400.615463,444.123565,1455.581446
787.308621,-8882.471304,148.041188,1225.752797
787.308942,-9178.553681,0.000000,306.438199
787.309262,-8808.450710,-592.164754,-459.657299
787.309583,-9104.533087,-666.185348,-306.438199
787.309904,-9326.594869,-666.185348,-153.219100
787.310224,-9622.677246,-1110.308913,1302.362347
787.310545,-9992.780217,-666.185348,612.876398
787.310865,-9918.759623,-370.102971,919.314598
787.311186,-10362.883188,-518.144159,1302.362347
787.311507,-10066.800811,-518.144159,3217.601092
787.311827,-9918.759623,-518.144159,1225.752797
787.312148,-9622.677246,-518.144159,995.924147
787.312468,-9326.594869,74.020594,459.657299
787.312789,-9030.512492,148.041188,306.438199
787.313110,-8882.471304,296.082377,0.000000
787.313430,-8956.491898,222.061783,229.828649
787.313751,-9104.533087,0.000000,689.485948
787.314071,-9474.636058,-222.061783,919.314598
787.314392,-9400.615463,-444.123565,1838.629195
787.314713,-10066.800811,74.020594,2374.896044
787.315033,-10436.903782,518.144159,2451.505594
787.315354,-10214.842000,518.144159,2987.772442
787.315674,-10362.883188,222.061783,2757.943793
787.315995,-9844.739029,518.144159,2451.505594
787.316316,-9326.594869,148.041188,1532.190996
787.316636,-9178.553681,148.041188,1149.143247
787.316957,-8956.491898,0.000000,153.219100
787.317277,-8956.491898,-444.123565,-536.266849
787.317598,-8808.450710,-888.247130,-766.095498
787.317918,-9474.636058,-1110.308913,-995.924147
787.318239,-9326.594869,-1184.329507,-536.266849
787.318560,-10214.842000,-1554.432478,-306.438199
787.318880,-10288.862594,-1258.350101,536.266849
787.319201,-10362.883188,-814.226536,995.924147
787.319521,-10436.903782,-666.185348,1455.581446
787.319842,-10214.842000,-814.226536,-153.219100
787.320163,-9696.697840,-888.247130,1455.581446
787.320483,-9622.677246,-666.185348,995.924147
787.320804,-9178.553681,-666.185348,1072.533697
787.321124,-8956.491898,-740.205942,919.314598
787.321445,-9400.615463,-296.082377,842.705048
787.321766,-9030.512492,-592.164754,1378.971896
787.322086,-9252.574275,-444.123565,1608.800546
787.322407,-9548.656652,-592.164754,2221.676944
787.322727,-10066.800811,-740.205942,2145.067394
787.323048,-10066.800811,-222.061783,2911.162892
787.323369,-10288.862594,-370.102971,3217.601092
787.323689,-9992.780217,0.000000,3370.820191
787.324010,-10214.842000,74.020594,2987.772442
787.324330,-9474.636058,0.000000,2834.553343
787.324651,-9400.615463,-148.041188,1838.629195
787.324972,-8956.491898,-370.102971,1302.362347
787.325292,-8808.450710,-592.164754,306.438199
787.325613,-7994.224174,-888.247130,459.657299
787.325933,-8586.388927,-888.247130,-306.438199
787.326254,-9326.594869,-814.226536,-459.657299
787.326575,-9400.615463,-814.226536,-306.438199
787.326895,-10658.965565,-814.226536,229.828649
787.327216,-10288.862594,-740.205942,919.314598
787.327536,-10584.944971,-814.226536,1302.362347
787.327857,-10658.965565,-518.144159,1685.410096
787.328177,-10436.903782,-74.020594,229.828649
787.328498,-10214.842000,-74.020594,536.266849
787.328819,-9474.636058,0.000000,306.438199
787.329139,-9104.533087,-148.041188,-306.438199
787.329460,-8956.491898,74.020594,-229.828649
787.329780,-9178.553681,-148.041188,-766.095498
787.330101,-9104.533087,0.000000,-306.438199
787.330422,-9400.615463,-296.082377,-153.219100
787.330742,-9696.697840,0.000000,766.095498
787.331063,-9844.739029,0.000000,1455.581446
787.331383,-10658.965565,370.102971,2221.676944
787.331704,-10584.944971,444.123565,2604.724693
787.332025,-10584.944971,740.205942,2911.162892
787.332345,-10288.862594,740.205942,2374.896044
787.332666,-9770.718434,740.205942,1915.238745
787.332986,-9400.615463,518.144159,1149.143247
787.333307,-8586.388927,74.020594,612.876398
787.333628,-8808.450710,-222.061783,-153.219100
787.333948,-8586.388927,-370.102971,-689.485948
787.334269,-8882.471304,-1110.308913,-995.924147
787.334589,-9030.512492,-1332.370696,-459.657299
787.334910,-9178.553681,-1628.453072,-536.266849
787.335231,-10288.862594,-1480.411884,919.314598
787.335551,-10436.903782,-1036.288319,1072.533697
787.335872,-10510.924376,-962.267725,1302.362347
787.336192,-10510.924376,-888.247130,1072.533697
787.336513,-9992.780217,-666.185348,1608.800546
787.336833,-9622.677246,-592.164754,1302.362347
787.337154,-9474.636058,-296.082377,919.314598
787.337475,-9030.512492,0.000000,766.095498
787.337795,-8956.491898,-222.061783,1149.143247
787.338116,-9178.553681,-222.061783,842.705048
787.338436,-9030.512492,0.000000,1762.019645
787.338757,-9770.718434,0.000000,1991.848295
787.339078,-9844.739029,74.020594,2298.286494
787.339398,-8438.347739,0.000000,3907.087040
787.339719,-10214.842000,-148.041188,3140.991542
787.340039,-10362.883188,0.000000,3447.429741
787.340360,-10658.965565,0.000000,3217.601092
787.340681,-10140.821405,74.020594,3294.210641
787.341001,-10140.821405,0.000000,2604.724693
787.341322,-9474.636058,74.020594,1991.848295
787.341642,-9326.594869,0.000000,1225.752797
787.341963,-8734.430116,-592.164754,689.485948
787.342284,-8660.409521,-666.185348,306.438199
787.342604,-8586.388927,-444.123565,306.438199
787.342925,-9030.512492,-962.267725,153.219100
787.343245,-9548.656652,-962.267725,306.438199
787.343566,-9252.574275,-1850.514855,459.657299
787.343887,-9992.780217,-444.123565,689.485948
787.344207,-10510.924376,-296.082377,1532.190996
787.344528,-10066.800811,-518.144159,1762.019645
787.344848,-9992.780217,222.061783,1762.019645
787.345169,-9918.759623,-740.205942,842.705048
787.345489,-9400.615463,0.000000,459.657299
787.345810,-9326.594869,-148.041188,536.266849
787.346131,-8882.471304,-148.041188,383.047749
787.346451,-9400.615463,-74.020594,0.000000
787.346772,-9104.533087,-296.082377,153.219100
787.347092,-9400.615463,-740.205942,306.438199
787.347413,-9622.677246,-148.041188,1455.581446
787.347734,-9474.636058,888.247130,1915.238745
787.348054,-9992.780217,0.000000,2221.676944
787.348375,-10288.862594,0.000000,2451.505594
787.348695,-10066.800811,222.061783,2145.067394
787.349016,-10066.800811,148.041188,2451.505594
787.349337,-9622.677246,518.144159,1608.800546
787.349657,-9400.615463,74.020594,689.485948
787.349978,-8882.471304,222.061783,0.000000
787.350298,-8808.450710,-296.082377,0.000000
787.350619,-8364.327145,-740.205942,-536.266849
787.350940,-9030.512492,-1332.370696,-1225.752797
787.351260,-9030.512492,-1480.411884,-1149.143247
787.351581,-9474.636058,-1480.411884,-919.314598
787.351901,-9474.636058,-1554.432478,-153.219100
787.352222,-10288.862594,-962.267725,153.219100
787.352543,-10436.903782,-666.185348,689.485948
787.352863,-10436.903782,-592.164754,1225.752797
787.353184,-10362.883188,-518.144159,-76.609550
787.353504,-9992.780217,-740.205942,1455.581446
787.353825,-9622.677246,-148.041188,1149.143247
787.354145,-9400.615463,-222.061783,1302.362347
787.354466,-8956.491898,0.000000,1225.752797
787.354787,-8808.450710,0.000000,1072.533697
787.355107,-9104.533087,0.000000,1685.410096
787.355428,-9326.594869,0.000000,1915.238745
787.355748,-9474.636058,0.000000,2221.676944
787.356069,-10066.800811,296.082377,3524.039291
787.356390,-10214.842000,0.000000,3447.429741
787.356710,-10436.903782,0.000000,3524.039291
787.357031,-10362.883188,0.000000,3217.601092
787.357351,-10436.903782,0.000000,3447.429741
787.357672,-9770.718434,222.061783,2681.334243
787.357993,-9474.636058,148.041188,2221.676944
787.358313,-9178.553681,74.020594,1532.190996
787.358634,-8956.491898,-296.082377,612.876398
787.358954,-9030.512492,-444.123565,76.609550
787.359275,-8734.430116,-962.267725,0.000000
787.359596,-9178.553681,-814.226536,0.000000
787.359916,-9474.636058,-1184.329507,153.219100
787.360237,-9770.718434,-1258.350101,0.000000
787.360557,-9844.739029,-518.144159,1302.362347
787.360878,-10436.903782,-296.082377,1532.190996
787.361199,-10288.862594,-74.020594,1378.971896
787.361519,-9918.759623,-148.041188,1225.752797
787.361840,-10066.800811,222.061783,842.705048
787.362160,-9474.636058,148.041188,383.047749
787.362481,-9178.553681,296.082377,0.000000
787.362802,-9030.512492,296.082377,0.000000
787.363122,-8956.491898,444.123565,-383.047749
787.363443,-9178.553681,74.020594,-76.609550
787.363763,-9400.615463,0.000000,306.438199
787.364084,-9844.739029,222.061783,1225.752797
787.364404,-9474.636058,148.041188,2451.505594
787.364725,-10214.842000,444.123565,2374.896044
787.365046,-10658.965565,444.123565,2757.943793
787.365366,-10362.883188,444.123565,2757.943793
787.365687,-9918.759623,518.144159,2145.067394
787.366007,-9474.636058,0.000000,1838.629195
787.366328,-9104.533087,0.000000,689.485948
787.366649,-9104.533087,-666.185348,383.047749
787.366969,-8660.409521,-1036.288319,-689.485948
787.367290,-8808.450710,-1332.370696,-1225.752797
787.367610,-8882.471304,-1776.494261,-1072.533697
787.367931,-9326.594869,-1776.494261,-842.705048
787.368252,-9548.656652,-1924.535449,-689.485948
787.368572,-10140.821405,-1776.494261,306.438199
787.368893,-10140.821405,-1554.432478,306.438199
787.369213,-10584.944971,-1258.350101,919.314598
787.369534,-10362.883188,-888.247130,1455.581446
787.369855,-10066.800811,-740.205942,2451.505594
787.370175,-9918.759623,-518.144159,1149.143247
787.370496,-9622.677246,-222.061783,1302.362347
787.370816,-9104.533087,0.000000,1455.581446
787.371137,-9326.594869,-370.102971,1149.143247
787.371458,-8660.409521,-740.205942,1225.752797
787.371778,-9252.574275,-444.123565,1378.971896
787.372099,-9326.594869,-444.123565,1915.238745
787.372419,-9622.677246,-444.123565,2298.286494
787.372740,-10955.047942,148.041188,2068.457845
787.373060,-10140.821405,-222.061783,2834.553343
787.373381,-10436.903782,0.000000,3524.039291
787.373702,-10214.842000,-444.123565,3447.429741
787.374022,-10362.883188,-370.102971,3600.648841
787.374343,-9992.780217,-444.123565,2681.334243
787.374663,-9622.677246,-592.164754,2145.067394
787.374984,-9030.512492,-592.164754,1302.362347
787.375305,-9030.512492,-592.164754,1225.752797
787.375625,-8364.327145,-962.267725,306.438199
787.375946,-8512.368333,-1110.308913,0.000000
787.376266,-8808.450710,-1332.370696,-383.047749
787.376587,-9474.636058,-888.247130,0.000000
787.376907,-10288.862594,-814.226536,0.000000
787.377228,-10140.821405,-666.185348,536.266849
787.377548,-10510.924376,-148.041188,919.314598
787.377869,-10362.883188,0.000000,995.924147
787.378190,-10362.883188,0.000000,689.485948
787.378510,-10066.800811,74.020594,842.705048
787.378831,-9770.718434,0.000000,-229.828649
787.379151,-9252.574275,296.082377,-766.095498
787.379472,-8660.409521,296.082377,-1072.533697
787.379792,-8068.244768,222.061783,-919.314598
787.380113,-9400.615463,-222.061783,-459.657299
787.380433,-8808.450710,0.000000,0.000000
787.380754,-9918.759623,0.000000,536.266849
787.381074,-9844.739029,592.164754,1685.410096
787.381395,-9918.759623,370.102971,1915.238745
787.381716,-10732.986159,222.061783,2757.943793
787.382036,-10140.821405,296.082377,2298.286494
787.382357,-9770.718434,0.000000,1991.848295
787.382677,-9474.636058,222.061783,1991.848295
787.382998,-9178.553681,222.061783,842.705048
787.383318,-9178.553681,740.205942,153.219100
787.383639,-9178.553681,148.041188,0.000000
787.383959,-7920.203579,0.000000,-459.657299
787.384280,-9400.615463,-296.082377,-383.047749
787.384601,-9400.615463,-518.144159,0.000000
787.384921,-9622.677246,-740.205942,536.266849
787.385242,-10066.800811,-740.205942,2451.505594
787.385562,-10584.944971,-592.164754,1991.848295
787.385883,-10362.883188,-666.185348,2298.286494
787.386203,-10510.924376,-1036.288319,2451.505594
787.386524,-9622.677246,-518.144159,2298.286494
787.386844,-9548.656652,-592.164754,1532.190996
787.387165,-9104.533087,-740.205942,1685.410096
787.387485,-8882.471304,-592.164754,1838.629195
787.387806,-8882.471304,-666.185348,1608.800546
787.388127,-9252.574275,-222.061783,2298.286494
787.388447,-9252.574275,-370.102971,1838.629195
787.388768,-9770.718434,-444.123565,2298.286494
787.389088,-10214.842000,-296.082377,3064.381992
787.389409,-10140.821405,0.000000,3830.477490
787.389729,-10436.903782,-444.123565,3447.429741
787.390050,-10436.903782,0.000000,3447.429741
787.390370,-10436.903782,0.000000,3447.429741
787.390691,-9918.759623,0.000000,2911.162892
787.391011,-9548.656652,296.082377,1915.238745
787.391332,-9400.615463,592.164754,1455.581446
787.391653,-9326.594869,148.041188,536.266849
787.391973,-8882.471304,-296.082377,0.000000
787.392294,-7994.224174,-444.123565,1072.533697
787.392614,-9104.533087,-1110.308913,-612.876398
787.392935,-9252.574275,-1036.288319,-306.438199
787.393255,-9474.636058,-1406.391290,-766.095498
787.393576,-10140.821405,-962.267725,-76.609550
787.393896,-9992.780217,-592.164754,536.266849
787.394217,-10584.944971,-592.164754,612.876398
787.394537,-10140.821405,-518.144159,689.485948
787.394858,-10140.821405,-222.061783,459.657299
787.395179,-9548.656652,-518.144159,919.314598
787.395499,-9326.594869,148.041188,-612.876398
787.395820,-8882.471304,148.041188,-612.876398
787.396140,-8808.450710,222.061783,-919.314598
787.396461,-8734.430116,74.020594,-1225.752797
787.396781,-9252.574275,-518.144159,-1225.752797
787.397102,-9400.615463,-222.061783,153.219100
787.397422,-9696.697840,0.000000,919.314598
787.397743,-10214.842000,0.000000,2068.457845
787.398064,-9992.780217,0.000000,2298.286494
787.398384,-10066.800811,0.000000,2145.067394
787.398705,-10066.800811,0.000000,2298.286494
787.399025,-9844.739029,-148.041188,2145.067394
787.399346,-9474.636058,0.000000,1762.019645
787.399666,-9030.512492,0.000000,1532.190996
787.399987,-8586.388927,-370.102971,459.657299
787.400307,-8882.471304,-888.247130,153.219100
787.400628,-8660.409521,-1480.411884,-153.219100
787.400948,-9104.533087,-1628.453072,0.000000
787.401269,-9326.594869,-1332.370696,383.047749
787.401590,-9696.697840,-1628.453072,536.266849
787.401910,-9992.780217,-1628.453072,1455.581446
787.402231,-10362.883188,-1332.370696,1302.362347
787.402551,-10658.965565,-888.247130,1762.019645
787.402872,-9918.759623,-814.226536,2451.505594
787.403192,-10066.800811,-518.144159,1838.629195
787.403513,-9918.759623,-370.102971,1915.238745
787.403833,-9844.739029,-222.061783,1532.190996
787.404154,-9178.553681,0.000000,1685.410096
787.404474,-9252.574275,0.000000,1608.800546
787.404795,-9252.574275,0.000000,1378.971896
787.405116,-9548.656652,-148.041188,1838.629195
787.405436,-9474.636058,-296.082377,2068.457845
787.405757,-9474.636058,-148.041188,2145.067394
787.406077,-9918.759623,148.041188,2451.505594
787.406398,-10140.821405,148.041188,2911.162892
787.406718,-10362.883188,222.061783,3140.991542
787.407039,-10066.800811,296.082377,3064.381992
787.407359,-9844.739029,296.082377,2451.505594
787.407680,-9696.697840,370.102971,1915.238745
787.408001,-9252.574275,0.000000,1149.143247
787.408321,-8956.491898,-148.041188,153.219100
787.408642,-8882.471304,0.000000,-153.219100
787.408962,-8586.388927,-518.144159,-919.314598
787.409283,-8512.368333,-1036.288319,-766.095498
787.409603,-9030.512492,-1406.391290,-536.266849
787.409924,-9400.615463,-1406.391290,-229.828649
787.410244,-10140.821405,-1332.370696,153.219100
787.410565,-10288.862594,-518.144159,689.485948
787.410885,-10436.903782,-296.082377,1149.143247
787.411206,-10288.862594,-518.144159,1302.362347
787.411527,-9548.656652,-518.144159,842.705048
787.411847,-9770.718434,222.061783,919.314598
787.412168,-9474.636058,222.061783,766.095498
787.412488,-9104.533087,592.164754,153.219100
787.412809,-8882.471304,0.000000,0.000000
787.413129,-8808.450710,0.000000,76.609550
787.413450,-8882.471304,0.000000,153.219100
787.413770,-9474.636058,-222.061783,919.314598
787.414091,-9918.759623,0.000000,2068.457845
787.414411,-10214.842000,0.000000,2604.724693
787.414732,-10436.903782,296.082377,3294.210641
787.415053,-10436.903782,666.185348,3140.991542
787.415373,-10584.944971,370.102971,3524.039291
787.415694,-9918.759623,888.247130,2451.505594
787.416014,-9622.677246,518.144159,2374.896044
787.416335,-9474.636058,370.102971,1149.143247
787.416655,-8734.430116,0.000000,612.876398
787.416976,-8734.430116,-444.123565,153.219100
787.417296,-9030.512492,-666.185348,-306.438199
787.417617,-9178.553681,-962.267725,-536.266849
787.417937,-9622.677246,-1332.370696,-229.828649
787.418258,-9770.718434,-1332.370696,0.000000
787.418579,-10362.883188,-1332.370696,0.000000
787.418899,-10140.821405,-1184.329507,1225.752797
787.419220,-10658.965565,-962.267725,1302.362347
787.419540,-10066.800811,-740.205942,1532.190996
787.419861,-10140.821405,-666.185348,1455.581446
787.420181,-9622.677246,-740.205942,995.924147
787.420502,-9252.574275,-592.164754,842.705048
787.420822,-8882.471304,-518.144159,1149.143247
787.421143,-8956.491898,-444.123565,1072.533697
787.421464,-9030.512492,-814.226536,842.705048
787.421784,-9400.615463,-814.226536,1072.533697
787.422105,-9474.636058,-962.267725,1302.362347
787.422425,-9548.656652,-740.205942,1762.019645
787.422746,-9474.636058,-888.247130,2374.896044
787.423066,-10066.800811,-296.082377,2528.115143
787.423387,-9918.759623,-222.061783,2528.115143
787.423707,-10214.842000,0.000000,2451.505594
787.424028,-9770.718434,370.102971,2145.067394
787.424348,-9400.615463,0.000000,1685.410096
787.424669,-8956.491898,-222.061783,995.924147
787.424990,-8956.491898,-296.082377,536.266849
787.425310,-8660.409521,-370.102971,76.609550
787.425631,-8734.430116,-518.144159,0.000000
787.425951,-9030.512492,-592.164754,-459.657299
787.426272,-9400.615463,-1110.308913,-153.219100
787.426592,-9622.677246,-1406.391290,0.000000
787.426913,-9844.739029,-1036.288319,383.047749
787.427233,-10436.903782,-888.247130,1149.143247
787.427554,-10510.924376,-592.164754,1532.190996
787.427874,-10584.944971,-296.082377,1608.800546
787.428195,-10436.903782,-666.185348,0.000000
787.428516,-9992.780217,0.000000,689.485948
787.428836,-9548.656652,74.020594,766.095498
787.429157,-9400.615463,296.082377,306.438199
787.429477,-9178.553681,370.102971,76.609550
787.429798,-8956.491898,370.102971,153.219100
787.430118,-9474.636058,74.020594,459.657299
787.430439,-9474.636058,296.082377,1072.533697
787.430759,-10066.800811,222.061783,1608.800546
787.431080,-9178.553681,74.020594,2221.676944
787.431400,-10658.965565,370.102971,2604.724693
787.431721,-10436.903782,296.082377,2757.943793
787.432042,-10510.924376,148.041188,2681.334243
787.432362,-10066.800811,0.000000,1532.190996
787.432683,-9474.636058,-222.061783,1608.800546
787.433003,-8882.471304,0.000000,766.095498
787.433324,-8808.450710,-444.123565,383.047749
787.433644,-8364.327145,-1036.288319,-76.609550
787.433965,-8660.409521,-1258.350101,-766.095498
787.434285,-8808.450710,-1480.411884,-766.095498
787.434606,-9252.574275,-1406.391290,-229.828649
787.434927,-9548.656652,-1702.473667,153.219100
787.435247,-9844.739029,-1110.308913,1378.971896
787.435568,-10140.821405,-1036.288319,1072.533697
787.435888,-9992.780217,-740.205942,1225.752797
787.436209,-9844.739029,-666.185348,1072.533697
787.436529,-9474.636058,888.247130,612.876398
787.436850,-9548.656652,-74.020594,1149.143247
787.437170,-9326.594869,0.000000,919.314598
787.437491,-9178.553681,74.020594,919.314598
787.437811,-9178.553681,0.000000,229.828649
787.438132,-9178.553681,0.000000,1149.143247
787.438453,-9400.615463,0.000000,1455.581446
787.438773,-9696.697840,0.000000,1838.629195
787.439094,-9918.759623,0.000000,2221.676944
787.439414,-9918.759623,0.000000,2681.334243
787.439735,-10436.903782,74.020594,2911.162892
787.440055,-10510.924376,74.020594,2834.553343
787.440376,-10362.883188,296.082377,2681.334243
787.440696,-9696.697840,1406.391290,995.924147
787.441017,-9770.718434,148.041188,2068.457845
787.441337,-9474.636058,296.082377,1685.410096
787.441658,-9400.615463,-222.061783,842.705048
787.441979,-8956.491898,-518.144159,536.266849
787.442299,-9400.615463,-962.267725,153.219100
787.442620,-9030.512492,-1184.329507,-459.657299
787.442940,-9400.615463,-1628.453072,0.000000
787.443261,-9622.677246,-1036.288319,0.000000
787.443581,-9622.677246,-962.267725,306.438199
787.443902,-9992.780217,-518.144159,1149.143247
787.444222,-10436.903782,-148.041188,1455.581446
787.444543,-10140.821405,-518.144159,1532.190996
787.444864,-9770.718434,-74.020594,536.266849
787.445184,-9548.656652,-370.102971,689.485948
787.445505,-9178.553681,0.000000,383.047749
787.445825,-8956.491898,74.020594,612.876398
787.446146,-8734.430116,74.020594,536.266849
787.446466,-8882.471304,0.000000,153.219100
787.446787,-9030.512492,-370.102971,229.828649
787.447107,-9474.636058,-296.082377,995.924147
787.447428,-9844.739029,-222.061783,1608.800546
787.447748,-10140.821405,148.041188,2451.505594
787.448069,-9992.780217,444.123565,2757.943793
787.448390,-10140.821405,222.061783,3370.820191
787.448710,-10066.800811,148.041188,2834.553343
787.449031,-10288.862594,-148.041188,1455.581446
787.449351,-9548.656652,518.144159,1225.752797
787.449672,-9252.574275,0.000000,306.438199
787.449992,-8660.409521,-222.061783,76.609550
787.450313,-8882.471304,-592.164754,-306.438199
787.450633,-9030.512492,-962.267725,-995.924147
787.450954,-9104.533087,-1110.308913,-1532.190996
787.451274,-9548.656652,-962.267725,-689.485948
787.451595,-9844.739029,-962.267725,76.609550
787.451916,-10658.965565,-814.226536,842.705048
787.452236,-10955.047942,-666.185348,766.095498
787.452557,-10436.903782,-518.144159,1302.362347
787.452877,-10436.903782,-888.247130,1149.143247
787.453198,-10732.986159,370.102971,1149.143247
787.453518,-9622.677246,-444.123565,919.314598
787.453839,-9474.636058,-222.061783,842.705048
787.454159,-9252.574275,0.000000,536.266849
787.454480,-9252.574275,0.000000,1072.533697
787.454800,-9326.594869,-296.082377,766.095498
787.455121,-9474.636058,-518.144159,919.314598
787.455442,-9548.656652,-296.082377,1915.238745
787.455762,-9844.739029,-222.061783,2221.676944
787.456083,-9992.780217,-370.102971,2834.553343
787.456403,-10140.821405,-222.061783,3370.820191
787.456724,-10214.842000,-444.123565,3140.991542
787.457044,-9992.780217,-222.061783,2911.162892
787.457365,-7846.182985,-814.226536,2298.286494
787.457685,-9178.553681,0.000000,2068.457845
787.458006,-9030.512492,-296.082377,1072.533697
787.458327,-8512.368333,-222.061783,689.485948
787.458647,-8882.471304,-518.144159,153.219100
787.458968,-8734.430116,-666.185348,-306.438199
787.459288,-9030.512492,-962.267725,-153.219100
787.459609,-9252.574275,-666.185348,-229.828649
787.459929,-9844.739029,-962.267725,229.828649
787.460250,-9770.718434,-666.185348,1302.362347
787.460570,-10436.903782,-222.061783,1225.752797
787.460891,-10510.924376,0.000000,1532.190996
787.461211,-10066.800811,-370.102971,1532.190996
787.461532,-9696.697840,-444.123565,2528.115143
787.461853,-9474.636058,-518.144159,842.705048
787.462173,-9400.615463,-444.123565,383.047749
787.462494,-9030.512492,-222.061783,459.657299
787.462814,-9178.553681,0.000000,0.000000
787.463135,-9474.636058,0.000000,612.876398
787.463455,-9474.636058,-518.144159,459.657299
787.463776,-9622.677246,-148.041188,1225.752797
787.464096,-10288.862594,-222.061783,2145.067394
787.464417,-10510.924376,0.000000,2145.067394
787.464737,-10436.903782,0.000000,2757.943793
787.465058,-10362.883188,370.102971,2757.943793
787.465379,-10140.821405,444.123565,2757.943793
787.465699,-9548.656652,0.000000,2911.162892
787.466020,-9400.615463,148.041188,1302.362347
787.466340,-9178.553681,-370.102971,229.828649
787.466661,-8734.430116,-222.061783,0.000000
787.466981,-8882.471304,-592.164754,-995.924147
787.467302,-8882.471304,-740.205942,-689.485948
787.467622,-9326.594869,-1184.329507,-919.314598
787.467943,-9474.636058,-1258.350101,-536.266849
787.468263,-9992.780217,-1406.391290,0.000000
787.468584,-10436.903782,-1258.350101,153.219100
787.468905,-10510.924376,-1184.329507,689.485948
787.469225,-10214.842000,-518.144159,1149.143247
787.469546,-9918.759623,-740.205942,842.705048
787.469866,-9400.615463,-592.164754,-689.485948
787.470187,-9474.636058,-962.267725,612.876398
787.470507,-8956.491898,-296.082377,612.876398
787.470828,-9030.512492,-518.144159,229.828649
787.471148,-8882.471304,-148.041188,1455.581446
787.471469,-9474.636058,-296.082377,1072.533697
787.471790,-9400.615463,0.000000,1838.629195
787.472110,-9770.718434,0.000000,1991.848295
787.472431,-9844.739029,0.000000,2451.505594
787.472751,-10214.842000,0.000000,3294.210641
787.473072,-10214.842000,-74.020594,2757.943793
787.473392,-10066.800811,0.000000,3140.991542
787.473713,-10214.842000,0.000000,2911.162892
787.474033,-9844.739029,222.061783,1915.238745
787.474354,-9474.636058,518.144159,1838.629195
787.474674,-9326.594869,0.000000,1378.971896
787.474995,-8956.491898,0.000000,766.095498
787.475316,-9030.512492,-592.164754,0.000000
787.475636,-8660.409521,-666.185348,0.000000
787.475957,-9326.594869,-666.185348,0.000000
787.476278,-9474.636058,-666.185348,306.438199
787.476599,-9992.780217,-1110.308913,766.095498
787.476919,-10140.821405,-592.164754,536.266849
787.477240,-10436.903782,-370.102971,1532.190996
787.477561,-10288.862594,-222.061783,1838.629195
787.477881,-10214.842000,-222.061783,1225.752797
787.478202,-9548.656652,0.000000,1072.533697
787.478523,-9474.636058,-148.041188,229.828649
787.478843,-9030.512492,222.061783,153.219100
787.479164,-8956.491898,296.082377,229.828649
787.479485,-8882.471304,222.061783,0.000000
787.479805,-9252.574275,296.082377,995.924147
787.480126,-9474.636058,-148.041188,536.266849
787.480447,-9622.677246,0.000000,1225.752797
787.480767,-9844.739029,0.000000,2145.067394
787.481088,-10362.883188,0.000000,2681.334243
787.481409,-10288.862594,148.041188,2987.772442
787.481729,-9992.780217,222.061783,2451.505594
787.482050,-9992.780217,74.020594,2298.286494
787.482371,-9252.574275,74.020594,3064.381992
787.482691,-9178.553681,-148.041188,919.314598
787.483012,-8660.409521,-148.041188,153.219100
787.483333,-8660.409521,-518.144159,-459.657299
787.483653,-8586.388927,-888.247130,-689.485948
787.483974,-8956.491898,-1184.329507,0.000000
787.484295,-9326.594869,-1554.432478,-459.657299
787.484615,-9844.739029,-1702.473667,-383.047749
787.484936,-9770.718434,-1036.288319,76.609550
787.485257,-9696.697840,0.000000,459.657299
787.485577,-10436.903782,-592.164754,995.924147
787.485898,-10436.903782,-666.185348,1149.143247
787.486219,-9992.780217,-518.144159,1149.143247
787.486539,-10066.800811,-518.144159,842.705048
787.486860,-9474.636058,-592.164754,1149.143247
787.487181,-9326.594869,-592.164754,995.924147
787.487501,-9326.594869,-370.102971,919.314598
787.487822,-9252.574275,-444.123565,919.314598
787.488143,-9178.553681,-222.061783,842.705048
787.488464,-9474.636058,-444.123565,1149.143247
787.488784,-9770.718434,-148.041188,1838.629195
787.489105,-10066.800811,-222.061783,2298.286494
787.489426,-10140.821405,0.000000,2374.896044
787.489746,-10436.903782,0.000000,3370.820191
787.490067,-10436.903782,-222.061783,3447.429741
787.490388,-10066.800811,0.000000,2911.162892
787.490708,-9770.718434,-148.041188,2145.067394
787.491029,-9252.574275,-222.061783,1838.629195
787.491350,-8882.471304,-370.102971,1455.581446
787.491670,-8808.450710,-592.164754,919.314598
787.491991,-8734.430116,-666.185348,229.828649
787.492312,-8882.471304,-1258.350101,383.047749
787.492632,-8956.491898,-1258.350101,0.000000
787.492953,-9400.615463,-1184.329507,76.609550
787.493274,-10140.821405,-1184.329507,536.266849
787.493594,-10436.903782,-888.247130,76.609550
787.493915,-10436.903782,-444.123565,766.095498
787.494236,-10288.862594,-296.082377,1149.143247
787.494556,-10066.800811,-370.102971,1225.752797
787.494877,-9844.739029,-148.041188,0.000000
787.495198,-9474.636058,-296.082377,536.266849
787.495518,-9252.574275,222.061783,229.828649
787.495839,-8882.471304,148.041188,76.609550
787.496160,-9030.512492,370.102971,76.609550
787.496480,-9252.574275,0.000000,153.219100
787.496801,-9474.636058,74.020594,766.095498
787.497122,-9770.718434,222.061783,1225.752797
787.497442,-9992.780217,222.061783,1838.629195
787.497763,-10214.842000,592.164754,1991.848295
787.498084,-10584.944971,444.123565,2528.115143
787.498404,-10362.883188,222.061783,2221.676944
787.498725,-10066.800811,296.082377,2145.067394
787.499046,-9622.677246,0.000000,1685.410096
787.499367,-9326.594869,0.000000,1072.533697
787.499687,-9104.533087,-148.041188,536.266849
787.500008,-8734.430116,-666.185348,76.609550
787.500329,-8808.450710,-740.205942,-536.266849
787.500649,-9252.574275,-1184.329507,-612.876398
787.500970,-9252.574275,-1628.453072,-306.438199
787.501291,-9474.636058,-1554.432478,-459.657299
787.501611,-9992.780217,-1110.308913,0.000000
787.501932,-10066.800811,-962.267725,229.828649
787.502253,-10658.965565,-592.164754,1455.581446
787.502573,-10436.903782,-592.164754,1225.752797
787.502894,-10214.842000,-148.041188,1072.533697
787.503215,-9770.718434,-518.144159,1149.143247
787.503535,-9326.594869,-444.123565,689.485948
787.503856,-9178.553681,0.000000,766.095498
787.504177,-9178.553681,-148.041188,612.876398
787.504497,-9104.533087,-148.041188,1302.362347
787.504818,-9474.636058,0.000000,995.924147
787.505139,-9474.636058,-148.041188,1838.629195
787.505459,-9770.718434,0.000000,2528.115143
787.505780,-10140.821405,0.000000,2911.162892
787.506101,-10732.986159,1036.288319,3294.210641
787.506421,-10140.821405,370.102971,3370.820191
787.506742,-10066.800811,0.000000,2834.553343
787.507063,-10066.800811,148.041188,2681.334243
787.507383,-9622.677246,0.000000,2987.772442
787.507704,-9400.615463,-296.082377,1302.362347
787.508025,-9178.553681,-444.123565,1072.533697
787.508345,-9030.512492,-814.226536,536.266849
787.508666,-8734.430116,-888.247130,-76.609550
787.508987,-9474.636058,-1110.308913,-459.657299
787.509307,-9104.533087,-1480.411884,-306.438199
787.509628,-9474.636058,-1184.329507,153.219100
787.509949,-9992.780217,-1036.288319,919.314598
787.510270,-9474.636058,-148.041188,1608.800546
787.510590,-10658.965565,-666.185348,1225.752797
787.510911,-10362.883188,-296.082377,1455.581446
787.511232,-10066.800811,-296.082377,842.705048
787.511552,-9622.677246,74.020594,306.438199
787.511873,-9400.615463,-444.123565,536.266849
787.512194,-9178.553681,-74.020594,459.657299
787.512514,-9178.553681,-148.041188,0.000000
787.512835,-8882.471304,-370.102971,-459.657299
787.513156,-9178.553681,0.000000,383.047749
787.513476,-9474.636058,-148.041188,383.047749
787.513797,-9918.759623,222.061783,1225.752797
787.514118,-10214.842000,148.041188,1991.848295
787.514438,-10955.047942,0.000000,3753.867940
787.514759,-10510.924376,444.123565,2374.896044
787.515080,-10510.924376,518.144159,2451.505594
787.515400,-9918.759623,370.102971,2374.896044
787.515721,-9548.656652,444.123565,1608.800546
787.516042,-8956.491898,74.020594,995.924147
787.516362,-8882.471304,0.000000,459.657299
787.516683,-8586.388927,-296.082377,0.000000
787.517004,-9104.533087,-666.185348,-842.705048
787.517324,-9030.512492,-888.247130,0.000000
787.517645,-9326.594869,-1332.370696,-536.266849
787.517966,-9770.718434,-1184.329507,-229.828649
787.518286,-9992.780217,-814.226536,383.047749
787.518607,-10510.924376,-1702.473667,-1762.019645
787.518928,-10288.862594,-592.164754,1225.752797
787.519248,-10066.800811,-518.144159,1378.971896
787.519569,-9992.780217,-370.102971,1455.581446
787.519890,-9696.697840,-296.082377,1378.971896
787.520210,-9400.615463,-370.102971,1072.533697
787.520531,-9178.553681,-222.061783,1149.143247
787.520852,-9030.512492,-296.082377,919.314598
787.521172,-8808.450710,0.000000,1302.362347
787.521493,-9770.718434,148.041188,1149.143247
787.521814,-9400.615463,-148.041188,1532.190996
787.522135,-9844.739029,0.000000,1838.629195
787.522455,-9918.759623,-74.020594,2298.286494
787.522776,-9992.780217,666.185348,2374.896044
787.523097,-10362.883188,-148.041188,2987.772442
787.523417,-10214.842000,0.000000,2757.943793
787.523738,-9992.780217,0.000000,2528.115143
787.524059,-9770.718434,222.061783,1685.410096
787.524379,-9548.656652,0.000000,1762.019645
787.524700,-9030.512492,0.000000,1302.362347
787.525021,-9178.553681,-518.144159,536.266849
787.525341,-8660.409521,-592.164754,-153.219100
787.525662,-8734.430116,-814.226536,153.219100
787.525983,-9252.574275,-962.267725,-229.828649
787.526303,-9326.594869,-962.267725,0.000000
787.526624,-9918.759623,-740.205942,689.485948
787.526945,-9918.759623,-444.123565,2068.457845
787.527265,-10362.883188,-370.102971,1225.752797
787.527586,-10510.924376,-222.061783,1302.362347
787.527907,-10140.821405,74.020594,1302.362347
787.528227,-9918.759623,-148.041188,1149.143247
787.528548,-9548.656652,-148.041188,689.485948
787.528869,-8956.491898,-296.082377,0.000000
787.529189,-8956.491898,-444.123565,0.000000
787.529510,-9030.512492,0.000000,306.438199
787.529831,-8956.491898,0.000000,612.876398
787.530151,-9474.636058,-444.123565,995.924147
787.530472,-9696.697840,-296.082377,1762.019645
787.530793,-10066.800811,-148.041188,2528.115143
787.531113,-10584.944971,888.247130,1455.581446
787.531434,-10288.862594,74.020594,2834.553343
787.531755,-9918.759623,296.082377,2528.115143
787.532075,-9622.677246,444.123565,1991.848295
787.532396,-9622.677246,518.144159,2068.457845
787.532717,-9252.574275,222.061783,1225.752797
787.533038,-9104.533087,-148.041188,383.047749
787.533358,-8808.450710,-370.102971,-612.876398
787.533679,-8882.471304,-888.247130,-995.924147
787.534000,-9030.512492,-1184.329507,-1455.581446
787.534320,-9326.594869,-1258.350101,-995.924147
787.534641,-9696.697840,-1258.350101,-612.876398
787.534962,-10140.821405,-1332.370696,-306.438199
787.535282,-9992.780217,-814.226536,1762.019645
787.535603,-10362.883188,-814.226536,1225.752797
787.535924,-10288.862594,-666.185348,1302.362347
787.536244,-10214.842000,-814.226536,1685.410096
787.536565,-9844.739029,-740.205942,1072.533697
787.536886,-9622.677246,-592.164754,1149.143247
787.537206,-9178.553681,-296.082377,995.924147
787.537527,-9178.553681,-518.144159,1072.533697
787.537848,-9030.512492,-666.185348,919.314598
787.538168,-8808.450710,-666.185348,1915.238745
787.538489,-9400.615463,-592.164754,1608.800546
787.538810,-9770.718434,-74.020594,2068.457845
787.539130,-10066.800811,0.000000,2451.505594
787.539451,-10214.842000,-148.041188,2451.505594
787.539772,-10140.821405,222.061783,2987.772442
787.540092,-10510.924376,296.082377,3217.601092
787.540413,-10288.862594,148.041188,2681.334243
787.540734,-9770.718434,222.061783,2298.286494
787.541054,-9400.615463,-222.061783,1378.971896
787.541375,-9030.512492,-148.041188,306.438199
787.541696,-8808.450710,-296.082377,0.000000
787.542016,-8734.430116,-518.144159,-383.047749
787.542337,-8660.409521,-1184.329507,-1072.533697
787.542658,-9252.574275,-1110.308913,-536.266849
787.542978,-9770.718434,-1406.391290,76.609550
787.543299,-10140.821405,-1110.308913,229.828649
787.543620,-10510.924376,0.000000,1149.143247
787.543940,-10658.965565,-518.144159,1762.019645
787.544261,-10362.883188,-370.102971,1685.410096
787.544582,-10066.800811,-518.144159,1225.752797
787.544903,-9474.636058,-148.041188,1072.533697
787.545223,-8808.450710,0.000000,612.876398
787.545544,-9030.512492,222.061783,229.828649
787.545865,-8586.388927,0.000000,229.828649
787.546185,-8808.450710,370.102971,0.000000
787.546506,-9178.553681,74.020594,306.438199
787.546827,-9474.636058,0.000000,766.095498
787.547147,-9770.718434,74.020594,1991.848295
787.547468,-10214.842000,370.102971,2451.505594
787.547789,-10214.842000,222.061783,3140.991542
787.548109,-10732.986159,148.041188,3294.210641
787.548430,-10214.842000,222.061783,3217.601092
787.548751,-9770.718434,370.102971,2374.896044
787.549071,-9400.615463,222.061783,1838.629195
787.549392,-9030.512492,222.061783,-76.609550
787.549713,-8882.471304,0.000000,229.828649
787.550033,-8586.388927,-518.144159,-536.266849
787.550354,-8882.471304,-888.247130,-1149.143247
787.550675,-8956.491898,-1036.288319,-612.876398
787.550995,-9030.512492,-1406.391290,-536.266849
787.551316,-9622.677246,-1332.370696,0.000000
787.551637,-10288.862594,-814.226536,306.438199
787.551957,-10510.924376,-740.205942,919.314598
787.552278,-10436.903782,-592.164754,1378.971896
787.552599,-10436.903782,-962.267725,1762.019645
787.552919,-10066.800811,-666.185348,1149.143247
787.553240,-9770.718434,-666.185348,995.924147
787.553561,-9400.615463,0.000000,1072.533697
787.553881,-8808.450710,-592.164754,459.657299
787.554202,-8882.471304,-222.061783,842.705048
787.554523,-9252.574275,-592.164754,766.095498
787.554843,-9326.594869,-370.102971,766.095498
787.555164,-9622.677246,-74.020594,1302.362347
787.555485,-10140.821405,0.000000,1915.238745
787.555806,-10362.883188,74.020594,2145.067394
787.556126,-10436.903782,0.000000,2451.505594
787.556447,-10362.883188,0.000000,3064.381992
787.556768,-10510.924376,222.061783,2987.772442
787.557088,-9992.780217,0.000000,2528.115143
787.557409,-9400.615463,-148.041188,1378.971896
787.557730,-9178.553681,-370.102971,689.485948
787.558050,-8734.430116,-666.185348,383.047749
787.558371,-8586.388927,-740.205942,-229.828649
787.558692,-8586.388927,-888.247130,-229.828649
787.559012,-9104.533087,-1258.350101,-229.828649
787.559333,-9252.574275,-1406.391290,0.000000
787.559654,-9622.677246,-740.205942,459.657299
787.559974,-10066.800811,-1184.329507,1072.533697
787.560295,-10214.842000,-962.267725,1302.362347
787.560616,-10214.842000,-444.123565,1685.410096
787.560936,-10140.821405,-444.123565,842.705048
787.561257,-9770.718434,-222.061783,1149.143247
787.561578,-9400.615463,-444.123565,689.485948
787.561898,-9178.553681,-296.082377,459.657299
787.562219,-8734.430116,-74.020594,536.266849
787.562540,-9104.533087,-370.102971,459.657299
787.562860,-9030.512492,-592.164754,229.828649
787.563181,-9474.636058,-296.082377,995.924147
787.563502,-9844.739029,0.000000,1608.800546
787.563822,-10066.800811,370.102971,3524.039291
787.564143,-10066.800811,444.123565,2604.724693
787.564464,-11029.068536,740.205942,2834.553343
787.564784,-10140.821405,666.185348,2987.772442
787.565105,-10362.883188,444.123565,2451.505594
787.565426,-9696.697840,592.164754,2528.115143
787.565746,-9400.615463,740.205942,1608.800546
787.566067,-9030.512492,518.144159,919.314598
787.566388,-8808.450710,222.061783,536.266849
787.566708,-8956.491898,0.000000,76.609550
787.567029,-9030.512492,-370.102971,-306.438199
787.567350,-9178.553681,-888.247130,-612.876398
787.567671,-9474.636058,-1184.329507,-306.438199
787.567991,-9770.718434,-296.082377,842.705048
787.568312,-10066.800811,-1110.308913,919.314598
787.568633,-10140.821405,-740.205942,1149.143247
787.568953,-10584.944971,-740.205942,1608.800546
787.569274,-10362.883188,-444.123565,1915.238745
787.569595,-9992.780217,-370.102971,2068.457845
787.569915,-9474.636058,-222.061783,1532.190996
787.570236,-9474.636058,222.061783,1685.410096
787.570557,-9104.533087,148.041188,1149.143247
787.570877,-9030.512492,148.041188,1072.533697
787.571198,-9622.677246,1184.329507,536.266849
787.571519,-9104.533087,0.000000,1072.533697
787.571839,-9326.594869,0.000000,1302.362347
787.572160,-9474.636058,0.000000,1915.238745
787.572481,-10066.800811,74.020594,2528.115143
787.572801,-10436.903782,148.041188,2604.724693
787.573122,-10436.903782,148.041188,2451.505594
787.573443,-10066.800811,0.000000,2451.505594
787.573763,-9696.697840,0.000000,1838.629195
787.574084,-9548.656652,0.000000,1455.581446
787.574405,-9104.533087,-296.082377,536.266849
787.574725,-9030.512492,-518.144159,76.609550
787.575046,-8808.450710,-740.205942,-229.828649
787.575367,-8438.347739,-1184.329507,-842.705048
787.575687,-9252.574275,-1332.370696,-842.705048
787.576008,-9474.636058,-1258.350101,-612.876398
787.576329,-9770.718434,-1184.329507,0.000000
787.576649,-10214.842000,-1258.350101,306.438199
787.576970,-10436.903782,-1036.288319,1072.533697
787.577291,-10510.924376,-888.247130,1532.190996
787.577612,-10288.862594,-296.082377,1225.752797
787.577932,-10140.821405,-296.082377,919.314598
787.578253,-10066.800811,740.205942,459.657299
787.578574,-9400.615463,0.000000,459.657299
787.578895,-9104.533087,0.000000,153.219100
787.579215,-9104.533087,0.000000,153.219100
787.579536,-8956.491898,-518.144159,153.219100
787.579857,-9400.615463,-814.226536,842.705048
787.580178,-9622.677246,-222.061783,1302.362347
787.580498,-10066.800811,-148.041188,1991.848295
787.580819,-10140.821405,0.000000,2757.943793
787.581140,-10362.883188,0.000000,2987.772442
787.581461,-10362.883188,-296.082377,3064.381992
787.581782,-9844.739029,0.000000,2757.943793
787.582102,-9770.718434,-148.041188,2298.286494
787.582423,-9252.574275,0.000000,1532.190996
787.582744,-9178.553681,0.000000,919.314598
787.583065,-9474.636058,148.041188,76.609550
787.583385,-8586.388927,-888.247130,-536.266849
787.583706,-8734.430116,-1332.370696,-459.657299
787.584027,-8808.450710,-1628.453072,-689.485948
787.584348,-9326.594869,-1924.535449,-536.266849
787.584668,-9474.636058,-1998.556043,0.000000
787.584989,-9770.718434,-1554.432478,536.266849
787.585310,-10362.883188,-1110.308913,766.095498
787.585631,-10214.842000,-1258.350101,1685.410096
787.585952,-10140.821405,-814.226536,2221.676944
787.586272,-9918.759623,-666.185348,1608.800546
787.586593,-9622.677246,-74.020594,1225.752797
787.586914,-9474.636058,0.000000,1378.971896
787.587235,-9326.594869,222.061783,1149.143247
787.587555,-9326.594869,0.000000,919.314598
787.587876,-9252.574275,74.020594,919.314598
787.588197,-9252.574275,0.000000,1072.533697
787.588518,-9548.656652,74.020594,2068.457845
787.588838,-10066.800811,222.061783,2221.676944
787.589159,-10140.821405,592.164754,2451.505594
787.589480,-10732.986159,888.247130,2757.943793
787.589801,-10658.965565,666.185348,2604.724693
787.590122,-10510.924376,592.164754,2604.724693
787.590442,-9844.739029,444.123565,2145.067394
787.590763,-9622.677246,370.102971,1608.800546
787.591084,-9104.533087,0.000000,842.705048
787.591405,-9104.533087,74.020594,153.219100
787.591725,-9030.512492,-592.164754,536.266849
787.592046,-8512.368333,-666.185348,-153.219100
787.592367,-8956.491898,-962.267725,-383.047749
787.592688,-9326.594869,-888.247130,-306.438199
787.593008,-9770.718434,-740.205942,1915.238745
787.593329,-9844.739029,-592.164754,689.485948
787.593650,-10362.883188,-296.082377,1532.190996
787.593971,-10288.862594,-222.061783,1532.190996
787.594292,-10066.800811,-222.061783,995.924147
787.594612,-9474.636058,0.000000,1608.800546
787.594933,-9622.677246,-222.061783,1455.581446
787.595254,-9030.512492,0.000000,766.095498
787.595575,-8734.430116,-74.020594,0.000000
787.595895,-8438.347739,0.000000,383.047749
787.596216,-9104.533087,74.020594,766.095498
787.596537,-9030.512492,-148.041188,919.314598
787.596858,-9622.677246,0.000000,1532.190996
787.597178,-9696.697840,74.020594,2451.505594
787.597499,-9696.697840,370.102971,1378.971896
787.597820,-10140.821405,222.061783,3064.381992
787.598141,-10214.842000,296.082377,3370.820191
787.598462,-10066.800811,296.082377,2757.943793
787.598782,-9770.718434,518.144159,2221.676944
787.599103,-9400.615463,0.000000,1685.410096
787.599424,-9326.594869,0.000000,919.314598
787.599745,-9104.533087,0.000000,229.828649
787.600065,-8956.491898,-666.185348,-612.876398
787.600386,-8734.430116,-814.226536,-459.657299
787.600707,-9400.615463,-1554.432478,-919.314598
787.601028,-9400.615463,-1702.473667,-689.485948
787.601348,-9844.739029,-1702.473667,-153.219100
787.601669,-9696.697840,-592.164754,1608.800546
787.601990,-10584.944971,-1258.350101,766.095498
787.602311,-10584.944971,-814.226536,842.705048
787.602632,-10436.903782,-740.205942,1149.143247
787.602952,-10066.800811,-370.102971,919.314598
787.603273,-9770.718434,-296.082377,919.314598
787.603594,-9474.636058,-296.082377,842.705048
787.603915,-9104.533087,-296.082377,766.095498
787.604235,-9030.512492,-666.185348,459.657299
787.604556,-9252.574275,-444.123565,1149.143247
787.604877,-9252.574275,-740.205942,995.924147
787.605198,-9474.636058,-518.144159,2068.457845
787.605518,-9770.718434,-370.102971,2298.286494
787.605839,-9696.697840,0.000000,3217.601092
787.606160,-10214.842000,74.020594,3140.991542
787.606481,-10140.821405,74.020594,3294.210641
787.606802,-10066.800811,-222.061783,2911.162892
787.607122,-9844.739029,-74.020594,2528.115143
787.607443,-9252.574275,-222.061783,2374.896044
787.607764,-9030.512492,-148.041188,1685.410096
787.608085,-8882.471304,-370.102971,612.876398
787.608405,-8364.327145,-740.205942,153.219100
787.608726,-8882.471304,-814.226536,-459.657299
787.609047,-8882.471304,-1332.370696,-536.266849
787.609368,-9104.533087,-1332.370696,76.609550
787.609688,-9696.697840,-1258.350101,306.438199
787.610009,-9918.759623,-592.164754,1532.190996
787.610330,-10362.883188,-518.144159,1685.410096
787.610651,-10584.944971,-444.123565,1685.410096
787.610972,-10362.883188,-592.164754,1991.848295
787.611292,-10066.800811,-666.185348,1378.971896
787.611613,-9918.759623,-222.061783,689.485948
787.611934,-9400.615463,-222.061783,229.828649
787.612255,-9030.512492,0.000000,153.219100
787.612575,-9178.553681,-148.041188,-229.828649
787.612896,-9400.615463,-148.041188,-153.219100
787.613217,-9548.656652,74.020594,383.047749
787.613538,-9622.677246,148.041188,842.705048
787.613858,-10436.903782,0.000000,1991.848295
787.614179,-10288.862594,222.061783,1838.629195
787.614500,-10732.986159,148.041188,2528.115143
787.614821,-10288.862594,370.102971,2451.505594
787.615142,-10288.862594,148.041188,2145.067394
787.615462,-9696.697840,296.082377,1762.019645
787.615783,-9474.636058,148.041188,842.705048
787.616104,-8956.491898,148.041188,459.657299
787.616425,-8956.491898,-74.020594,-612.876398
787.616745,-8808.450710,-296.082377,-383.047749
787.617066,-8956.491898,-592.164754,-919.314598
787.617387,-9104.533087,-1110.308913,-919.314598
787.617708,-9474.636058,-1110.308913,-306.438199
787.618028,-9696.697840,-1184.329507,383.047749
787.618349,-10140.821405,-592.164754,612.876398
787.618670,-10214.842000,-888.247130,919.314598
787.618991,-9844.739029,-370.102971,1149.143247
787.619311,-9770.718434,-444.123565,1072.533697
787.619632,-9400.615463,-370.102971,1149.143247
787.619953,-9400.615463,-370.102971,1149.143247
787.620274,-9030.512492,74.020594,1149.143247
787.620595,-9178.553681,0.000000,1225.752797
787.620915,-8956.491898,0.000000,919.314598
787.621236,-8956.491898,-148.041188,1149.143247
787.621557,-9400.615463,-296.082377,1762.019645
787.621878,-9770.718434,0.000000,2068.457845
787.622198,-9992.780217,0.000000,2451.505594
787.622519,-9844.739029,666.185348,4519.963438
787.622840,-10436.903782,148.041188,2604.724693
787.623161,-10288.862594,148.041188,3447.429741
787.623481,-10066.800811,222.061783,2911.162892
787.623802,-10066.800811,222.061783,2145.067394
787.624123,-9474.636058,74.020594,1991.848295
787.624444,-9178.553681,0.000000,1072.533697
787.624765,-8808.450710,-370.102971,689.485948
787.625085,-8882.471304,-444.123565,76.609550
787.625406,-9252.574275,-518.144159,153.219100
787.625727,-9104.533087,-1332.370696,-306.438199
787.626048,-9696.697840,-1036.288319,229.828649
787.626368,-9918.759623,-1406.391290,306.438199
787.626689,-10214.842000,-888.247130,536.266849
787.627010,-10288.862594,-814.226536,1149.143247
787.627331,-10288.862594,-518.144159,1378.971896
787.627651,-10362.883188,-592.164754,1455.581446
787.627972,-9992.780217,-518.144159,1225.752797
787.628293,-9474.636058,-518.144159,766.095498
787.628614,-9178.553681,-296.082377,229.828649
787.628935,-8808.450710,-444.123565,0.000000
787.629255,-8956.491898,-296.082377,-76.609550
787.629576,-8882.471304,-444.123565,1149.143247
787.629897,-9326.594869,-222.061783,306.438199
787.630218,-9474.636058,0.000000,995.924147
787.630538,-9770.718434,-370.102971,1608.800546
787.630859,-10066.800811,0.000000,2451.505594
787.631180,-10288.862594,148.041188,2757.943793
787.631501,-10288.862594,148.041188,2911.162892
787.631821,-10066.800811,0.000000,2298.286494
787.632142,-9400.615463,74.020594,1685.410096
787.632463,-9252.574275,222.061783,1072.533697
787.632784,-9178.553681,0.000000,459.657299
787.633105,-9104.533087,0.000000,76.609550
787.633425,-8808.450710,-296.082377,-383.047749
787.633746,-9030.512492,-1184.329507,-153.219100
787.634067,-9252.574275,-962.267725,-766.095498
787.634388,-9770.718434,-1554.432478,-842.705048
787.634708,-9548.656652,-1480.411884,0.000000
787.635029,-10214.842000,-370.102971,-306.438199
787.635350,-10436.903782,-666.185348,842.705048
787.635671,-10436.903782,-666.185348,1608.800546
787.635991,-10288.862594,-518.144159,1455.581446
787.636312,-9992.780217,-592.164754,1302.362347
787.636633,-9770.718434,0.000000,1302.362347
787.636954,-9474.636058,-370.102971,1532.190996
787.637275,-8882.471304,-296.082377,1838.629195
787.637595,-9252.574275,-518.144159,1762.019645
787.637916,-8956.491898,-148.041188,2528.115143
787.638237,-9400.615463,-592.164754,2145.067394
787.638558,-9696.697840,-222.061783,2451.505594
787.638878,-10066.800811,0.000000,2757.943793
787.639199,-9474.636058,666.185348,4443.353888
787.639520,-10140.821405,296.082377,3217.601092
787.639841,-9992.780217,148.041188,3064.381992
787.640161,-10066.800811,0.000000,2681.334243
787.640482,-9548.656652,0.000000,2451.505594
787.640803,-9326.594869,-222.061783,1608.800546
787.641124,-9178.553681,0.000000,1149.143247
787.641445,-8882.471304,0.000000,153.219100
787.641765,-8882.471304,-222.061783,76.609550
787.642086,-9326.594869,-888.247130,-1608.800546
787.642407,-9178.553681,-740.205942,-383.047749
787.642728,-9400.615463,-814.226536,-306.438199
787.643048,-9622.677246,-666.185348,153.219100
787.643369,-10066.800811,-518.144159,766.095498
787.643690,-10510.924376,-370.102971,919.314598
787.644011,-10214.842000,-518.144159,995.924147
787.644331,-10214.842000,-296.082377,766.095498
787.644652,-9770.718434,-148.041188,229.828649
787.644973,-9252.574275,-444.123565,1532.190996
787.645294,-9104.533087,-370.102971,-459.657299
787.645615,-8660.409521,0.000000,-995.924147
787.645935,-8808.450710,-296.082377,-842.705048
787.646256,-9030.512492,-296.082377,0.000000
787.646577,-9400.615463,0.000000,306.438199
787.646898,-10066.800811,-296.082377,1149.143247
787.647218,-10066.800811,-222.061783,1915.238745
787.647539,-10362.883188,222.061783,2604.724693
787.647860,-10436.903782,0.000000,3140.991542
787.648181,-10066.800811,444.123565,2911.162892
787.648501,-9844.739029,370.102971,2374.896044
787.648822,-9474.636058,370.102971,1302.362347
787.649143,-9252.574275,148.041188,842.705048
787.649464,-8808.450710,0.000000,76.609550
787.649785,-8808.450710,-444.123565,-153.219100
787.650105,-8586.388927,-370.102971,-459.657299
787.650426,-8956.491898,-888.247130,-919.314598
787.650747,-9474.636058,-962.267725,-306.438199
787.651068,-9622.677246,-888.247130,76.609550
787.651388,-10288.862594,-1110.308913,536.266849
787.651709,-10436.903782,-666.185348,1225.752797
787.652030,-10362.883188,-962.267725,1532.190996
787.652351,-10066.800811,-518.144159,1762.019645
787.652671,-9918.759623,-1110.308913,2298.286494
787.652992,-9326.594869,-666.185348,1685.410096
787.653313,-9622.677246,-592.164754,1532.190996
787.653634,-9104.533087,-370.102971,1762.019645
787.653954,-9104.533087,-518.144159,1685.410096
787.654275,-8512.368333,0.000000,1455.581446
787.654596,-9400.615463,0.000000,1378.971896
787.654917,-9474.636058,74.020594,1838.629195
787.655238,-9622.677246,0.000000,2451.505594
787.655558,-10140.821405,370.102971,2681.334243
787.655879,-10436.903782,296.082377,3447.429741
787.656200,-10510.924376,518.144159,3217.601092
787.656521,-10140.821405,370.102971,3217.601092
787.656841,-9844.739029,222.061783,2604.724693
787.657162,-9992.780217,74.020594,1455.581446
787.657483,-9400.615463,592.164754,1991.848295
787.657804,-9030.512492,74.020594,919.314598
787.658124,-8512.368333,0.000000,153.219100
787.658445,-8808.450710,-296.082377,0.000000
787.658766,-8734.430116,-518.144159,-153.219100
787.659087,-9104.533087,-962.267725,-76.609550
787.659408,-9548.656652,-814.226536,-306.438199
787.659728,-9770.718434,-1110.308913,0.000000
787.660049,-9622.677246,-1110.308913,536.266849
787.660370,-10288.862594,-666.185348,612.876398
787.660691,-10214.842000,-148.041188,919.314598
787.661011,-9844.739029,-222.061783,459.657299
787.661332,-9400.615463,0.000000,306.438199
787.661653,-9474.636058,0.000000,0.000000
787.661974,-8882.471304,0.000000,-306.438199
787.662294,-8956.491898,-296.082377,-612.876398
787.662615,-8956.491898,-370.102971,-153.219100
787.662936,-8734.430116,-444.123565,-459.657299
787.663257,-9622.677246,-444.123565,536.266849
787.663578,-9696.697840,-370.102971,1225.752797
787.663898,-10140.821405,-148.041188,1838.629195
787.664219,-10510.924376,0.000000,2681.334243
787.664540,-10362.883188,296.082377,2834.553343
787.664861,-10584.944971,370.102971,2834.553343
787.665181,-9918.759623,370.102971,2374.896044
787.665502,-9474.636058,0.000000,842.705048
787.665823,-9326.594869,0.000000,919.314598
787.666144,-8882.471304,-592.164754,383.047749
787.666464,-9178.553681,-814.226536,153.219100
787.666785,-8808.450710,-1184.329507,-306.438199
787.667106,-9178.553681,-888.247130,-383.047749
787.667427,-9326.594869,-1332.370696,0.000000
787.667748,-9770.718434,-1036.288319,0.000000
787.668068,-10214.842000,-1110.308913,995.924147
787.668389,-11029.068536,-1332.370696,153.219100
787.668710,-10436.903782,-888.247130,1608.800546
787.669031,-10436.903782,-666.185348,1991.848295
787.669351,-10214.842000,-814.226536,2068.457845
787.669672,-9696.697840,-296.082377,1149.143247
787.669993,-9474.636058,-592.164754,1532.190996
787.670314,-9030.512492,-148.041188,1302.362347
787.670634,-9030.512492,-444.123565,995.924147
787.670955,-8956.491898,0.000000,1072.533697
787.671276,-9770.718434,-148.041188,1455.581446
787.671597,-9548.656652,-148.041188,1915.238745
787.671918,-9696.697840,-222.061783,2068.457845
787.672238,-9992.780217,74.020594,2528.115143
787.672559,-10807.006753,0.000000,3140.991542
787.672880,-10362.883188,0.000000,3217.601092
787.673201,-10288.862594,-222.061783,2911.162892
787.673521,-9918.759623,-148.041188,2298.286494
787.673842,-9474.636058,-592.164754,2451.505594
787.674163,-9252.574275,-296.082377,1455.581446
787.674484,-8808.450710,-518.144159,383.047749
787.674804,-8660.409521,-740.205942,0.000000
787.675125,-8734.430116,-518.144159,-766.095498
787.675446,-9030.512492,-962.267725,-536.266849
787.675767,-9474.636058,-1184.329507,-459.657299
787.676088,-9474.636058,-666.185348,-229.828649
787.676408,-10140.821405,-592.164754,0.000000
787.676729,-9622.677246,-814.226536,306.438199
787.677050,-10362.883188,-148.041188,842.705048
787.677371,-10584.944971,-370.102971,995.924147
787.677691,-10066.800811,0.000000,612.876398
787.678012,-9770.718434,0.000000,766.095498
787.678333,-9474.636058,0.000000,153.219100
787.678653,-9178.553681,148.041188,153.219100
787.678974,-9252.574275,0.000000,76.609550
787.679295,-8660.409521,0.000000,229.828649
787.679616,-9770.718434,0.000000,76.609550
787.679936,-9474.636058,0.000000,1072.533697
787.680257,-9770.718434,0.000000,1608.800546
787.680578,-10436.903782,74.020594,2221.676944
787.680899,-10214.842000,-222.061783,3064.381992
787.681219,-10658.965565,0.000000,3064.381992
787.681540,-10288.862594,222.061783,3140.991542
787.681861,-9844.739029,-222.061783,2451.505594
787.682182,-9400.615463,0.000000,1991.848295
787.682502,-9400.615463,-296.082377,1225.752797
787.682823,-9030.512492,-592.164754,536.266849
787.683144,-8808.450710,-1036.288319,-383.047749
787.683464,-8586.388927,-1110.308913,-153.219100
787.683785,-9104.533087,-1628.453072,0.000000
787.684106,-9178.553681,-1776.494261,0.000000
787.684427,-9770.718434,-1406.391290,76.609550
787.684747,-10066.800811,-1184.329507,995.924147
787.685068,-9918.759623,-1036.288319,1762.019645
787.685389,-10362.883188,-814.226536,1532.190996
787.685710,-9918.759623,-740.205942,1532.190996
787.686030,-9918.759623,-296.082377,1608.800546
787.686351,-9474.636058,-296.082377,1378.971896
787.686672,-9474.636058,0.000000,995.924147
787.686993,-9104.533087,-444.123565,1072.533697
787.687313,-9252.574275,-222.061783,1149.143247
787.687634,-9400.615463,0.000000,842.705048
787.687955,-9400.615463,-222.061783,1072.533697
787.688275,-9770.718434,0.000000,1455.581446
787.688596,-9770.718434,148.041188,1685.410096
787.688917,-10066.800811,148.041188,2145.067394
787.689238,-10436.903782,0.000000,1072.533697
787.689558,-10214.842000,222.061783,2451.505594
787.689879,-10288.862594,0.000000,2451.505594
787.690200,-9992.780217,74.020594,2374.896044
787.690521,-9622.677246,0.000000,1838.629195
787.690841,-9474.636058,222.061783,919.314598
787.691162,-9252.574275,-444.123565,919.314598
787.691483,-9104.533087,-666.185348,76.609550
787.691804,-9104.533087,-740.205942,-76.609550
787.692124,-9178.553681,-1110.308913,-842.705048
787.692445,-9474.636058,-962.267725,0.000000
787.692766,-9548.656652,-1036.288319,0.000000
787.693086,-9622.677246,-888.247130,459.657299
787.693407,-9548.656652,-444.123565,2145.067394
787.693728,-10066.800811,-444.123565,1302.362347
787.694049,-10362.883188,-74.020594,1455.581446
787.694369,-9770.718434,-370.102971,612.876398
787.694690,-9474.636058,-370.102971,536.266849
787.695011,-9474.636058,-296.082377,766.095498
787.695332,-9178.553681,0.000000,0.000000
787.695652,-9030.512492,-222.061783,0.000000
787.695973,-8808.450710,-296.082377,459.657299
787.696294,-9400.615463,-222.061783,995.924147
787.696615,-9474.636058,0.000000,1149.143247
787.696935,-9770.718434,0.000000,1915.238745
787.697256,-10140.821405,0.000000,2451.505594
787.697577,-10066.800811,814.226536,2451.505594
787.697897,-10288.862594,74.020594,2757.943793
787.698218,-9992.780217,296.082377,2834.553343
787.698539,-10066.800811,444.123565,2451.505594
787.698860,-9400.615463,740.205942,3217.601092
787.699180,-9252.574275,74.020594,919.314598
787.699501,-8956.491898,-74.020594,459.657299
787.699822,-9030.512492,-444.123565,-153.219100
787.700143,-8956.491898,-888.247130,-306.438199
787.700463,-9030.512492,-1110.308913,-536.266849
787.700784,-9474.636058,-1480.411884,-383.047749
787.701105,-9770.718434,-962.267725,76.609550
787.701426,-10066.800811,-962.267725,612.876398
787.701746,-10584.944971,-592.164754,459.657299
787.702067,-10140.821405,-740.205942,612.876398
787.702388,-10214.842000,-666.185348,919.314598
787.702708,-9992.780217,-592.164754,1455.581446
787.703029,-9622.677246,-740.205942,229.828649
787.703350,-9400.615463,-666.185348,1149.143247
787.703671,-9326.594869,-888.247130,919.314598
787.703991,-8956.491898,-740.205942,766.095498
787.704312,-9178.553681,-666.185348,1149.143247
787.704633,-9030.512492,-444.123565,919.314598
787.704954,-9326.594869,-296.082377,1378.971896
787.705274,-9696.697840,-592.164754,1685.410096
787.705595,-9770.718434,-148.041188,2374.896044
787.705916,-10584.944971,296.082377,2834.553343
787.706237,-10066.800811,0.000000,2757.943793
787.706557,-10066.800811,-518.144159,2451.505594
787.706878,-9770.718434,0.000000,2451.505594
787.707199,-9622.677246,222.061783,3370.820191
787.707519,-9400.615463,0.000000,1455.581446
787.707840,-8882.471304,-74.020594,612.876398
787.708161,-8808.450710,-296.082377,76.609550
787.708482,-8808.450710,-518.144159,0.000000
787.708802,-9104.533087,-666.185348,229.828649
787.709123,-9474.636058,-296.082377,153.219100
787.709444,-9844.739029,-370.102971,459.657299
787.709765,-10066.800811,-148.041188,1225.752797
787.710085,-10436.903782,0.000000,1762.019645
787.710406,-10436.903782,-148.041188,1378.971896
787.710727,-10436.903782,0.000000,1302.362347
787.711048,-10066.800811,-370.102971,1072.533697
787.711368,-9696.697840,-592.164754,766.095498
787.711689,-9474.636058,-74.020594,383.047749
787.712010,-8956.491898,-370.102971,229.828649
787.712330,-8956.491898,-370.102971,0.000000
787.712651,-8956.491898,-370.102971,229.828649
787.712972,-9770.718434,0.000000,689.485948
787.713293,-9622.677246,0.000000,1455.581446
787.713613,-9770.718434,-296.082377,1455.581446
787.713934,-10214.842000,0.000000,2604.724693
787.714255,-10362.883188,-148.041188,3140.991542
787.714576,-10362.883188,0.000000,2757.943793
787.714896,-9918.759623,222.061783,2604.724693
787.715217,-9696.697840,296.082377,1915.238745
787.715538,-8956.491898,0.000000,2757.943793
787.715858,-9030.512492,222.061783,689.485948
787.716179,-8956.491898,148.041188,76.609550
787.716500,-8808.450710,-296.082377,-383.047749
787.716821,-8734.430116,-592.164754,-766.095498
787.717141,-9252.574275,-592.164754,-1149.143247
787.717462,-9474.636058,-1110.308913,-689.485948
787.717783,-9770.718434,-1184.329507,-153.219100
787.718104,-10140.821405,-740.205942,76.609550
787.718424,-10066.800811,-444.123565,919.314598
787.718745,-10288.862594,-888.247130,1302.362347
787.719066,-10362.883188,-888.247130,1455.581446
787.719387,-9992.780217,-1110.308913,1378.971896
787.719707,-9844.739029,-814.226536,229.828649
787.720028,-9252.574275,-888.247130,1225.752797
787.720349,-9104.533087,-370.102971,995.924147
787.720669,-8956.491898,-518.144159,1302.362347
787.720990,-8956.491898,-370.102971,919.314598
787.721311,-9252.574275,-222.061783,1072.533697
787.721632,-9474.636058,-296.082377,1762.019645
787.721952,-10288.862594,-444.123565,1915.238745
787.722273,-10140.821405,-222.061783,2451.505594
787.722594,-11103.089130,740.205942,2681.334243
787.722915,-10362.883188,0.000000,2834.553343
787.723235,-10436.903782,222.061783,2987.772442
787.723556,-10066.800811,74.020594,2681.334243
787.723877,-9696.697840,222.061783,4136.915689
787.724198,-9326.594869,148.041188,1685.410096
787.724518,-9030.512492,74.020594,1072.533697
787.724839,-9030.512492,-296.082377,229.828649
787.725160,-8734.430116,-814.226536,153.219100
787.725480,-9104.533087,-962.267725,76.609550
787.725801,-9252.574275,-1184.329507,0.000000
787.726122,-9548.656652,-1184.329507,153.219100
787.726443,-10066.800811,-814.226536,1072.533697
787.726763,-10214.842000,-740.205942,1915.238745
787.727084,-10510.924376,-370.102971,1225.752797
787.727405,-10140.821405,-370.102971,1685.410096
787.727726,-9992.780217,-666.185348,1455.581446
787.728046,-9622.677246,0.000000,-459.657299
787.728367,-9326.594869,-814.226536,689.485948
787.728688,-8586.388927,-518.144159,153.219100
787.729009,-8734.430116,-296.082377,0.000000
787.729329,-9104.533087,-222.061783,153.219100
787.729650,-9252.574275,-222.061783,919.314598
787.729971,-9474.636058,-148.041188,919.314598
787.730291,-9844.739029,0.000000,1685.410096
787.730612,-10066.800811,222.061783,1991.848295
787.730933,-10510.924376,444.123565,2528.115143
787.731254,-10288.862594,370.102971,2681.334243
787.731574,-10140.821405,592.164754,2451.505594
787.731895,-9622.677246,444.123565,2068.457845
787.732216,-9474.636058,444.123565,919.314598
787.732537,-9252.574275,222.061783,383.047749
787.732857,-8956.491898,74.020594,-383.047749
787.733178,-8808.450710,-148.041188,-689.485948
787.733499,-8956.491898,-592.164754,-1072.533697
787.733820,-9104.533087,-1036.288319,-995.924147
787.734140,-9474.636058,-1332.370696,-1072.533697
787.734461,-9622.677246,-1036.288319,0.000000
787.734782,-10436.903782,-444.123565,459.657299
787.735102,-10214.842000,-296.082377,842.705048
787.735423,-10807.006753,-296.082377,1225.752797
787.735744,-10436.903782,0.000000,1225.752797
787.736065,-10140.821405,-148.041188,1072.533697
787.736385,-10436.903782,592.164754,536.266849
787.736706,-9474.636058,74.020594,842.705048
787.737027,-9104.533087,-148.041188,995.924147
787.737348,-8882.471304,-74.020594,919.314598
787.737668,-9104.533087,-592.164754,1225.752797
787.737989,-9548.656652,-370.102971,1532.190996
787.738310,-9622.677246,-666.185348,1915.238745
787.738631,-9770.718434,-370.102971,2451.505594
787.738951,-10066.800811,-148.041188,2451.505594
787.739272,-9992.780217,74.020594,2911.162892
787.739593,-10288.862594,0.000000,2987.772442
787.739913,-10140.821405,-296.082377,3064.381992
787.740234,-9992.780217,-148.041188,2681.334243
787.740555,-9252.574275,-148.041188,2757.943793
787.740876,-9252.574275,-444.123565,1378.971896
787.741196,-9030.512492,-518.144159,842.705048
787.741517,-8512.368333,-666.185348,383.047749
787.741838,-8734.430116,-740.205942,-153.219100
787.742159,-8882.471304,-740.205942,-306.438199
787.742479,-9252.574275,-888.247130,-229.828649
787.742800,-9622.677246,-962.267725,76.609550
787.743121,-9844.739029,-1036.288319,689.485948
787.743442,-10066.800811,-592.164754,612.876398
787.743762,-10436.903782,-518.144159,1072.533697
787.744083,-10214.842000,-370.102971,689.485948
787.744404,-10214.842000,0.000000,536.266849
787.744724,-9844.739029,370.102971,-229.828649
787.745045,-9252.574275,148.041188,0.000000
787.745366,-9326.594869,444.123565,0.000000
787.745687,-9252.574275,222.061783,0.000000
787.746007,-8956.491898,148.041188,-229.828649
787.746328,-9548.656652,-148.041188,229.828649
787.746649,-9622.677246,74.020594,689.485948
787.746970,-9918.759623,0.000000,1608.800546
787.747290,-10066.800811,0.000000,2298.286494
787.747611,-10436.903782,74.020594,2374.896044
787.747932,-10214.842000,148.041188,2451.505594
787.748253,-10066.800811,0.000000,2451.505594
787.748573,-9770.718434,296.082377,1991.848295
787.748894,-9844.739029,-222.061783,2451.505594
787.749215,-9474.636058,0.000000,689.485948
787.749535,-9030.512492,-518.144159,229.828649
787.749856,-8734.430116,-1036.288319,-153.219100
787.750177,-8956.491898,-1110.308913,-536.266849
787.750498,-8882.471304,-1406.391290,-153.219100
787.750818,-9252.574275,-1258.350101,0.000000
787.751139,-9622.677246,-1480.411884,383.047749
787.751460,-9918.759623,-1258.350101,1072.533697
787.751781,-10214.842000,-1110.308913,1685.410096
787.752101,-10510.924376,-962.267725,2221.676944
787.752422,-9992.780217,-962.267725,2604.724693
787.752743,-9844.739029,-888.247130,2221.676944
787.753064,-10510.924376,74.020594,919.314598
787.753384,-9474.636058,0.000000,1991.848295
787.753705,-9178.553681,-222.061783,1991.848295
787.754026,-9104.533087,0.000000,1608.800546
787.754346,-9178.553681,-222.061783,383.047749
787.754667,-9104.533087,-222.061783,1685.410096
787.754988,-9474.636058,74.020594,2221.676944
787.755309,-9696.697840,-370.102971,2374.896044
787.755629,-9918.759623,0.000000,2757.943793
787.755950,-10362.883188,-222.061783,2911.162892
787.756271,-10362.883188,0.000000,2987.772442
787.756592,-10362.883188,-296.082377,2987.772442
787.756912,-9992.780217,0.000000,2221.676944
787.757233,-9400.615463,148.041188,1991.848295
787.757554,-9252.574275,296.082377,919.314598
787.757875,-9104.533087,0.000000,153.219100
787.758195,-8882.471304,-148.041188,-612.876398
787.758516,-9178.553681,-370.102971,-1072.533697
787.758837,-9326.594869,-592.164754,-766.095498
787.759157,-9548.656652,-444.123565,-306.438199
787.759478,-10066.800811,-296.082377,0.000000
787.759799,-10510.924376,-222.061783,383.047749
787.760120,-10658.965565,74.020594,1072.533697
787.760440,-10584.944971,-296.082377,842.705048
787.760761,-9918.759623,0.000000,612.876398
787.761082,-9992.780217,-296.082377,306.438199
787.761403,-9548.656652,592.164754,-842.705048
787.761723,-9104.533087,148.041188,-383.047749
787.762044,-8882.471304,148.041188,-842.705048
787.762365,-8956.491898,222.061783,-306.438199
787.762686,-9178.553681,148.041188,0.000000
787.763006,-9400.615463,-148.041188,76.609550
787.763327,-9622.677246,0.000000,1225.752797
787.763648,-9844.739029,0.000000,1991.848295
787.763968,-10214.842000,296.082377,2757.943793
787.764289,-10510.924376,-148.041188,2604.724693
787.764610,-9918.759623,-222.061783,2604.724693
787.764931,-9770.718434,-148.041188,2451.505594
787.765251,-9400.615463,0.000000,2298.286494
787.765572,-8290.306550,-518.144159,2604.724693
787.765893,-8808.450710,0.000000,689.485948
787.766214,-8586.388927,-592.164754,153.219100
