#time,accel_x,accel_y,accel_z
753.145210,-10436.903782,-2368.659014,-1072.533697
753.145530,-9918.759623,-1924.535449,-766.095498
753.145851,-9918.759623,-1628.453072,-459.657299
753.146172,-9992.780217,-1184.329507,459.657299
753.146493,-9770.718434,-1184.329507,383.047749
753.146814,-9770.718434,-1554.432478,766.095498
753.147135,-9326.594869,-888.247130,459.657299
753.147456,-9252.574275,-592.164754,383.047749
753.147776,-9326.594869,-74.020594,995.924147
753.148097,-9474.636058,296.082377,1225.752797
753.148418,-9548.656652,444.123565,1149.143247
753.148739,-9474.636058,518.144159,536.266849
753.149060,-10214.842000,74.020594,612.876398
753.149381,-10362.883188,666.185348,842.705048
753.149702,-10436.903782,592.164754,919.314598
753.150022,-10436.903782,518.144159,766.095498
753.150343,-9844.739029,-888.247130,229.828649
753.150664,-9918.759623,-666.185348,229.828649
753.150985,-9622.677246,-370.102971,536.266849
753.151306,-9622.677246,-1406.391290,842.705048
753.151627,-9030.512492,-1628.453072,919.314598
753.151948,-8956.491898,-1998.556043,1225.752797
753.152268,-8956.491898,-2368.659014,1225.752797
753.152589,-9030.512492,-2812.782580,1455.581446
753.152910,-8660.409521,-2886.803174,1072.533697
753.153231,-8734.430116,-2442.679609,459.657299
753.153552,-8734.430116,-1924.535449,153.219100
753.153873,-9252.574275,-1554.432478,229.828649
753.154194,-9400.615463,-1110.308913,-153.219100
753.154514,-9326.594869,-740.205942,-383.047749
753.154835,-9696.697840,-592.164754,-995.924147
753.155156,-9844.739029,0.000000,-919.314598
753.155477,-10214.842000,74.020594,-689.485948
753.155798,-9548.656652,-370.102971,-919.314598
753.156119,-9252.574275,-592.164754,-1532.190996
753.156440,-9474.636058,-1184.329507,-1532.190996
753.156761,-9326.594869,-1406.391290,-1532.190996
753.157081,-9474.636058,-1628.453072,-1532.190996
753.157402,-9622.677246,-1628.453072,-1915.238745
753.157723,-9622.677246,-1702.473667,-1608.800546
753.158044,-9844.739029,-1480.411884,-1762.019645
753.158365,-9844.739029,-1702.473667,-1532.190996
753.158686,-10584.944971,-1110.308913,-995.924147
753.159007,-9918.759623,-1776.494261,-1455.581446
753.159327,-10140.821405,-1776.494261,-1378.971896
753.159648,-9770.718434,-2294.638420,-1378.971896
753.159969,-9770.718434,-2146.597232,-1378.971896
753.160290,-9474.636058,-2664.741391,-1532.190996
753.160611,-9622.677246,-2960.823768,-919.314598
753.160932,-9622.677246,-3182.885551,-766.095498
753.161253,-9400.615463,-3034.844362,-536.266849
753.161573,-9474.636058,-2960.823768,0.000000
753.161894,-9400.615463,-2812.782580,306.438199
753.162215,-9474.636058,-2664.741391,459.657299
753.162536,-9326.594869,-2368.659014,383.047749
753.162857,-9696.697840,-2146.597232,2681.334243
753.163178,-9326.594869,-2220.617826,1455.581446
753.163499,-9474.636058,-1998.556043,1762.019645
753.163819,-9622.677246,-1850.514855,2221.676944
753.164140,-9548.656652,-1776.494261,2834.553343
753.164461,-9548.656652,-1406.391290,2528.115143
753.164784,-9548.656652,-1332.370696,3217.601092
753.165105,-9548.656652,-1258.350101,3294.210641
753.165426,-9474.636058,-592.164754,3370.820191
753.165746,-8734.430116,-814.226536,4673.182538
753.166067,-9400.615463,-148.041188,3447.429741
753.166388,-9252.574275,-148.041188,3447.429741
753.166709,-9252.574275,444.123565,3294.210641
753.167029,-9474.636058,740.205942,3600.648841
753.167350,-9696.697840,666.185348,3677.258390
753.167671,-9992.780217,518.144159,3677.258390
753.167992,-10066.800811,222.061783,3370.820191
753.168312,-9992.780217,148.041188,3294.210641
753.168633,-9104.533087,-296.082377,3600.648841
753.168954,-10140.821405,518.144159,2528.115143
753.169275,-9770.718434,74.020594,2068.457845
753.169595,-9622.677246,444.123565,1302.362347
753.169916,-9548.656652,444.123565,995.924147
753.170237,-9770.718434,592.164754,459.657299
753.170558,-9696.697840,592.164754,76.609550
753.170878,-9770.718434,666.185348,-306.438199
753.171199,-9474.636058,740.205942,-842.705048
753.171520,-9918.759623,814.226536,-766.095498
753.171841,-9770.718434,814.226536,-459.657299
753.172161,-9622.677246,518.144159,-689.485948
753.172482,-9622.677246,444.123565,-689.485948
753.172803,-9474.636058,370.102971,229.828649
753.173124,-9474.636058,962.267725,-1149.143247
753.173444,-9400.615463,888.247130,-1225.752797
753.173765,-9400.615463,1110.308913,-919.314598
753.174086,-9474.636058,1110.308913,-1225.752797
753.174407,-9474.636058,888.247130,-1378.971896
753.174727,-9622.677246,962.267725,-536.266849
753.175048,-9622.677246,962.267725,0.000000
753.175369,-9548.656652,888.247130,306.438199
753.175690,-10066.800811,888.247130,-383.047749
753.176010,-9474.636058,592.164754,229.828649
753.176331,-9474.636058,592.164754,306.438199
753.176652,-9400.615463,222.061783,383.047749
753.176973,-9252.574275,370.102971,383.047749
753.177293,-9474.636058,0.000000,995.924147
753.177614,-9326.594869,-148.041188,1149.143247
753.177935,-9474.636058,-592.164754,1762.019645
753.178256,-9474.636058,-740.205942,1838.629195
753.178576,-9844.739029,-666.185348,2757.943793
753.178897,-9918.759623,-888.247130,2451.505594
753.179218,-9622.677246,-888.247130,3140.991542
753.179539,-9770.718434,-888.247130,2987.772442
753.179859,-9474.636058,-1480.411884,2757.943793
753.180180,-9474.636058,-1110.308913,3064.381992
753.180501,-9474.636058,-1036.288319,2757.943793
753.180822,-9548.656652,-740.205942,2911.162892
753.181142,-9844.739029,-444.123565,2145.067394
753.181463,-9474.636058,-1110.308913,2987.772442
753.181784,-9548.656652,-888.247130,3217.601092
753.182105,-9844.739029,-1110.308913,3294.210641
753.182425,-10066.800811,-1036.288319,3677.258390
753.182746,-9696.697840,-1036.288319,3447.429741
753.183067,-9918.759623,-888.247130,3140.991542
753.183388,-9622.677246,-1110.308913,2604.724693
753.183708,-9622.677246,-888.247130,2451.505594
753.184029,-9178.553681,-962.267725,1608.800546
753.184350,-9474.636058,-888.247130,1608.800546
753.184671,-9400.615463,-888.247130,766.095498
753.184991,-9252.574275,-740.205942,766.095498
753.185312,-8882.471304,-888.247130,306.438199
753.185633,-9474.636058,-666.185348,153.219100
753.185954,-9474.636058,-888.247130,306.438199
753.186274,-9474.636058,-814.226536,-229.828649
753.186595,-9474.636058,-814.226536,-459.657299
753.186916,-9770.718434,-592.164754,-383.047749
753.187237,-9548.656652,-740.205942,-842.705048
753.187557,-9474.636058,-296.082377,-1225.752797
753.187878,-9548.656652,-518.144159,-1455.581446
753.188199,-9252.574275,-370.102971,-1149.143247
753.188520,-9770.718434,-444.123565,-1072.533697
753.188840,-9400.615463,-296.082377,-1225.752797
753.189161,-9622.677246,0.000000,-1149.143247
753.189482,-9918.759623,-296.082377,-995.924147
753.189803,-9474.636058,-222.061783,-842.705048
753.190123,-9400.615463,-222.061783,-919.314598
753.190444,-9548.656652,74.020594,-612.876398
753.190765,-9622.677246,0.000000,153.219100
753.191086,-9992.780217,222.061783,689.485948
753.191406,-9622.677246,0.000000,995.924147
753.191727,-9918.759623,296.082377,995.924147
753.192048,-9918.759623,0.000000,1302.362347
753.192369,-9622.677246,0.000000,919.314598
753.192689,-9696.697840,0.000000,1302.362347
753.193010,-9622.677246,-296.082377,1302.362347
753.193331,-9770.718434,-148.041188,1685.410096
753.193652,-10807.006753,1110.308913,1072.533697
753.193972,-9844.739029,-296.082377,2145.067394
753.194293,-9918.759623,-296.082377,2374.896044
753.194614,-9992.780217,-518.144159,2681.334243
753.194935,-9844.739029,-222.061783,3140.991542
753.195255,-10214.842000,-370.102971,2757.943793
753.195576,-9918.759623,-370.102971,3294.210641
753.195897,-9770.718434,-222.061783,3294.210641
753.196218,-9696.697840,-444.123565,3447.429741
753.196538,-9474.636058,-222.061783,3064.381992
753.196859,-9474.636058,-222.061783,3140.991542
753.197180,-9474.636058,0.000000,3294.210641
753.197501,-9326.594869,-444.123565,2911.162892
753.197821,-9474.636058,0.000000,3983.696590
753.198142,-9178.553681,0.000000,2528.115143
753.198463,-9474.636058,222.061783,2911.162892
753.198784,-9548.656652,74.020594,2604.724693
753.199104,-9622.677246,222.061783,2145.067394
753.199425,-9252.574275,222.061783,1915.238745
753.199746,-9474.636058,296.082377,1838.629195
753.200067,-9474.636058,0.000000,1378.971896
753.200387,-9474.636058,0.000000,1149.143247
753.200708,-9474.636058,-222.061783,689.485948
753.201029,-9326.594869,0.000000,0.000000
753.201350,-9178.553681,0.000000,-306.438199
753.201670,-9326.594869,0.000000,-459.657299
753.201991,-9326.594869,0.000000,-766.095498
753.202312,-9548.656652,0.000000,-995.924147
753.202633,-9474.636058,-518.144159,-1378.971896
753.202953,-9104.533087,-444.123565,-1225.752797
753.203274,-9770.718434,-222.061783,-1149.143247
753.203595,-9844.739029,148.041188,-689.485948
753.203916,-9474.636058,-518.144159,-1072.533697
753.204236,-9696.697840,-444.123565,-1532.190996
753.204557,-9770.718434,-518.144159,-1149.143247
753.204878,-9696.697840,296.082377,-2298.286494
753.205199,-9474.636058,-444.123565,-612.876398
753.205519,-9622.677246,-666.185348,-536.266849
753.205840,-9474.636058,-592.164754,-612.876398
753.206161,-9770.718434,-814.226536,76.609550
753.206482,-9770.718434,-370.102971,612.876398
753.206802,-9696.697840,-814.226536,919.314598
753.207123,-9622.677246,-666.185348,919.314598
753.207444,-9696.697840,-888.247130,1225.752797
753.207765,-9178.553681,-814.226536,1225.752797
753.208085,-9548.656652,-962.267725,1685.410096
753.208406,-9474.636058,-1184.329507,1762.019645
753.208727,-9770.718434,-1110.308913,2068.457845
753.209048,-9474.636058,-1332.370696,1838.629195
753.209368,-9474.636058,-1406.391290,2374.896044
753.209689,-9622.677246,-1110.308913,2451.505594
753.210010,-9696.697840,-1110.308913,2528.115143
753.210331,-9326.594869,-1332.370696,2757.943793
753.210651,-9400.615463,-962.267725,2528.115143
753.210972,-9474.636058,-1110.308913,2451.505594
753.211293,-9622.677246,-962.267725,3294.210641
753.211614,-9474.636058,-740.205942,2757.943793
753.211934,-9918.759623,-814.226536,1991.848295
753.212255,-9474.636058,-592.164754,2528.115143
753.212576,-9548.656652,-592.164754,2451.505594
753.212897,-9622.677246,-222.061783,3064.381992
753.213217,-9622.677246,-296.082377,2911.162892
753.213538,-9844.739029,0.000000,2221.676944
753.213859,-9622.677246,0.000000,2221.676944
753.214180,-9844.739029,-74.020594,2145.067394
753.214500,-9770.718434,222.061783,2528.115143
753.214821,-9992.780217,74.020594,1991.848295
753.215142,-9696.697840,148.041188,1838.629195
753.215463,-9844.739029,222.061783,1225.752797
753.215783,-9770.718434,296.082377,1455.581446
753.216104,-9104.533087,1036.288319,919.314598
753.216425,-9474.636058,444.123565,536.266849
753.216746,-9696.697840,148.041188,0.000000
753.217066,-9548.656652,0.000000,-536.266849
753.217387,-9622.677246,592.164754,-459.657299
753.217708,-9622.677246,0.000000,-766.095498
753.218029,-9770.718434,0.000000,-1225.752797
753.218349,-9474.636058,0.000000,-1532.190996
753.218670,-9770.718434,0.000000,-1455.581446
753.218991,-9548.656652,-444.123565,-1532.190996
753.219312,-9474.636058,-444.123565,-1302.362347
753.219632,-9696.697840,-444.123565,-1685.410096
753.219953,-9622.677246,-370.102971,-1608.800546
753.220274,-9992.780217,148.041188,-1838.629195
753.220595,-9474.636058,-370.102971,-995.924147
753.220915,-9400.615463,0.000000,-995.924147
753.221236,-9474.636058,-296.082377,-689.485948
753.221557,-9400.615463,-518.144159,229.828649
753.221878,-9474.636058,0.000000,229.828649
753.222198,-9770.718434,-148.041188,536.266849
753.222519,-9918.759623,0.000000,919.314598
753.222840,-9622.677246,-148.041188,1378.971896
753.223161,-9400.615463,0.000000,1915.238745
753.223481,-9622.677246,-444.123565,1762.019645
753.223802,-9474.636058,-444.123565,2068.457845
753.224123,-9622.677246,-666.185348,1608.800546
753.224444,-8882.471304,0.000000,2374.896044
753.224764,-9548.656652,-814.226536,1991.848295
753.225085,-9400.615463,-740.205942,2451.505594
753.225406,-9696.697840,-888.247130,2374.896044
753.225727,-9474.636058,-888.247130,1378.971896
753.226047,-9474.636058,-814.226536,2451.505594
753.226368,-9622.677246,-814.226536,2681.334243
753.226689,-9696.697840,-814.226536,2528.115143
753.227010,-9770.718434,-740.205942,2911.162892
753.227330,-9548.656652,-518.144159,2834.553343
753.227651,-9770.718434,-666.185348,2911.162892
753.227972,-9696.697840,-518.144159,2757.943793
753.228293,-9474.636058,-592.164754,2528.115143
753.228613,-9326.594869,-444.123565,3064.381992
753.228934,-9474.636058,-370.102971,2528.115143
753.229255,-9400.615463,-148.041188,2451.505594
753.229576,-9548.656652,-222.061783,2298.286494
753.229896,-9400.615463,-222.061783,2528.115143
753.230217,-9548.656652,0.000000,1915.238745
753.230538,-9622.677246,74.020594,2145.067394
753.230859,-9696.697840,296.082377,1762.019645
753.231179,-9474.636058,0.000000,1685.410096
753.231500,-9696.697840,444.123565,1225.752797
753.231821,-9622.677246,222.061783,1302.362347
753.232142,-9622.677246,296.082377,612.876398
753.232462,-9474.636058,74.020594,536.266849
753.232783,-8142.265362,-296.082377,766.095498
753.233104,-9474.636058,74.020594,76.609550
753.233425,-9474.636058,74.020594,-459.657299
753.233745,-9400.615463,0.000000,-689.485948
753.234066,-8956.491898,-296.082377,536.266849
753.234387,-9326.594869,-148.041188,-919.314598
753.234708,-9326.594869,-296.082377,-842.705048
753.235028,-9622.677246,-148.041188,-689.485948
753.235349,-9474.636058,-148.041188,-995.924147
753.235670,-9548.656652,-444.123565,-1149.143247
753.235991,-9622.677246,-222.061783,-689.485948
753.236311,-9548.656652,-370.102971,-306.438199
753.236632,-9696.697840,-296.082377,0.000000
753.236953,-9104.533087,-592.164754,-919.314598
753.237274,-9474.636058,-444.123565,0.000000
753.237594,-9992.780217,-592.164754,612.876398
753.237915,-9548.656652,-444.123565,842.705048
753.238236,-9696.697840,-518.144159,1072.533697
753.238557,-9622.677246,-370.102971,1149.143247
753.238877,-9622.677246,-666.185348,1838.629195
753.239198,-9622.677246,-592.164754,1915.238745
753.239519,-9622.677246,-518.144159,1915.238745
753.239840,-9844.739029,-444.123565,2145.067394
753.240160,-9770.718434,-666.185348,2221.676944
753.240481,-9474.636058,-814.226536,2451.505594
753.240802,-9622.677246,-740.205942,2451.505594
753.241123,-9770.718434,-740.205942,2604.724693
753.241443,-9844.739029,-740.205942,2298.286494
753.241764,-9548.656652,-1036.288319,2221.676944
753.242085,-9696.697840,-888.247130,2298.286494
753.242406,-9770.718434,-666.185348,2604.724693
753.242726,-9844.739029,-518.144159,2451.505594
753.243047,-9844.739029,-296.082377,2451.505594
753.243368,-9770.718434,-444.123565,2145.067394
753.243689,-9696.697840,-222.061783,2145.067394
753.244009,-9474.636058,-296.082377,1838.629195
753.244330,-9622.677246,0.000000,1838.629195
753.244651,-9474.636058,0.000000,2145.067394
753.244972,-9474.636058,0.000000,1915.238745
753.245292,-9622.677246,-222.061783,1838.629195
753.245613,-9918.759623,0.000000,1838.629195
753.245934,-9770.718434,370.102971,1915.238745
753.246255,-9622.677246,148.041188,1762.019645
753.246575,-9696.697840,74.020594,1685.410096
753.246896,-9326.594869,74.020594,1455.581446
753.247217,-9770.718434,0.000000,1072.533697
753.247538,-9696.697840,0.000000,766.095498
753.247858,-9474.636058,-148.041188,459.657299
753.248179,-9474.636058,0.000000,0.000000
753.248500,-9474.636058,0.000000,0.000000
753.248821,-9252.574275,-222.061783,-306.438199
753.249141,-9400.615463,-296.082377,-689.485948
753.249462,-9178.553681,0.000000,-536.266849
753.249783,-9548.656652,-222.061783,-689.485948
753.250104,-9474.636058,-296.082377,-612.876398
753.250424,-9548.656652,-222.061783,-1072.533697
753.250745,-9474.636058,-518.144159,-536.266849
753.251066,-9622.677246,-592.164754,-842.705048
753.251387,-9474.636058,-740.205942,-1302.362347
753.251707,-9474.636058,-666.185348,-919.314598
753.252028,-9474.636058,-518.144159,-536.266849
753.252349,-9474.636058,-592.164754,-306.438199
753.252670,-9474.636058,-518.144159,0.000000
753.252990,-9474.636058,-518.144159,459.657299
753.253311,-9548.656652,-296.082377,766.095498
753.253632,-9918.759623,0.000000,1149.143247
753.253953,-9622.677246,-296.082377,1532.190996
753.254273,-9770.718434,-444.123565,1762.019645
753.254594,-9696.697840,-666.185348,1685.410096
753.254915,-9622.677246,-740.205942,2221.676944
753.255236,-9696.697840,-666.185348,1838.629195
753.255556,-9474.636058,-814.226536,2068.457845
753.255877,-9548.656652,-888.247130,2145.067394
753.256198,-9622.677246,-1036.288319,1838.629195
753.256519,-9696.697840,-1036.288319,2451.505594
753.256839,-9474.636058,-1036.288319,2681.334243
753.257160,-9992.780217,-1036.288319,2298.286494
753.257481,-9992.780217,-1036.288319,2451.505594
753.257802,-10362.883188,-592.164754,2528.115143
753.258122,-9844.739029,-592.164754,2834.553343
753.258443,-9622.677246,-740.205942,2604.724693
753.258764,-9770.718434,-666.185348,2528.115143
753.259085,-9992.780217,-222.061783,919.314598
753.259405,-9474.636058,-296.082377,1991.848295
753.259726,-9252.574275,0.000000,2068.457845
753.260047,-9326.594869,-296.082377,2068.457845
753.260368,-9400.615463,-222.061783,1838.629195
753.260688,-9474.636058,-370.102971,1991.848295
753.261009,-9548.656652,0.000000,2145.067394
753.261330,-9918.759623,0.000000,1838.629195
753.261651,-9770.718434,222.061783,2068.457845
753.261971,-9770.718434,0.000000,1455.581446
753.262292,-9622.677246,222.061783,1685.410096
753.262613,-9844.739029,74.020594,1302.362347
753.262934,-9548.656652,0.000000,919.314598
753.263254,-9474.636058,0.000000,229.828649
753.263575,-9178.553681,0.000000,0.000000
753.263896,-9548.656652,148.041188,383.047749
753.264217,-9178.553681,0.000000,-229.828649
753.264537,-9252.574275,0.000000,-459.657299
753.264858,-9548.656652,518.144159,-612.876398
753.265179,-9548.656652,0.000000,-612.876398
753.265500,-9474.636058,-222.061783,-919.314598
753.265820,-9696.697840,-296.082377,-1072.533697
753.266141,-10214.842000,74.020594,-842.705048
753.266462,-9622.677246,-296.082377,-995.924147
753.266783,-9696.697840,-296.082377,-995.924147
753.267103,-9770.718434,-222.061783,-919.314598
753.267424,-9326.594869,-666.185348,0.000000
753.267745,-9622.677246,-296.082377,-383.047749
753.268065,-9474.636058,-222.061783,-306.438199
753.268386,-9696.697840,-148.041188,0.000000
753.268706,-9474.636058,-222.061783,536.266849
753.269027,-9400.615463,-444.123565,383.047749
753.269348,-9622.677246,-370.102971,995.924147
753.269668,-9474.636058,-444.123565,1149.143247
753.269989,-9696.697840,-222.061783,1225.752797
753.270310,-9844.739029,0.000000,2374.896044
753.270630,-9622.677246,-370.102971,1532.190996
753.270951,-9844.739029,-444.123565,1838.629195
753.271271,-9548.656652,-518.144159,1838.629195
753.271592,-9622.677246,-888.247130,1991.848295
753.271913,-9622.677246,-740.205942,2298.286494
753.272233,-9622.677246,-962.267725,2221.676944
753.272554,-9696.697840,-814.226536,2145.067394
753.272875,-9474.636058,-740.205942,2145.067394
753.273195,-9696.697840,-518.144159,2298.286494
753.273516,-9622.677246,-740.205942,2451.505594
753.273836,-9548.656652,-888.247130,2451.505594
753.274157,-9474.636058,-666.185348,2374.896044
753.274478,-8438.347739,-222.061783,2834.553343
753.274798,-9474.636058,-962.267725,2298.286494
753.275119,-9252.574275,-814.226536,2221.676944
753.275440,-9474.636058,-518.144159,2145.067394
753.275760,-9548.656652,-592.164754,1915.238745
753.276081,-9548.656652,-518.144159,1838.629195
753.276401,-9474.636058,-592.164754,1838.629195
753.276722,-9696.697840,-222.061783,2145.067394
753.277043,-9844.739029,0.000000,2298.286494
753.277363,-10140.821405,444.123565,1991.848295
753.277684,-9844.739029,222.061783,2145.067394
753.278005,-9770.718434,148.041188,1915.238745
753.278325,-9696.697840,222.061783,1838.629195
753.278646,-8882.471304,666.185348,153.219100
753.278966,-9474.636058,370.102971,919.314598
753.279287,-9474.636058,222.061783,612.876398
753.279608,-9474.636058,222.061783,536.266849
753.279928,-9696.697840,74.020594,153.219100
753.280249,-9696.697840,222.061783,-153.219100
753.280570,-9548.656652,-148.041188,-689.485948
753.280890,-9474.636058,-148.041188,-766.095498
753.281211,-9696.697840,-370.102971,-612.876398
753.281531,-10436.903782,-222.061783,-1225.752797
753.281852,-9918.759623,-222.061783,-689.485948
753.282173,-9770.718434,-518.144159,-689.485948
753.282493,-9548.656652,-592.164754,-536.266849
753.282814,-8956.491898,518.144159,612.876398
753.283135,-9548.656652,-370.102971,-612.876398
753.283455,-9548.656652,-74.020594,-612.876398
753.283776,-9326.594869,-370.102971,0.000000
753.284096,-9622.677246,-222.061783,0.000000
753.284417,-9326.594869,-296.082377,536.266849
753.284738,-9474.636058,-148.041188,383.047749
753.285058,-9474.636058,-222.061783,612.876398
753.285379,-9548.656652,0.000000,1302.362347
753.285700,-9474.636058,-444.123565,1915.238745
753.286020,-9548.656652,-444.123565,1915.238745
753.286341,-9696.697840,-444.123565,1915.238745
753.286661,-9548.656652,-740.205942,2221.676944
753.286982,-9696.697840,-666.185348,2145.067394
753.287303,-9474.636058,-444.123565,2451.505594
753.287623,-9326.594869,-814.226536,2298.286494
753.287944,-9400.615463,-814.226536,1991.848295
753.288265,-9474.636058,-888.247130,1915.238745
753.288585,-9104.533087,-370.102971,1915.238745
753.288906,-9548.656652,-962.267725,1838.629195
753.289226,-9548.656652,-740.205942,2374.896044
753.289547,-9696.697840,-962.267725,2221.676944
753.289868,-9622.677246,-740.205942,2221.676944
753.290188,-9770.718434,-666.185348,2374.896044
753.290509,-9770.718434,-592.164754,2374.896044
753.290830,-9622.677246,-222.061783,2451.505594
753.291150,-9474.636058,-296.082377,2221.676944
753.291471,-9474.636058,-148.041188,2068.457845
753.291791,-9622.677246,0.000000,2298.286494
753.292112,-9622.677246,0.000000,2221.676944
753.292433,-9622.677246,74.020594,2145.067394
753.292753,-9622.677246,74.020594,1685.410096
753.293074,-9400.615463,0.000000,2451.505594
753.293395,-9548.656652,74.020594,1915.238745
753.293715,-9844.739029,222.061783,1762.019645
753.294036,-9992.780217,74.020594,1455.581446
753.294356,-9622.677246,74.020594,612.876398
753.294677,-9474.636058,148.041188,1072.533697
753.294998,-9992.780217,148.041188,919.314598
753.295318,-9548.656652,0.000000,536.266849
753.295639,-9548.656652,0.000000,153.219100
753.295960,-9548.656652,-222.061783,-76.609550
753.296280,-8956.491898,-370.102971,-612.876398
753.296601,-9474.636058,-444.123565,-383.047749
753.296921,-9474.636058,-370.102971,-842.705048
753.297242,-9548.656652,-444.123565,-766.095498
753.297563,-10214.842000,74.020594,-1225.752797
753.297883,-9770.718434,-296.082377,-612.876398
753.298204,-9474.636058,-296.082377,-612.876398
753.298524,-9770.718434,-296.082377,-612.876398
753.298845,-9548.656652,-296.082377,-536.266849
753.299166,-9622.677246,-296.082377,0.000000
753.299486,-9474.636058,-222.061783,0.000000
753.299807,-9474.636058,-370.102971,0.000000
753.300128,-9474.636058,-296.082377,76.609550
753.300448,-9770.718434,-666.185348,612.876398
753.300769,-9548.656652,-296.082377,1149.143247
753.301089,-9474.636058,-370.102971,689.485948
753.301410,-9622.677246,-444.123565,1149.143247
753.301731,-9622.677246,-444.123565,1608.800546
753.302051,-9326.594869,-518.144159,1302.362347
753.302372,-9622.677246,-444.123565,1685.410096
753.302693,-9548.656652,-592.164754,1915.238745
753.303013,-9696.697840,-518.144159,1915.238745
753.303334,-9770.718434,-222.061783,766.095498
753.303654,-9844.739029,-814.226536,1838.629195
753.303975,-9696.697840,-666.185348,1915.238745
753.304296,-9622.677246,-666.185348,2221.676944
753.304616,-9696.697840,-666.185348,2068.457845
753.304937,-9548.656652,-666.185348,2068.457845
753.305258,-9770.718434,-740.205942,1991.848295
753.305578,-9696.697840,-444.123565,2374.896044
753.305899,-9622.677246,-370.102971,1838.629195
753.306219,-9252.574275,-592.164754,1762.019645
753.306540,-9770.718434,-444.123565,1915.238745
753.306861,-9548.656652,0.000000,2068.457845
753.307181,-9770.718434,-222.061783,2068.457845
753.307502,-9474.636058,0.000000,919.314598
753.307823,-9844.739029,148.041188,2298.286494
753.308143,-9696.697840,0.000000,2298.286494
753.308464,-9474.636058,0.000000,1838.629195
753.308784,-9696.697840,444.123565,1915.238745
753.309105,-9548.656652,0.000000,1838.629195
753.309426,-9474.636058,0.000000,1915.238745
753.309746,-9844.739029,148.041188,1685.410096
753.310067,-9474.636058,0.000000,1378.971896
753.310388,-9474.636058,-222.061783,1225.752797
753.310708,-9622.677246,0.000000,919.314598
753.311029,-9474.636058,-296.082377,766.095498
753.311349,-9548.656652,-296.082377,306.438199
753.311670,-8808.450710,0.000000,-229.828649
753.311991,-9400.615463,-222.061783,-536.266849
753.312311,-9326.594869,-592.164754,-536.266849
753.312632,-9548.656652,-518.144159,-536.266849
753.312953,-9474.636058,-740.205942,-612.876398
753.313273,-9622.677246,-370.102971,-459.657299
753.313594,-9474.636058,-740.205942,-919.314598
753.313914,-9474.636058,-592.164754,-919.314598
753.314235,-9622.677246,-592.164754,-383.047749
753.314556,-9326.594869,-518.144159,-306.438199
753.314876,-9474.636058,-518.144159,-536.266849
753.315197,-9770.718434,-370.102971,-612.876398
753.315518,-9474.636058,-592.164754,229.828649
753.315838,-8586.388927,-1110.308913,0.000000
753.316159,-9622.677246,-148.041188,612.876398
753.316479,-9548.656652,-296.082377,306.438199
753.316800,-9400.615463,-296.082377,689.485948
753.317121,-9622.677246,0.000000,2834.553343
753.317441,-9770.718434,-148.041188,1455.581446
753.317762,-9844.739029,-222.061783,1225.752797
753.318083,-9770.718434,-222.061783,1455.581446
753.318403,-9770.718434,-592.164754,1532.190996
753.318724,-9474.636058,-740.205942,1378.971896
753.319044,-9474.636058,-888.247130,1838.629195
753.319365,-9696.697840,-888.247130,1532.190996
753.319686,-9622.677246,-888.247130,1838.629195
753.320006,-9770.718434,-1924.535449,842.705048
753.320327,-9548.656652,-1036.288319,1838.629195
753.320648,-9622.677246,-740.205942,1991.848295
753.320968,-9844.739029,-666.185348,2374.896044
753.321289,-9696.697840,-666.185348,1149.143247
753.321609,-9622.677246,-592.164754,1991.848295
753.321930,-9696.697840,-740.205942,2451.505594
753.322251,-9696.697840,-444.123565,2528.115143
753.322571,-9474.636058,-444.123565,2528.115143
753.322892,-9474.636058,-222.061783,2681.334243
753.323213,-9474.636058,-148.041188,2451.505594
753.323533,-9622.677246,-148.041188,2145.067394
753.323854,-9622.677246,0.000000,2451.505594
753.324174,-9474.636058,0.000000,2145.067394
753.324495,-9548.656652,0.000000,1915.238745
753.324816,-9696.697840,0.000000,1915.238745
753.325136,-9622.677246,0.000000,1991.848295
753.325457,-9770.718434,518.144159,3677.258390
753.325778,-9548.656652,0.000000,1685.410096
753.326098,-9474.636058,0.000000,1149.143247
753.326419,-9474.636058,222.061783,766.095498
753.326739,-9474.636058,296.082377,1072.533697
753.327060,-9178.553681,222.061783,229.828649
753.327381,-9474.636058,74.020594,76.609550
753.327701,-9474.636058,0.000000,-153.219100
753.328022,-9400.615463,-148.041188,-229.828649
753.328343,-9252.574275,-296.082377,-536.266849
753.328663,-9548.656652,0.000000,-536.266849
753.328984,-9548.656652,-296.082377,-689.485948
753.329304,-9622.677246,-148.041188,-766.095498
753.329625,-9622.677246,-222.061783,-306.438199
753.329946,-9474.636058,-222.061783,-689.485948
753.330266,-9696.697840,-296.082377,-612.876398
753.330587,-9548.656652,-222.061783,-306.438199
753.330908,-9474.636058,-296.082377,0.000000
753.331228,-9918.759623,-148.041188,0.000000
753.331549,-9474.636058,-370.102971,0.000000
753.331869,-9474.636058,-444.123565,459.657299
753.332190,-9474.636058,-296.082377,612.876398
753.332511,-10214.842000,0.000000,689.485948
753.332831,-9696.697840,-666.185348,1072.533697
753.333152,-9548.656652,-740.205942,995.924147
753.333473,-9474.636058,-962.267725,995.924147
753.333793,-10214.842000,-1258.350101,3140.991542
753.334114,-9770.718434,-740.205942,1838.629195
753.334434,-9474.636058,-814.226536,1762.019645
753.334755,-9548.656652,-666.185348,1685.410096
753.335076,-9622.677246,-888.247130,1915.238745
753.335396,-9622.677246,-740.205942,1685.410096
753.335717,-9474.636058,-1036.288319,1915.238745
753.336038,-9548.656652,-888.247130,2068.457845
753.336358,-9548.656652,-962.267725,2374.896044
753.336679,-9548.656652,-814.226536,2145.067394
753.336999,-9548.656652,-962.267725,2451.505594
753.337320,-9622.677246,-814.226536,2298.286494
753.337641,-9474.636058,-740.205942,2451.505594
753.337961,-9030.512492,-592.164754,2068.457845
753.338282,-9474.636058,-518.144159,2451.505594
753.338603,-9474.636058,-518.144159,2298.286494
753.338923,-9622.677246,-222.061783,2221.676944
753.339244,-9844.739029,-296.082377,1838.629195
753.339564,-9622.677246,0.000000,2451.505594
753.339885,-9992.780217,0.000000,2451.505594
753.340206,-9770.718434,148.041188,2145.067394
753.340526,-9918.759623,0.000000,2298.286494
753.340847,-9474.636058,0.000000,1685.410096
753.341168,-9770.718434,0.000000,1991.848295
753.341488,-9918.759623,0.000000,1685.410096
753.341809,-9770.718434,0.000000,995.924147
753.342129,-9992.780217,0.000000,1302.362347
753.342450,-9474.636058,-296.082377,612.876398
753.342771,-9474.636058,0.000000,306.438199
753.343091,-9622.677246,-222.061783,76.609550
753.343412,-9400.615463,-148.041188,-229.828649
753.343732,-9696.697840,-444.123565,-536.266849
753.344053,-9400.615463,-370.102971,-766.095498
753.344374,-9770.718434,-444.123565,-842.705048
753.344694,-9622.677246,-592.164754,-536.266849
753.345015,-8586.388927,-1184.329507,-689.485948
753.345336,-9474.636058,-370.102971,-766.095498
753.345656,-9474.636058,-592.164754,-842.705048
753.345977,-9474.636058,-370.102971,-995.924147
753.346297,-9252.574275,-666.185348,995.924147
753.346618,-9474.636058,-148.041188,-842.705048
753.346939,-9474.636058,-222.061783,-306.438199
753.347259,-9474.636058,-296.082377,229.828649
753.347580,-9474.636058,-222.061783,459.657299
753.347901,-9474.636058,-222.061783,306.438199
753.348221,-9400.615463,-370.102971,919.314598
753.348542,-9622.677246,-148.041188,1149.143247
753.348862,-9844.739029,0.000000,1608.800546
753.349183,-10066.800811,-148.041188,1532.190996
753.349504,-9548.656652,-148.041188,2221.676944
753.349824,-9770.718434,-222.061783,1838.629195
753.350145,-9696.697840,-296.082377,2068.457845
753.350466,-9548.656652,-444.123565,2145.067394
753.350786,-9548.656652,-666.185348,1838.629195
753.351107,-9696.697840,-888.247130,1838.629195
753.351427,-9548.656652,-814.226536,1838.629195
753.351748,-9696.697840,-888.247130,1915.238745
753.352069,-9844.739029,-518.144159,1915.238745
753.352389,-9770.718434,-592.164754,2145.067394
753.352710,-9622.677246,-370.102971,2757.943793
753.353031,-9622.677246,-592.164754,2451.505594
753.353351,-9844.739029,-444.123565,1915.238745
753.353672,-9770.718434,-370.102971,2528.115143
753.353992,-9474.636058,-296.082377,2604.724693
753.354313,-9400.615463,-296.082377,2221.676944
753.354634,-9474.636058,-444.123565,3370.820191
753.354954,-9474.636058,-148.041188,2374.896044
753.355275,-9474.636058,0.000000,2145.067394
753.355596,-9622.677246,0.000000,2221.676944
753.355916,-9622.677246,0.000000,2145.067394
753.356237,-9918.759623,74.020594,1915.238745
753.356557,-9918.759623,222.061783,1838.629195
753.356878,-9770.718434,74.020594,1532.190996
753.357199,-9474.636058,148.041188,1532.190996
753.357519,-9696.697840,444.123565,1762.019645
753.357840,-9548.656652,222.061783,842.705048
753.358161,-9548.656652,148.041188,459.657299
753.358481,-9326.594869,74.020594,229.828649
753.358802,-9548.656652,370.102971,-536.266849
753.359122,-9326.594869,0.000000,-459.657299
753.359443,-9548.656652,-296.082377,-153.219100
753.359764,-9548.656652,-296.082377,-842.705048
753.360084,-9474.636058,-444.123565,-995.924147
753.360405,-9326.594869,-518.144159,-612.876398
753.360726,-9548.656652,-370.102971,-689.485948
753.361046,-9696.697840,-370.102971,-459.657299
753.361367,-9696.697840,-666.185348,-995.924147
753.361687,-9030.512492,-1258.350101,-766.095498
753.362008,-9474.636058,-666.185348,-536.266849
753.362329,-9548.656652,-444.123565,0.000000
753.362649,-9918.759623,-592.164754,0.000000
753.362970,-8808.450710,-814.226536,1915.238745
753.363291,-9622.677246,-518.144159,306.438199
753.363611,-9252.574275,-518.144159,689.485948
753.363932,-9844.739029,-592.164754,1149.143247
753.364252,-9622.677246,-592.164754,1455.581446
753.364573,-9918.759623,-592.164754,995.924147
753.364894,-9548.656652,-592.164754,1685.410096
753.365214,-9918.759623,-592.164754,1532.190996
753.365535,-9622.677246,-370.102971,1915.238745
753.365856,-9548.656652,-222.061783,2451.505594
753.366176,-9548.656652,-518.144159,1762.019645
753.366497,-9696.697840,-888.247130,1915.238745
753.366817,-9622.677246,-814.226536,1991.848295
753.367138,-10288.862594,-1036.288319,2911.162892
753.367459,-9622.677246,-666.185348,2068.457845
753.367779,-9696.697840,-370.102971,2145.067394
753.368100,-9474.636058,-518.144159,2145.067394
753.368421,-9622.677246,-518.144159,2298.286494
753.368741,-9474.636058,-592.164754,2298.286494
753.369062,-9548.656652,-666.185348,2145.067394
753.369382,-9548.656652,-592.164754,1915.238745
753.369703,-9548.656652,-444.123565,1991.848295
753.370024,-9474.636058,148.041188,3294.210641
753.370344,-9548.656652,-518.144159,1915.238745
753.370665,-9474.636058,-518.144159,1991.848295
753.370986,-9548.656652,-370.102971,1838.629195
753.371306,-9622.677246,-296.082377,1915.238745
753.371627,-9326.594869,-296.082377,1838.629195
753.371948,-9474.636058,-148.041188,1762.019645
753.372268,-9474.636058,222.061783,1838.629195
753.372589,-9696.697840,296.082377,1685.410096
753.372910,-9696.697840,370.102971,536.266849
753.373230,-9696.697840,74.020594,1455.581446
753.373551,-9326.594869,0.000000,689.485948
753.373872,-9326.594869,0.000000,383.047749
753.374192,-9400.615463,0.000000,306.438199
753.374513,-9326.594869,148.041188,0.000000
753.374834,-9400.615463,-148.041188,-153.219100
753.375154,-9548.656652,0.000000,-689.485948
753.375475,-9474.636058,0.000000,-612.876398
753.375796,-9918.759623,0.000000,-612.876398
753.376116,-9696.697840,-370.102971,-536.266849
753.376437,-9696.697840,-222.061783,-459.657299
753.376757,-9770.718434,-74.020594,-459.657299
753.377078,-8882.471304,-518.144159,-383.047749
753.377399,-9474.636058,-740.205942,-766.095498
753.377719,-9548.656652,-296.082377,-383.047749
753.378040,-9696.697840,-370.102971,-229.828649
753.378361,-9474.636058,-592.164754,-306.438199
753.378681,-9474.636058,-222.061783,0.000000
753.379002,-9548.656652,-222.061783,383.047749
753.379323,-9696.697840,-370.102971,1225.752797
753.379643,-9548.656652,-222.061783,1608.800546
753.379964,-9474.636058,-222.061783,1915.238745
753.380285,-9622.677246,-222.061783,1762.019645
753.380605,-9548.656652,-444.123565,1915.238745
753.380926,-9548.656652,-444.123565,2145.067394
753.381247,-9622.677246,-1110.308913,1455.581446
753.381567,-9696.697840,-592.164754,1838.629195
753.381888,-9474.636058,-740.205942,1762.019645
753.382209,-9622.677246,-962.267725,2145.067394
753.382529,-9770.718434,-666.185348,1915.238745
753.382850,-9548.656652,-814.226536,2145.067394
753.383171,-9622.677246,-740.205942,2221.676944
753.383491,-9474.636058,-962.267725,2374.896044
753.383812,-9696.697840,-814.226536,2451.505594
753.384133,-9548.656652,-814.226536,2298.286494
753.384453,-9548.656652,-740.205942,2145.067394
753.384774,-9622.677246,-444.123565,2451.505594
753.385095,-9696.697840,-518.144159,2298.286494
753.385415,-8882.471304,444.123565,2298.286494
753.385736,-9474.636058,0.000000,1991.848295
753.386057,-9474.636058,0.000000,1915.238745
753.386377,-9474.636058,0.000000,1838.629195
753.386698,-9474.636058,74.020594,1532.190996
753.387018,-9474.636058,0.000000,2221.676944
753.387339,-9844.739029,148.041188,1991.848295
753.387660,-9844.739029,0.000000,1685.410096
753.387980,-9844.739029,222.061783,1608.800546
753.388301,-9992.780217,222.061783,1378.971896
753.388622,-9770.718434,370.102971,1302.362347
753.388942,-9696.697840,222.061783,766.095498
753.389263,-9474.636058,222.061783,536.266849
753.389584,-10732.986159,592.164754,229.828649
753.389904,-9548.656652,0.000000,229.828649
753.390225,-9696.697840,0.000000,0.000000
753.390546,-9622.677246,-148.041188,0.000000
753.390866,-9548.656652,0.000000,-1455.581446
753.391187,-9474.636058,-370.102971,-842.705048
753.391508,-9548.656652,-370.102971,-536.266849
753.391828,-9622.677246,-518.144159,-612.876398
753.392149,-9696.697840,-518.144159,-612.876398
753.392470,-9770.718434,-370.102971,-306.438199
753.392790,-9770.718434,-666.185348,-766.095498
753.393111,-9474.636058,-296.082377,-612.876398
753.393432,-9622.677246,-148.041188,-306.438199
753.393752,-9400.615463,-296.082377,536.266849
753.394073,-9474.636058,-296.082377,0.000000
753.394394,-9474.636058,-370.102971,76.609550
753.394714,-9770.718434,-222.061783,383.047749
753.395035,-9474.636058,0.000000,995.924147
753.395356,-9622.677246,-296.082377,612.876398
753.395676,-9622.677246,-222.061783,1072.533697
753.395997,-9622.677246,-148.041188,1455.581446
753.396318,-9622.677246,-518.144159,1685.410096
753.396638,-9474.636058,-666.185348,2374.896044
753.396959,-9622.677246,-666.185348,1838.629195
753.397279,-9548.656652,-592.164754,1685.410096
753.397600,-9696.697840,-444.123565,1608.800546
753.397921,-9474.636058,-962.267725,2145.067394
753.398241,-9770.718434,-740.205942,1991.848295
753.398562,-9548.656652,-888.247130,2145.067394
753.398883,-9622.677246,-740.205942,2221.676944
753.399203,-9474.636058,-740.205942,2298.286494
753.399524,-9622.677246,-814.226536,1915.238745
753.399845,-9474.636058,-740.205942,1915.238745
753.400165,-9548.656652,-814.226536,1685.410096
753.400486,-9474.636058,-592.164754,1915.238745
753.400807,-9622.677246,-592.164754,1532.190996
753.401127,-9622.677246,-518.144159,1991.848295
753.401448,-9548.656652,-222.061783,1991.848295
753.401769,-9548.656652,-74.020594,1532.190996
753.402089,-9770.718434,0.000000,1302.362347
753.402410,-9622.677246,0.000000,2068.457845
753.402731,-9992.780217,74.020594,2221.676944
753.403051,-9770.718434,0.000000,1915.238745
753.403372,-9770.718434,0.000000,-536.266849
753.403693,-9696.697840,148.041188,1608.800546
753.404013,-9548.656652,148.041188,1532.190996
753.404334,-9696.697840,0.000000,1378.971896
753.404655,-9104.533087,0.000000,1149.143247
753.404975,-9474.636058,148.041188,919.314598
753.405296,-9548.656652,-296.082377,229.828649
753.405617,-9474.636058,-74.020594,0.000000
753.405937,-9696.697840,-222.061783,-76.609550
753.406258,-9104.533087,-148.041188,0.000000
753.406578,-9548.656652,-296.082377,-459.657299
753.406899,-9696.697840,-370.102971,-306.438199
753.407220,-9844.739029,-370.102971,-536.266849
753.407540,-9622.677246,-148.041188,-1149.143247
753.407861,-9770.718434,-592.164754,-612.876398
753.408182,-9548.656652,-666.185348,-459.657299
753.408502,-9622.677246,-740.205942,-229.828649
753.408823,-9474.636058,-592.164754,-383.047749
753.409144,-9622.677246,-444.123565,-229.828649
753.409464,-9252.574275,-592.164754,-153.219100
753.409785,-9474.636058,-444.123565,0.000000
753.410106,-9474.636058,-444.123565,383.047749
753.410426,-9474.636058,-518.144159,1378.971896
753.410747,-9696.697840,-444.123565,1149.143247
753.411068,-9844.739029,-370.102971,842.705048
753.411388,-9770.718434,-296.082377,1302.362347
753.411709,-9918.759623,-148.041188,2145.067394
753.412030,-9844.739029,-518.144159,2068.457845
753.412350,-9622.677246,-592.164754,1838.629195
753.412671,-9844.739029,-666.185348,1838.629195
753.412992,-9400.615463,-592.164754,1455.581446
753.413312,-9474.636058,-592.164754,2068.457845
753.413633,-9474.636058,-222.061783,2068.457845
753.413954,-9622.677246,-518.144159,1762.019645
753.414274,-9474.636058,-444.123565,1608.800546
753.414595,-9474.636058,-888.247130,2604.724693
753.414916,-9918.759623,-296.082377,2298.286494
753.415236,-9844.739029,-444.123565,1915.238745
753.415557,-9474.636058,-814.226536,2068.457845
753.415878,-10214.842000,222.061783,2681.334243
753.416198,-9622.677246,-370.102971,1991.848295
753.416519,-9770.718434,-222.061783,2374.896044
753.416839,-9622.677246,-222.061783,2145.067394
753.417160,-9474.636058,-148.041188,1991.848295
753.417481,-9400.615463,-222.061783,1991.848295
753.417801,-9622.677246,-296.082377,1608.800546
753.418122,-9474.636058,-296.082377,1762.019645
753.418443,-9548.656652,0.000000,1991.848295
753.418763,-9400.615463,0.000000,1762.019645
753.419084,-9770.718434,0.000000,1838.629195
753.419405,-9548.656652,74.020594,1608.800546
753.419725,-9844.739029,370.102971,1532.190996
753.420046,-9400.615463,444.123565,1378.971896
753.420367,-9548.656652,148.041188,1072.533697
753.420687,-9474.636058,222.061783,612.876398
753.421008,-9474.636058,148.041188,383.047749
753.421329,-9548.656652,0.000000,0.000000
753.421649,-9400.615463,0.000000,306.438199
753.421970,-9252.574275,0.000000,0.000000
753.422291,-9622.677246,0.000000,0.000000
753.422611,-9474.636058,-74.020594,0.000000
753.422932,-9548.656652,-444.123565,-383.047749
753.423253,-9622.677246,-296.082377,-153.219100
753.423573,-9770.718434,-296.082377,-153.219100
753.423894,-9548.656652,-370.102971,-459.657299
753.424215,-8734.430116,0.000000,-689.485948
753.424535,-9770.718434,0.000000,-306.438199
753.424856,-9548.656652,-296.082377,-153.219100
753.425177,-9474.636058,-296.082377,-76.609550
753.425497,-9474.636058,-518.144159,-306.438199
753.425818,-9548.656652,-592.164754,0.000000
753.426139,-9474.636058,-666.185348,689.485948
753.426459,-9844.739029,-370.102971,1072.533697
753.426780,-9770.718434,-444.123565,1455.581446
753.427100,-9696.697840,-518.144159,1225.752797
753.427421,-9622.677246,-296.082377,1608.800546
753.427742,-9770.718434,-444.123565,1685.410096
753.428062,-9548.656652,-296.082377,1991.848295
753.428383,-9548.656652,-222.061783,1838.629195
753.428704,-9548.656652,-592.164754,1762.019645
753.429024,-9548.656652,-888.247130,1455.581446
753.429345,-9770.718434,-888.247130,1685.410096
753.429666,-9622.677246,-740.205942,1149.143247
753.429986,-9622.677246,-666.185348,2145.067394
753.430307,-9548.656652,-888.247130,2145.067394
753.430628,-9400.615463,-1110.308913,2068.457845
753.430948,-9474.636058,-888.247130,1915.238745
753.431269,-9474.636058,-814.226536,2374.896044
753.431590,-9400.615463,-814.226536,2374.896044
753.431910,-9474.636058,-666.185348,1685.410096
753.432231,-9400.615463,-592.164754,1915.238745
753.432552,-9104.533087,-444.123565,3217.601092
753.432872,-9474.636058,-444.123565,1838.629195
753.433193,-9548.656652,-296.082377,1762.019645
753.433514,-9474.636058,-518.144159,1608.800546
753.433834,-9622.677246,0.000000,1991.848295
753.434155,-9918.759623,-148.041188,1838.629195
753.434476,-9696.697840,0.000000,1991.848295
753.434796,-9770.718434,0.000000,1838.629195
753.435117,-9474.636058,74.020594,1532.190996
753.435438,-9622.677246,0.000000,1685.410096
753.435758,-9474.636058,148.041188,1302.362347
753.436079,-9548.656652,0.000000,995.924147
753.436400,-9326.594869,0.000000,995.924147
753.436720,-9622.677246,-740.205942,-612.876398
753.437041,-9474.636058,-148.041188,0.000000
753.437361,-9770.718434,-148.041188,383.047749
753.437682,-9622.677246,-148.041188,0.000000
753.438003,-9548.656652,-222.061783,-383.047749
753.438323,-9696.697840,-222.061783,-153.219100
753.438644,-9622.677246,-296.082377,-689.485948
753.438965,-9844.739029,-296.082377,-459.657299
753.439285,-9770.718434,-222.061783,-766.095498
753.439606,-9844.739029,-740.205942,-689.485948
753.439927,-9696.697840,-518.144159,-536.266849
753.440247,-9474.636058,-518.144159,-153.219100
753.440568,-9622.677246,-370.102971,-306.438199
753.440889,-8808.450710,0.000000,536.266849
753.441209,-9474.636058,-592.164754,0.000000
753.441530,-9474.636058,-296.082377,383.047749
753.441851,-9474.636058,-222.061783,383.047749
753.442171,-9474.636058,-148.041188,1072.533697
753.442492,-9844.739029,0.000000,1762.019645
753.442813,-9548.656652,-296.082377,1915.238745
753.443133,-10066.800811,-370.102971,2068.457845
753.443454,-9696.697840,-222.061783,1838.629195
753.443775,-9770.718434,-444.123565,1838.629195
753.444095,-9844.739029,-370.102971,1685.410096
753.444416,-9548.656652,-592.164754,1532.190996
753.444737,-9622.677246,-666.185348,1838.629195
753.445057,-9326.594869,74.020594,2221.676944
753.445378,-9622.677246,-592.164754,1762.019645
753.445699,-9696.697840,-666.185348,1685.410096
753.446019,-9622.677246,-518.144159,1991.848295
753.446340,-9696.697840,-518.144159,2298.286494
753.446660,-9992.780217,-222.061783,2451.505594
753.446981,-9844.739029,-296.082377,2298.286494
753.447302,-9548.656652,-592.164754,2068.457845
753.447622,-9770.718434,-296.082377,2451.505594
753.447943,-9474.636058,-222.061783,2374.896044
753.448264,-9474.636058,-74.020594,2068.457845
753.448584,-9400.615463,0.000000,1991.848295
753.448905,-9474.636058,-148.041188,1608.800546
753.449226,-10140.821405,0.000000,1762.019645
753.449546,-9622.677246,296.082377,1608.800546
753.449867,-9770.718434,222.061783,2221.676944
753.450188,-9548.656652,148.041188,1991.848295
753.450508,-10066.800811,222.061783,2298.286494
753.450829,-9918.759623,370.102971,1608.800546
753.451150,-9770.718434,296.082377,1685.410096
753.451470,-9622.677246,74.020594,1149.143247
753.451791,-9622.677246,74.020594,995.924147
753.452112,-9474.636058,0.000000,612.876398
753.452432,-9104.533087,0.000000,536.266849
753.452753,-9326.594869,0.000000,459.657299
753.453074,-9326.594869,0.000000,0.000000
753.453394,-9622.677246,-592.164754,0.000000
753.453715,-9474.636058,0.000000,-383.047749
753.454036,-9548.656652,-222.061783,-383.047749
753.454356,-9696.697840,-222.061783,-153.219100
753.454677,-9548.656652,-370.102971,0.000000
753.454998,-9474.636058,-370.102971,-153.219100
753.455318,-9770.718434,-666.185348,-536.266849
753.455639,-9474.636058,-370.102971,-536.266849
753.455960,-9474.636058,-592.164754,-766.095498
753.456280,-9696.697840,-148.041188,-459.657299
753.456601,-9474.636058,-518.144159,-383.047749
753.456921,-9400.615463,-592.164754,153.219100
753.457242,-9400.615463,-592.164754,0.000000
753.457563,-9918.759623,0.000000,1072.533697
753.457883,-9770.718434,-370.102971,842.705048
753.458204,-9548.656652,-518.144159,1455.581446
753.458525,-9622.677246,-296.082377,1455.581446
753.458845,-9770.718434,-222.061783,1532.190996
753.459166,-9844.739029,-296.082377,1532.190996
753.459487,-9696.697840,-518.144159,1915.238745
753.459807,-9770.718434,-740.205942,1685.410096
753.460128,-9622.677246,-888.247130,1455.581446
753.460449,-9844.739029,-888.247130,1685.410096
753.460769,-9696.697840,-740.205942,1915.238745
753.461090,-9548.656652,-888.247130,1838.629195
753.461411,-9548.656652,-1110.308913,1915.238745
753.461731,-8882.471304,-592.164754,1608.800546
753.462052,-9548.656652,-814.226536,1608.800546
753.462373,-9770.718434,-962.267725,2221.676944
753.462693,-9770.718434,-740.205942,2298.286494
753.463014,-9548.656652,-740.205942,2451.505594
753.463335,-9696.697840,-444.123565,1838.629195
753.463655,-9770.718434,-370.102971,2068.457845
753.463976,-9474.636058,-444.123565,1915.238745
753.464297,-9474.636058,-370.102971,1762.019645
753.464617,-9844.739029,-370.102971,1149.143247
753.464938,-9548.656652,-222.061783,1685.410096
753.465259,-9548.656652,-148.041188,1685.410096
753.465579,-9474.636058,-148.041188,2145.067394
753.465900,-9770.718434,-222.061783,689.485948
753.466221,-9770.718434,0.000000,1838.629195
753.466541,-9918.759623,518.144159,1991.848295
753.466862,-9622.677246,222.061783,1378.971896
753.467182,-9548.656652,296.082377,1608.800546
753.467503,-9474.636058,0.000000,1302.362347
753.467824,-9474.636058,0.000000,1225.752797
753.468144,-9326.594869,0.000000,459.657299
753.468465,-9474.636058,-148.041188,306.438199
753.468786,-9326.594869,-370.102971,-306.438199
753.469106,-9326.594869,-296.082377,0.000000
753.469427,-9474.636058,-370.102971,-383.047749
753.469748,-9474.636058,-296.082377,-229.828649
753.470069,-9474.636058,-518.144159,-1991.848295
753.470389,-9696.697840,-296.082377,-689.485948
753.470710,-9696.697840,-666.185348,-536.266849
753.471031,-9770.718434,-444.123565,-383.047749
753.471351,-9548.656652,-296.082377,-459.657299
753.471672,-9474.636058,-222.061783,-612.876398
753.471993,-9622.677246,-370.102971,-612.876398
753.472313,-9474.636058,-222.061783,-153.219100
753.472634,-9474.636058,-370.102971,-306.438199
753.472955,-9696.697840,-296.082377,229.828649
753.473275,-9622.677246,-370.102971,383.047749
753.473596,-9696.697840,0.000000,1225.752797
753.473917,-9622.677246,-222.061783,1072.533697
753.474238,-9400.615463,0.000000,1532.190996
753.474558,-9548.656652,0.000000,1762.019645
753.474879,-9770.718434,0.000000,1762.019645
753.475200,-9696.697840,-518.144159,1838.629195
753.475520,-9696.697840,-444.123565,1762.019645
753.475841,-9844.739029,-444.123565,1838.629195
753.476162,-9548.656652,-814.226536,1991.848295
753.476482,-9548.656652,-740.205942,1991.848295
753.476803,-9622.677246,-814.226536,1838.629195
753.477124,-9400.615463,-666.185348,2298.286494
753.477445,-9548.656652,-888.247130,2068.457845
753.477765,-9622.677246,-592.164754,1915.238745
753.478086,-9770.718434,-740.205942,2374.896044
753.478407,-10140.821405,-814.226536,2145.067394
753.478727,-9622.677246,-740.205942,2068.457845
753.479048,-9696.697840,-666.185348,1991.848295
753.479369,-9548.656652,-592.164754,2374.896044
753.479689,-9548.656652,-444.123565,2298.286494
753.480010,-9400.615463,-518.144159,2374.896044
753.480331,-9474.636058,-370.102971,1915.238745
753.480652,-9474.636058,-222.061783,1991.848295
753.480972,-9548.656652,148.041188,1991.848295
753.481293,-9770.718434,148.041188,2451.505594
753.481614,-9696.697840,0.000000,1915.238745
753.481934,-9622.677246,0.000000,1762.019645
753.482255,-9696.697840,296.082377,1608.800546
753.482576,-9770.718434,296.082377,919.314598
753.482896,-9622.677246,0.000000,1302.362347
753.483217,-9696.697840,148.041188,1225.752797
753.483538,-9474.636058,74.020594,383.047749
753.483859,-9548.656652,222.061783,1991.848295
753.484179,-9326.594869,-296.082377,229.828649
753.484500,-9400.615463,-148.041188,229.828649
753.484821,-9548.656652,0.000000,-383.047749
753.485141,-9474.636058,0.000000,-229.828649
753.485462,-9474.636058,0.000000,-536.266849
753.485783,-9548.656652,0.000000,-383.047749
753.486103,-9918.759623,-222.061783,-383.047749
753.486424,-9548.656652,-592.164754,-766.095498
753.486745,-10214.842000,148.041188,-1378.971896
753.487066,-9622.677246,-222.061783,-383.047749
753.487386,-9770.718434,-518.144159,-536.266849
753.487707,-9548.656652,-444.123565,0.000000
753.488028,-9474.636058,-444.123565,-1685.410096
753.488348,-9474.636058,-296.082377,-229.828649
753.488669,-9622.677246,-296.082377,459.657299
753.488990,-9622.677246,0.000000,842.705048
753.489310,-9696.697840,-74.020594,1455.581446
753.489631,-9770.718434,0.000000,1532.190996
753.489952,-9622.677246,-370.102971,1302.362347
753.490273,-9622.677246,-518.144159,1455.581446
753.490593,-9622.677246,-666.185348,1378.971896
753.490914,-10510.924376,0.000000,2068.457845
753.491235,-9696.697840,-296.082377,1838.629195
753.491555,-9622.677246,-518.144159,1685.410096
753.491876,-9474.636058,-666.185348,1991.848295
753.492197,-9622.677246,-1258.350101,1455.581446
753.492517,-9918.759623,-222.061783,2068.457845
753.492838,-9622.677246,-740.205942,2145.067394
753.493159,-9622.677246,-592.164754,2145.067394
753.493480,-9696.697840,-740.205942,2145.067394
753.493800,-9622.677246,-666.185348,2145.067394
753.494121,-9548.656652,-814.226536,2451.505594
753.494442,-9474.636058,-666.185348,2451.505594
753.494762,-9622.677246,-444.123565,1991.848295
753.495083,-9326.594869,-814.226536,1608.800546
753.495404,-9548.656652,0.000000,2221.676944
753.495724,-9622.677246,-444.123565,1762.019645
753.496045,-9548.656652,-222.061783,2145.067394
753.496366,-9844.739029,-222.061783,3217.601092
753.496687,-9474.636058,-222.061783,1378.971896
753.497007,-10066.800811,0.000000,1915.238745
753.497328,-9622.677246,148.041188,2145.067394
753.497649,-9696.697840,0.000000,1915.238745
753.497969,-9474.636058,74.020594,1532.190996
753.498290,-9770.718434,0.000000,1685.410096
753.498611,-9770.718434,148.041188,1455.581446
753.498931,-9696.697840,0.000000,1072.533697
753.499252,-9992.780217,0.000000,459.657299
753.499573,-9474.636058,0.000000,383.047749
753.499894,-9474.636058,0.000000,153.219100
753.500214,-9474.636058,-222.061783,-459.657299
753.500535,-9992.780217,74.020594,-1072.533697
753.500856,-9474.636058,-592.164754,-612.876398
753.501176,-9474.636058,-592.164754,-842.705048
753.501497,-9622.677246,-592.164754,-612.876398
753.501818,-9548.656652,-740.205942,-766.095498
753.502138,-9474.636058,-370.102971,-612.876398
753.502459,-9474.636058,-814.226536,-766.095498
753.502780,-9622.677246,-666.185348,-536.266849
753.503100,-9474.636058,-518.144159,-536.266849
753.503421,-9474.636058,0.000000,-612.876398
753.503742,-9474.636058,-444.123565,-229.828649
753.504063,-9622.677246,-296.082377,-459.657299
753.504383,-9474.636058,-296.082377,153.219100
753.504704,-9622.677246,0.000000,459.657299
753.505025,-9474.636058,-222.061783,995.924147
753.505345,-9770.718434,0.000000,1378.971896
753.505666,-9844.739029,-222.061783,1455.581446
753.505987,-9548.656652,-444.123565,1685.410096
753.506307,-9696.697840,0.000000,1225.752797
753.506628,-9696.697840,-444.123565,1762.019645
753.506949,-9696.697840,-666.185348,1838.629195
753.507270,-9770.718434,-666.185348,1991.848295
753.507590,-9030.512492,-444.123565,2528.115143
753.507911,-9548.656652,-1036.288319,1762.019645
753.508232,-9474.636058,-962.267725,1762.019645
753.508552,-9770.718434,-888.247130,1991.848295
753.508873,-9548.656652,-888.247130,2068.457845
753.509194,-9696.697840,-666.185348,1838.629195
753.509514,-9548.656652,-814.226536,2528.115143
753.509835,-9622.677246,-666.185348,2604.724693
753.510156,-9770.718434,-518.144159,2451.505594
753.510477,-9104.533087,-1184.329507,2834.553343
753.510797,-9474.636058,-444.123565,2068.457845
753.511118,-9622.677246,-296.082377,2068.457845
753.511439,-9548.656652,-222.061783,2145.067394
753.511759,-9548.656652,74.020594,1608.800546
753.512080,-9474.636058,-222.061783,2145.067394
753.512401,-9474.636058,0.000000,1762.019645
753.512721,-9548.656652,222.061783,2145.067394
753.513042,-9770.718434,222.061783,2298.286494
753.513363,-9622.677246,222.061783,2221.676944
753.513684,-9696.697840,148.041188,1685.410096
753.514004,-9548.656652,148.041188,1685.410096
753.514325,-9770.718434,444.123565,1532.190996
753.514646,-9400.615463,296.082377,1072.533697
753.514966,-9770.718434,296.082377,1225.752797
753.515287,-9400.615463,296.082377,536.266849
753.515608,-9400.615463,0.000000,153.219100
753.515928,-9400.615463,222.061783,-153.219100
753.516249,-9400.615463,0.000000,0.000000
753.516570,-9400.615463,0.000000,-306.438199
753.516891,-9400.615463,-148.041188,-766.095498
753.517211,-9474.636058,-592.164754,-842.705048
753.517532,-9696.697840,-296.082377,-689.485948
753.517853,-9770.718434,-148.041188,-459.657299
753.518173,-9696.697840,-370.102971,-766.095498
753.518494,-9548.656652,-148.041188,-612.876398
753.518815,-9844.739029,-518.144159,-229.828649
753.519135,-9696.697840,-444.123565,-76.609550
753.519456,-9548.656652,-296.082377,-229.828649
753.519777,-9474.636058,-518.144159,0.000000
753.520098,-9326.594869,-518.144159,-306.438199
753.520418,-9474.636058,-444.123565,383.047749
753.520739,-9548.656652,-296.082377,919.314598
753.521060,-9474.636058,-296.082377,1378.971896
753.521380,-9548.656652,-296.082377,1225.752797
753.521701,-9770.718434,-444.123565,1302.362347
753.522022,-9770.718434,-518.144159,1762.019645
753.522342,-9844.739029,-666.185348,1685.410096
753.522663,-9696.697840,-740.205942,2068.457845
753.522984,-9548.656652,-296.082377,1608.800546
753.523305,-9770.718434,-740.205942,2068.457845
753.523625,-9770.718434,-1036.288319,1838.629195
753.523946,-9622.677246,-888.247130,2068.457845
753.524267,-9696.697840,-1110.308913,2451.505594
753.524587,-9400.615463,-888.247130,1838.629195
753.524908,-9548.656652,-962.267725,2145.067394
753.525229,-9844.739029,-1184.329507,1991.848295
753.525549,-9622.677246,-962.267725,2145.067394
753.525870,-9622.677246,-888.247130,1991.848295
753.526191,-9622.677246,-888.247130,1838.629195
753.526512,-9696.697840,-814.226536,1608.800546
753.526832,-9400.615463,-666.185348,1838.629195
753.527153,-10288.862594,0.000000,1838.629195
753.527474,-9548.656652,-296.082377,1685.410096
753.527794,-9696.697840,-370.102971,2068.457845
753.528115,-9622.677246,-296.082377,1762.019645
753.528436,-9770.718434,-370.102971,2374.896044
753.528756,-9696.697840,0.000000,2068.457845
753.529077,-9770.718434,0.000000,2068.457845
753.529398,-9696.697840,222.061783,2068.457845
753.529719,-9770.718434,148.041188,1762.019645
753.530039,-9548.656652,148.041188,1685.410096
753.530360,-9622.677246,74.020594,995.924147
753.530681,-9474.636058,0.000000,919.314598
753.531001,-9474.636058,74.020594,536.266849
753.531322,-9178.553681,0.000000,1838.629195
753.531643,-9474.636058,-296.082377,0.000000
753.531963,-9474.636058,-444.123565,-383.047749
753.532284,-9474.636058,-444.123565,-689.485948
753.532605,-9474.636058,-888.247130,536.266849
753.532925,-9548.656652,-518.144159,-612.876398
753.533246,-9548.656652,-888.247130,-612.876398
753.533567,-9548.656652,-888.247130,-536.266849
753.533888,-9474.636058,-740.205942,-612.876398
753.534208,-9030.512492,-962.267725,-306.438199
753.534529,-9474.636058,-666.185348,-459.657299
753.534850,-9548.656652,-592.164754,0.000000
753.535170,-9622.677246,-740.205942,0.000000
753.535491,-9030.512492,-740.205942,-306.438199
753.535812,-9474.636058,-444.123565,0.000000
753.536132,-9548.656652,0.000000,459.657299
753.536453,-9844.739029,74.020594,1072.533697
753.536774,-9548.656652,0.000000,1762.019645
753.537095,-9770.718434,-222.061783,1302.362347
753.537415,-9622.677246,-74.020594,1762.019645
753.537736,-9622.677246,-148.041188,1762.019645
753.538057,-9770.718434,148.041188,1991.848295
753.538377,-9770.718434,74.020594,2528.115143
753.538698,-9770.718434,-222.061783,2145.067394
753.539019,-9696.697840,-444.123565,1532.190996
753.539339,-9622.677246,-444.123565,2068.457845
753.539660,-9844.739029,-592.164754,1762.019645
753.539981,-9770.718434,-444.123565,1991.848295
753.540302,-9548.656652,-444.123565,1685.410096
753.540622,-9622.677246,-592.164754,2221.676944
753.540943,-9918.759623,-296.082377,2451.505594
753.541264,-9696.697840,-370.102971,1225.752797
753.541584,-9696.697840,-296.082377,2834.553343
753.541905,-9770.718434,-518.144159,2298.286494
753.542226,-9474.636058,-74.020594,2221.676944
753.542546,-9400.615463,0.000000,2068.457845
753.542867,-9474.636058,74.020594,1991.848295
753.543188,-9474.636058,-296.082377,1838.629195
753.543509,-9474.636058,-148.041188,1608.800546
753.543829,-9474.636058,0.000000,1915.238745
753.544150,-9770.718434,296.082377,2221.676944
753.544471,-9548.656652,74.020594,2068.457845
753.544791,-9770.718434,148.041188,1991.848295
753.545112,-9622.677246,0.000000,1608.800546
753.545433,-9474.636058,0.000000,1532.190996
753.545753,-9548.656652,0.000000,1302.362347
753.546074,-9770.718434,148.041188,995.924147
753.546395,-9400.615463,0.000000,612.876398
753.546716,-9474.636058,148.041188,612.876398
753.547036,-9252.574275,0.000000,76.609550
753.547357,-8364.327145,-296.082377,-459.657299
753.547678,-9326.594869,-222.061783,0.000000
753.547998,-9326.594869,-148.041188,-229.828649
753.548319,-9400.615463,-222.061783,-383.047749
753.548640,-9770.718434,-296.082377,-383.047749
753.548960,-9252.574275,-370.102971,-766.095498
753.549281,-9622.677246,-370.102971,-689.485948
753.549602,-9548.656652,-370.102971,-689.485948
753.549923,-9696.697840,-370.102971,-766.095498
753.550243,-9918.759623,-518.144159,-229.828649
753.550564,-9622.677246,-370.102971,-229.828649
753.550885,-9474.636058,-444.123565,-383.047749
753.551205,-9770.718434,-592.164754,0.000000
753.551526,-9400.615463,-592.164754,0.000000
753.551847,-9474.636058,-444.123565,383.047749
753.552167,-9770.718434,-296.082377,689.485948
753.552488,-9548.656652,-444.123565,766.095498
753.552809,-9770.718434,-444.123565,1072.533697
753.553130,-9622.677246,-962.267725,995.924147
753.553450,-9770.718434,-518.144159,1762.019645
753.553771,-9770.718434,-592.164754,1838.629195
753.554092,-9770.718434,-740.205942,1915.238745
753.554412,-9474.636058,-888.247130,2221.676944
753.554733,-9844.739029,-888.247130,2068.457845
753.555054,-9622.677246,-1184.329507,1838.629195
753.555374,-9622.677246,-962.267725,1915.238745
753.555695,-9548.656652,-1036.288319,1915.238745
753.556016,-9992.780217,-592.164754,1991.848295
753.556337,-9548.656652,-666.185348,2145.067394
753.556657,-9770.718434,-592.164754,2068.457845
753.556978,-9622.677246,-814.226536,2298.286494
753.557299,-9104.533087,-1036.288319,2451.505594
753.557619,-9400.615463,-740.205942,2374.896044
753.557940,-9400.615463,-666.185348,2374.896044
753.558261,-9622.677246,-518.144159,2145.067394
753.558581,-9548.656652,-296.082377,2068.457845
753.558902,-9252.574275,-222.061783,2145.067394
753.559223,-9474.636058,-222.061783,1915.238745
753.559544,-9548.656652,0.000000,2221.676944
753.559864,-9696.697840,0.000000,2221.676944
753.560185,-9474.636058,370.102971,1991.848295
753.560506,-9770.718434,148.041188,1991.848295
753.560826,-9844.739029,592.164754,2068.457845
753.561147,-9696.697840,444.123565,1532.190996
753.561468,-9474.636058,444.123565,2068.457845
753.561788,-9548.656652,148.041188,1302.362347
753.562109,-9474.636058,444.123565,919.314598
753.562430,-9474.636058,518.144159,536.266849
753.562750,-9474.636058,148.041188,153.219100
753.563071,-9474.636058,74.020594,995.924147
753.563392,-9474.636058,0.000000,0.000000
753.563713,-9622.677246,-296.082377,76.609550
753.564033,-9770.718434,-222.061783,-229.828649
753.564354,-9400.615463,-296.082377,0.000000
753.564675,-9918.759623,-74.020594,-306.438199
753.564995,-9696.697840,-296.082377,-229.828649
753.565316,-9474.636058,-518.144159,-459.657299
753.565637,-9622.677246,-370.102971,0.000000
753.565957,-9400.615463,-370.102971,-689.485948
753.566278,-9474.636058,-592.164754,-842.705048
753.566599,-9326.594869,-296.082377,-153.219100
753.566920,-9548.656652,-370.102971,0.000000
753.567240,-9400.615463,-444.123565,76.609550
753.567561,-9474.636058,-518.144159,383.047749
753.567882,-9474.636058,-518.144159,689.485948
753.568202,-9622.677246,-222.061783,1072.533697
753.568523,-10066.800811,-740.205942,1838.629195
753.568844,-9474.636058,-444.123565,1532.190996
753.569165,-9474.636058,-740.205942,1532.190996
753.569485,-9622.677246,-296.082377,1455.581446
753.569806,-9696.697840,-666.185348,1838.629195
753.570127,-9622.677246,-444.123565,1838.629195
753.570447,-9548.656652,-592.164754,1685.410096
753.570768,-10066.800811,-1110.308913,1838.629195
753.571089,-9770.718434,-962.267725,1608.800546
753.571410,-9252.574275,-296.082377,1762.019645
753.571730,-9622.677246,-888.247130,1762.019645
753.572051,-9474.636058,-740.205942,1608.800546
753.572372,-9548.656652,-814.226536,1838.629195
753.572692,-9622.677246,-666.185348,1915.238745
753.573013,-9918.759623,-592.164754,2298.286494
753.573334,-9696.697840,-592.164754,2145.067394
753.573655,-9548.656652,-518.144159,1991.848295
753.573975,-9622.677246,-370.102971,2068.457845
753.574296,-8882.471304,0.000000,2911.162892
753.574617,-9474.636058,-444.123565,1608.800546
753.574937,-9548.656652,-222.061783,1302.362347
753.575258,-9474.636058,-222.061783,1915.238745
753.575579,-9622.677246,-222.061783,1991.848295
753.575900,-9622.677246,-148.041188,1685.410096
753.576220,-9844.739029,-148.041188,1762.019645
753.576541,-9474.636058,74.020594,1685.410096
753.576862,-9770.718434,0.000000,1532.190996
753.577182,-9474.636058,148.041188,1532.190996
753.577503,-9474.636058,-148.041188,919.314598
753.577824,-9474.636058,-148.041188,612.876398
753.578145,-9474.636058,0.000000,459.657299
753.578465,-9474.636058,0.000000,459.657299
753.578786,-9548.656652,0.000000,153.219100
753.579107,-9474.636058,74.020594,0.000000
753.579427,-9474.636058,0.000000,0.000000
753.579748,-9474.636058,0.000000,-229.828649
753.580069,-9622.677246,-296.082377,-536.266849
753.580390,-9474.636058,-222.061783,-153.219100
753.580710,-9474.636058,-518.144159,-229.828649
753.581031,-9474.636058,-296.082377,-306.438199
753.581352,-8956.491898,-518.144159,842.705048
753.581672,-9548.656652,0.000000,-306.438199
753.581993,-9548.656652,-370.102971,0.000000
753.582314,-9474.636058,0.000000,0.000000
753.582635,-9770.718434,-370.102971,0.000000
753.582955,-9474.636058,-222.061783,459.657299
753.583276,-9696.697840,-222.061783,689.485948
753.583597,-9770.718434,-296.082377,919.314598
753.583917,-9770.718434,-148.041188,919.314598
753.584238,-9326.594869,148.041188,1838.629195
753.584559,-9770.718434,-296.082377,1455.581446
753.584880,-9696.697840,0.000000,1685.410096
753.585200,-9918.759623,-222.061783,1378.971896
753.585521,-9918.759623,444.123565,1378.971896
753.585842,-9696.697840,-370.102971,1532.190996
753.586162,-9770.718434,-296.082377,1838.629195
753.586483,-9844.739029,-518.144159,1838.629195
753.586804,-9770.718434,-666.185348,1685.410096
753.587125,-9844.739029,-592.164754,1455.581446
753.587445,-9844.739029,-592.164754,2068.457845
753.587766,-9770.718434,-444.123565,1991.848295
753.588087,-9696.697840,-592.164754,2221.676944
753.588408,-9252.574275,-740.205942,1838.629195
753.588728,-9548.656652,-740.205942,1915.238745
753.589049,-9474.636058,-592.164754,1991.848295
753.589370,-9696.697840,-592.164754,2298.286494
753.589690,-9400.615463,-444.123565,2374.896044
753.590011,-9548.656652,-518.144159,1455.581446
753.590332,-9252.574275,-444.123565,2068.457845
753.590653,-9474.636058,-518.144159,1838.629195
753.590973,-9474.636058,-222.061783,1915.238745
753.591294,-9696.697840,-444.123565,1991.848295
753.591615,-9474.636058,-222.061783,2451.505594
753.591935,-9622.677246,0.000000,1838.629195
753.592256,-9622.677246,0.000000,2068.457845
753.592577,-9474.636058,-148.041188,2298.286494
753.592898,-9548.656652,0.000000,1762.019645
753.593218,-9548.656652,-74.020594,1378.971896
753.593539,-9400.615463,148.041188,995.924147
753.593860,-9548.656652,518.144159,1532.190996
753.594180,-9474.636058,0.000000,689.485948
753.594501,-9548.656652,-222.061783,0.000000
753.594822,-9400.615463,-370.102971,-229.828649
753.595143,-9770.718434,-444.123565,-383.047749
753.595463,-9400.615463,-296.082377,-612.876398
753.595784,-9622.677246,-370.102971,-766.095498
753.596105,-9770.718434,-370.102971,-689.485948
753.596425,-9696.697840,-444.123565,-995.924147
753.596746,-9326.594869,-962.267725,0.000000
753.597067,-9622.677246,-518.144159,-689.485948
753.597388,-9844.739029,-592.164754,-612.876398
753.597708,-9696.697840,-518.144159,-689.485948
753.598029,-9770.718434,-370.102971,-1072.533697
753.598350,-9696.697840,-370.102971,153.219100
753.598670,-9696.697840,-148.041188,229.828649
753.598991,-9548.656652,0.000000,919.314598
753.599312,-9770.718434,-148.041188,1149.143247
753.599633,-9696.697840,74.020594,1225.752797
753.599953,-9622.677246,-296.082377,1302.362347
753.600274,-9548.656652,-296.082377,1685.410096
753.600595,-9844.739029,-592.164754,1532.190996
753.600915,-10214.842000,0.000000,1532.190996
753.601236,-9696.697840,-518.144159,1378.971896
753.601557,-9474.636058,-592.164754,1532.190996
753.601878,-9548.656652,-592.164754,1532.190996
753.602198,-9474.636058,-888.247130,1762.019645
753.602519,-9548.656652,-962.267725,1532.190996
753.602840,-9474.636058,-888.247130,1532.190996
753.603160,-9548.656652,-666.185348,2221.676944
753.603481,-9548.656652,-888.247130,2298.286494
753.603802,-9474.636058,-888.247130,1991.848295
753.604123,-9474.636058,-592.164754,2451.505594
753.604443,-9400.615463,-370.102971,2681.334243
753.604764,-9474.636058,-518.144159,2374.896044
753.605085,-9104.533087,-592.164754,2298.286494
753.605405,-9622.677246,0.000000,2221.676944
753.605726,-9474.636058,-148.041188,2298.286494
753.606047,-9252.574275,-148.041188,2145.067394
753.606368,-9474.636058,370.102971,1302.362347
753.606688,-9474.636058,0.000000,1991.848295
753.607009,-9770.718434,0.000000,2451.505594
753.607330,-9918.759623,-148.041188,1991.848295
753.607650,-9918.759623,0.000000,2145.067394
753.607971,-10140.821405,148.041188,1915.238745
753.608292,-9770.718434,148.041188,1838.629195
753.608613,-9696.697840,0.000000,1608.800546
753.608933,-9770.718434,0.000000,1302.362347
753.609254,-9696.697840,296.082377,0.000000
753.609575,-9474.636058,74.020594,689.485948
753.609896,-9548.656652,0.000000,689.485948
753.610216,-9474.636058,0.000000,153.219100
753.610537,-9548.656652,740.205942,995.924147
753.610858,-9474.636058,0.000000,-229.828649
753.611178,-9548.656652,-370.102971,-229.828649
753.611499,-9474.636058,-444.123565,-842.705048
753.611820,-9696.697840,-592.164754,-536.266849
753.612141,-9548.656652,-370.102971,-689.485948
753.612461,-9622.677246,-592.164754,-536.266849
753.612782,-9696.697840,-592.164754,-306.438199
753.613103,-9696.697840,-592.164754,-689.485948
753.613423,-8660.409521,-518.144159,0.000000
753.613744,-9400.615463,-370.102971,-306.438199
753.614065,-9400.615463,-296.082377,-153.219100
753.614386,-9178.553681,-518.144159,0.000000
753.614706,-9548.656652,-518.144159,0.000000
753.615027,-9252.574275,-518.144159,612.876398
753.615348,-9622.677246,-666.185348,689.485948
753.615668,-9622.677246,-444.123565,1302.362347
753.615989,-9474.636058,-814.226536,1455.581446
753.616310,-9548.656652,-296.082377,1991.848295
753.616631,-9548.656652,-592.164754,1685.410096
753.616951,-9696.697840,-370.102971,1608.800546
753.617272,-9622.677246,-592.164754,1685.410096
753.617593,-8882.471304,74.020594,2451.505594
753.617913,-9696.697840,-740.205942,2221.676944
753.618234,-9622.677246,-444.123565,2145.067394
753.618555,-9696.697840,-518.144159,2298.286494
753.618876,-9474.636058,-518.144159,766.095498
753.619196,-9548.656652,-592.164754,1915.238745
753.619517,-9548.656652,-666.185348,2145.067394
753.619838,-9474.636058,-518.144159,2145.067394
753.620158,-9548.656652,-518.144159,1608.800546
753.620479,-9474.636058,-592.164754,2068.457845
753.620800,-9622.677246,-370.102971,2145.067394
753.621121,-9696.697840,-444.123565,2221.676944
753.621441,-9622.677246,-296.082377,1762.019645
753.621762,-9696.697840,0.000000,2374.896044
753.622083,-9844.739029,-296.082377,1915.238745
753.622403,-9844.739029,0.000000,2068.457845
753.622724,-9992.780217,74.020594,1991.848295
753.623045,-9622.677246,148.041188,3140.991542
753.623366,-9474.636058,0.000000,1838.629195
753.623686,-9696.697840,0.000000,1608.800546
753.624007,-9548.656652,74.020594,1455.581446
753.624328,-9474.636058,74.020594,1532.190996
753.624648,-9770.718434,74.020594,842.705048
753.624969,-9326.594869,0.000000,995.924147
753.625290,-9474.636058,0.000000,919.314598
753.625611,-9474.636058,74.020594,536.266849
753.625931,-9548.656652,-740.205942,-383.047749
753.626252,-9548.656652,-148.041188,-153.219100
753.626573,-9326.594869,-370.102971,-306.438199
753.626893,-9548.656652,-444.123565,-306.438199
753.627214,-9622.677246,-222.061783,-536.266849
753.627535,-9622.677246,-222.061783,-383.047749
753.627856,-9622.677246,-444.123565,0.000000
753.628176,-9622.677246,-444.123565,-459.657299
753.628497,-9548.656652,-666.185348,-766.095498
753.628818,-9474.636058,-592.164754,0.000000
753.629139,-9474.636058,-518.144159,-383.047749
753.629459,-9474.636058,-592.164754,76.609550
753.629780,-9474.636058,-518.144159,153.219100
753.630101,-9696.697840,-814.226536,1685.410096
753.630421,-9696.697840,-296.082377,383.047749
753.630742,-9622.677246,-444.123565,995.924147
753.631063,-9992.780217,-444.123565,1149.143247
753.631384,-9622.677246,-370.102971,1072.533697
753.631704,-9622.677246,-222.061783,1302.362347
753.632025,-9770.718434,-592.164754,1378.971896
753.632346,-9548.656652,-296.082377,1455.581446
753.632666,-9622.677246,-296.082377,1685.410096
753.632987,-9400.615463,-222.061783,1532.190996
753.633308,-9696.697840,-666.185348,1685.410096
753.633629,-9770.718434,-666.185348,1762.019645
753.633949,-9548.656652,-962.267725,1685.410096
753.634270,-9400.615463,-814.226536,536.266849
753.634591,-9696.697840,-740.205942,2145.067394
753.634911,-9474.636058,-592.164754,1762.019645
753.635232,-9770.718434,-592.164754,2145.067394
753.635553,-9992.780217,-444.123565,2298.286494
753.635874,-9696.697840,-740.205942,1685.410096
753.636194,-9770.718434,-444.123565,1915.238745
753.636515,-9770.718434,-370.102971,1991.848295
753.636836,-9696.697840,0.000000,1991.848295
753.637156,-9474.636058,-222.061783,2298.286494
753.637477,-9474.636058,-222.061783,2221.676944
753.637798,-9696.697840,-222.061783,1685.410096
753.638119,-9326.594869,-296.082377,1991.848295
753.638439,-9696.697840,-148.041188,1991.848295
753.638760,-9622.677246,0.000000,1838.629195
753.639081,-9992.780217,0.000000,1991.848295
753.639401,-9474.636058,0.000000,1608.800546
753.639722,-9622.677246,148.041188,1532.190996
753.640043,-9992.780217,0.000000,1225.752797
753.640364,-9474.636058,296.082377,1225.752797
753.640684,-9548.656652,0.000000,842.705048
753.641005,-9474.636058,148.041188,536.266849
753.641326,-9400.615463,0.000000,536.266849
753.641646,-9400.615463,74.020594,536.266849
753.641967,-9548.656652,0.000000,0.000000
753.642288,-9326.594869,0.000000,459.657299
753.642609,-9622.677246,-296.082377,0.000000
753.642929,-9474.636058,-592.164754,-459.657299
753.643250,-9548.656652,-518.144159,-459.657299
753.643571,-9400.615463,-444.123565,-383.047749
753.643891,-9548.656652,-370.102971,-306.438199
753.644212,-9178.553681,-740.205942,612.876398
753.644533,-9770.718434,-222.061783,-306.438199
753.644854,-9622.677246,-370.102971,0.000000
753.645174,-9548.656652,-518.144159,-153.219100
753.645495,-9474.636058,-592.164754,536.266849
753.645816,-9770.718434,-222.061783,383.047749
753.646136,-9622.677246,-222.061783,612.876398
753.646457,-9770.718434,-148.041188,766.095498
753.646778,-9696.697840,-148.041188,1149.143247
753.647099,-9770.718434,-296.082377,1149.143247
753.647419,-9548.656652,-148.041188,1762.019645
753.647740,-9844.739029,-148.041188,1532.190996
753.648061,-9622.677246,-222.061783,1762.019645
753.648381,-9696.697840,296.082377,536.266849
753.648702,-9622.677246,-518.144159,1838.629195
753.649023,-9622.677246,-814.226536,1225.752797
753.649344,-9696.697840,-814.226536,1608.800546
753.649664,-9844.739029,-740.205942,1685.410096
753.649985,-9770.718434,-592.164754,1991.848295
753.650306,-9622.677246,-444.123565,2221.676944
753.650627,-9844.739029,-740.205942,2068.457845
753.650947,-9474.636058,-962.267725,2221.676944
753.651268,-9918.759623,-518.144159,1838.629195
753.651589,-9400.615463,-1036.288319,1991.848295
753.651909,-9548.656652,-666.185348,1838.629195
753.652230,-9474.636058,-370.102971,1762.019645
753.652551,-9474.636058,-222.061783,1072.533697
753.652872,-9326.594869,-370.102971,1762.019645
753.653192,-9474.636058,-370.102971,1762.019645
753.653513,-9474.636058,-296.082377,1532.190996
753.653834,-9474.636058,0.000000,1762.019645
753.654154,-9474.636058,-222.061783,2451.505594
753.654475,-9548.656652,0.000000,1991.848295
753.654796,-9918.759623,0.000000,2145.067394
753.655117,-9474.636058,148.041188,2221.676944
753.655437,-9548.656652,0.000000,3217.601092
753.655758,-9548.656652,296.082377,1915.238745
753.656079,-9474.636058,222.061783,1455.581446
753.656399,-9400.615463,148.041188,995.924147
753.656720,-9474.636058,148.041188,0.000000
753.657041,-9474.636058,-222.061783,306.438199
753.657362,-9474.636058,0.000000,0.000000
753.657682,-9474.636058,0.000000,153.219100
753.658003,-9548.656652,-222.061783,-229.828649
753.658324,-9474.636058,0.000000,-306.438199
753.658644,-9770.718434,-296.082377,-383.047749
753.658965,-9548.656652,-296.082377,-383.047749
753.659286,-9844.739029,-296.082377,-536.266849
753.659607,-9770.718434,-222.061783,-1762.019645
753.659927,-9622.677246,-740.205942,-842.705048
753.660248,-9622.677246,-666.185348,-536.266849
753.660569,-9474.636058,-592.164754,-536.266849
753.660889,-9474.636058,-444.123565,-153.219100
753.661210,-9474.636058,-296.082377,0.000000
753.661531,-9474.636058,-222.061783,0.000000
753.661852,-9474.636058,-222.061783,689.485948
753.662172,-9770.718434,-148.041188,689.485948
753.662493,-9844.739029,-148.041188,1225.752797
753.662814,-9770.718434,-370.102971,1302.362347
753.663134,-9770.718434,-370.102971,1455.581446
753.663455,-9622.677246,-592.164754,1762.019645
753.663776,-9770.718434,-666.185348,1762.019645
753.664097,-9622.677246,-592.164754,1838.629195
753.664417,-9400.615463,-592.164754,1378.971896
753.664738,-9696.697840,-888.247130,1838.629195
753.665059,-9622.677246,-1036.288319,1991.848295
753.665379,-9326.594869,-1406.391290,1608.800546
753.665700,-9548.656652,-962.267725,1838.629195
753.666021,-9548.656652,-1110.308913,1991.848295
753.666342,-9696.697840,-962.267725,2298.286494
753.666662,-9844.739029,-1036.288319,2221.676944
753.666983,-9474.636058,-962.267725,2068.457845
753.667304,-9770.718434,-518.144159,2298.286494
753.667624,-9548.656652,-666.185348,2451.505594
753.667945,-9548.656652,-740.205942,2757.943793
753.668266,-9326.594869,-370.102971,2451.505594
753.668587,-9400.615463,-740.205942,1838.629195
753.668907,-9252.574275,-148.041188,1762.019645
753.669228,-9548.656652,-370.102971,1149.143247
753.669549,-9474.636058,0.000000,1532.190996
753.669869,-9474.636058,0.000000,1762.019645
753.670190,-9844.739029,222.061783,2145.067394
753.670511,-9770.718434,148.041188,1762.019645
753.670832,-9548.656652,0.000000,2145.067394
753.671152,-9992.780217,222.061783,1838.629195
753.671473,-9770.718434,148.041188,919.314598
753.671794,-9696.697840,148.041188,1149.143247
753.672114,-9178.553681,-74.020594,0.000000
753.672435,-9474.636058,296.082377,459.657299
753.672756,-9474.636058,0.000000,306.438199
753.673077,-9252.574275,-148.041188,0.000000
753.673397,-9622.677246,0.000000,0.000000
753.673718,-9474.636058,-296.082377,-306.438199
753.674039,-9474.636058,-592.164754,-689.485948
753.674359,-9474.636058,-518.144159,-1072.533697
753.674680,-9844.739029,-518.144159,-612.876398
753.675001,-9696.697840,-814.226536,-1149.143247
753.675321,-9548.656652,-740.205942,-612.876398
753.675642,-9622.677246,-666.185348,-766.095498
753.675963,-9474.636058,-444.123565,-536.266849
753.676284,-9252.574275,518.144159,612.876398
753.676604,-9474.636058,-296.082377,-153.219100
753.676925,-9548.656652,-444.123565,0.000000
753.677246,-9400.615463,-518.144159,153.219100
753.677566,-9474.636058,-666.185348,459.657299
753.677887,-9104.533087,-370.102971,1225.752797
753.678208,-9770.718434,-444.123565,1149.143247
753.678529,-9400.615463,-222.061783,1378.971896
753.678849,-9992.780217,0.000000,1685.410096
753.679170,-9474.636058,-518.144159,1532.190996
753.679491,-9918.759623,-148.041188,1915.238745
753.679811,-9474.636058,-296.082377,1762.019645
753.680132,-9622.677246,-592.164754,1991.848295
753.680453,-9696.697840,-592.164754,2145.067394
753.680773,-9622.677246,-666.185348,2068.457845
753.681094,-9622.677246,-666.185348,2298.286494
753.681415,-9622.677246,-592.164754,2298.286494
753.681736,-9548.656652,-592.164754,1991.848295
753.682056,-9696.697840,-592.164754,1915.238745
753.682377,-9770.718434,-592.164754,2451.505594
753.682698,-9770.718434,-518.144159,2374.896044
753.683018,-9622.677246,-666.185348,2374.896044
753.683339,-9252.574275,-592.164754,1685.410096
753.683660,-9474.636058,-518.144159,2221.676944
753.683981,-9696.697840,0.000000,1991.848295
753.684301,-9696.697840,0.000000,2298.286494
753.684622,-9770.718434,148.041188,2451.505594
753.684943,-9770.718434,0.000000,2145.067394
753.685263,-9622.677246,0.000000,2145.067394
753.685584,-9770.718434,222.061783,1838.629195
753.685905,-9622.677246,148.041188,1838.629195
753.686225,-9770.718434,222.061783,2374.896044
753.686546,-9474.636058,222.061783,1838.629195
753.686867,-9474.636058,222.061783,1685.410096
753.687188,-9474.636058,222.061783,1455.581446
753.687508,-8364.327145,296.082377,612.876398
753.687829,-9400.615463,370.102971,536.266849
753.688150,-9400.615463,148.041188,306.438199
753.688470,-9474.636058,74.020594,612.876398
753.688791,-9252.574275,222.061783,0.000000
753.689112,-9326.594869,-74.020594,-229.828649
753.689433,-9474.636058,-222.061783,-383.047749
753.689753,-9400.615463,-296.082377,-612.876398
753.690074,-9400.615463,-518.144159,-689.485948
753.690395,-9474.636058,-518.144159,-1072.533697
753.690715,-9326.594869,-740.205942,-842.705048
753.691036,-9474.636058,-444.123565,-995.924147
753.691357,-9474.636058,-518.144159,-995.924147
753.691677,-9622.677246,-740.205942,-383.047749
753.691998,-9474.636058,-222.061783,-766.095498
753.692319,-9696.697840,-370.102971,-612.876398
753.692640,-9474.636058,-444.123565,76.609550
753.692960,-9622.677246,-296.082377,153.219100
753.693281,-9548.656652,-370.102971,842.705048
753.693602,-9770.718434,-444.123565,1225.752797
753.693922,-9992.780217,-370.102971,1072.533697
753.694243,-9844.739029,-148.041188,1225.752797
753.694564,-9770.718434,-666.185348,1532.190996
753.694885,-9696.697840,-592.164754,1762.019645
753.695205,-9622.677246,-740.205942,1685.410096
753.695526,-9696.697840,-666.185348,1762.019645
753.695847,-10066.800811,-296.082377,1455.581446
753.696167,-9548.656652,-888.247130,1991.848295
753.696488,-9622.677246,-1184.329507,1838.629195
753.696809,-9844.739029,-1258.350101,2068.457845
753.697129,-9474.636058,-1332.370696,919.314598
753.697450,-9548.656652,-1480.411884,1915.238745
753.697771,-9696.697840,-1110.308913,2451.505594
753.698092,-9992.780217,-1184.329507,2451.505594
753.698412,-9474.636058,-888.247130,2451.505594
753.698733,-9622.677246,-1110.308913,2604.724693
753.699054,-9400.615463,-888.247130,2528.115143
753.699374,-9622.677246,-814.226536,2374.896044
753.699695,-9252.574275,-740.205942,2451.505594
753.700016,-9992.780217,74.020594,2298.286494
753.700337,-9474.636058,-518.144159,2145.067394
753.700657,-9400.615463,-518.144159,1762.019645
753.700978,-9622.677246,-296.082377,1838.629195
753.701299,-9696.697840,814.226536,3064.381992
753.701619,-9474.636058,0.000000,2374.896044
753.701940,-9622.677246,0.000000,1685.410096
753.702261,-9548.656652,148.041188,1455.581446
753.702581,-9770.718434,222.061783,1302.362347
753.702902,-9474.636058,296.082377,1225.752797
753.703223,-9548.656652,222.061783,536.266849
753.703544,-9400.615463,444.123565,383.047749
753.703864,-9474.636058,444.123565,229.828649
753.704185,-9474.636058,518.144159,536.266849
753.704506,-9474.636058,222.061783,-153.219100
753.704826,-9622.677246,296.082377,-229.828649
753.705147,-9326.594869,0.000000,-612.876398
753.705468,-9622.677246,0.000000,-229.828649
753.705789,-9622.677246,-148.041188,-612.876398
753.706109,-9696.697840,-74.020594,-459.657299
753.706430,-9622.677246,-222.061783,-766.095498
753.706751,-9918.759623,-148.041188,-842.705048
753.707071,-9548.656652,-518.144159,-766.095498
753.707392,-9548.656652,-74.020594,-536.266849
753.707713,-9622.677246,-296.082377,-229.828649
753.708033,-9548.656652,-148.041188,0.000000
753.708354,-9548.656652,-222.061783,-536.266849
753.708675,-9622.677246,-148.041188,383.047749
753.708996,-9622.677246,-518.144159,842.705048
753.709316,-9548.656652,-74.020594,1072.533697
753.709637,-9770.718434,-148.041188,1378.971896
753.709958,-9770.718434,0.000000,1532.190996
753.710278,-9548.656652,-370.102971,1762.019645
753.710599,-9622.677246,-148.041188,1838.629195
753.710920,-9622.677246,-518.144159,1685.410096
753.711241,-9696.697840,-814.226536,2221.676944
753.711561,-9770.718434,-296.082377,2374.896044
753.711882,-9474.636058,-518.144159,1991.848295
753.712203,-9622.677246,-370.102971,2298.286494
753.712523,-9770.718434,-296.082377,1991.848295
753.712844,-9770.718434,-740.205942,2451.505594
753.713165,-9548.656652,-666.185348,2221.676944
753.713485,-9622.677246,-592.164754,2451.505594
753.713806,-9696.697840,-666.185348,2298.286494
753.714127,-9474.636058,-296.082377,3064.381992
753.714448,-9622.677246,-666.185348,2068.457845
753.714768,-9548.656652,-592.164754,2145.067394
753.715089,-9474.636058,-518.144159,2374.896044
753.715410,-9474.636058,-518.144159,2451.505594
753.715730,-9548.656652,-444.123565,1838.629195
753.716051,-9474.636058,-370.102971,1685.410096
753.716372,-9548.656652,-296.082377,1455.581446
753.716693,-9474.636058,-148.041188,1915.238745
753.717013,-9844.739029,-296.082377,1991.848295
753.717334,-9622.677246,0.000000,1762.019645
753.717655,-9844.739029,222.061783,1685.410096
753.717975,-9696.697840,74.020594,1608.800546
753.718296,-9622.677246,-222.061783,766.095498
753.718617,-9474.636058,74.020594,1149.143247
753.718937,-9474.636058,0.000000,459.657299
753.719258,-9474.636058,0.000000,306.438199
753.719579,-9918.759623,814.226536,-153.219100
753.719900,-9252.574275,-148.041188,0.000000
753.720220,-9252.574275,0.000000,-536.266849
753.720541,-9474.636058,0.000000,-612.876398
753.720862,-9474.636058,-370.102971,-689.485948
753.721182,-9622.677246,-148.041188,-689.485948
753.721503,-9548.656652,-296.082377,-919.314598
753.721824,-9696.697840,-444.123565,-689.485948
753.722145,-9770.718434,-370.102971,-612.876398
753.722465,-9252.574275,-962.267725,-689.485948
753.722786,-9622.677246,-296.082377,-919.314598
753.723107,-9474.636058,-518.144159,-459.657299
753.723427,-9474.636058,-148.041188,-612.876398
753.723748,-9474.636058,-148.041188,-459.657299
753.724069,-9474.636058,-222.061783,76.609550
753.724390,-9622.677246,-518.144159,0.000000
753.724710,-9474.636058,-370.102971,459.657299
753.725031,-9770.718434,-370.102971,919.314598
753.725352,-9770.718434,-296.082377,995.924147
753.725672,-9844.739029,-370.102971,1378.971896
753.725993,-9474.636058,-518.144159,1072.533697
753.726314,-9696.697840,-518.144159,1685.410096
753.726634,-9844.739029,-444.123565,1608.800546
753.726955,-9992.780217,-592.164754,1838.629195
753.727276,-9548.656652,-444.123565,1915.238745
753.727597,-9622.677246,-740.205942,1838.629195
753.727917,-10066.800811,-1184.329507,766.095498
753.728238,-9696.697840,-814.226536,1915.238745
753.728559,-9696.697840,-814.226536,2374.896044
753.728879,-9548.656652,-814.226536,2145.067394
753.729200,-9696.697840,-814.226536,3370.820191
753.729521,-9696.697840,-814.226536,2604.724693
753.729842,-9918.759623,-666.185348,2451.505594
753.730162,-9548.656652,-814.226536,2681.334243
753.730483,-9622.677246,-518.144159,2374.896044
753.730804,-9548.656652,-222.061783,2604.724693
753.731124,-9696.697840,-370.102971,2298.286494
753.731445,-9474.636058,-740.205942,2451.505594
753.731766,-9622.677246,-518.144159,1991.848295
753.732086,-9696.697840,296.082377,1532.190996
753.732407,-9400.615463,-222.061783,1915.238745
753.732728,-9622.677246,0.000000,2068.457845
753.733049,-9696.697840,0.000000,2221.676944
753.733369,-9548.656652,222.061783,2528.115143
753.733690,-9918.759623,222.061783,1762.019645
753.734011,-9548.656652,74.020594,1608.800546
753.734331,-9770.718434,74.020594,1302.362347
753.734652,-9770.718434,296.082377,1225.752797
753.734973,-9548.656652,148.041188,842.705048
753.735294,-9474.636058,148.041188,459.657299
753.735614,-9474.636058,296.082377,306.438199
753.735935,-9474.636058,296.082377,0.000000
753.736256,-9474.636058,74.020594,612.876398
753.736576,-9548.656652,-296.082377,-153.219100
753.736897,-9548.656652,-148.041188,-689.485948
753.737218,-9696.697840,-222.061783,-612.876398
753.737538,-9696.697840,-222.061783,766.095498
753.737859,-9696.697840,-222.061783,-459.657299
753.738180,-9770.718434,-74.020594,-306.438199
753.738501,-9474.636058,-370.102971,-612.876398
753.738821,-9622.677246,0.000000,-766.095498
753.739142,-9844.739029,0.000000,-612.876398
753.739463,-9474.636058,-444.123565,-229.828649
753.739783,-9548.656652,-222.061783,0.000000
753.740104,-9548.656652,-370.102971,306.438199
753.740425,-9252.574275,-518.144159,612.876398
753.740746,-9474.636058,-296.082377,919.314598
753.741066,-9622.677246,-296.082377,1302.362347
753.741387,-9548.656652,-444.123565,1225.752797
753.741708,-9622.677246,-666.185348,1225.752797
753.742028,-9548.656652,-370.102971,1455.581446
753.742349,-9696.697840,-518.144159,1685.410096
753.742670,-9548.656652,-592.164754,1685.410096
753.742990,-9474.636058,-444.123565,1685.410096
753.743311,-9474.636058,-518.144159,1608.800546
753.743632,-9622.677246,-666.185348,1991.848295
753.743953,-9918.759623,-592.164754,1915.238745
753.744273,-9622.677246,-592.164754,1838.629195
753.744594,-9178.553681,-1036.288319,2757.943793
753.744915,-9622.677246,-814.226536,2298.286494
753.745235,-9770.718434,-888.247130,2221.676944
753.745556,-9622.677246,-888.247130,2451.505594
753.745877,-9474.636058,-1258.350101,3140.991542
753.746198,-9326.594869,-1036.288319,1915.238745
753.746518,-9696.697840,-962.267725,2221.676944
753.746839,-9474.636058,-444.123565,2145.067394
753.747160,-9622.677246,-592.164754,1838.629195
753.747480,-9548.656652,-370.102971,2451.505594
753.747801,-9548.656652,-518.144159,1991.848295
753.748122,-9548.656652,-296.082377,2145.067394
753.748442,-9696.697840,-296.082377,2068.457845
753.748763,-9770.718434,0.000000,2451.505594
753.749084,-9696.697840,148.041188,1838.629195
753.749405,-9622.677246,222.061783,1991.848295
753.749725,-9622.677246,222.061783,1532.190996
753.750046,-9696.697840,74.020594,1455.581446
753.750367,-9474.636058,148.041188,1072.533697
753.750687,-9474.636058,74.020594,842.705048
753.751008,-9474.636058,148.041188,612.876398
753.751329,-9400.615463,0.000000,612.876398
753.751650,-9548.656652,-222.061783,0.000000
753.751970,-9474.636058,0.000000,-229.828649
753.752291,-9474.636058,-296.082377,-383.047749
753.752612,-9548.656652,-148.041188,-459.657299
753.752932,-9548.656652,74.020594,383.047749
753.753253,-9844.739029,0.000000,-766.095498
753.753574,-9844.739029,0.000000,-459.657299
753.753894,-9622.677246,-370.102971,-459.657299
753.754215,-9622.677246,-296.082377,-536.266849
753.754536,-9400.615463,-370.102971,-919.314598
753.754857,-9474.636058,-592.164754,-1072.533697
753.755177,-9474.636058,-296.082377,-536.266849
753.755498,-9622.677246,-444.123565,-153.219100
753.755819,-9326.594869,-148.041188,459.657299
753.756139,-9474.636058,-148.041188,919.314598
753.756460,-9474.636058,-518.144159,995.924147
753.756781,-9770.718434,-444.123565,1225.752797
753.757102,-9918.759623,0.000000,1302.362347
753.757422,-9696.697840,-370.102971,1378.971896
753.757743,-9548.656652,-518.144159,1762.019645
753.758064,-9622.677246,-666.185348,1991.848295
753.758384,-9474.636058,-888.247130,1302.362347
753.758705,-9622.677246,-666.185348,1838.629195
753.759026,-9548.656652,-666.185348,2221.676944
753.759346,-9696.697840,-888.247130,1608.800546
753.759667,-9474.636058,-962.267725,2145.067394
753.759988,-9474.636058,-962.267725,1762.019645
753.760309,-9474.636058,-814.226536,1991.848295
753.760629,-9770.718434,-888.247130,2145.067394
753.760950,-9474.636058,-740.205942,2374.896044
753.761271,-9474.636058,-740.205942,1762.019645
753.761591,-9770.718434,-518.144159,2528.115143
753.761912,-9770.718434,-518.144159,2451.505594
753.762233,-9770.718434,-370.102971,2298.286494
753.762554,-9474.636058,296.082377,2374.896044
753.762874,-9474.636058,-592.164754,1915.238745
753.763195,-9622.677246,-148.041188,2298.286494
753.763516,-9696.697840,-222.061783,2145.067394
753.763836,-9622.677246,0.000000,1991.848295
753.764157,-9548.656652,0.000000,2145.067394
753.764478,-9548.656652,0.000000,2298.286494
753.764798,-9770.718434,0.000000,1915.238745
753.765119,-9622.677246,0.000000,1762.019645
753.765440,-9474.636058,-148.041188,1225.752797
753.765761,-9696.697840,0.000000,1149.143247
753.766081,-9622.677246,0.000000,1302.362347
753.766402,-9474.636058,0.000000,766.095498
753.766723,-9104.533087,-296.082377,1762.019645
753.767043,-9252.574275,0.000000,459.657299
753.767364,-9548.656652,74.020594,0.000000
753.767685,-9474.636058,-222.061783,76.609550
753.768006,-9474.636058,-222.061783,-383.047749
753.768326,-9178.553681,-444.123565,-306.438199
753.768647,-9474.636058,-518.144159,-459.657299
753.768968,-9474.636058,-370.102971,-229.828649
753.769288,-9548.656652,-370.102971,-536.266849
753.769609,-9622.677246,-666.185348,-536.266849
753.769930,-9622.677246,-296.082377,-536.266849
753.770250,-9770.718434,0.000000,-383.047749
753.770571,-9548.656652,-296.082377,-459.657299
753.770892,-9474.636058,0.000000,-76.609550
753.771213,-9548.656652,-222.061783,0.000000
753.771533,-9474.636058,-370.102971,306.438199
753.771854,-9696.697840,-518.144159,766.095498
753.772175,-9474.636058,-222.061783,1072.533697
753.772495,-9474.636058,-518.144159,536.266849
753.772816,-9696.697840,-222.061783,1302.362347
753.773137,-9548.656652,-444.123565,1608.800546
753.773457,-9622.677246,-370.102971,1455.581446
753.773778,-9178.553681,74.020594,2298.286494
753.774099,-9548.656652,-666.185348,2068.457845
753.774419,-9770.718434,-592.164754,1762.019645
753.774740,-9622.677246,-666.185348,1685.410096
753.775061,-9770.718434,-666.185348,1915.238745
753.775382,-9400.615463,-370.102971,1991.848295
753.775702,-9770.718434,-518.144159,2221.676944
753.776023,-9548.656652,-592.164754,2145.067394
753.776344,-9918.759623,-666.185348,2145.067394
753.776664,-9474.636058,-814.226536,3524.039291
753.776985,-9548.656652,-370.102971,2451.505594
753.777306,-9548.656652,-740.205942,2298.286494
753.777626,-9474.636058,-740.205942,2451.505594
753.777947,-9548.656652,-296.082377,1991.848295
753.778268,-8956.491898,-666.185348,1915.238745
753.778588,-9622.677246,-296.082377,2145.067394
753.778909,-9696.697840,-296.082377,1991.848295
753.779230,-9474.636058,-296.082377,2145.067394
753.779550,-9696.697840,-74.020594,2221.676944
753.779871,-9622.677246,-148.041188,2068.457845
753.780192,-9770.718434,222.061783,2145.067394
753.780512,-9696.697840,0.000000,1915.238745
753.780833,-9622.677246,0.000000,1532.190996
753.781154,-9622.677246,-148.041188,1302.362347
753.781475,-9548.656652,222.061783,1225.752797
753.781795,-9474.636058,0.000000,1072.533697
753.782116,-9474.636058,0.000000,919.314598
753.782437,-9474.636058,-814.226536,1455.581446
753.782757,-9252.574275,-370.102971,76.609550
753.783078,-9474.636058,-222.061783,0.000000
753.783399,-9400.615463,-444.123565,0.000000
753.783719,-9548.656652,-222.061783,0.000000
753.784040,-9474.636058,-518.144159,-229.828649
753.784361,-9474.636058,-444.123565,-229.828649
753.784681,-9622.677246,-518.144159,-612.876398
753.785002,-9844.739029,-592.164754,-459.657299
753.785323,-9770.718434,-296.082377,-842.705048
753.785643,-9548.656652,-666.185348,-995.924147
753.785964,-9696.697840,-370.102971,-766.095498
753.786285,-9622.677246,-444.123565,-612.876398
753.786606,-8882.471304,0.000000,-229.828649
753.786926,-9696.697840,-222.061783,-306.438199
753.787247,-9474.636058,-444.123565,306.438199
753.787568,-9696.697840,-296.082377,612.876398
753.787888,-9548.656652,-296.082377,995.924147
753.788209,-9622.677246,-296.082377,1378.971896
753.788530,-9918.759623,-296.082377,1378.971896
753.788850,-10066.800811,-296.082377,1455.581446
753.789171,-9696.697840,-296.082377,1455.581446
753.789492,-9696.697840,-592.164754,995.924147
753.789812,-9770.718434,-518.144159,1762.019645
753.790133,-9474.636058,-888.247130,1685.410096
753.790454,-9474.636058,-740.205942,1455.581446
753.790774,-9474.636058,-1036.288319,1302.362347
753.791095,-9622.677246,296.082377,3600.648841
753.791416,-9622.677246,-740.205942,1685.410096
753.791737,-9548.656652,-888.247130,1915.238745
753.792057,-9622.677246,-888.247130,2681.334243
753.792378,-9918.759623,-962.267725,2451.505594
753.792699,-9326.594869,-962.267725,2451.505594
753.793019,-9696.697840,-518.144159,2374.896044
753.793340,-9622.677246,-518.144159,2374.896044
753.793661,-9474.636058,-592.164754,2145.067394
753.793981,-9400.615463,-296.082377,2221.676944
753.794302,-9474.636058,-296.082377,2145.067394
753.794623,-9474.636058,-222.061783,2221.676944
753.794943,-9400.615463,-518.144159,1915.238745
753.795264,-9548.656652,-148.041188,2221.676944
753.795585,-9178.553681,666.185348,2068.457845
753.795905,-9622.677246,0.000000,2298.286494
753.796226,-9844.739029,-222.061783,1838.629195
753.796547,-9770.718434,74.020594,1915.238745
753.796868,-9918.759623,74.020594,1915.238745
753.797188,-9696.697840,0.000000,1378.971896
753.797509,-9548.656652,0.000000,1149.143247
753.797830,-9474.636058,74.020594,766.095498
753.798150,-9474.636058,0.000000,459.657299
753.798471,-9474.636058,0.000000,536.266849
753.798792,-9548.656652,0.000000,766.095498
753.799112,-9474.636058,-296.082377,0.000000
753.799433,-9326.594869,-444.123565,0.000000
753.799754,-9400.615463,-296.082377,-229.828649
753.800074,-9548.656652,-222.061783,-995.924147
753.800395,-9474.636058,-148.041188,-689.485948
753.800716,-9696.697840,0.000000,-383.047749
753.801036,-9622.677246,0.000000,-459.657299
753.801357,-9770.718434,-148.041188,-536.266849
753.801678,-9548.656652,0.000000,0.000000
753.801998,-9696.697840,0.000000,-76.609550
753.802319,-9548.656652,222.061783,0.000000
753.802640,-9770.718434,-222.061783,0.000000
753.802961,-9548.656652,296.082377,-689.485948
753.803281,-9622.677246,296.082377,766.095498
753.803602,-9400.615463,148.041188,689.485948
753.803923,-9548.656652,-148.041188,1149.143247
753.804243,-9474.636058,0.000000,1149.143247
753.804564,-9696.697840,0.000000,1685.410096
753.804885,-9548.656652,0.000000,1532.190996
753.805205,-9770.718434,-222.061783,1685.410096
753.805526,-9474.636058,-296.082377,1455.581446
753.805847,-9844.739029,-814.226536,766.095498
753.806167,-9548.656652,-518.144159,1685.410096
753.806488,-9696.697840,-518.144159,1915.238745
753.806809,-9474.636058,-666.185348,1838.629195
753.807129,-9622.677246,-296.082377,2374.896044
753.807450,-9696.697840,-444.123565,1915.238745
753.807771,-9474.636058,-592.164754,2221.676944
753.808092,-9252.574275,-518.144159,2145.067394
753.808412,-9474.636058,-592.164754,2068.457845
753.808733,-9474.636058,-666.185348,1915.238745
753.809054,-9474.636058,-444.123565,1685.410096
753.809374,-9474.636058,-518.144159,1838.629195
753.809695,-9400.615463,-296.082377,2221.676944
753.810016,-9474.636058,-666.185348,1455.581446
753.810336,-9474.636058,-592.164754,1762.019645
753.810657,-9622.677246,-222.061783,1762.019645
753.810978,-9548.656652,-296.082377,1838.629195
753.811298,-9548.656652,74.020594,919.314598
753.811619,-9474.636058,0.000000,1838.629195
753.811940,-9696.697840,148.041188,1991.848295
753.812260,-9622.677246,148.041188,1838.629195
753.812581,-9548.656652,74.020594,1608.800546
753.812902,-9548.656652,0.000000,1608.800546
753.813223,-9400.615463,-296.082377,995.924147
753.813543,-9474.636058,-222.061783,995.924147
753.813864,-9474.636058,-222.061783,536.266849
753.814185,-9474.636058,-888.247130,0.000000
753.814505,-9474.636058,-592.164754,383.047749
753.814826,-9696.697840,-740.205942,0.000000
753.815147,-9696.697840,-518.144159,0.000000
753.815467,-9548.656652,-888.247130,-306.438199
753.815788,-9548.656652,-888.247130,-612.876398
753.816109,-9770.718434,-666.185348,-612.876398
753.816429,-9548.656652,-592.164754,-536.266849
753.816750,-9548.656652,-814.226536,-689.485948
753.817071,-9844.739029,-740.205942,-459.657299
753.817391,-9622.677246,-740.205942,-459.657299
753.817712,-9622.677246,-814.226536,-229.828649
753.818033,-9474.636058,-814.226536,229.828649
753.818354,-9770.718434,-592.164754,0.000000
753.818674,-9622.677246,-666.185348,76.609550
753.818995,-9474.636058,-592.164754,842.705048
753.819316,-9622.677246,-370.102971,1072.533697
753.819636,-8956.491898,-222.061783,2451.505594
753.819957,-9548.656652,-296.082377,1378.971896
753.820278,-9770.718434,-370.102971,1302.362347
753.820598,-9770.718434,-444.123565,1532.190996
753.820919,-9770.718434,-222.061783,1608.800546
753.821240,-9548.656652,-740.205942,1762.019645
753.821560,-9622.677246,-666.185348,1685.410096
753.821881,-9622.677246,-740.205942,2068.457845
753.822202,-9770.718434,-1036.288319,1608.800546
753.822522,-9548.656652,-592.164754,1991.848295
753.822843,-9548.656652,-666.185348,1608.800546
753.823164,-9548.656652,-444.123565,1685.410096
753.823484,-9844.739029,-444.123565,1838.629195
753.823805,-10807.006753,0.000000,2451.505594
753.824126,-9770.718434,-444.123565,2068.457845
753.824447,-9696.697840,-222.061783,2221.676944
753.824767,-9844.739029,-592.164754,1991.848295
753.825088,-9548.656652,-148.041188,2451.505594
753.825409,-9474.636058,0.000000,2068.457845
753.825729,-9474.636058,0.000000,1991.848295
753.826050,-9474.636058,0.000000,2068.457845
753.826371,-9474.636058,0.000000,1838.629195
753.826691,-9844.739029,222.061783,2068.457845
753.827012,-9622.677246,0.000000,1991.848295
753.827333,-9696.697840,0.000000,1762.019645
753.827653,-9844.739029,296.082377,1915.238745
753.827974,-10436.903782,370.102971,2221.676944
753.828295,-9548.656652,74.020594,1532.190996
753.828615,-9548.656652,296.082377,1378.971896
753.828936,-9770.718434,148.041188,842.705048
753.829257,-9622.677246,0.000000,1072.533697
753.829578,-9252.574275,0.000000,536.266849
753.829898,-9400.615463,0.000000,689.485948
753.830219,-9400.615463,222.061783,229.828649
753.830540,-9474.636058,-148.041188,76.609550
753.830860,-9326.594869,-296.082377,-459.657299
753.831181,-9474.636058,-370.102971,0.000000
753.831502,-9474.636058,-370.102971,-306.438199
753.831822,-9474.636058,-444.123565,-612.876398
753.832143,-9474.636058,74.020594,229.828649
753.832464,-9696.697840,-222.061783,-76.609550
753.832784,-9696.697840,-148.041188,-536.266849
753.833105,-9548.656652,0.000000,-459.657299
753.833426,-9474.636058,0.000000,-229.828649
753.833746,-9770.718434,0.000000,0.000000
753.834067,-9474.636058,-518.144159,76.609550
753.834388,-9622.677246,-222.061783,536.266849
753.834709,-9622.677246,-370.102971,612.876398
753.835029,-9918.759623,-370.102971,383.047749
753.835350,-9622.677246,-370.102971,1072.533697
753.835671,-9770.718434,-370.102971,1225.752797
753.835991,-9770.718434,-444.123565,1608.800546
753.836312,-9992.780217,-1258.350101,1532.190996
753.836633,-9770.718434,-666.185348,1608.800546
753.836953,-9622.677246,-444.123565,1762.019645
753.837274,-9770.718434,-740.205942,1685.410096
753.837595,-9918.759623,-666.185348,1762.019645
753.837915,-9622.677246,-1110.308913,1762.019645
753.838236,-9696.697840,-962.267725,1455.581446
753.838557,-9770.718434,-888.247130,1302.362347
753.838877,-9622.677246,-1036.288319,2068.457845
753.839198,-9474.636058,-1036.288319,2068.457845
753.839519,-9696.697840,-962.267725,2374.896044
753.839840,-9622.677246,-962.267725,2068.457845
753.840160,-9474.636058,-962.267725,2145.067394
753.840481,-8882.471304,-740.205942,2451.505594
753.840802,-9474.636058,-666.185348,1915.238745
753.841122,-9474.636058,-666.185348,1762.019645
753.841443,-9252.574275,-740.205942,1685.410096
753.841764,-9400.615463,-444.123565,1608.800546
753.842084,-9770.718434,0.000000,1991.848295
753.842405,-9622.677246,-296.082377,1915.238745
753.842726,-9548.656652,0.000000,1685.410096
753.843046,-9770.718434,0.000000,1915.238745
753.843367,-9400.615463,148.041188,1915.238745
753.843688,-9844.739029,296.082377,1838.629195
753.844008,-9696.697840,370.102971,1838.629195
753.844329,-9770.718434,222.061783,1302.362347
753.844650,-9548.656652,148.041188,1149.143247
753.844970,-9326.594869,0.000000,919.314598
753.845291,-9474.636058,296.082377,383.047749
753.845612,-9474.636058,0.000000,153.219100
753.845933,-9474.636058,74.020594,0.000000
753.846253,-9548.656652,-222.061783,0.000000
753.846574,-9622.677246,-370.102971,-459.657299
753.846895,-9770.718434,-148.041188,-229.828649
753.847215,-9918.759623,-74.020594,-383.047749
753.847536,-9844.739029,-814.226536,-766.095498
753.847857,-9992.780217,-296.082377,-383.047749
753.848177,-9770.718434,-370.102971,-306.438199
753.848498,-9548.656652,-518.144159,-383.047749
753.848819,-9474.636058,74.020594,229.828649
753.849139,-9474.636058,-370.102971,0.000000
753.849460,-9622.677246,-222.061783,0.000000
753.849781,-9474.636058,-296.082377,76.609550
753.850101,-9474.636058,-296.082377,229.828649
753.850422,-9548.656652,-148.041188,919.314598
753.850743,-9622.677246,-370.102971,1149.143247
753.851064,-9622.677246,-148.041188,1455.581446
753.851384,-9622.677246,-148.041188,1762.019645
753.851705,-9252.574275,-592.164754,1685.410096
753.852026,-9548.656652,0.000000,1915.238745
753.852346,-9696.697840,0.000000,1838.629195
753.852667,-9474.636058,-518.144159,1915.238745
753.852988,-9474.636058,-740.205942,1685.410096
753.853308,-9474.636058,-370.102971,1915.238745
753.853629,-9770.718434,-592.164754,1762.019645
753.853950,-9474.636058,-666.185348,1915.238745
753.854270,-9622.677246,-740.205942,1762.019645
753.854591,-9548.656652,-592.164754,1685.410096
753.854912,-9474.636058,-592.164754,1838.629195
753.855232,-9622.677246,-666.185348,1915.238745
753.855553,-9548.656652,-666.185348,2145.067394
753.855874,-9474.636058,-370.102971,2911.162892
753.856195,-9622.677246,-370.102971,2221.676944
753.856515,-9548.656652,-296.082377,1991.848295
753.856836,-9548.656652,-444.123565,2374.896044
753.857157,-9918.759623,222.061783,1685.410096
753.857477,-9474.636058,-518.144159,2068.457845
753.857798,-9474.636058,-370.102971,1455.581446
753.858119,-9770.718434,-518.144159,1685.410096
753.858439,-9548.656652,-296.082377,1838.629195
753.858760,-9622.677246,-518.144159,1762.019645
753.859081,-9696.697840,0.000000,1532.190996
753.859401,-9918.759623,0.000000,1685.410096
753.859722,-9770.718434,0.000000,1685.410096
753.860043,-9770.718434,148.041188,1302.362347
753.860363,-9696.697840,74.020594,995.924147
753.860684,-9622.677246,222.061783,1072.533697
753.861005,-9474.636058,0.000000,612.876398
753.861326,-8808.450710,222.061783,1915.238745
753.861646,-9252.574275,-296.082377,-76.609550
753.861967,-9548.656652,-74.020594,383.047749
753.862288,-9474.636058,-148.041188,-306.438199
753.862608,-9474.636058,-370.102971,-306.438199
753.862929,-9622.677246,-296.082377,-536.266849
753.863250,-9400.615463,-148.041188,-306.438199
753.863570,-9622.677246,-444.123565,-536.266849
753.863891,-9548.656652,-370.102971,-383.047749
753.864212,-9474.636058,-296.082377,76.609550
753.864532,-9548.656652,-444.123565,-536.266849
753.864853,-9548.656652,-518.144159,-153.219100
753.865174,-9474.636058,-444.123565,-153.219100
753.865494,-9844.739029,74.020594,306.438199
753.865815,-9400.615463,-222.061783,459.657299
753.866136,-9770.718434,-296.082377,459.657299
753.866457,-9548.656652,-296.082377,766.095498
753.866777,-9844.739029,-74.020594,1378.971896
753.867098,-9696.697840,0.000000,1149.143247
753.867419,-9770.718434,-370.102971,1532.190996
753.867739,-9696.697840,-518.144159,1762.019645
753.868060,-9474.636058,-666.185348,1685.410096
753.868381,-9400.615463,-370.102971,1685.410096
753.868701,-9622.677246,-740.205942,1532.190996
753.869022,-9622.677246,-740.205942,1762.019645
753.869343,-9622.677246,-962.267725,1608.800546
753.869663,-9770.718434,0.000000,1838.629195
753.869984,-9474.636058,-592.164754,1838.629195
753.870305,-9696.697840,-592.164754,1991.848295
753.870625,-9696.697840,-666.185348,2374.896044
753.870946,-9696.697840,-740.205942,1991.848295
753.871267,-9474.636058,-592.164754,1991.848295
753.871587,-9548.656652,-592.164754,2068.457845
753.871908,-9622.677246,-370.102971,1915.238745
753.872229,-9622.677246,-370.102971,2221.676944
753.872549,-9844.739029,0.000000,1915.238745
753.872870,-9548.656652,-148.041188,2145.067394
753.873191,-9474.636058,-296.082377,1915.238745
753.873511,-9622.677246,-222.061783,2068.457845
753.873832,-9696.697840,0.000000,2068.457845
753.874153,-9622.677246,0.000000,2068.457845
753.874473,-9696.697840,148.041188,1838.629195
753.874794,-9622.677246,222.061783,1991.848295
753.875115,-9474.636058,222.061783,1838.629195
753.875435,-9622.677246,148.041188,1532.190996
753.875756,-9474.636058,222.061783,1608.800546
753.876077,-9622.677246,0.000000,1532.190996
753.876397,-9548.656652,0.000000,766.095498
753.876718,-9400.615463,-74.020594,1532.190996
753.877039,-9252.574275,0.000000,459.657299
753.877359,-9622.677246,-222.061783,0.000000
753.877680,-9474.636058,-296.082377,-153.219100
753.878001,-9474.636058,-296.082377,-153.219100
753.878321,-9474.636058,-592.164754,-459.657299
753.878642,-9548.656652,-444.123565,-842.705048
753.878963,-9474.636058,-444.123565,-306.438199
753.879283,-9696.697840,-592.164754,-612.876398
753.879604,-9622.677246,-370.102971,-612.876398
753.879925,-9622.677246,-740.205942,-383.047749
753.880245,-9474.636058,-370.102971,-536.266849
753.880566,-9474.636058,-518.144159,-536.266849
753.880887,-9400.615463,-444.123565,-229.828649
753.881207,-9548.656652,-518.144159,0.000000
753.881528,-9474.636058,-296.082377,0.000000
753.881849,-9696.697840,-370.102971,612.876398
753.882169,-9622.677246,296.082377,2528.115143
753.882490,-9696.697840,-592.164754,1378.971896
753.882811,-9696.697840,-370.102971,1149.143247
753.883131,-9622.677246,-370.102971,1149.143247
753.883452,-9548.656652,-518.144159,1532.190996
753.883773,-10066.800811,-370.102971,1838.629195
753.884093,-9844.739029,-592.164754,1532.190996
753.884414,-9696.697840,-740.205942,1762.019645
753.884735,-9548.656652,-740.205942,1762.019645
753.885055,-9474.636058,-1184.329507,2374.896044
753.885376,-9474.636058,-888.247130,1838.629195
753.885697,-9696.697840,-1036.288319,1762.019645
753.886017,-9622.677246,-814.226536,1915.238745
753.886338,-9696.697840,-1036.288319,1762.019645
753.886659,-9918.759623,-592.164754,2374.896044
753.886979,-9696.697840,-444.123565,2145.067394
753.887300,-9770.718434,-370.102971,2298.286494
753.887621,-9844.739029,-222.061783,2298.286494
753.887941,-9548.656652,-74.020594,2221.676944
753.888262,-9474.636058,-296.082377,1991.848295
753.888583,-9474.636058,-370.102971,2298.286494
753.888903,-9622.677246,-296.082377,1838.629195
753.889224,-9252.574275,0.000000,1915.238745
753.889545,-9474.636058,0.000000,1608.800546
753.889865,-9696.697840,222.061783,1915.238745
753.890186,-9918.759623,148.041188,2145.067394
753.890507,-9770.718434,592.164754,2221.676944
753.890827,-9474.636058,222.061783,2145.067394
753.891148,-9622.677246,74.020594,1915.238745
753.891469,-9770.718434,148.041188,1455.581446
753.891789,-9622.677246,0.000000,1149.143247
753.892110,-9326.594869,148.041188,1302.362347
753.892431,-9474.636058,222.061783,536.266849
753.892751,-9252.574275,0.000000,459.657299
753.893072,-9474.636058,74.020594,0.000000
753.893393,-9326.594869,0.000000,-306.438199
753.893713,-9326.594869,0.000000,-153.219100
753.894034,-9474.636058,-518.144159,-306.438199
753.894355,-9474.636058,-592.164754,-306.438199
753.894675,-9252.574275,-444.123565,-383.047749
753.894996,-9326.594869,-296.082377,-383.047749
753.895317,-9548.656652,-592.164754,-306.438199
753.895637,-9622.677246,-296.082377,-306.438199
753.895958,-9474.636058,0.000000,-459.657299
753.896279,-9400.615463,-370.102971,0.000000
753.896599,-9400.615463,-370.102971,153.219100
753.896920,-9474.636058,-222.061783,153.219100
753.897241,-9770.718434,0.000000,383.047749
753.897561,-9548.656652,-518.144159,-153.219100
753.897882,-9474.636058,-222.061783,766.095498
753.898203,-9696.697840,0.000000,1072.533697
753.898523,-9622.677246,-222.061783,919.314598
753.898844,-9548.656652,962.267725,2145.067394
753.899165,-9918.759623,-296.082377,1302.362347
753.899485,-9770.718434,-518.144159,1762.019645
753.899806,-9844.739029,-518.144159,1225.752797
753.900127,-9918.759623,-592.164754,1378.971896
753.900447,-9918.759623,-518.144159,1608.800546
753.900768,-9474.636058,-518.144159,1685.410096
753.901089,-9548.656652,-740.205942,1762.019645
753.901409,-9696.697840,-666.185348,1608.800546
753.901730,-9622.677246,-1184.329507,1455.581446
753.902051,-9474.636058,-740.205942,1838.629195
753.902371,-9548.656652,-962.267725,1915.238745
753.902692,-9696.697840,-888.247130,2068.457845
753.903013,-9400.615463,-1850.514855,1685.410096
753.903333,-9474.636058,-888.247130,1762.019645
753.903654,-9474.636058,-888.247130,1838.629195
753.903975,-9400.615463,-888.247130,2068.457845
753.904295,-9474.636058,-666.185348,2145.067394
753.904616,-9400.615463,-592.164754,1915.238745
753.904937,-9474.636058,-740.205942,1915.238745
753.905257,-9474.636058,-370.102971,2068.457845
753.905578,-9622.677246,-148.041188,2298.286494
753.905899,-9474.636058,-148.041188,2681.334243
753.906219,-9622.677246,-296.082377,1915.238745
753.906540,-9474.636058,0.000000,1915.238745
753.906861,-9696.697840,0.000000,2221.676944
753.907181,-8734.430116,-296.082377,3753.867940
753.907502,-9622.677246,0.000000,1685.410096
753.907823,-9548.656652,0.000000,1225.752797
753.908143,-9474.636058,-148.041188,842.705048
753.908464,-9400.615463,-370.102971,383.047749
753.908785,-9622.677246,-222.061783,459.657299
753.909105,-9548.656652,-148.041188,0.000000
753.909426,-9548.656652,-148.041188,-153.219100
753.909746,-9770.718434,-444.123565,-153.219100
753.910067,-9474.636058,-444.123565,-306.438199
753.910388,-9770.718434,-592.164754,0.000000
753.910708,-9844.739029,-370.102971,-76.609550
753.911029,-9696.697840,-740.205942,-536.266849
753.911350,-9548.656652,-592.164754,766.095498
753.911670,-9770.718434,-518.144159,-229.828649
753.911991,-9622.677246,-370.102971,0.000000
753.912312,-9696.697840,-296.082377,0.000000
753.912632,-9548.656652,-444.123565,0.000000
753.912953,-9548.656652,-370.102971,0.000000
753.913274,-9622.677246,-74.020594,459.657299
753.913594,-9622.677246,-222.061783,1225.752797
753.913915,-9548.656652,-222.061783,1532.190996
753.914236,-8512.368333,-1036.288319,2987.772442
753.914556,-9696.697840,-148.041188,1455.581446
753.914877,-9622.677246,-296.082377,1685.410096
753.915198,-9696.697840,-148.041188,1762.019645
753.915518,-9696.697840,-296.082377,1762.019645
753.915839,-9622.677246,-370.102971,1532.190996
753.916160,-9548.656652,-592.164754,1762.019645
753.916480,-9474.636058,-814.226536,1532.190996
753.916801,-9474.636058,-814.226536,1378.971896
753.917122,-9622.677246,-888.247130,1455.581446
753.917442,-9474.636058,-740.205942,1838.629195
753.917763,-9548.656652,-740.205942,1608.800546
753.918084,-9696.697840,-740.205942,1685.410096
753.918404,-9326.594869,-296.082377,3753.867940
753.918725,-9548.656652,-444.123565,1915.238745
753.919046,-9622.677246,-444.123565,1991.848295
753.919366,-9474.636058,-592.164754,1991.848295
753.919687,-9474.636058,-370.102971,1915.238745
753.920008,-9474.636058,-370.102971,1915.238745
753.920328,-9474.636058,0.000000,1838.629195
753.920649,-9696.697840,-222.061783,1608.800546
753.920970,-9400.615463,0.000000,1608.800546
753.921290,-9400.615463,-148.041188,1532.190996
753.921611,-9770.718434,148.041188,1915.238745
753.921932,-9622.677246,296.082377,1685.410096
753.922252,-9844.739029,296.082377,1685.410096
753.922573,-9918.759623,962.267725,2681.334243
753.922894,-9844.739029,148.041188,1225.752797
753.923214,-9548.656652,148.041188,842.705048
753.923535,-9474.636058,74.020594,1149.143247
753.923856,-9400.615463,148.041188,689.485948
753.924176,-9548.656652,74.020594,306.438199
753.924497,-9400.615463,0.000000,0.000000
753.924818,-9622.677246,0.000000,-153.219100
753.925138,-9622.677246,-222.061783,-229.828649
753.925459,-9622.677246,-222.061783,0.000000
753.925780,-9474.636058,-592.164754,-153.219100
753.926100,-9622.677246,-666.185348,-383.047749
753.926421,-9474.636058,-444.123565,-383.047749
753.926742,-9474.636058,370.102971,306.438199
753.927062,-9696.697840,-148.041188,0.000000
753.927383,-9474.636058,-148.041188,-383.047749
753.927704,-9474.636058,-444.123565,-306.438199
753.928024,-9548.656652,-370.102971,153.219100
753.928345,-9474.636058,-740.205942,306.438199
753.928666,-9474.636058,-444.123565,689.485948
753.928986,-9474.636058,-962.267725,766.095498
753.929307,-9474.636058,-592.164754,1072.533697
753.929628,-9400.615463,-740.205942,1915.238745
753.929948,-9474.636058,-444.123565,1455.581446
753.930269,-9696.697840,-592.164754,1378.971896
753.930590,-9474.636058,-518.144159,1225.752797
753.930910,-9474.636058,-1036.288319,1072.533697
753.931231,-9474.636058,-592.164754,1838.629195
753.931552,-9696.697840,-518.144159,1532.190996
753.931872,-9548.656652,-370.102971,2451.505594
753.932193,-9622.677246,-814.226536,2068.457845
753.932514,-9326.594869,-962.267725,1762.019645
753.932834,-9770.718434,-592.164754,2298.286494
753.933155,-9696.697840,-740.205942,2068.457845
753.933476,-9770.718434,-814.226536,2298.286494
753.933796,-9770.718434,-1036.288319,1762.019645
753.934117,-9622.677246,-592.164754,1991.848295
753.934438,-9548.656652,-740.205942,2145.067394
753.934758,-9622.677246,-370.102971,2221.676944
753.935079,-10214.842000,-296.082377,2451.505594
753.935400,-9622.677246,0.000000,2068.457845
753.935720,-9770.718434,-148.041188,2145.067394
753.936041,-9770.718434,0.000000,1915.238745
753.936362,-9770.718434,-222.061783,1991.848295
753.936682,-9918.759623,-74.020594,2068.457845
753.937003,-9844.739029,0.000000,2145.067394
753.937324,-9918.759623,0.000000,1915.238745
753.937644,-9696.697840,0.000000,1762.019645
753.937965,-9400.615463,0.000000,1455.581446
753.938286,-9844.739029,74.020594,1455.581446
753.938606,-9696.697840,0.000000,1149.143247
753.938927,-9474.636058,0.000000,1072.533697
753.939248,-8882.471304,666.185348,1685.410096
753.939568,-9474.636058,0.000000,459.657299
753.939889,-9252.574275,-296.082377,0.000000
753.940210,-9622.677246,0.000000,0.000000
753.940530,-9548.656652,-296.082377,-383.047749
753.940851,-9474.636058,-296.082377,-766.095498
753.941172,-9696.697840,-370.102971,-229.828649
753.941492,-9474.636058,-370.102971,-612.876398
753.941813,-9622.677246,-592.164754,-689.485948
753.942134,-9622.677246,-592.164754,-536.266849
753.942454,-9474.636058,-740.205942,-766.095498
753.942775,-9474.636058,-444.123565,-766.095498
753.943096,-9474.636058,-74.020594,-612.876398
753.943416,-8956.491898,518.144159,-1532.190996
753.943737,-9474.636058,-222.061783,-383.047749
753.944058,-9474.636058,-296.082377,76.609550
753.944378,-9548.656652,0.000000,229.828649
753.944699,-9696.697840,0.000000,612.876398
753.945020,-9622.677246,-148.041188,1072.533697
753.945340,-9696.697840,-296.082377,1072.533697
753.945661,-9770.718434,-296.082377,1532.190996
753.945982,-9770.718434,0.000000,1455.581446
753.946302,-9770.718434,-296.082377,1762.019645
753.946623,-9844.739029,-592.164754,1915.238745
753.946944,-9696.697840,-370.102971,1915.238745
753.947264,-9622.677246,-666.185348,1838.629195
753.947585,-9918.759623,370.102971,842.705048
753.947906,-9622.677246,-740.205942,1685.410096
753.948226,-9770.718434,-592.164754,2068.457845
753.948547,-9548.656652,-740.205942,1455.581446
753.948868,-9548.656652,-666.185348,1991.848295
753.949188,-9474.636058,-814.226536,1838.629195
753.949509,-9696.697840,-888.247130,2604.724693
753.949830,-9770.718434,-740.205942,2681.334243
753.950150,-9548.656652,-962.267725,2298.286494
753.950471,-9178.553681,-518.144159,2528.115143
753.950792,-9474.636058,-370.102971,2528.115143
753.951112,-9474.636058,-148.041188,2528.115143
753.951433,-9548.656652,-518.144159,2451.505594
753.951754,-9474.636058,0.000000,1762.019645
753.952074,-9474.636058,-222.061783,2298.286494
753.952395,-9474.636058,0.000000,2221.676944
753.952716,-9474.636058,-148.041188,1991.848295
753.953036,-9696.697840,0.000000,1838.629195
753.953357,-9474.636058,148.041188,1915.238745
753.953678,-9696.697840,222.061783,1762.019645
753.953998,-9696.697840,0.000000,1455.581446
753.954319,-9622.677246,0.000000,1225.752797
753.954640,-9474.636058,0.000000,995.924147
753.954960,-9548.656652,296.082377,612.876398
753.955281,-9474.636058,74.020594,383.047749
753.955602,-9474.636058,0.000000,0.000000
753.955922,-9326.594869,-148.041188,536.266849
753.956243,-9474.636058,0.000000,-306.438199
753.956564,-9474.636058,-296.082377,-766.095498
753.956884,-9474.636058,-222.061783,-766.095498
753.957205,-9474.636058,-222.061783,-919.314598
753.957526,-9548.656652,0.000000,-536.266849
753.957846,-9696.697840,-222.061783,-766.095498
753.958167,-9548.656652,-518.144159,-612.876398
753.958488,-9696.697840,-222.061783,-612.876398
753.958808,-10658.965565,518.144159,-536.266849
753.959129,-9770.718434,0.000000,0.000000
753.959450,-9696.697840,0.000000,-153.219100
753.959770,-9474.636058,-148.041188,-229.828649
753.960091,-9326.594869,0.000000,-766.095498
753.960412,-9622.677246,-148.041188,76.609550
753.960732,-9622.677246,-74.020594,919.314598
