#time,accel_x,accel_y,accel_z
700.793997,-9622.677246,-2368.659014,-842.705048
700.794318,-9474.636058,-1924.535449,-306.438199
700.794639,-9622.677246,-1776.494261,0.000000
700.794960,-8956.491898,-2368.659014,1991.848295
700.795281,-9326.594869,-1184.329507,-229.828649
700.795602,-9548.656652,-444.123565,-459.657299
700.795923,-9252.574275,296.082377,0.000000
700.796244,-9918.759623,-222.061783,306.438199
700.796565,-9770.718434,-296.082377,0.000000
700.796886,-10066.800811,-888.247130,76.609550
700.797207,-9844.739029,-666.185348,306.438199
700.797528,-10288.862594,-296.082377,919.314598
700.797849,-9770.718434,0.000000,1302.362347
700.798170,-9918.759623,-74.020594,1378.971896
700.798491,-9622.677246,-222.061783,1378.971896
700.798812,-9474.636058,-666.185348,1072.533697
700.799133,-9474.636058,0.000000,229.828649
700.799454,-9400.615463,-518.144159,1532.190996
700.799775,-9030.512492,-740.205942,1685.410096
700.800096,-8956.491898,-1036.288319,1685.410096
700.800417,-9178.553681,-1110.308913,1762.019645
700.800738,-9474.636058,-1258.350101,1915.238745
700.801059,-9622.677246,-1406.391290,2221.676944
700.801380,-9474.636058,-592.164754,1762.019645
700.801701,-9474.636058,-592.164754,1762.019645
700.802022,-9474.636058,666.185348,2221.676944
700.802343,-9400.615463,148.041188,1455.581446
700.802664,-9622.677246,0.000000,919.314598
700.802985,-9474.636058,370.102971,842.705048
700.803306,-9548.656652,814.226536,689.485948
700.803627,-9770.718434,592.164754,459.657299
700.803948,-9474.636058,296.082377,229.828649
700.804269,-9474.636058,0.000000,459.657299
700.804590,-9622.677246,-444.123565,306.438199
700.804911,-9400.615463,-666.185348,995.924147
700.805232,-9770.718434,-888.247130,459.657299
700.805553,-9548.656652,-740.205942,612.876398
700.805874,-9622.677246,-1332.370696,842.705048
700.806195,-9548.656652,-1258.350101,0.000000
700.806516,-9252.574275,-962.267725,536.266849
700.806837,-9696.697840,-666.185348,612.876398
700.807158,-9844.739029,-222.061783,612.876398
700.807479,-9696.697840,-148.041188,766.095498
700.807800,-9696.697840,-370.102971,612.876398
700.808121,-9400.615463,-148.041188,612.876398
700.808442,-9622.677246,-444.123565,459.657299
700.808763,-9400.615463,-444.123565,383.047749
700.809084,-9770.718434,0.000000,1149.143247
700.809405,-9918.759623,-592.164754,766.095498
700.809726,-9474.636058,-666.185348,689.485948
700.810047,-9770.718434,-740.205942,919.314598
700.810368,-9474.636058,-1480.411884,383.047749
700.810689,-9992.780217,-518.144159,1302.362347
700.811010,-9770.718434,-592.164754,1608.800546
700.811331,-9696.697840,-814.226536,1378.971896
700.811652,-9474.636058,-148.041188,2145.067394
700.811973,-9622.677246,-740.205942,1455.581446
700.812294,-9474.636058,-592.164754,1532.190996
700.812615,-9622.677246,-444.123565,1608.800546
700.812936,-9474.636058,-592.164754,1762.019645
700.813257,-9400.615463,-592.164754,1991.848295
700.813578,-9474.636058,-592.164754,1225.752797
700.813899,-9474.636058,-666.185348,1225.752797
700.814220,-9548.656652,-370.102971,1072.533697
700.814541,-9474.636058,-296.082377,383.047749
700.814862,-9474.636058,-370.102971,919.314598
700.815183,-9918.759623,-518.144159,842.705048
700.815504,-9326.594869,-444.123565,689.485948
700.815825,-9696.697840,0.000000,2451.505594
700.816146,-9622.677246,-74.020594,842.705048
700.816467,-9770.718434,-148.041188,919.314598
700.816788,-9770.718434,0.000000,689.485948
700.817109,-9622.677246,0.000000,995.924147
700.817430,-9770.718434,148.041188,306.438199
700.817750,-9696.697840,0.000000,306.438199
700.818071,-9474.636058,0.000000,306.438199
700.818392,-9474.636058,0.000000,306.438199
700.818713,-9104.533087,-666.185348,-153.219100
700.819033,-9696.697840,-296.082377,153.219100
700.819354,-9548.656652,-222.061783,306.438199
700.819675,-9548.656652,-222.061783,76.609550
700.819996,-9696.697840,0.000000,536.266849
700.820316,-9770.718434,0.000000,229.828649
700.820637,-9474.636058,-592.164754,612.876398
700.820958,-9548.656652,-222.061783,689.485948
700.821279,-9474.636058,-148.041188,919.314598
700.821599,-10066.800811,444.123565,842.705048
700.821920,-9326.594869,-296.082377,1072.533697
700.822241,-9548.656652,0.000000,1072.533697
700.822561,-9474.636058,-222.061783,995.924147
700.822882,-9622.677246,-222.061783,689.485948
700.823203,-9622.677246,0.000000,1378.971896
700.823524,-9622.677246,0.000000,1455.581446
700.823844,-9770.718434,0.000000,1302.362347
700.824165,-9548.656652,0.000000,1225.752797
700.824486,-9696.697840,0.000000,1072.533697
700.824807,-9696.697840,-296.082377,1455.581446
700.825127,-9770.718434,-370.102971,1378.971896
700.825448,-9770.718434,-518.144159,1608.800546
700.825769,-9844.739029,-888.247130,1302.362347
700.826090,-9474.636058,-592.164754,1532.190996
700.826410,-9844.739029,-370.102971,1532.190996
700.826731,-9474.636058,-296.082377,1685.410096
700.827052,-9400.615463,-666.185348,1838.629195
700.827373,-9474.636058,-370.102971,1072.533697
700.827693,-9474.636058,-296.082377,1072.533697
700.828014,-9548.656652,-370.102971,919.314598
700.828335,-9696.697840,0.000000,919.314598
700.828656,-9474.636058,-296.082377,1378.971896
700.828976,-9548.656652,-148.041188,766.095498
700.829297,-9770.718434,-296.082377,1149.143247
700.829618,-9770.718434,-296.082377,1072.533697
700.829938,-9178.553681,-592.164754,1455.581446
700.830259,-9474.636058,-296.082377,536.266849
700.830580,-9622.677246,-592.164754,766.095498
700.830901,-9400.615463,-296.082377,536.266849
700.831221,-9326.594869,-518.144159,2528.115143
700.831542,-9474.636058,-148.041188,536.266849
700.831863,-9548.656652,-296.082377,766.095498
700.832184,-9326.594869,-444.123565,766.095498
700.832504,-9622.677246,-518.144159,612.876398
700.832825,-9622.677246,0.000000,612.876398
700.833146,-9548.656652,-296.082377,612.876398
700.833467,-9770.718434,-444.123565,766.095498
700.833787,-9548.656652,-592.164754,919.314598
700.834108,-9844.739029,-592.164754,1225.752797
700.834429,-9622.677246,-370.102971,766.095498
700.834750,-9918.759623,-444.123565,995.924147
700.835070,-9770.718434,0.000000,1455.581446
700.835391,-9770.718434,-222.061783,1302.362347
700.835712,-9844.739029,-296.082377,1225.752797
700.836033,-9474.636058,-592.164754,1302.362347
700.836353,-9548.656652,-444.123565,1072.533697
700.836674,-9474.636058,-222.061783,1455.581446
700.836995,-10140.821405,0.000000,1915.238745
700.837315,-9474.636058,-148.041188,1302.362347
700.837636,-9400.615463,-444.123565,1685.410096
700.837957,-9474.636058,-370.102971,1455.581446
700.838278,-9918.759623,-148.041188,229.828649
700.838598,-9696.697840,-296.082377,1072.533697
700.838919,-9696.697840,-370.102971,1302.362347
700.839240,-9548.656652,-148.041188,1455.581446
700.839561,-9696.697840,-592.164754,1455.581446
700.839881,-9548.656652,-74.020594,1225.752797
700.840202,-9474.636058,-148.041188,1302.362347
700.840523,-9696.697840,-148.041188,1378.971896
700.840844,-9770.718434,0.000000,1455.581446
700.841164,-9770.718434,0.000000,1532.190996
700.841485,-9696.697840,0.000000,1302.362347
700.841806,-9474.636058,-296.082377,1302.362347
700.842127,-9548.656652,-370.102971,1225.752797
700.842447,-8734.430116,0.000000,2374.896044
700.842768,-9474.636058,-296.082377,842.705048
700.843089,-9326.594869,-296.082377,1072.533697
700.843410,-9548.656652,-370.102971,766.095498
700.843730,-9696.697840,-444.123565,2374.896044
700.844051,-9770.718434,-592.164754,766.095498
700.844372,-9696.697840,-740.205942,766.095498
700.844692,-9548.656652,-370.102971,689.485948
700.845013,-9770.718434,-666.185348,689.485948
700.845334,-9622.677246,0.000000,919.314598
700.845655,-9622.677246,-518.144159,1072.533697
700.845975,-9548.656652,-370.102971,842.705048
700.846296,-9622.677246,-370.102971,919.314598
700.846617,-9474.636058,-444.123565,1149.143247
700.846938,-9474.636058,-444.123565,1072.533697
700.847258,-9474.636058,-296.082377,842.705048
700.847579,-9474.636058,0.000000,1225.752797
700.847900,-9548.656652,-444.123565,995.924147
700.848221,-9474.636058,-592.164754,766.095498
700.848541,-9622.677246,-444.123565,689.485948
700.848862,-9844.739029,-370.102971,689.485948
700.849183,-9696.697840,-814.226536,1072.533697
700.849504,-9918.759623,0.000000,612.876398
700.849824,-9548.656652,-592.164754,1149.143247
700.850145,-9622.677246,-518.144159,995.924147
700.850466,-9696.697840,-518.144159,919.314598
700.850787,-9474.636058,-444.123565,1378.971896
700.851107,-9252.574275,-814.226536,689.485948
700.851428,-9548.656652,-592.164754,995.924147
700.851749,-9474.636058,-296.082377,1225.752797
700.852069,-9474.636058,-444.123565,1072.533697
700.852390,-9622.677246,-444.123565,1149.143247
700.852711,-9622.677246,-518.144159,1225.752797
700.853032,-9622.677246,-518.144159,1072.533697
700.853352,-9474.636058,-666.185348,1455.581446
700.853673,-9030.512492,-148.041188,1532.190996
700.853994,-9548.656652,-370.102971,1225.752797
700.854315,-9474.636058,-814.226536,1455.581446
700.854635,-9474.636058,-666.185348,1225.752797
700.854956,-9622.677246,-666.185348,1378.971896
700.855277,-9548.656652,-444.123565,1072.533697
700.855598,-9770.718434,-370.102971,919.314598
700.855918,-9548.656652,-592.164754,689.485948
700.856239,-9474.636058,-148.041188,766.095498
700.856560,-9770.718434,-814.226536,153.219100
700.856881,-9770.718434,0.000000,842.705048
700.857201,-9770.718434,-592.164754,1072.533697
700.857522,-9548.656652,-444.123565,919.314598
700.857843,-9696.697840,-148.041188,1149.143247
700.858164,-9400.615463,-518.144159,1608.800546
700.858484,-9548.656652,-740.205942,1225.752797
700.858805,-9622.677246,-370.102971,689.485948
700.859126,-9474.636058,-592.164754,689.485948
700.859446,-9474.636058,-296.082377,842.705048
700.859767,-9918.759623,-148.041188,842.705048
700.860088,-9622.677246,-222.061783,842.705048
700.860409,-9622.677246,-370.102971,689.485948
700.860729,-9770.718434,-222.061783,766.095498
700.861050,-9548.656652,444.123565,1915.238745
700.861371,-9770.718434,-370.102971,766.095498
700.861692,-9474.636058,-444.123565,689.485948
700.862012,-9622.677246,-296.082377,995.924147
700.862333,-9622.677246,-518.144159,1149.143247
700.862654,-9844.739029,-370.102971,1149.143247
700.862975,-9696.697840,-666.185348,1072.533697
700.863295,-9474.636058,-592.164754,1149.143247
700.863616,-9548.656652,-296.082377,995.924147
700.863937,-9696.697840,0.000000,76.609550
700.864258,-9622.677246,-592.164754,1072.533697
700.864578,-9548.656652,-592.164754,842.705048
700.864899,-9696.697840,-296.082377,1149.143247
700.865220,-9548.656652,-518.144159,1532.190996
700.865541,-9770.718434,-296.082377,1455.581446
700.865861,-9326.594869,-222.061783,995.924147
700.866182,-9622.677246,0.000000,1378.971896
700.866503,-9474.636058,-296.082377,1455.581446
700.866823,-9474.636058,-148.041188,2604.724693
700.867144,-9622.677246,-296.082377,995.924147
700.867465,-9474.636058,-518.144159,995.924147
700.867786,-9622.677246,-592.164754,766.095498
700.868106,-9474.636058,-370.102971,1072.533697
700.868427,-9770.718434,-148.041188,1149.143247
700.868748,-9622.677246,0.000000,1225.752797
700.869069,-9474.636058,-296.082377,1072.533697
700.869389,-9548.656652,-296.082377,1072.533697
700.869710,-9474.636058,-370.102971,1685.410096
700.870031,-9770.718434,0.000000,1149.143247
700.870352,-9622.677246,0.000000,1072.533697
700.870672,-9474.636058,0.000000,1072.533697
700.870993,-9696.697840,0.000000,1225.752797
700.871314,-9696.697840,296.082377,1149.143247
700.871635,-9548.656652,-296.082377,1378.971896
700.871955,-9548.656652,-148.041188,919.314598
700.872276,-9844.739029,0.000000,766.095498
700.872597,-9622.677246,-296.082377,1302.362347
700.872918,-9474.636058,-222.061783,1072.533697
700.873238,-9622.677246,-370.102971,1072.533697
700.873559,-9548.656652,-222.061783,1149.143247
700.873880,-9696.697840,0.000000,1149.143247
700.874200,-9474.636058,-222.061783,995.924147
700.874521,-9696.697840,0.000000,1225.752797
700.874842,-9622.677246,-222.061783,1225.752797
700.875163,-9696.697840,-148.041188,1378.971896
700.875483,-9252.574275,0.000000,1225.752797
700.875804,-9474.636058,0.000000,1685.410096
700.876125,-9474.636058,-518.144159,919.314598
700.876446,-9548.656652,0.000000,1225.752797
700.876766,-9548.656652,0.000000,1302.362347
700.877087,-9474.636058,-148.041188,1072.533697
700.877408,-9622.677246,0.000000,1149.143247
700.877729,-9474.636058,0.000000,1225.752797
700.878049,-9770.718434,0.000000,1149.143247
700.878370,-9770.718434,222.061783,1532.190996
700.878691,-9474.636058,-296.082377,1072.533697
700.879012,-9548.656652,-222.061783,919.314598
700.879332,-9548.656652,-222.061783,1378.971896
700.879653,-9770.718434,-444.123565,766.095498
700.879974,-9696.697840,-370.102971,1455.581446
700.880295,-9622.677246,-296.082377,689.485948
700.880615,-9474.636058,-74.020594,1149.143247
700.880936,-9548.656652,-296.082377,1225.752797
700.881257,-9622.677246,-370.102971,1225.752797
700.881577,-9770.718434,-296.082377,1072.533697
700.881898,-9622.677246,-222.061783,1378.971896
700.882219,-9548.656652,-370.102971,1149.143247
700.882540,-9992.780217,-370.102971,1378.971896
700.882860,-9474.636058,-296.082377,1149.143247
700.883181,-9696.697840,-148.041188,919.314598
700.883502,-9696.697840,-296.082377,1225.752797
700.883823,-9326.594869,-666.185348,1378.971896
700.884143,-9474.636058,-518.144159,1378.971896
700.884464,-9622.677246,-518.144159,919.314598
700.884785,-9474.636058,-222.061783,1149.143247
700.885106,-9622.677246,-666.185348,1072.533697
700.885426,-9622.677246,-518.144159,1149.143247
700.885747,-9548.656652,-296.082377,1378.971896
700.886068,-9622.677246,-296.082377,995.924147
700.886389,-9696.697840,-370.102971,995.924147
700.886709,-9474.636058,-222.061783,1608.800546
700.887030,-9844.739029,-296.082377,1149.143247
700.887351,-9622.677246,-370.102971,1072.533697
700.887672,-9548.656652,-222.061783,1072.533697
700.887992,-8956.491898,-962.267725,1608.800546
700.888313,-9474.636058,-222.061783,1149.143247
700.888634,-9474.636058,-444.123565,1302.362347
700.888954,-9400.615463,-370.102971,919.314598
700.889275,-9474.636058,-740.205942,1532.190996
700.889596,-9474.636058,-518.144159,995.924147
700.889917,-9548.656652,-518.144159,995.924147
700.890237,-9400.615463,-296.082377,995.924147
700.890558,-9622.677246,-370.102971,842.705048
700.890879,-9252.574275,-444.123565,842.705048
700.891200,-9548.656652,-444.123565,1072.533697
700.891520,-9622.677246,-222.061783,1149.143247
700.891841,-9622.677246,-222.061783,766.095498
700.892162,-9548.656652,-518.144159,995.924147
700.892483,-9548.656652,-444.123565,919.314598
700.892803,-9770.718434,-444.123565,919.314598
700.893124,-9474.636058,-592.164754,1225.752797
700.893445,-9622.677246,-444.123565,919.314598
700.893766,-9474.636058,-296.082377,1149.143247
700.894086,-9696.697840,-296.082377,1302.362347
700.894407,-9622.677246,-518.144159,1072.533697
700.894728,-9474.636058,-444.123565,689.485948
700.895049,-9474.636058,-444.123565,1378.971896
700.895369,-9622.677246,-296.082377,919.314598
700.895690,-9696.697840,-370.102971,919.314598
700.896011,-9770.718434,-444.123565,919.314598
700.896331,-9696.697840,-518.144159,1455.581446
700.896652,-9770.718434,-518.144159,1149.143247
700.896973,-9622.677246,-518.144159,1225.752797
700.897294,-9696.697840,-370.102971,995.924147
700.897614,-9030.512492,222.061783,1072.533697
700.897935,-9622.677246,-518.144159,1225.752797
700.898256,-9474.636058,-740.205942,1149.143247
700.898577,-9622.677246,-444.123565,995.924147
700.898897,-9548.656652,-296.082377,1378.971896
700.899218,-9474.636058,-148.041188,919.314598
700.899539,-9548.656652,-444.123565,1302.362347
700.899860,-9474.636058,-370.102971,766.095498
700.900180,-9474.636058,-518.144159,919.314598
700.900501,-9252.574275,-814.226536,766.095498
700.900822,-9770.718434,-518.144159,919.314598
700.901143,-9474.636058,-740.205942,842.705048
700.901463,-9548.656652,-518.144159,995.924147
700.901784,-9252.574275,-222.061783,1762.019645
700.902105,-9474.636058,-518.144159,1072.533697
700.902426,-9696.697840,-370.102971,995.924147
700.902746,-9474.636058,-370.102971,919.314598
700.903067,-9474.636058,-592.164754,1149.143247
700.903388,-9474.636058,-370.102971,842.705048
700.903709,-9548.656652,-592.164754,995.924147
700.904029,-9548.656652,-370.102971,842.705048
700.904350,-9548.656652,-444.123565,1072.533697
700.904671,-9326.594869,-444.123565,1685.410096
700.904991,-9696.697840,-444.123565,842.705048
700.905312,-9548.656652,-370.102971,919.314598
700.905633,-9844.739029,-592.164754,1072.533697
700.905954,-10436.903782,-74.020594,459.657299
700.906274,-9696.697840,-222.061783,995.924147
700.906595,-9548.656652,-148.041188,1149.143247
700.906916,-9770.718434,-444.123565,919.314598
700.907237,-9548.656652,-518.144159,383.047749
700.907557,-9622.677246,-444.123565,612.876398
700.907878,-9548.656652,-222.061783,995.924147
700.908199,-9770.718434,-296.082377,1378.971896
700.908520,-9696.697840,0.000000,919.314598
700.908840,-9400.615463,0.000000,1685.410096
700.909161,-9548.656652,-444.123565,995.924147
700.909482,-9474.636058,-222.061783,995.924147
700.909803,-9548.656652,0.000000,919.314598
700.910123,-9474.636058,-666.185348,689.485948
700.910444,-9622.677246,-148.041188,1378.971896
700.910765,-9548.656652,-222.061783,919.314598
700.911086,-9696.697840,-370.102971,1072.533697
700.911406,-9622.677246,-296.082377,153.219100
700.911727,-9770.718434,-222.061783,1149.143247
700.912048,-9622.677246,-370.102971,1225.752797
700.912368,-9474.636058,-444.123565,689.485948
700.912689,-9400.615463,-296.082377,766.095498
700.913010,-9326.594869,0.000000,1149.143247
700.913331,-9400.615463,-296.082377,1378.971896
700.913651,-9696.697840,-370.102971,1149.143247
700.913972,-9474.636058,-296.082377,1225.752797
700.914293,-10881.027347,592.164754,383.047749
700.914614,-9474.636058,-444.123565,919.314598
700.914934,-9696.697840,-444.123565,766.095498
700.915255,-9548.656652,-370.102971,1072.533697
700.915576,-9548.656652,-222.061783,536.266849
700.915897,-9548.656652,-296.082377,1149.143247
700.916217,-9770.718434,-222.061783,689.485948
700.916538,-9770.718434,-444.123565,1378.971896
700.916858,-9696.697840,-296.082377,1302.362347
700.917179,-9622.677246,0.000000,1072.533697
700.917499,-9548.656652,-296.082377,1225.752797
700.917820,-9474.636058,-592.164754,1302.362347
700.918140,-9696.697840,-296.082377,766.095498
700.918461,-10140.821405,0.000000,2221.676944
700.918781,-9622.677246,0.000000,612.876398
700.919102,-9696.697840,-148.041188,1302.362347
700.919422,-9548.656652,0.000000,995.924147
700.919743,-9770.718434,-296.082377,1149.143247
700.920063,-9474.636058,-222.061783,1302.362347
700.920384,-9474.636058,-370.102971,919.314598
700.920704,-9474.636058,-518.144159,1225.752797
700.921025,-9474.636058,-444.123565,1225.752797
700.921345,-9548.656652,-370.102971,1378.971896
700.921666,-9770.718434,-296.082377,919.314598
700.921986,-9548.656652,-444.123565,1302.362347
700.922307,-9474.636058,-444.123565,1378.971896
700.922627,-9474.636058,-518.144159,1225.752797
700.922948,-9326.594869,-296.082377,1225.752797
700.923269,-9474.636058,-518.144159,842.705048
700.923589,-9474.636058,-296.082377,1072.533697
700.923910,-9548.656652,-444.123565,1378.971896
700.924230,-10214.842000,592.164754,1608.800546
700.924551,-9622.677246,-370.102971,1378.971896
700.924871,-9548.656652,-444.123565,919.314598
700.925192,-9548.656652,-370.102971,1225.752797
700.925512,-9474.636058,-296.082377,1685.410096
700.925833,-9548.656652,-592.164754,1149.143247
700.926153,-9548.656652,-296.082377,919.314598
700.926474,-9474.636058,-444.123565,766.095498
700.926794,-9548.656652,-518.144159,842.705048
700.927115,-9622.677246,-222.061783,1378.971896
700.927435,-9696.697840,-296.082377,1302.362347
700.927756,-9474.636058,-74.020594,1072.533697
700.928076,-9696.697840,-222.061783,842.705048
700.928397,-9252.574275,-740.205942,306.438199
700.928717,-9696.697840,-370.102971,1225.752797
700.929038,-9696.697840,-74.020594,995.924147
700.929358,-9548.656652,-222.061783,1302.362347
700.929679,-9696.697840,-740.205942,612.876398
700.929999,-9474.636058,-222.061783,1302.362347
700.930320,-9548.656652,-296.082377,1072.533697
700.930640,-9474.636058,-444.123565,1455.581446
700.930961,-9548.656652,-370.102971,919.314598
700.931281,-9696.697840,-296.082377,842.705048
700.931602,-9622.677246,-370.102971,1072.533697
700.931923,-9474.636058,-296.082377,1072.533697
700.932243,-9474.636058,-148.041188,1072.533697
700.932564,-8956.491898,-370.102971,766.095498
700.932884,-9696.697840,-444.123565,1072.533697
700.933205,-9696.697840,-444.123565,1072.533697
700.933525,-9548.656652,-222.061783,1149.143247
700.933846,-9622.677246,-370.102971,919.314598
700.934166,-9548.656652,-296.082377,1225.752797
700.934487,-9622.677246,-518.144159,1455.581446
700.934807,-9622.677246,-370.102971,1072.533697
700.935128,-9622.677246,-222.061783,919.314598
700.935448,-9548.656652,-370.102971,1378.971896
700.935769,-9326.594869,-296.082377,995.924147
700.936089,-9474.636058,0.000000,1149.143247
700.936410,-9622.677246,0.000000,1072.533697
700.936730,-9474.636058,-814.226536,689.485948
700.937051,-9696.697840,-296.082377,995.924147
700.937371,-9622.677246,-592.164754,1225.752797
700.937692,-9622.677246,-518.144159,1149.143247
700.938012,-9622.677246,0.000000,1455.581446
700.938333,-9548.656652,-148.041188,919.314598
700.938653,-9474.636058,-222.061783,1072.533697
700.938974,-9548.656652,-296.082377,1149.143247
700.939294,-9474.636058,-296.082377,919.314598
700.939615,-9548.656652,-444.123565,1225.752797
700.939935,-9474.636058,-370.102971,1072.533697
700.940256,-9622.677246,-296.082377,1149.143247
700.940577,-9474.636058,-74.020594,1072.533697
700.940897,-9696.697840,-148.041188,1838.629195
700.941218,-9622.677246,0.000000,1378.971896
700.941538,-9622.677246,-444.123565,842.705048
700.941859,-9548.656652,-148.041188,1302.362347
700.942179,-9844.739029,370.102971,1991.848295
700.942500,-9844.739029,-222.061783,1455.581446
700.942820,-9548.656652,-592.164754,1378.971896
700.943141,-9548.656652,0.000000,1072.533697
700.943461,-9474.636058,-370.102971,919.314598
700.943782,-9696.697840,-370.102971,1378.971896
700.944102,-9474.636058,-296.082377,919.314598
700.944423,-9622.677246,-222.061783,995.924147
700.944743,-9844.739029,-370.102971,919.314598
700.945064,-10140.821405,222.061783,1455.581446
700.945384,-9548.656652,-296.082377,919.314598
700.945705,-9696.697840,-148.041188,1149.143247
700.946025,-9474.636058,-296.082377,1378.971896
700.946346,-9844.739029,-370.102971,2374.896044
700.946666,-9622.677246,-296.082377,1225.752797
700.946987,-9474.636058,-296.082377,1072.533697
700.947307,-9474.636058,-444.123565,1149.143247
700.947628,-9474.636058,-370.102971,1225.752797
700.947948,-9474.636058,-444.123565,1455.581446
700.948269,-9548.656652,-296.082377,1072.533697
700.948589,-9548.656652,-296.082377,1072.533697
700.948910,-9770.718434,-222.061783,919.314598
700.949231,-9696.697840,-222.061783,612.876398
700.949551,-9474.636058,-296.082377,919.314598
700.949872,-9622.677246,-222.061783,1072.533697
700.950192,-9548.656652,-444.123565,995.924147
700.950513,-9622.677246,-444.123565,229.828649
700.950833,-9622.677246,-370.102971,919.314598
700.951154,-9992.780217,-222.061783,995.924147
700.951474,-9844.739029,-222.061783,1378.971896
700.951795,-9548.656652,-444.123565,1072.533697
700.952115,-9918.759623,74.020594,995.924147
700.952436,-9474.636058,-296.082377,842.705048
700.952756,-9622.677246,-148.041188,995.924147
700.953077,-9474.636058,-518.144159,1225.752797
700.953397,-9992.780217,148.041188,766.095498
700.953718,-9696.697840,222.061783,1302.362347
700.954038,-9696.697840,0.000000,919.314598
700.954359,-9696.697840,-370.102971,995.924147
700.954679,-9474.636058,-222.061783,1532.190996
700.955000,-9548.656652,-518.144159,919.314598
700.955320,-9548.656652,-444.123565,919.314598
700.955641,-9548.656652,-518.144159,842.705048
700.955961,-9474.636058,-444.123565,919.314598
700.956282,-9548.656652,-148.041188,1302.362347
700.956602,-9474.636058,-296.082377,1302.362347
700.956923,-9474.636058,-370.102971,1532.190996
700.957244,-9548.656652,-222.061783,1149.143247
700.957564,-9252.574275,-148.041188,1685.410096
700.957885,-9548.656652,-370.102971,766.095498
700.958205,-9474.636058,-518.144159,766.095498
700.958526,-9622.677246,-222.061783,1149.143247
700.958846,-10214.842000,-148.041188,842.705048
700.959167,-9622.677246,-444.123565,919.314598
700.959487,-9622.677246,-222.061783,1149.143247
700.959808,-9770.718434,-370.102971,995.924147
700.960128,-9770.718434,-370.102971,1149.143247
700.960449,-9474.636058,-518.144159,1225.752797
700.960769,-9548.656652,-518.144159,1072.533697
700.961090,-9474.636058,-518.144159,1149.143247
700.961410,-9548.656652,-296.082377,766.095498
700.961731,-9326.594869,-370.102971,306.438199
700.962051,-9474.636058,-370.102971,766.095498
700.962372,-9548.656652,0.000000,766.095498
700.962692,-9770.718434,0.000000,995.924147
700.963013,-10362.883188,740.205942,306.438199
700.963333,-9622.677246,-148.041188,612.876398
700.963654,-9696.697840,-296.082377,995.924147
700.963974,-9548.656652,-444.123565,1225.752797
700.964295,-9844.739029,-518.144159,1072.533697
700.964615,-9844.739029,0.000000,1302.362347
700.964936,-9622.677246,-370.102971,842.705048
700.965256,-9326.594869,-444.123565,1072.533697
700.965577,-9548.656652,-296.082377,842.705048
700.965898,-9696.697840,-444.123565,919.314598
700.966218,-9474.636058,-518.144159,842.705048
700.966539,-9474.636058,-518.144159,689.485948
700.966859,-9474.636058,-370.102971,612.876398
700.967180,-9104.533087,-592.164754,2145.067394
700.967500,-9696.697840,0.000000,919.314598
700.967821,-9622.677246,-370.102971,1072.533697
700.968141,-9548.656652,-296.082377,1149.143247
700.968462,-9622.677246,-444.123565,2221.676944
700.968782,-9770.718434,-296.082377,919.314598
700.969103,-9622.677246,-444.123565,1378.971896
700.969423,-9326.594869,-518.144159,919.314598
700.969744,-9622.677246,-592.164754,919.314598
700.970064,-9474.636058,-296.082377,1225.752797
700.970385,-9770.718434,-592.164754,919.314598
700.970705,-9548.656652,-296.082377,1072.533697
700.971026,-9622.677246,-592.164754,919.314598
700.971346,-9622.677246,-296.082377,842.705048
700.971667,-9844.739029,-148.041188,1225.752797
700.971987,-9548.656652,-444.123565,1149.143247
700.972308,-9770.718434,-296.082377,1302.362347
700.972628,-9548.656652,-592.164754,1072.533697
700.972949,-9696.697840,-518.144159,919.314598
700.973269,-9622.677246,-222.061783,1302.362347
700.973590,-9548.656652,-444.123565,1225.752797
700.973910,-9548.656652,-370.102971,1072.533697
700.974231,-9548.656652,-370.102971,1225.752797
700.974552,-9474.636058,-592.164754,1072.533697
700.974872,-9548.656652,-666.185348,919.314598
700.975193,-9770.718434,-222.061783,919.314598
700.975513,-8734.430116,-444.123565,2221.676944
700.975834,-9770.718434,-444.123565,1302.362347
700.976154,-9474.636058,-370.102971,1302.362347
700.976475,-9696.697840,-222.061783,1072.533697
700.976795,-9622.677246,-222.061783,1149.143247
700.977116,-9696.697840,-444.123565,995.924147
700.977436,-9474.636058,-444.123565,1149.143247
700.977757,-9474.636058,-444.123565,1072.533697
700.978077,-9696.697840,-296.082377,1225.752797
700.978398,-9326.594869,-444.123565,919.314598
700.978718,-9548.656652,-296.082377,1149.143247
700.979039,-9474.636058,-518.144159,612.876398
700.979359,-9474.636058,-370.102971,1072.533697
700.979680,-9104.533087,-444.123565,1302.362347
700.980000,-9474.636058,-370.102971,1072.533697
700.980321,-9548.656652,-370.102971,919.314598
700.980641,-9474.636058,-370.102971,1072.533697
700.980962,-9622.677246,-296.082377,1532.190996
700.981282,-9400.615463,-370.102971,1225.752797
700.981603,-9548.656652,-222.061783,1225.752797
700.981923,-9548.656652,-148.041188,1378.971896
700.982244,-9770.718434,-370.102971,1302.362347
700.982564,-9622.677246,-222.061783,995.924147
700.982885,-9474.636058,-444.123565,1302.362347
700.983206,-9770.718434,0.000000,1302.362347
700.983526,-9696.697840,-148.041188,1072.533697
700.983847,-9474.636058,0.000000,1225.752797
700.984167,-9474.636058,-148.041188,919.314598
700.984488,-9622.677246,-222.061783,536.266849
700.984808,-9548.656652,0.000000,1149.143247
700.985129,-9548.656652,-296.082377,1072.533697
700.985449,-9548.656652,-296.082377,1225.752797
700.985770,-9770.718434,-740.205942,842.705048
700.986090,-9474.636058,-444.123565,766.095498
700.986411,-9992.780217,-740.205942,995.924147
700.986731,-9696.697840,0.000000,1455.581446
700.987052,-9696.697840,-370.102971,995.924147
700.987372,-9474.636058,-444.123565,1072.533697
700.987693,-9474.636058,-370.102971,1072.533697
700.988013,-9548.656652,0.000000,2451.505594
700.988334,-9548.656652,0.000000,1072.533697
700.988654,-9548.656652,-296.082377,1225.752797
700.988975,-9474.636058,-148.041188,919.314598
700.989295,-9696.697840,-370.102971,1302.362347
700.989616,-9474.636058,-296.082377,1072.533697
700.989936,-9474.636058,-222.061783,1378.971896
700.990257,-9548.656652,-222.061783,995.924147
700.990577,-9844.739029,0.000000,1455.581446
700.990898,-9770.718434,518.144159,1072.533697
700.991218,-9622.677246,0.000000,1149.143247
700.991539,-9696.697840,-296.082377,995.924147
700.991860,-9844.739029,-296.082377,1225.752797
700.992180,-9474.636058,370.102971,2298.286494
700.992501,-9622.677246,-148.041188,1225.752797
700.992821,-9622.677246,-296.082377,1149.143247
700.993142,-9696.697840,-370.102971,1072.533697
700.993462,-9474.636058,-444.123565,1149.143247
700.993783,-9770.718434,-148.041188,1225.752797
700.994103,-9548.656652,-370.102971,1149.143247
700.994424,-9474.636058,-222.061783,1455.581446
700.994744,-9548.656652,0.000000,1225.752797
700.995065,-9474.636058,-148.041188,1149.143247
700.995385,-9548.656652,-148.041188,1378.971896
700.995706,-9622.677246,-222.061783,1149.143247
700.996026,-9178.553681,-296.082377,919.314598
700.996347,-10066.800811,592.164754,459.657299
700.996667,-9770.718434,-222.061783,995.924147
700.996988,-9474.636058,-444.123565,1149.143247
700.997308,-9770.718434,-518.144159,995.924147
700.997629,-9474.636058,-222.061783,1149.143247
700.997949,-9770.718434,-370.102971,1072.533697
700.998270,-9548.656652,-296.082377,1225.752797
700.998590,-9844.739029,-148.041188,995.924147
700.998911,-9474.636058,-444.123565,1225.752797
700.999231,-9326.594869,-518.144159,1685.410096
700.999552,-9474.636058,-370.102971,919.314598
700.999872,-9474.636058,-148.041188,1302.362347
701.000193,-9474.636058,-148.041188,842.705048
701.000514,-9400.615463,0.000000,0.000000
701.000834,-9474.636058,-370.102971,766.095498
701.001155,-9400.615463,-222.061783,842.705048
701.001475,-9548.656652,-444.123565,919.314598
701.001796,-9622.677246,-222.061783,766.095498
701.002116,-9548.656652,-592.164754,842.705048
701.002437,-9696.697840,-222.061783,1072.533697
701.002757,-9548.656652,-222.061783,842.705048
701.003078,-9696.697840,-296.082377,919.314598
701.003398,-9474.636058,-444.123565,1225.752797
701.003719,-9474.636058,-370.102971,689.485948
701.004039,-9548.656652,-444.123565,919.314598
701.004360,-9622.677246,-592.164754,766.095498
701.004680,-8956.491898,-740.205942,383.047749
701.005001,-9548.656652,-444.123565,842.705048
701.005321,-9474.636058,-444.123565,1149.143247
701.005642,-9400.615463,-592.164754,1072.533697
701.005962,-9696.697840,-370.102971,1378.971896
701.006283,-9474.636058,-592.164754,1225.752797
701.006603,-9548.656652,-296.082377,1225.752797
701.006924,-9696.697840,-370.102971,919.314598
701.007244,-9622.677246,-148.041188,995.924147
701.007565,-9992.780217,0.000000,1532.190996
701.007885,-9696.697840,-370.102971,1225.752797
701.008206,-9696.697840,-518.144159,1149.143247
701.008526,-9622.677246,-518.144159,1072.533697
701.008847,-9474.636058,-740.205942,0.000000
701.009168,-9474.636058,-296.082377,1072.533697
701.009488,-9474.636058,-296.082377,1225.752797
701.009809,-9548.656652,0.000000,1072.533697
701.010129,-9696.697840,-148.041188,1149.143247
701.010450,-9474.636058,-370.102971,1378.971896
701.010770,-9918.759623,-444.123565,1072.533697
701.011091,-9622.677246,0.000000,842.705048
701.011411,-9696.697840,-296.082377,1149.143247
701.011732,-9770.718434,-148.041188,1378.971896
701.012052,-9622.677246,-296.082377,1455.581446
701.012373,-9770.718434,-518.144159,1072.533697
701.012693,-9474.636058,-444.123565,995.924147
701.013014,-9104.533087,-370.102971,2528.115143
701.013334,-9548.656652,-296.082377,1225.752797
701.013655,-9622.677246,-296.082377,1455.581446
701.013975,-9474.636058,-222.061783,1302.362347
701.014296,-9622.677246,-296.082377,1302.362347
701.014616,-9770.718434,-148.041188,1225.752797
701.014937,-9622.677246,-148.041188,1149.143247
701.015257,-9548.656652,-222.061783,1072.533697
701.015578,-9474.636058,-296.082377,1455.581446
701.015899,-9622.677246,-296.082377,1149.143247
701.016219,-9622.677246,-296.082377,1225.752797
701.016540,-9548.656652,-296.082377,1149.143247
701.016861,-9844.739029,-444.123565,919.314598
701.017181,-9474.636058,0.000000,995.924147
701.017502,-9622.677246,-370.102971,1072.533697
701.017823,-9770.718434,-296.082377,1072.533697
701.018143,-9622.677246,-222.061783,1302.362347
701.018464,-9622.677246,-296.082377,1072.533697
701.018784,-9474.636058,-222.061783,995.924147
701.019105,-9474.636058,-296.082377,842.705048
701.019426,-9548.656652,0.000000,919.314598
701.019746,-9474.636058,-296.082377,1149.143247
701.020067,-9696.697840,-296.082377,1225.752797
701.020388,-9622.677246,-518.144159,1302.362347
701.020708,-9622.677246,-148.041188,995.924147
701.021029,-9400.615463,-666.185348,1072.533697
701.021350,-9696.697840,-296.082377,-459.657299
701.021670,-9548.656652,-444.123565,1149.143247
701.021991,-9696.697840,-222.061783,1072.533697
701.022312,-9474.636058,-518.144159,842.705048
701.022632,-9474.636058,-444.123565,842.705048
701.022953,-9622.677246,-296.082377,1455.581446
701.023273,-9548.656652,-296.082377,1072.533697
701.023594,-9548.656652,148.041188,1685.410096
701.023915,-9622.677246,-296.082377,1302.362347
701.024235,-9474.636058,-370.102971,2145.067394
701.024556,-9474.636058,-222.061783,1149.143247
701.024877,-9696.697840,-148.041188,1072.533697
701.025197,-9548.656652,-296.082377,995.924147
701.025518,-9770.718434,148.041188,919.314598
701.025839,-9474.636058,-444.123565,1072.533697
701.026159,-9474.636058,-444.123565,1072.533697
701.026480,-9696.697840,-296.082377,1149.143247
701.026801,-9696.697840,-370.102971,1072.533697
701.027121,-9696.697840,-370.102971,1149.143247
701.027442,-9622.677246,-444.123565,766.095498
701.027762,-9474.636058,-666.185348,1225.752797
701.028083,-9548.656652,-296.082377,919.314598
701.028404,-9252.574275,-296.082377,1072.533697
701.028724,-9474.636058,-444.123565,1072.533697
701.029045,-9474.636058,-444.123565,1149.143247
701.029366,-9622.677246,-370.102971,1072.533697
701.029686,-9252.574275,-444.123565,1685.410096
701.030007,-9548.656652,-518.144159,1378.971896
701.030328,-9770.718434,-814.226536,1685.410096
701.030648,-9548.656652,-296.082377,1149.143247
701.030969,-9622.677246,-222.061783,842.705048
701.031289,-9474.636058,-370.102971,1149.143247
701.031610,-9400.615463,0.000000,1072.533697
701.031931,-9400.615463,-370.102971,842.705048
701.032251,-9474.636058,-222.061783,1302.362347
701.032572,-9918.759623,148.041188,919.314598
701.032893,-9548.656652,-148.041188,842.705048
701.033213,-9548.656652,-518.144159,995.924147
701.033534,-9474.636058,-444.123565,1149.143247
701.033855,-9178.553681,-740.205942,2451.505594
701.034175,-9622.677246,-296.082377,995.924147
701.034496,-9474.636058,-444.123565,1302.362347
701.034817,-9474.636058,-296.082377,1302.362347
701.035137,-9622.677246,-296.082377,1072.533697
701.035458,-9400.615463,0.000000,919.314598
701.035778,-9474.636058,-296.082377,1225.752797
701.036099,-9474.636058,-222.061783,919.314598
701.036420,-9474.636058,-148.041188,995.924147
701.036740,-9844.739029,-148.041188,919.314598
701.037061,-9844.739029,-592.164754,995.924147
701.037382,-9622.677246,-592.164754,995.924147
701.037702,-9548.656652,-444.123565,1072.533697
701.038023,-9696.697840,-740.205942,2145.067394
701.038344,-9770.718434,-370.102971,1149.143247
701.038664,-9622.677246,-518.144159,766.095498
701.038985,-9622.677246,-296.082377,766.095498
701.039306,-9548.656652,-222.061783,2757.943793
701.039626,-9696.697840,-370.102971,1225.752797
701.039947,-9548.656652,-222.061783,995.924147
701.040267,-9474.636058,-148.041188,1072.533697
701.040588,-9474.636058,-444.123565,1149.143247
701.040909,-9104.533087,-444.123565,1302.362347
701.041229,-9770.718434,-370.102971,995.924147
701.041550,-9696.697840,-296.082377,1302.362347
701.041871,-9548.656652,-370.102971,1149.143247
701.042191,-9548.656652,-962.267725,459.657299
701.042512,-9844.739029,-296.082377,1378.971896
701.042833,-9548.656652,0.000000,1072.533697
701.043153,-9622.677246,-444.123565,842.705048
701.043474,-9548.656652,-296.082377,1378.971896
701.043795,-9622.677246,-740.205942,1378.971896
701.044115,-9548.656652,-296.082377,995.924147
701.044436,-9548.656652,-148.041188,919.314598
701.044756,-9474.636058,-296.082377,1225.752797
701.045077,-10066.800811,-148.041188,612.876398
701.045398,-9548.656652,-296.082377,1225.752797
701.045718,-9770.718434,-666.185348,919.314598
701.046039,-9548.656652,-370.102971,1149.143247
701.046360,-9992.780217,-592.164754,0.000000
701.046680,-9696.697840,-518.144159,1149.143247
701.047001,-9622.677246,-296.082377,995.924147
701.047322,-9622.677246,-296.082377,995.924147
701.047642,-9548.656652,0.000000,1225.752797
701.047963,-9622.677246,-370.102971,919.314598
701.048284,-9548.656652,-592.164754,919.314598
701.048604,-9696.697840,-370.102971,1149.143247
701.048925,-9474.636058,-370.102971,995.924147
701.049245,-9622.677246,-370.102971,1149.143247
701.049566,-9400.615463,-370.102971,995.924147
701.049887,-9622.677246,-518.144159,919.314598
701.050207,-9474.636058,-296.082377,1149.143247
701.050528,-9844.739029,-592.164754,536.266849
701.050849,-9474.636058,-296.082377,995.924147
701.051169,-9622.677246,-370.102971,842.705048
701.051490,-9548.656652,-222.061783,995.924147
701.051811,-9622.677246,-370.102971,1225.752797
701.052131,-9548.656652,-444.123565,1225.752797
701.052452,-9548.656652,-296.082377,1072.533697
701.052773,-9548.656652,-370.102971,1072.533697
701.053093,-9622.677246,-370.102971,1072.533697
701.053414,-9918.759623,0.000000,1378.971896
701.053734,-9474.636058,-370.102971,1072.533697
701.054055,-9474.636058,-518.144159,1072.533697
701.054376,-9474.636058,-148.041188,919.314598
701.054696,-9770.718434,-296.082377,1532.190996
701.055017,-9474.636058,-370.102971,1149.143247
701.055338,-9622.677246,-370.102971,1072.533697
701.055658,-9696.697840,-296.082377,1225.752797
701.055979,-9696.697840,-370.102971,1225.752797
701.056300,-9696.697840,-518.144159,1302.362347
701.056620,-9622.677246,-222.061783,919.314598
701.056941,-9696.697840,-444.123565,1072.533697
701.057262,-9696.697840,-370.102971,1225.752797
701.057582,-9252.574275,0.000000,1225.752797
701.057903,-9622.677246,-148.041188,919.314598
701.058223,-9696.697840,-222.061783,995.924147
701.058544,-9696.697840,-296.082377,1225.752797
701.058865,-9474.636058,-296.082377,995.924147
701.059185,-9474.636058,-370.102971,919.314598
701.059506,-9474.636058,-222.061783,1685.410096
701.059827,-9474.636058,-222.061783,1225.752797
701.060147,-9548.656652,-518.144159,1225.752797
701.060468,-9548.656652,-444.123565,919.314598
701.060789,-9622.677246,-370.102971,1149.143247
701.061109,-9548.656652,-296.082377,1072.533697
701.061430,-9622.677246,-222.061783,995.924147
701.061751,-9770.718434,-74.020594,1685.410096
701.062071,-9622.677246,-444.123565,919.314598
701.062392,-9474.636058,-296.082377,1302.362347
701.062712,-9622.677246,-296.082377,1378.971896
701.063033,-9548.656652,-296.082377,1149.143247
701.063354,-9622.677246,-222.061783,612.876398
701.063674,-9696.697840,-444.123565,1072.533697
701.063995,-9622.677246,-222.061783,1149.143247
701.064316,-9622.677246,-296.082377,1225.752797
701.064636,-10288.862594,222.061783,2298.286494
701.064957,-9548.656652,-148.041188,1072.533697
701.065278,-9622.677246,-370.102971,1072.533697
701.065598,-9770.718434,-370.102971,1225.752797
701.065919,-9622.677246,-962.267725,-229.828649
701.066240,-9622.677246,-296.082377,919.314598
701.066560,-9548.656652,-444.123565,1072.533697
701.066881,-9474.636058,-296.082377,689.485948
701.067201,-9770.718434,-518.144159,1225.752797
701.067522,-9474.636058,74.020594,1532.190996
701.067843,-9770.718434,-740.205942,1302.362347
701.068163,-9622.677246,-444.123565,919.314598
701.068484,-9548.656652,-518.144159,919.314598
701.068805,-9992.780217,0.000000,1225.752797
701.069125,-9474.636058,-518.144159,842.705048
701.069446,-9696.697840,-148.041188,995.924147
701.069767,-9474.636058,-370.102971,1072.533697
701.070087,-9622.677246,-444.123565,0.000000
701.070408,-9696.697840,-444.123565,1378.971896
701.070728,-9622.677246,-370.102971,842.705048
701.071049,-9548.656652,-592.164754,1072.533697
701.071370,-9474.636058,-370.102971,689.485948
701.071690,-9474.636058,-444.123565,689.485948
701.072011,-9622.677246,-370.102971,919.314598
701.072332,-9548.656652,-370.102971,995.924147
701.072652,-9548.656652,-222.061783,995.924147
701.072973,-9474.636058,-370.102971,1072.533697
701.073294,-9696.697840,-592.164754,1072.533697
701.073614,-9622.677246,-518.144159,1149.143247
701.073935,-9622.677246,-370.102971,1072.533697
701.074256,-8956.491898,-962.267725,1302.362347
701.074576,-9622.677246,-370.102971,1072.533697
701.074897,-9622.677246,-444.123565,842.705048
701.075217,-9622.677246,-296.082377,1225.752797
701.075538,-9104.533087,-370.102971,995.924147
701.075859,-9548.656652,-444.123565,1072.533697
701.076179,-9918.759623,-370.102971,995.924147
701.076500,-9696.697840,-666.185348,919.314598
701.076821,-9548.656652,-444.123565,995.924147
701.077141,-9474.636058,-444.123565,2145.067394
701.077462,-9696.697840,-74.020594,995.924147
701.077783,-9622.677246,-296.082377,1225.752797
701.078103,-9622.677246,-74.020594,1225.752797
701.078424,-9622.677246,-444.123565,1302.362347
701.078745,-9622.677246,-296.082377,995.924147
701.079065,-9696.697840,-296.082377,1072.533697
701.079386,-9474.636058,-370.102971,1149.143247
701.079706,-9474.636058,-370.102971,1149.143247
701.080027,-9474.636058,-222.061783,919.314598
701.080348,-9696.697840,0.000000,1072.533697
701.080668,-9548.656652,0.000000,1072.533697
701.080989,-9622.677246,-296.082377,1072.533697
701.081310,-9844.739029,0.000000,1149.143247
701.081630,-9770.718434,0.000000,995.924147
701.081951,-9622.677246,-148.041188,1072.533697
701.082272,-9918.759623,-370.102971,1149.143247
701.082592,-9252.574275,74.020594,1302.362347
701.082913,-9622.677246,-296.082377,919.314598
701.083234,-9548.656652,-222.061783,1072.533697
701.083554,-9622.677246,0.000000,1225.752797
701.083875,-9474.636058,-222.061783,1532.190996
701.084195,-9548.656652,-222.061783,919.314598
701.084516,-9474.636058,-444.123565,995.924147
701.084837,-9622.677246,-296.082377,995.924147
701.085157,-9474.636058,-518.144159,1149.143247
701.085478,-9474.636058,-518.144159,1608.800546
701.085799,-9622.677246,-370.102971,766.095498
701.086119,-9696.697840,-296.082377,1072.533697
701.086440,-9770.718434,-148.041188,1225.752797
701.086761,-9770.718434,222.061783,995.924147
701.087081,-9622.677246,-296.082377,1225.752797
701.087402,-9548.656652,-370.102971,766.095498
701.087723,-9548.656652,-370.102971,1072.533697
701.088043,-9474.636058,-370.102971,919.314598
701.088364,-9474.636058,-148.041188,1302.362347
701.088684,-9622.677246,-222.061783,1225.752797
701.089005,-9622.677246,-222.061783,1149.143247
701.089326,-9548.656652,-518.144159,995.924147
701.089646,-9696.697840,-370.102971,1608.800546
701.089967,-9474.636058,-370.102971,1149.143247
701.090288,-9622.677246,-222.061783,1302.362347
701.090608,-9770.718434,-222.061783,1149.143247
701.090929,-9178.553681,-962.267725,612.876398
701.091250,-9622.677246,-296.082377,1225.752797
701.091570,-9622.677246,-296.082377,1149.143247
701.091891,-9770.718434,0.000000,1302.362347
701.092212,-9696.697840,0.000000,612.876398
701.092532,-9548.656652,-296.082377,1302.362347
701.092853,-9696.697840,-222.061783,1149.143247
701.093173,-9622.677246,-148.041188,1149.143247
701.093494,-9548.656652,-74.020594,1302.362347
701.093815,-9474.636058,-370.102971,919.314598
701.094135,-9696.697840,-592.164754,1072.533697
701.094456,-9548.656652,-296.082377,1149.143247
701.094777,-9622.677246,-518.144159,1455.581446
701.095097,-8956.491898,-444.123565,1608.800546
701.095418,-9474.636058,-592.164754,919.314598
701.095739,-9474.636058,-148.041188,919.314598
701.096059,-9474.636058,-296.082377,919.314598
701.096380,-9918.759623,962.267725,842.705048
701.096701,-9770.718434,-296.082377,1225.752797
701.097021,-9474.636058,-148.041188,1072.533697
701.097342,-9622.677246,-370.102971,1072.533697
701.097662,-9770.718434,-222.061783,1225.752797
701.097983,-9252.574275,-666.185348,1455.581446
701.098304,-9548.656652,-592.164754,1072.533697
701.098624,-9622.677246,-592.164754,1149.143247
701.098945,-9622.677246,-222.061783,1072.533697
701.099266,-10214.842000,0.000000,459.657299
701.099586,-9474.636058,-296.082377,919.314598
701.099907,-9622.677246,-222.061783,1072.533697
701.100228,-9474.636058,-296.082377,919.314598
701.100548,-9844.739029,-1258.350101,3524.039291
701.100869,-9548.656652,-296.082377,1532.190996
701.101190,-9622.677246,-148.041188,1225.752797
701.101510,-9474.636058,-296.082377,919.314598
701.101831,-9548.656652,-222.061783,1225.752797
701.102151,-9622.677246,-222.061783,1072.533697
701.102472,-9474.636058,-444.123565,689.485948
701.102793,-9474.636058,-296.082377,766.095498
701.103113,-9548.656652,-222.061783,1072.533697
701.103434,-9992.780217,370.102971,842.705048
701.103755,-9548.656652,-222.061783,1072.533697
701.104075,-9548.656652,-370.102971,1072.533697
701.104396,-9548.656652,-370.102971,919.314598
701.104717,-9918.759623,-444.123565,689.485948
701.105037,-9844.739029,-222.061783,1149.143247
701.105358,-9696.697840,-370.102971,1225.752797
701.105679,-9696.697840,-222.061783,1149.143247
701.105999,-9400.615463,-518.144159,1072.533697
701.106320,-9326.594869,-518.144159,842.705048
701.106640,-9548.656652,-370.102971,995.924147
701.106961,-9474.636058,-296.082377,995.924147
701.107282,-9474.636058,-296.082377,1072.533697
701.107602,-9178.553681,-296.082377,689.485948
701.107923,-9474.636058,-444.123565,1149.143247
701.108244,-9548.656652,-444.123565,995.924147
701.108564,-9844.739029,-370.102971,842.705048
701.108885,-9696.697840,0.000000,1072.533697
701.109206,-9622.677246,-444.123565,842.705048
701.109526,-9696.697840,-518.144159,919.314598
701.109847,-9474.636058,-592.164754,842.705048
701.110168,-9622.677246,-518.144159,1225.752797
701.110488,-9622.677246,-370.102971,1302.362347
701.110809,-9622.677246,-444.123565,536.266849
701.111129,-9548.656652,-518.144159,612.876398
701.111450,-9474.636058,-148.041188,1225.752797
701.111771,-9696.697840,-148.041188,1072.533697
701.112091,-9474.636058,0.000000,1225.752797
701.112412,-9548.656652,-370.102971,1149.143247
701.112733,-9474.636058,-370.102971,842.705048
701.113053,-9696.697840,-592.164754,1149.143247
701.113374,-9622.677246,-592.164754,1072.533697
701.113695,-9474.636058,-592.164754,612.876398
701.114015,-9474.636058,-592.164754,842.705048
701.114336,-9622.677246,-148.041188,1149.143247
701.114656,-9770.718434,-444.123565,995.924147
701.114977,-8956.491898,0.000000,995.924147
701.115298,-9548.656652,-296.082377,612.876398
701.115618,-9548.656652,-518.144159,919.314598
701.115939,-9770.718434,-518.144159,995.924147
701.116260,-9622.677246,-296.082377,1302.362347
701.116580,-9474.636058,-444.123565,1455.581446
701.116901,-9548.656652,-444.123565,995.924147
701.117222,-9696.697840,-222.061783,1072.533697
701.117542,-9622.677246,-370.102971,1225.752797
701.117863,-10362.883188,-148.041188,2528.115143
701.118180,-9548.656652,-148.041188,689.485948
701.118501,-9548.656652,-444.123565,1072.533697
701.118822,-9622.677246,-296.082377,1149.143247
701.119142,-9622.677246,-1036.288319,1072.533697
701.119463,-9696.697840,-296.082377,1455.581446
701.119783,-9548.656652,-518.144159,1302.362347
701.120104,-9770.718434,-518.144159,1378.971896
701.120425,-9622.677246,-518.144159,1072.533697
701.120745,-9548.656652,-222.061783,1302.362347
701.121066,-9400.615463,-444.123565,1149.143247
701.121387,-9622.677246,-370.102971,1149.143247
701.121707,-9474.636058,-592.164754,1225.752797
701.122028,-9474.636058,-518.144159,919.314598
701.122348,-9770.718434,0.000000,919.314598
701.122669,-9474.636058,-222.061783,995.924147
701.122990,-9474.636058,0.000000,1072.533697
701.123310,-9474.636058,0.000000,1225.752797
701.123631,-9474.636058,0.000000,842.705048
701.123952,-10288.862594,-814.226536,-383.047749
701.124272,-9548.656652,-444.123565,1302.362347
701.124593,-9622.677246,-518.144159,919.314598
701.124914,-9622.677246,-370.102971,995.924147
701.125234,-9474.636058,-444.123565,689.485948
701.125555,-9400.615463,-518.144159,919.314598
701.125875,-9548.656652,-296.082377,689.485948
701.126196,-9918.759623,-370.102971,1149.143247
701.126517,-9548.656652,-370.102971,1072.533697
701.126837,-9696.697840,-148.041188,919.314598
701.127158,-9622.677246,-518.144159,842.705048
701.127479,-9696.697840,0.000000,1149.143247
701.127799,-9696.697840,-148.041188,1608.800546
701.128120,-9400.615463,-296.082377,1225.752797
701.128440,-9548.656652,-666.185348,842.705048
701.128761,-9474.636058,-370.102971,1225.752797
701.129082,-9548.656652,-296.082377,1072.533697
701.129402,-9622.677246,-148.041188,1378.971896
701.129723,-9474.636058,-222.061783,1225.752797
701.130044,-9474.636058,-222.061783,1072.533697
701.130364,-9622.677246,-296.082377,1302.362347
701.130685,-9770.718434,-222.061783,1072.533697
701.131005,-9622.677246,-370.102971,1455.581446
701.131326,-9474.636058,-444.123565,1149.143247
701.131647,-9622.677246,-444.123565,1072.533697
701.131967,-9474.636058,-296.082377,1455.581446
701.132288,-9622.677246,-222.061783,1225.752797
701.132609,-9992.780217,-444.123565,536.266849
701.132929,-9474.636058,-296.082377,919.314598
701.133250,-9622.677246,0.000000,1149.143247
701.133571,-9474.636058,-222.061783,1072.533697
701.133891,-9548.656652,0.000000,2757.943793
701.134212,-9622.677246,-222.061783,919.314598
701.134532,-9474.636058,-518.144159,1149.143247
701.134853,-9548.656652,-296.082377,1149.143247
701.135174,-9622.677246,-222.061783,1608.800546
701.135494,-9844.739029,-296.082377,842.705048
701.135815,-9696.697840,-296.082377,842.705048
701.136136,-9474.636058,0.000000,919.314598
701.136456,-9770.718434,-222.061783,1225.752797
701.136777,-8956.491898,-518.144159,2068.457845
701.137097,-9474.636058,-370.102971,1225.752797
701.137418,-9696.697840,-74.020594,1302.362347
701.137739,-9474.636058,-444.123565,1225.752797
701.138059,-9696.697840,-222.061783,689.485948
701.138380,-9400.615463,-444.123565,1072.533697
701.138701,-9622.677246,-148.041188,842.705048
701.139021,-9622.677246,-222.061783,842.705048
701.139342,-9622.677246,-296.082377,612.876398
701.139663,-9696.697840,-444.123565,919.314598
701.139983,-9622.677246,-444.123565,842.705048
701.140304,-9696.697840,-296.082377,842.705048
701.140624,-9548.656652,-518.144159,995.924147
701.140945,-9548.656652,0.000000,2221.676944
701.141266,-9548.656652,-370.102971,919.314598
701.141586,-9474.636058,-296.082377,919.314598
701.141907,-9548.656652,-296.082377,842.705048
701.142228,-9400.615463,-222.061783,766.095498
701.142548,-9548.656652,-148.041188,842.705048
701.142869,-9696.697840,-296.082377,842.705048
701.143189,-9696.697840,-74.020594,995.924147
701.143510,-9696.697840,-370.102971,689.485948
701.143831,-9918.759623,-148.041188,766.095498
701.144151,-9548.656652,-740.205942,689.485948
701.144472,-9622.677246,-370.102971,919.314598
701.144793,-9474.636058,-444.123565,766.095498
701.145113,-9474.636058,-592.164754,1072.533697
701.145434,-9548.656652,-296.082377,766.095498
701.145755,-9548.656652,-296.082377,1072.533697
701.146075,-9474.636058,-518.144159,919.314598
701.146396,-9770.718434,-370.102971,1072.533697
701.146716,-9548.656652,-444.123565,919.314598
701.147037,-9548.656652,-296.082377,1149.143247
701.147358,-9622.677246,-296.082377,1455.581446
701.147678,-9474.636058,-444.123565,1072.533697
701.147999,-9770.718434,-444.123565,1608.800546
701.148320,-9474.636058,-370.102971,1302.362347
701.148640,-9474.636058,-370.102971,995.924147
701.148961,-9548.656652,-222.061783,919.314598
701.149281,-9474.636058,-296.082377,842.705048
701.149602,-9844.739029,-518.144159,1149.143247
701.149923,-9696.697840,-444.123565,919.314598
701.150243,-9770.718434,-296.082377,766.095498
701.150564,-9548.656652,-222.061783,919.314598
701.150885,-9548.656652,-444.123565,612.876398
701.151205,-9622.677246,-370.102971,919.314598
701.151526,-9622.677246,-444.123565,995.924147
701.151847,-9548.656652,-444.123565,1149.143247
701.152167,-9474.636058,0.000000,689.485948
701.152488,-9548.656652,-222.061783,1149.143247
701.152808,-9622.677246,-296.082377,1225.752797
701.153129,-9474.636058,-222.061783,1378.971896
701.153450,-9474.636058,-370.102971,1149.143247
701.153770,-9622.677246,-222.061783,1302.362347
701.154091,-9474.636058,-444.123565,1302.362347
701.154412,-9474.636058,-370.102971,1072.533697
701.154732,-9696.697840,-296.082377,919.314598
701.155053,-9474.636058,-296.082377,995.924147
701.155373,-9474.636058,-370.102971,1072.533697
701.155694,-9622.677246,-148.041188,689.485948
701.156015,-9622.677246,-148.041188,1149.143247
701.156335,-9622.677246,-222.061783,1072.533697
701.156656,-9548.656652,-296.082377,919.314598
701.156977,-9622.677246,-148.041188,1149.143247
701.157297,-9622.677246,-296.082377,1302.362347
701.157618,-9548.656652,-296.082377,995.924147
701.157939,-9474.636058,-296.082377,766.095498
701.158259,-9548.656652,-296.082377,1149.143247
701.158580,-9474.636058,-296.082377,995.924147
701.158900,-9622.677246,-444.123565,1149.143247
701.159221,-9622.677246,0.000000,1072.533697
701.159542,-9474.636058,-296.082377,1072.533697
701.159862,-9622.677246,0.000000,1302.362347
701.160183,-9548.656652,-148.041188,995.924147
701.160504,-9992.780217,74.020594,842.705048
701.160824,-9548.656652,-222.061783,1225.752797
701.161145,-9474.636058,-74.020594,919.314598
701.161465,-9622.677246,-370.102971,919.314598
701.161786,-9622.677246,-444.123565,1302.362347
701.162107,-9696.697840,-592.164754,919.314598
701.162427,-9474.636058,-444.123565,1072.533697
701.162748,-9770.718434,-222.061783,1225.752797
701.163069,-9696.697840,-296.082377,995.924147
701.163389,-9622.677246,222.061783,1149.143247
701.163710,-9622.677246,-222.061783,1072.533697
701.164030,-9696.697840,-296.082377,1225.752797
701.164351,-9474.636058,0.000000,1455.581446
701.164672,-9326.594869,-666.185348,536.266849
701.164992,-9400.615463,-296.082377,1225.752797
701.165313,-9548.656652,-296.082377,1072.533697
701.165634,-9400.615463,-296.082377,1072.533697
701.165954,-9622.677246,-444.123565,995.924147
701.166275,-9548.656652,-666.185348,1225.752797
701.166596,-9696.697840,-518.144159,1225.752797
701.166916,-9474.636058,-518.144159,1149.143247
701.167237,-9548.656652,-296.082377,1072.533697
701.167557,-9326.594869,-592.164754,459.657299
701.167878,-9622.677246,-370.102971,1302.362347
701.168199,-9474.636058,-222.061783,1302.362347
701.168519,-9548.656652,-74.020594,1225.752797
701.168840,-10807.006753,0.000000,153.219100
701.169161,-9622.677246,-370.102971,1072.533697
701.169481,-9696.697840,-296.082377,1149.143247
701.169802,-9622.677246,-444.123565,1149.143247
701.170122,-9770.718434,-666.185348,842.705048
701.170443,-9548.656652,-296.082377,766.095498
701.170764,-9622.677246,-296.082377,1225.752797
701.171084,-9474.636058,-296.082377,1378.971896
701.171405,-9400.615463,-296.082377,919.314598
701.171726,-9844.739029,-222.061783,842.705048
701.172046,-9622.677246,-222.061783,1302.362347
701.172367,-9474.636058,-444.123565,1378.971896
701.172688,-9474.636058,-296.082377,995.924147
701.173008,-9030.512492,370.102971,229.828649
701.173329,-9474.636058,0.000000,919.314598
701.173649,-9548.656652,-370.102971,1149.143247
701.173970,-9548.656652,-370.102971,919.314598
701.174291,-9770.718434,-444.123565,1072.533697
701.174611,-9474.636058,-370.102971,919.314598
701.174932,-9548.656652,-444.123565,1072.533697
701.175253,-9770.718434,-296.082377,1225.752797
701.175573,-9622.677246,-444.123565,1225.752797
701.175894,-9696.697840,-222.061783,919.314598
701.176214,-9474.636058,-148.041188,995.924147
701.176535,-9548.656652,-296.082377,1072.533697
701.176856,-9548.656652,-444.123565,1302.362347
701.177176,-10140.821405,0.000000,536.266849
701.177497,-9474.636058,-222.061783,766.095498
701.177818,-9474.636058,-370.102971,612.876398
701.178138,-9770.718434,-444.123565,995.924147
701.178459,-9474.636058,-370.102971,689.485948
701.178780,-9548.656652,-518.144159,995.924147
701.179100,-9474.636058,-666.185348,842.705048
701.179421,-9918.759623,-296.082377,995.924147
701.179741,-9548.656652,-370.102971,919.314598
701.180062,-9474.636058,-666.185348,766.095498
701.180383,-9474.636058,-518.144159,995.924147
701.180703,-9622.677246,-296.082377,1378.971896
701.181024,-9622.677246,-518.144159,842.705048
701.181345,-8882.471304,-666.185348,2604.724693
701.181665,-9474.636058,-296.082377,1302.362347
701.181986,-9474.636058,-444.123565,1302.362347
701.182306,-9400.615463,-370.102971,1072.533697
701.182627,-9844.739029,0.000000,689.485948
701.182948,-9548.656652,-222.061783,1149.143247
701.183268,-9622.677246,-370.102971,1072.533697
701.183589,-9548.656652,-296.082377,1072.533697
701.183910,-9622.677246,-444.123565,995.924147
701.184230,-9326.594869,-666.185348,1608.800546
701.184551,-9548.656652,-592.164754,1302.362347
701.184872,-9548.656652,-222.061783,1149.143247
701.185192,-9622.677246,-444.123565,919.314598
701.185513,-10066.800811,-148.041188,1302.362347
701.185833,-9474.636058,-296.082377,1149.143247
701.186154,-9548.656652,-74.020594,1225.752797
701.186475,-9548.656652,-370.102971,919.314598
701.186795,-9326.594869,-296.082377,995.924147
701.187116,-9474.636058,-444.123565,919.314598
701.187437,-9400.615463,-296.082377,1149.143247
701.187757,-9622.677246,-444.123565,995.924147
701.188078,-9548.656652,-592.164754,536.266849
701.188398,-9252.574275,-518.144159,919.314598
701.188719,-9548.656652,-370.102971,919.314598
701.189040,-9622.677246,-370.102971,919.314598
701.189360,-9548.656652,-370.102971,689.485948
701.189681,-9844.739029,-222.061783,2145.067394
701.190002,-9474.636058,-518.144159,1302.362347
701.190322,-9474.636058,-370.102971,1149.143247
701.190643,-9622.677246,-444.123565,919.314598
701.190963,-9474.636058,-370.102971,1149.143247
701.191284,-9622.677246,-592.164754,1225.752797
701.191605,-9622.677246,-296.082377,1149.143247
701.191925,-9474.636058,-518.144159,1149.143247
701.192246,-9548.656652,-444.123565,1149.143247
701.192567,-9474.636058,444.123565,2298.286494
701.192887,-9548.656652,-296.082377,919.314598
701.193208,-9622.677246,-148.041188,995.924147
701.193529,-9474.636058,-444.123565,842.705048
701.193849,-9474.636058,-444.123565,919.314598
701.194170,-9548.656652,-222.061783,1378.971896
701.194490,-9474.636058,-518.144159,1378.971896
701.194811,-9770.718434,-370.102971,1378.971896
701.195132,-9770.718434,-370.102971,1072.533697
701.195452,-9844.739029,-148.041188,1532.190996
701.195773,-9400.615463,-370.102971,1225.752797
701.196094,-9474.636058,-518.144159,689.485948
701.196414,-9548.656652,-148.041188,1149.143247
701.196735,-9622.677246,74.020594,1072.533697
701.197055,-9474.636058,-296.082377,1072.533697
701.197376,-9622.677246,-296.082377,1149.143247
701.197697,-9622.677246,-296.082377,1072.533697
701.198017,-9474.636058,-370.102971,1302.362347
701.198338,-9548.656652,-370.102971,1225.752797
701.198659,-9696.697840,-222.061783,1302.362347
701.198979,-9696.697840,-148.041188,1149.143247
701.199300,-9548.656652,-444.123565,1302.362347
701.199621,-9918.759623,-148.041188,536.266849
701.199941,-9696.697840,-592.164754,1149.143247
701.200262,-9548.656652,-148.041188,1149.143247
701.200582,-9622.677246,-222.061783,1302.362347
701.200903,-10362.883188,370.102971,1149.143247
701.201224,-9474.636058,-222.061783,1072.533697
701.201544,-9622.677246,-74.020594,1302.362347
701.201865,-9548.656652,-222.061783,1302.362347
701.202186,-9696.697840,-296.082377,1072.533697
701.202506,-9474.636058,-222.061783,842.705048
701.202827,-9474.636058,-296.082377,1149.143247
701.203147,-9474.636058,-296.082377,1072.533697
701.203468,-9474.636058,-592.164754,766.095498
701.203789,-9918.759623,222.061783,766.095498
701.204109,-9696.697840,-370.102971,842.705048
701.204430,-9400.615463,-296.082377,995.924147
701.204751,-9548.656652,-444.123565,612.876398
701.205071,-9770.718434,-592.164754,1455.581446
701.205392,-9622.677246,-296.082377,1149.143247
701.205713,-9548.656652,-74.020594,766.095498
701.206033,-9622.677246,-296.082377,995.924147
701.206354,-9770.718434,-74.020594,1225.752797
701.206674,-9770.718434,-296.082377,1149.143247
701.206995,-9474.636058,-148.041188,1149.143247
701.207316,-9622.677246,-74.020594,1225.752797
701.207636,-9622.677246,0.000000,1149.143247
701.207957,-9326.594869,-666.185348,995.924147
701.208278,-9474.636058,-296.082377,1149.143247
701.208598,-9622.677246,-370.102971,842.705048
701.208919,-9696.697840,0.000000,919.314598
701.209239,-9474.636058,-370.102971,0.000000
701.209560,-9548.656652,-444.123565,919.314598
701.209881,-9696.697840,-370.102971,995.924147
701.210201,-9622.677246,-444.123565,995.924147
701.210522,-9474.636058,-370.102971,1302.362347
701.210843,-9622.677246,-296.082377,1302.362347
701.211163,-9548.656652,-222.061783,1225.752797
701.211484,-9622.677246,-444.123565,995.924147
701.211805,-9474.636058,-444.123565,1072.533697
701.212125,-9400.615463,-444.123565,1915.238745
701.212446,-9622.677246,-370.102971,919.314598
701.212766,-9474.636058,-370.102971,1149.143247
701.213087,-9548.656652,-370.102971,612.876398
701.213408,-9548.656652,0.000000,766.095498
701.213728,-9622.677246,-444.123565,919.314598
701.214049,-9696.697840,-592.164754,1149.143247
701.214370,-9770.718434,-370.102971,995.924147
701.214690,-9696.697840,-444.123565,995.924147
701.215011,-9696.697840,-296.082377,689.485948
701.215331,-9548.656652,-444.123565,995.924147
701.215652,-9474.636058,-518.144159,1072.533697
701.215973,-9622.677246,-370.102971,1072.533697
701.216293,-8660.409521,-740.205942,1838.629195
701.216614,-9474.636058,-518.144159,1072.533697
701.216935,-9474.636058,-740.205942,995.924147
701.217255,-9696.697840,-370.102971,1378.971896
701.217576,-9548.656652,-222.061783,1149.143247
701.217897,-9770.718434,0.000000,842.705048
701.218217,-9548.656652,-592.164754,1072.533697
701.218538,-9770.718434,-222.061783,1149.143247
701.218859,-9696.697840,-370.102971,995.924147
701.219179,-9696.697840,-148.041188,1225.752797
701.219500,-9622.677246,0.000000,612.876398
701.219821,-9474.636058,-370.102971,1149.143247
701.220142,-9548.656652,-222.061783,1378.971896
701.220462,-9326.594869,-962.267725,1149.143247
701.220783,-9696.697840,-148.041188,1455.581446
701.221104,-9548.656652,-444.123565,842.705048
701.221424,-9400.615463,-518.144159,766.095498
701.221745,-9548.656652,-370.102971,1455.581446
701.222066,-9474.636058,-222.061783,1455.581446
701.222386,-9696.697840,-592.164754,919.314598
701.222707,-9622.677246,-370.102971,1302.362347
701.223028,-9622.677246,-592.164754,842.705048
701.223348,-9992.780217,0.000000,1225.752797
701.223669,-9622.677246,-518.144159,1225.752797
701.223990,-9474.636058,-518.144159,1149.143247
701.224311,-9548.656652,-296.082377,1072.533697
701.224631,-8734.430116,-814.226536,1608.800546
701.224952,-9474.636058,-296.082377,995.924147
701.225273,-9622.677246,-74.020594,1378.971896
701.225593,-9548.656652,-296.082377,995.924147
701.225914,-9474.636058,-222.061783,1072.533697
701.226235,-9696.697840,-148.041188,919.314598
701.226555,-9622.677246,-370.102971,1378.971896
701.226876,-9622.677246,-296.082377,1225.752797
701.227197,-9474.636058,-518.144159,1225.752797
701.227518,-9474.636058,-222.061783,1608.800546
701.227838,-9548.656652,0.000000,1225.752797
701.228159,-9770.718434,-222.061783,919.314598
701.228480,-9548.656652,-296.082377,1149.143247
701.228800,-9622.677246,-518.144159,919.314598
701.229121,-9548.656652,-370.102971,1149.143247
701.229442,-9548.656652,-148.041188,1302.362347
701.229762,-9696.697840,-518.144159,1072.533697
701.230083,-9696.697840,-444.123565,995.924147
701.230404,-9548.656652,-296.082377,842.705048
701.230725,-9696.697840,0.000000,689.485948
701.231045,-9474.636058,-148.041188,919.314598
701.231366,-9474.636058,0.000000,995.924147
701.231687,-9474.636058,-296.082377,919.314598
701.232007,-9696.697840,-148.041188,689.485948
701.232328,-9696.697840,-592.164754,1378.971896
701.232649,-9548.656652,-370.102971,1302.362347
701.232969,-8808.450710,-296.082377,2298.286494
701.233290,-9696.697840,-74.020594,1302.362347
701.233611,-9622.677246,-296.082377,1149.143247
701.233931,-9770.718434,-296.082377,766.095498
701.234252,-9474.636058,-370.102971,2451.505594
701.234573,-9548.656652,-518.144159,842.705048
701.234894,-9622.677246,-296.082377,1149.143247
701.235214,-9548.656652,-370.102971,842.705048
701.235535,-9474.636058,-148.041188,1072.533697
701.235856,-9548.656652,0.000000,1225.752797
701.236176,-9622.677246,0.000000,1455.581446
701.236497,-9548.656652,-296.082377,1149.143247
701.236818,-9548.656652,-148.041188,1149.143247
701.237138,-9844.739029,444.123565,383.047749
701.237459,-9696.697840,-148.041188,919.314598
701.237780,-9548.656652,-370.102971,1378.971896
701.238101,-9326.594869,0.000000,1225.752797
701.238421,-9548.656652,-444.123565,1149.143247
701.238742,-9622.677246,-296.082377,1072.533697
701.239063,-9548.656652,-296.082377,1149.143247
701.239383,-9770.718434,-74.020594,1225.752797
701.239704,-9474.636058,-444.123565,919.314598
701.240025,-9622.677246,0.000000,1378.971896
701.240345,-9548.656652,-444.123565,1225.752797
701.240666,-9548.656652,-370.102971,1072.533697
701.240987,-9696.697840,-148.041188,919.314598
701.241307,-9474.636058,-666.185348,459.657299
701.241628,-9474.636058,-222.061783,1225.752797
701.241949,-9696.697840,-370.102971,1302.362347
701.242270,-9474.636058,-296.082377,1302.362347
701.242590,-9548.656652,-296.082377,919.314598
701.242911,-9474.636058,-222.061783,1685.410096
701.243232,-9474.636058,-370.102971,1149.143247
701.243552,-9474.636058,-296.082377,919.314598
701.243873,-9474.636058,-296.082377,1072.533697
701.244194,-9474.636058,-370.102971,1225.752797
701.244514,-9770.718434,-518.144159,1225.752797
701.244835,-9548.656652,-222.061783,842.705048
701.245156,-9474.636058,-370.102971,842.705048
701.245477,-9178.553681,222.061783,2221.676944
701.245797,-9622.677246,-296.082377,1302.362347
701.246118,-9622.677246,-222.061783,919.314598
701.246439,-9548.656652,-296.082377,919.314598
701.246759,-9474.636058,-666.185348,842.705048
701.247080,-9548.656652,-222.061783,919.314598
701.247401,-9548.656652,-370.102971,1225.752797
701.247721,-9622.677246,-370.102971,919.314598
701.248042,-9548.656652,-296.082377,689.485948
701.248363,-9622.677246,-222.061783,1072.533697
701.248684,-9770.718434,-296.082377,1225.752797
701.249004,-9696.697840,-148.041188,995.924147
701.249325,-9770.718434,-518.144159,919.314598
701.249646,-9474.636058,-666.185348,995.924147
701.249966,-9696.697840,-444.123565,919.314598
701.250287,-9474.636058,-296.082377,919.314598
701.250608,-9770.718434,-296.082377,919.314598
701.250928,-9622.677246,-518.144159,842.705048
701.251249,-9548.656652,-518.144159,1302.362347
701.251570,-9548.656652,-370.102971,1225.752797
701.251890,-9696.697840,-296.082377,1149.143247
701.252211,-9474.636058,-370.102971,1455.581446
701.252532,-9474.636058,-222.061783,1838.629195
701.252853,-9474.636058,-370.102971,1072.533697
701.253173,-9474.636058,-222.061783,842.705048
701.253494,-9696.697840,-370.102971,1302.362347
701.253815,-9474.636058,-444.123565,-842.705048
701.254135,-9622.677246,-444.123565,919.314598
701.254456,-9622.677246,-296.082377,1225.752797
701.254777,-9622.677246,-370.102971,1225.752797
701.255097,-9696.697840,-370.102971,995.924147
701.255418,-9474.636058,-666.185348,612.876398
701.255739,-9622.677246,-370.102971,919.314598
701.256060,-9622.677246,-222.061783,1302.362347
701.256380,-9622.677246,-518.144159,1225.752797
701.256701,-9548.656652,0.000000,1072.533697
701.257022,-9770.718434,-222.061783,1225.752797
701.257342,-9622.677246,-518.144159,1072.533697
701.257663,-9548.656652,-518.144159,1302.362347
701.257984,-9548.656652,-444.123565,689.485948
701.258304,-9548.656652,-370.102971,1149.143247
701.258625,-9622.677246,-370.102971,1149.143247
701.258946,-9696.697840,-370.102971,766.095498
701.259267,-9696.697840,-74.020594,1149.143247
701.259587,-9918.759623,-296.082377,1302.362347
701.259908,-9696.697840,-666.185348,1072.533697
701.260229,-9474.636058,-666.185348,995.924147
701.260549,-9696.697840,-518.144159,383.047749
701.260870,-9548.656652,-592.164754,2451.505594
701.261191,-9474.636058,-370.102971,1149.143247
701.261511,-9474.636058,-444.123565,766.095498
701.261832,-9622.677246,-592.164754,766.095498
701.262153,-9622.677246,-444.123565,919.314598
701.262473,-9548.656652,-444.123565,1225.752797
701.262794,-9474.636058,-444.123565,1072.533697
701.263115,-9622.677246,-518.144159,1225.752797
701.263436,-9474.636058,-444.123565,1225.752797
701.263756,-9844.739029,-296.082377,536.266849
701.264077,-9548.656652,-518.144159,1225.752797
701.264398,-9770.718434,-148.041188,1072.533697
701.264718,-9770.718434,-222.061783,1072.533697
701.265039,-9548.656652,-222.061783,2528.115143
701.265360,-9548.656652,-148.041188,689.485948
701.265680,-9548.656652,-370.102971,1455.581446
701.266001,-10066.800811,-296.082377,1072.533697
701.266322,-9474.636058,-518.144159,1532.190996
701.266643,-9474.636058,-518.144159,842.705048
701.266963,-9548.656652,-296.082377,842.705048
701.267284,-9474.636058,-444.123565,1225.752797
701.267605,-9400.615463,-444.123565,1225.752797
701.267925,-9548.656652,-370.102971,1378.971896
701.268246,-9548.656652,-370.102971,995.924147
701.268567,-9770.718434,-296.082377,1149.143247
701.268887,-9770.718434,-148.041188,1225.752797
701.269208,-9696.697840,-370.102971,536.266849
701.269529,-9474.636058,-148.041188,1302.362347
701.269849,-9844.739029,-444.123565,689.485948
701.270170,-9548.656652,-222.061783,1072.533697
701.270491,-9770.718434,-222.061783,383.047749
701.270812,-9548.656652,-296.082377,1225.752797
701.271132,-9474.636058,-370.102971,1072.533697
701.271453,-9696.697840,-148.041188,995.924147
701.271774,-9474.636058,-222.061783,995.924147
701.272094,-9548.656652,-444.123565,1532.190996
701.272415,-9770.718434,0.000000,1302.362347
701.272736,-9844.739029,-296.082377,1225.752797
701.273056,-9548.656652,0.000000,1149.143247
701.273377,-10658.965565,74.020594,306.438199
701.273698,-9474.636058,-296.082377,995.924147
701.274019,-9844.739029,-74.020594,1302.362347
701.274339,-9400.615463,-370.102971,995.924147
701.274660,-9474.636058,-370.102971,919.314598
701.274981,-9770.718434,-296.082377,766.095498
701.275301,-9770.718434,-370.102971,1225.752797
701.275622,-9474.636058,-296.082377,1225.752797
701.275943,-9548.656652,-444.123565,766.095498
701.276263,-9770.718434,-370.102971,1302.362347
701.276584,-9548.656652,-222.061783,1225.752797
701.276905,-9622.677246,0.000000,1532.190996
701.277226,-9918.759623,-74.020594,1608.800546
701.277546,-9474.636058,0.000000,1302.362347
701.277867,-9622.677246,-296.082377,766.095498
701.278188,-9770.718434,0.000000,919.314598
701.278508,-9474.636058,-296.082377,1149.143247
701.278829,-9992.780217,296.082377,0.000000
701.279150,-9622.677246,-296.082377,919.314598
701.279470,-9622.677246,-370.102971,1149.143247
701.279791,-9622.677246,-518.144159,995.924147
701.280112,-9548.656652,-222.061783,1225.752797
701.280432,-9474.636058,-296.082377,995.924147
701.280753,-9548.656652,-518.144159,1149.143247
701.281074,-9474.636058,-296.082377,995.924147
701.281395,-9770.718434,-518.144159,919.314598
701.281715,-9696.697840,-518.144159,842.705048
701.282036,-9622.677246,-296.082377,1225.752797
701.282357,-9548.656652,0.000000,1072.533697
701.282677,-9474.636058,-222.061783,1072.533697
701.282998,-10140.821405,740.205942,1455.581446
701.283319,-9474.636058,-148.041188,1225.752797
701.283639,-9474.636058,-444.123565,995.924147
701.283960,-9474.636058,-370.102971,842.705048
701.284281,-9474.636058,-444.123565,842.705048
701.284602,-9474.636058,-444.123565,842.705048
701.284922,-9622.677246,-592.164754,1149.143247
701.285243,-9548.656652,-370.102971,995.924147
701.285564,-9548.656652,-518.144159,842.705048
701.285884,-9548.656652,-518.144159,1149.143247
701.286205,-9696.697840,-296.082377,995.924147
701.286526,-9622.677246,-592.164754,1302.362347
701.286846,-9770.718434,-370.102971,1149.143247
701.287167,-9030.512492,-370.102971,2298.286494
701.287488,-9548.656652,0.000000,995.924147
701.287809,-9548.656652,-296.082377,1455.581446
701.288129,-9400.615463,-74.020594,1225.752797
701.288450,-9548.656652,-592.164754,995.924147
701.288771,-9548.656652,0.000000,1072.533697
701.289091,-9548.656652,-518.144159,995.924147
701.289412,-9622.677246,-370.102971,1225.752797
701.289733,-9622.677246,-444.123565,1149.143247
701.290053,-9474.636058,0.000000,1149.143247
701.290374,-9622.677246,-296.082377,1149.143247
701.290695,-9474.636058,-444.123565,1072.533697
701.291015,-9770.718434,-444.123565,1225.752797
701.291336,-9400.615463,-444.123565,1225.752797
701.291657,-9548.656652,-296.082377,919.314598
701.291978,-9770.718434,-222.061783,1149.143247
701.292298,-9622.677246,-444.123565,1072.533697
701.292619,-9918.759623,-444.123565,995.924147
701.292940,-9474.636058,-444.123565,1072.533697
701.293260,-9622.677246,-222.061783,1149.143247
701.293581,-9696.697840,-222.061783,1378.971896
701.293902,-9474.636058,0.000000,1302.362347
701.294222,-9696.697840,-148.041188,1072.533697
701.294543,-9326.594869,0.000000,1149.143247
701.294864,-9622.677246,0.000000,1072.533697
701.295185,-9548.656652,-370.102971,1455.581446
701.295505,-9474.636058,-222.061783,1838.629195
701.295826,-9400.615463,-444.123565,919.314598
701.296147,-9622.677246,-148.041188,1149.143247
701.296467,-9548.656652,-222.061783,842.705048
701.296788,-9770.718434,-296.082377,1149.143247
701.297109,-9548.656652,-148.041188,1072.533697
701.297429,-9474.636058,-222.061783,995.924147
701.297750,-9548.656652,-370.102971,995.924147
701.298071,-9622.677246,-370.102971,1149.143247
701.298392,-9622.677246,-222.061783,1072.533697
701.298712,-9474.636058,0.000000,1378.971896
701.299033,-9770.718434,-148.041188,1225.752797
701.299354,-9548.656652,-222.061783,766.095498
701.299674,-10066.800811,-222.061783,1302.362347
701.299995,-9474.636058,-222.061783,1149.143247
701.300316,-9548.656652,0.000000,1149.143247
701.300636,-9548.656652,0.000000,1072.533697
701.300957,-9474.636058,0.000000,1072.533697
701.301278,-9474.636058,-222.061783,1532.190996
701.301598,-9622.677246,-296.082377,1225.752797
701.301919,-9622.677246,-370.102971,766.095498
701.302240,-9474.636058,-222.061783,1225.752797
701.302561,-9474.636058,-296.082377,1302.362347
701.302881,-9770.718434,-222.061783,1225.752797
701.303202,-9622.677246,-74.020594,1225.752797
701.303523,-9622.677246,-296.082377,995.924147
701.303843,-9474.636058,-592.164754,689.485948
701.304164,-9474.636058,-370.102971,919.314598
701.304485,-9696.697840,-296.082377,995.924147
701.304805,-9474.636058,0.000000,1072.533697
701.305126,-9474.636058,-74.020594,1225.752797
701.305447,-9400.615463,-296.082377,1149.143247
701.305768,-9696.697840,-296.082377,1072.533697
701.306088,-9548.656652,-444.123565,1225.752797
701.306409,-9696.697840,-296.082377,1072.533697
701.306730,-9474.636058,-296.082377,1302.362347
701.307050,-9548.656652,-370.102971,1302.362347
701.307371,-9622.677246,-296.082377,1072.533697
701.307692,-9474.636058,-222.061783,842.705048
701.308012,-9622.677246,-296.082377,0.000000
701.308333,-9622.677246,-296.082377,766.095498
701.308654,-9622.677246,-222.061783,1149.143247
701.308974,-9696.697840,-370.102971,1302.362347
701.309295,-9622.677246,0.000000,76.609550
701.309616,-9548.656652,-370.102971,919.314598
701.309937,-9770.718434,-592.164754,995.924147
701.310257,-9844.739029,-296.082377,1149.143247
701.310578,-9622.677246,-370.102971,995.924147
701.310899,-9252.574275,-518.144159,766.095498
701.311219,-9474.636058,0.000000,1072.533697
701.311540,-9548.656652,-444.123565,919.314598
701.311861,-9474.636058,-296.082377,1225.752797
701.312181,-9696.697840,0.000000,1149.143247
701.312502,-9696.697840,-296.082377,1149.143247
701.312823,-9622.677246,-518.144159,1149.143247
701.313144,-9844.739029,-296.082377,1378.971896
701.313464,-9844.739029,666.185348,383.047749
701.313785,-9474.636058,-444.123565,995.924147
701.314106,-9474.636058,-222.061783,1072.533697
701.314426,-9622.677246,-222.061783,689.485948
701.314747,-9548.656652,-444.123565,1302.362347
701.315068,-9400.615463,-444.123565,919.314598
701.315388,-9622.677246,-296.082377,919.314598
701.315709,-9622.677246,-592.164754,919.314598
701.316030,-9622.677246,-518.144159,1072.533697
701.316351,-9474.636058,0.000000,1072.533697
701.316671,-9770.718434,-592.164754,1072.533697
701.316992,-9548.656652,-296.082377,1149.143247
701.317313,-9548.656652,-370.102971,919.314598
701.317633,-9104.533087,-444.123565,1378.971896
701.317954,-9622.677246,-370.102971,1455.581446
701.318275,-9622.677246,-296.082377,919.314598
701.318595,-9474.636058,-518.144159,766.095498
701.318916,-9474.636058,-518.144159,842.705048
701.319237,-9770.718434,-444.123565,612.876398
701.319558,-9548.656652,-518.144159,1225.752797
701.319878,-9696.697840,-370.102971,766.095498
701.320199,-9400.615463,-518.144159,229.828649
701.320520,-9474.636058,-370.102971,612.876398
701.320840,-9696.697840,-296.082377,995.924147
701.321161,-9770.718434,-296.082377,1378.971896
701.321482,-9622.677246,-296.082377,1149.143247
701.321802,-9474.636058,-444.123565,229.828649
701.322123,-9696.697840,-518.144159,1149.143247
701.322444,-9474.636058,-444.123565,1149.143247
701.322765,-9474.636058,-296.082377,1072.533697
701.323085,-9622.677246,-296.082377,842.705048
701.323406,-9474.636058,-444.123565,1225.752797
701.323727,-9548.656652,-370.102971,995.924147
701.324047,-9474.636058,0.000000,919.314598
701.324368,-9474.636058,-444.123565,1149.143247
701.324689,-9400.615463,0.000000,766.095498
701.325009,-9548.656652,-296.082377,842.705048
701.325330,-9696.697840,-592.164754,842.705048
701.325651,-9770.718434,-148.041188,1378.971896
701.325972,-9844.739029,-296.082377,1532.190996
701.326292,-9548.656652,-370.102971,1302.362347
701.326613,-9622.677246,-296.082377,919.314598
701.326934,-9548.656652,-370.102971,1302.362347
701.327254,-9474.636058,-666.185348,995.924147
701.327575,-9548.656652,-296.082377,1915.238745
701.327896,-9474.636058,-592.164754,766.095498
701.328216,-9326.594869,-444.123565,995.924147
701.328537,-9474.636058,-296.082377,995.924147
701.328858,-8956.491898,0.000000,2068.457845
701.329179,-9622.677246,-222.061783,689.485948
701.329499,-9622.677246,-296.082377,1149.143247
701.329820,-9696.697840,-296.082377,1072.533697
701.330141,-9622.677246,-296.082377,919.314598
701.330461,-9474.636058,-518.144159,1225.752797
701.330782,-9770.718434,-370.102971,1149.143247
701.331103,-9548.656652,-444.123565,995.924147
701.331423,-9696.697840,-518.144159,1072.533697
701.331744,-9474.636058,-296.082377,1378.971896
701.332065,-9474.636058,-444.123565,1149.143247
701.332385,-9474.636058,-370.102971,1072.533697
701.332706,-9622.677246,-296.082377,919.314598
701.333027,-9548.656652,-222.061783,2145.067394
701.333348,-9696.697840,-296.082377,1225.752797
701.333668,-9474.636058,-592.164754,842.705048
701.333989,-9770.718434,-222.061783,1302.362347
701.334310,-9622.677246,-518.144159,0.000000
701.334630,-9548.656652,-666.185348,689.485948
701.334951,-9474.636058,-444.123565,995.924147
701.335272,-9696.697840,-296.082377,1072.533697
701.335592,-9474.636058,-296.082377,919.314598
701.335913,-9622.677246,-740.205942,842.705048
701.336234,-9474.636058,-148.041188,1149.143247
701.336555,-9548.656652,-370.102971,766.095498
701.336875,-9696.697840,-222.061783,1302.362347
701.337196,-9474.636058,-518.144159,1225.752797
701.337517,-9474.636058,-370.102971,1225.752797
701.337837,-9548.656652,-370.102971,919.314598
701.338158,-9622.677246,-296.082377,995.924147
701.338479,-9474.636058,-592.164754,1378.971896
701.338799,-9400.615463,-296.082377,1455.581446
701.339120,-9696.697840,-296.082377,1302.362347
701.339441,-9696.697840,-444.123565,1225.752797
701.339762,-9548.656652,-444.123565,842.705048
701.340082,-9622.677246,-444.123565,536.266849
701.340403,-9622.677246,-222.061783,1149.143247
701.340724,-9474.636058,-518.144159,1072.533697
701.341044,-9548.656652,-370.102971,1455.581446
701.341365,-9844.739029,-740.205942,2068.457845
701.341686,-9474.636058,-518.144159,995.924147
701.342006,-9770.718434,-148.041188,1378.971896
701.342327,-9474.636058,-370.102971,1072.533697
701.342648,-9696.697840,-296.082377,995.924147
701.342969,-9622.677246,-296.082377,1378.971896
701.343289,-9548.656652,-296.082377,1072.533697
701.343610,-9696.697840,-296.082377,1072.533697
701.343931,-9548.656652,-148.041188,1149.143247
701.344251,-9548.656652,-148.041188,2451.505594
701.344572,-9474.636058,-296.082377,919.314598
701.344893,-9548.656652,-74.020594,1072.533697
701.345213,-9622.677246,-444.123565,1072.533697
701.345534,-9622.677246,0.000000,1302.362347
701.345855,-9474.636058,-518.144159,766.095498
701.346176,-9918.759623,0.000000,842.705048
701.346496,-9622.677246,-148.041188,842.705048
701.346817,-9474.636058,-296.082377,766.095498
701.347138,-9548.656652,0.000000,1225.752797
701.347458,-9696.697840,0.000000,1072.533697
701.347779,-9622.677246,0.000000,1225.752797
701.348100,-9770.718434,-370.102971,1225.752797
701.348420,-9474.636058,0.000000,2221.676944
701.348741,-9622.677246,-148.041188,1225.752797
701.349062,-9474.636058,0.000000,1149.143247
701.349383,-9696.697840,-592.164754,995.924147
701.349703,-9400.615463,-666.185348,689.485948
701.350024,-9770.718434,-370.102971,689.485948
701.350345,-9474.636058,-222.061783,995.924147
701.350665,-9548.656652,-518.144159,842.705048
701.350986,-9622.677246,-148.041188,1225.752797
701.351307,-9400.615463,-518.144159,1532.190996
701.351627,-9622.677246,-444.123565,919.314598
701.351948,-9474.636058,-518.144159,1378.971896
701.352269,-9770.718434,-518.144159,842.705048
701.352590,-9770.718434,0.000000,2221.676944
701.352910,-9474.636058,-296.082377,919.314598
701.353231,-9474.636058,-222.061783,995.924147
701.353552,-9622.677246,-444.123565,842.705048
701.353872,-9548.656652,-370.102971,1915.238745
701.354193,-9474.636058,0.000000,1149.143247
701.354514,-9474.636058,-370.102971,1149.143247
701.354834,-9622.677246,-296.082377,995.924147
701.355155,-9400.615463,-370.102971,995.924147
701.355476,-9548.656652,-296.082377,842.705048
701.355797,-9622.677246,-592.164754,1072.533697
701.356117,-9696.697840,-518.144159,1149.143247
701.356438,-9622.677246,-444.123565,842.705048
701.356759,-10510.924376,0.000000,1149.143247
701.357079,-9622.677246,-518.144159,995.924147
701.357400,-9474.636058,-518.144159,1149.143247
701.357721,-9622.677246,-592.164754,1455.581446
701.358041,-9548.656652,-370.102971,1149.143247
701.358362,-9622.677246,-296.082377,766.095498
701.358683,-9474.636058,-444.123565,1455.581446
701.359004,-9474.636058,-370.102971,1149.143247
701.359324,-9622.677246,-370.102971,1302.362347
701.359645,-9548.656652,-518.144159,383.047749
701.359966,-9622.677246,-296.082377,1225.752797
701.360286,-9696.697840,-296.082377,995.924147
701.360607,-9770.718434,-370.102971,1378.971896
701.360928,-9400.615463,-370.102971,766.095498
701.361248,-9548.656652,-148.041188,995.924147
701.361569,-9474.636058,-222.061783,919.314598
701.361890,-9622.677246,-370.102971,1072.533697
701.362211,-9474.636058,-296.082377,1149.143247
701.362531,-9622.677246,-148.041188,1072.533697
701.362852,-9696.697840,-592.164754,842.705048
701.363173,-9622.677246,-444.123565,842.705048
701.363493,-9622.677246,-296.082377,1072.533697
701.363814,-9696.697840,-370.102971,1149.143247
701.364135,-9400.615463,-518.144159,1225.752797
701.364455,-9770.718434,-222.061783,919.314598
701.364776,-9548.656652,-518.144159,1149.143247
701.365097,-9992.780217,-296.082377,1149.143247
701.365418,-9474.636058,-148.041188,1225.752797
701.365738,-9474.636058,-296.082377,536.266849
701.366059,-9326.594869,-222.061783,842.705048
701.366380,-9548.656652,-148.041188,1225.752797
701.366700,-9622.677246,-222.061783,1072.533697
701.367021,-9622.677246,-148.041188,1072.533697
701.367342,-9474.636058,74.020594,842.705048
701.367662,-9622.677246,-222.061783,1072.533697
701.367983,-9770.718434,-296.082377,1072.533697
701.368304,-9622.677246,-444.123565,1455.581446
701.368625,-9548.656652,-444.123565,1072.533697
701.368945,-9622.677246,-296.082377,1149.143247
701.369266,-9474.636058,-518.144159,1149.143247
701.369587,-9622.677246,-222.061783,766.095498
701.369907,-9548.656652,-148.041188,919.314598
701.370228,-9474.636058,0.000000,919.314598
701.370549,-8734.430116,-666.185348,1455.581446
701.370869,-9622.677246,-222.061783,1149.143247
701.371190,-9622.677246,-148.041188,1149.143247
701.371511,-9622.677246,-296.082377,1072.533697
701.371832,-9770.718434,-222.061783,1149.143247
701.372152,-9548.656652,-148.041188,1455.581446
701.372473,-9474.636058,-296.082377,919.314598
701.372794,-9548.656652,-296.082377,1302.362347
701.373114,-9474.636058,-222.061783,1225.752797
701.373435,-8956.491898,-1480.411884,842.705048
701.373756,-9622.677246,-222.061783,995.924147
701.374076,-9696.697840,-296.082377,1378.971896
701.374397,-9622.677246,-296.082377,919.314598
701.374718,-9844.739029,-296.082377,1149.143247
701.375039,-9474.636058,-148.041188,1225.752797
701.375359,-9622.677246,-222.061783,1149.143247
701.375680,-9548.656652,-370.102971,995.924147
701.376001,-9474.636058,-518.144159,919.314598
701.376321,-9252.574275,-370.102971,2145.067394
701.376642,-9622.677246,-222.061783,1149.143247
701.376963,-9548.656652,-222.061783,1225.752797
701.377283,-9622.677246,-296.082377,1302.362347
701.377604,-9474.636058,-444.123565,3140.991542
701.377925,-9770.718434,-148.041188,1225.752797
701.378246,-9548.656652,-370.102971,1302.362347
701.378566,-9770.718434,-148.041188,919.314598
701.378887,-9474.636058,-296.082377,1302.362347
701.379208,-9918.759623,-222.061783,1225.752797
701.379528,-9474.636058,-370.102971,919.314598
701.379849,-9770.718434,-592.164754,1149.143247
701.380170,-9696.697840,-370.102971,1149.143247
701.380490,-9474.636058,-592.164754,1991.848295
701.380811,-9474.636058,-296.082377,1225.752797
701.381132,-9326.594869,-444.123565,1225.752797
701.381453,-9474.636058,-370.102971,1072.533697
701.381773,-9548.656652,-444.123565,1302.362347
701.382094,-9696.697840,-296.082377,1149.143247
701.382415,-9548.656652,-296.082377,1149.143247
701.382735,-9548.656652,-222.061783,1072.533697
701.383056,-9770.718434,-148.041188,1225.752797
701.383377,-9770.718434,-222.061783,1149.143247
701.383697,-9622.677246,-518.144159,1072.533697
701.384018,-9548.656652,-370.102971,1149.143247
701.384339,-9696.697840,-370.102971,1149.143247
701.384660,-9696.697840,518.144159,153.219100
701.384980,-9474.636058,-370.102971,995.924147
701.385301,-9548.656652,0.000000,689.485948
701.385622,-9696.697840,-296.082377,689.485948
701.385942,-9548.656652,-148.041188,919.314598
701.386263,-9548.656652,-666.185348,1149.143247
701.386584,-9770.718434,-296.082377,1225.752797
701.386904,-9696.697840,-592.164754,1225.752797
701.387225,-9474.636058,-370.102971,1149.143247
701.387546,-9622.677246,-222.061783,1532.190996
701.387867,-9770.718434,-370.102971,1149.143247
701.388187,-9696.697840,-296.082377,1225.752797
701.388508,-9622.677246,-296.082377,1072.533697
701.388829,-9104.533087,-740.205942,1838.629195
701.389149,-9474.636058,-370.102971,919.314598
701.389470,-9548.656652,-444.123565,1149.143247
701.389791,-9696.697840,-370.102971,1149.143247
701.390111,-9474.636058,-370.102971,1378.971896
701.390432,-9474.636058,-370.102971,689.485948
701.390753,-9696.697840,-444.123565,919.314598
701.391074,-9474.636058,-444.123565,1378.971896
701.391394,-9548.656652,-444.123565,1149.143247
701.391715,-9548.656652,0.000000,766.095498
701.392036,-9548.656652,-518.144159,612.876398
701.392356,-9474.636058,-444.123565,1149.143247
701.392677,-9548.656652,-370.102971,842.705048
701.392998,-10066.800811,-222.061783,536.266849
701.393318,-9622.677246,-296.082377,1072.533697
701.393639,-9696.697840,-370.102971,919.314598
701.393960,-9622.677246,-296.082377,1149.143247
701.394281,-9622.677246,-296.082377,1378.971896
701.394601,-9696.697840,-592.164754,1225.752797
701.394922,-9622.677246,-296.082377,1378.971896
701.395243,-9474.636058,-592.164754,689.485948
701.395563,-9696.697840,-370.102971,995.924147
701.395884,-10288.862594,-222.061783,536.266849
701.396205,-9548.656652,-74.020594,766.095498
701.396525,-9548.656652,-444.123565,919.314598
701.396846,-9622.677246,-370.102971,919.314598
701.397167,-9474.636058,-592.164754,76.609550
701.397488,-9770.718434,-222.061783,1149.143247
701.397808,-9844.739029,-148.041188,1072.533697
701.398129,-9548.656652,-370.102971,1302.362347
701.398450,-9548.656652,-592.164754,995.924147
701.398770,-9252.574275,-518.144159,1302.362347
701.399091,-9622.677246,-370.102971,1072.533697
701.399412,-9548.656652,-296.082377,1149.143247
701.399732,-9770.718434,-518.144159,995.924147
701.400053,-9918.759623,-666.185348,0.000000
701.400374,-9474.636058,-296.082377,689.485948
701.400695,-9844.739029,-222.061783,1149.143247
701.401015,-9548.656652,-296.082377,1302.362347
701.401336,-9696.697840,-296.082377,1378.971896
701.401657,-9474.636058,-296.082377,842.705048
701.401977,-9548.656652,-296.082377,689.485948
701.402298,-9770.718434,-370.102971,1225.752797
701.402619,-9548.656652,-518.144159,1378.971896
701.402939,-9252.574275,-592.164754,689.485948
701.403260,-9474.636058,-518.144159,536.266849
701.403581,-9770.718434,-222.061783,842.705048
701.403902,-9548.656652,-518.144159,919.314598
701.404222,-9474.636058,-148.041188,1225.752797
701.404543,-9548.656652,-518.144159,1225.752797
701.404864,-9548.656652,-518.144159,919.314598
701.405184,-9696.697840,-592.164754,1072.533697
701.405505,-9622.677246,-148.041188,1149.143247
701.405826,-9696.697840,-296.082377,1149.143247
701.406146,-9474.636058,0.000000,919.314598
701.406467,-9696.697840,-148.041188,1225.752797
701.406788,-9474.636058,-296.082377,1072.533697
701.407109,-9326.594869,-370.102971,1762.019645
701.407429,-9770.718434,-296.082377,995.924147
701.407750,-9548.656652,-518.144159,1225.752797
701.408071,-9474.636058,-518.144159,1072.533697
701.408391,-9474.636058,-592.164754,766.095498
701.408712,-9474.636058,-518.144159,1072.533697
701.409033,-9918.759623,-296.082377,1149.143247
701.409353,-9770.718434,-518.144159,1225.752797
701.409674,-9474.636058,-370.102971,1072.533697
701.409995,-9474.636058,-296.082377,842.705048
701.410316,-9696.697840,-296.082377,842.705048
701.410636,-9770.718434,-148.041188,1149.143247
701.410957,-9474.636058,-296.082377,1302.362347
701.411278,-9844.739029,-370.102971,1225.752797
701.411598,-9474.636058,-222.061783,1225.752797
701.411919,-9696.697840,-296.082377,1378.971896
701.412240,-9622.677246,-148.041188,1225.752797
701.412560,-9474.636058,74.020594,2374.896044
701.412881,-9548.656652,-222.061783,1072.533697
701.413202,-9622.677246,-518.144159,1149.143247
701.413523,-9474.636058,-518.144159,919.314598
701.413843,-9474.636058,-148.041188,995.924147
701.414164,-9622.677246,0.000000,1072.533697
701.414485,-9548.656652,-222.061783,1072.533697
701.414805,-9548.656652,-444.123565,995.924147
701.415126,-9622.677246,-370.102971,1225.752797
701.415447,-10066.800811,-518.144159,1532.190996
701.415767,-9548.656652,-296.082377,1225.752797
701.416088,-9548.656652,-444.123565,1302.362347
701.416409,-9474.636058,-370.102971,1149.143247
701.416730,-9992.780217,0.000000,1072.533697
701.417050,-9770.718434,-222.061783,1072.533697
701.417371,-9474.636058,-370.102971,842.705048
701.417692,-9474.636058,-444.123565,842.705048
701.418012,-9548.656652,-296.082377,1302.362347
701.418333,-9474.636058,-148.041188,689.485948
701.418654,-9696.697840,0.000000,1072.533697
701.418974,-9548.656652,0.000000,1532.190996
701.419295,-9696.697840,-222.061783,1608.800546
701.419616,-9252.574275,-296.082377,1991.848295
701.419936,-9622.677246,-444.123565,1302.362347
701.420257,-9696.697840,0.000000,1072.533697
701.420578,-9548.656652,-296.082377,1149.143247
701.420899,-9474.636058,74.020594,459.657299
701.421219,-10140.821405,-222.061783,1072.533697
701.421540,-9548.656652,0.000000,612.876398
701.421861,-9844.739029,-148.041188,1072.533697
701.422181,-9770.718434,-296.082377,766.095498
701.422502,-9622.677246,-296.082377,766.095498
701.422823,-9696.697840,-222.061783,612.876398
701.423143,-9622.677246,-148.041188,1072.533697
701.423464,-9474.636058,-370.102971,1149.143247
701.423785,-9844.739029,296.082377,1762.019645
701.424105,-9770.718434,-296.082377,1149.143247
701.424426,-9622.677246,-296.082377,766.095498
701.424747,-9548.656652,-222.061783,1072.533697
701.425068,-9474.636058,0.000000,536.266849
701.425388,-8882.471304,-296.082377,1378.971896
701.425709,-9474.636058,-222.061783,1149.143247
701.426030,-9474.636058,-370.102971,1149.143247
701.426350,-9622.677246,-444.123565,995.924147
701.426671,-9622.677246,-148.041188,1915.238745
701.426992,-9474.636058,-592.164754,995.924147
701.427312,-9696.697840,-518.144159,919.314598
701.427633,-9474.636058,-592.164754,536.266849
701.427954,-9770.718434,-222.061783,842.705048
701.428274,-9770.718434,-148.041188,919.314598
701.428595,-9622.677246,-370.102971,766.095498
701.428916,-9474.636058,-518.144159,1072.533697
701.429237,-9770.718434,-370.102971,842.705048
701.429557,-9622.677246,0.000000,1149.143247
701.429878,-9548.656652,-518.144159,1302.362347
701.430199,-9548.656652,-444.123565,1378.971896
701.430519,-9548.656652,-592.164754,1302.362347
701.430840,-9548.656652,-222.061783,1608.800546
701.431161,-9474.636058,-370.102971,1072.533697
701.431481,-9474.636058,-370.102971,1149.143247
701.431802,-9770.718434,-74.020594,919.314598
701.432123,-9622.677246,-444.123565,919.314598
701.432444,-9474.636058,-148.041188,459.657299
701.432764,-9844.739029,-444.123565,1302.362347
701.433085,-9770.718434,-592.164754,766.095498
701.433406,-9622.677246,-444.123565,1149.143247
701.433726,-8586.388927,-518.144159,459.657299
701.434047,-9548.656652,-296.082377,995.924147
701.434368,-9770.718434,-148.041188,1072.533697
701.434688,-9548.656652,-370.102971,995.924147
701.435009,-9474.636058,-592.164754,1762.019645
701.435330,-9622.677246,-148.041188,1225.752797
701.435650,-9622.677246,-296.082377,1302.362347
701.435971,-9548.656652,-74.020594,1225.752797
701.436292,-9252.574275,-296.082377,1072.533697
701.436613,-9844.739029,0.000000,919.314598
701.436933,-9696.697840,-296.082377,1149.143247
701.437254,-9622.677246,-370.102971,919.314598
701.437575,-9548.656652,-296.082377,1149.143247
701.437895,-9622.677246,74.020594,536.266849
701.438216,-9696.697840,-370.102971,1072.533697
701.438537,-9622.677246,-296.082377,1455.581446
701.438857,-9696.697840,-222.061783,1072.533697
701.439178,-9696.697840,-370.102971,612.876398
701.439499,-9252.574275,-370.102971,1302.362347
701.439819,-9548.656652,-296.082377,1225.752797
701.440140,-9548.656652,-370.102971,1225.752797
701.440461,-9548.656652,-296.082377,1302.362347
701.440782,-9104.533087,-444.123565,1072.533697
701.441102,-9548.656652,-222.061783,1149.143247
701.441423,-9474.636058,-222.061783,1149.143247
701.441744,-9622.677246,0.000000,919.314598
701.442064,-9548.656652,370.102971,2987.772442
701.442385,-9400.615463,-296.082377,842.705048
701.442706,-9474.636058,-370.102971,919.314598
701.443026,-9548.656652,-74.020594,1378.971896
701.443347,-9770.718434,-370.102971,1149.143247
701.443668,-9474.636058,-370.102971,1072.533697
701.443988,-9548.656652,-518.144159,919.314598
701.444309,-9548.656652,-444.123565,1072.533697
701.444630,-9696.697840,-222.061783,1225.752797
701.444951,-9474.636058,-814.226536,995.924147
701.445271,-9622.677246,-222.061783,1302.362347
701.445592,-9474.636058,0.000000,1302.362347
701.445913,-9548.656652,-222.061783,1149.143247
701.446233,-9474.636058,592.164754,2451.505594
701.446554,-9622.677246,0.000000,1149.143247
701.446875,-9474.636058,-296.082377,995.924147
701.447195,-9474.636058,-370.102971,1072.533697
701.447516,-9696.697840,-370.102971,1225.752797
701.447837,-9696.697840,-222.061783,1225.752797
701.448157,-9770.718434,-370.102971,995.924147
701.448478,-9770.718434,-222.061783,1378.971896
701.448799,-9696.697840,-370.102971,1072.533697
701.449120,-8882.471304,-296.082377,1378.971896
701.449440,-9474.636058,-296.082377,1072.533697
701.449761,-9474.636058,-518.144159,995.924147
701.450082,-9474.636058,-518.144159,1072.533697
701.450402,-9474.636058,-740.205942,612.876398
701.450723,-9474.636058,-222.061783,1455.581446
701.451044,-9104.533087,-222.061783,766.095498
701.451364,-9400.615463,-296.082377,1072.533697
701.451685,-9696.697840,-296.082377,1072.533697
701.452006,-9622.677246,-296.082377,995.924147
701.452326,-9622.677246,-592.164754,1072.533697
701.452647,-9622.677246,-444.123565,919.314598
701.452968,-9696.697840,-296.082377,1072.533697
701.453289,-9696.697840,-222.061783,1225.752797
701.453609,-9548.656652,-148.041188,919.314598
701.453930,-9474.636058,-444.123565,842.705048
701.454251,-9622.677246,-296.082377,1302.362347
701.454571,-9696.697840,-444.123565,1378.971896
701.454892,-9548.656652,0.000000,1072.533697
701.455213,-9474.636058,-296.082377,1302.362347
701.455533,-9548.656652,-222.061783,995.924147
701.455854,-9548.656652,-444.123565,919.314598
701.456175,-9474.636058,-444.123565,995.924147
701.456495,-9474.636058,-296.082377,919.314598
701.456816,-9622.677246,-592.164754,995.924147
701.457137,-9622.677246,-370.102971,1149.143247
701.457458,-9918.759623,0.000000,1838.629195
701.457778,-9770.718434,-370.102971,1225.752797
701.458099,-9548.656652,-518.144159,1072.533697
701.458420,-9474.636058,-296.082377,1302.362347
701.458740,-9548.656652,-222.061783,919.314598
701.459061,-9844.739029,-296.082377,842.705048
701.459382,-9548.656652,-222.061783,1072.533697
701.459702,-9622.677246,-444.123565,1072.533697
701.460023,-9474.636058,-444.123565,919.314598
701.460344,-9474.636058,-148.041188,612.876398
701.460664,-9474.636058,-518.144159,995.924147
701.460985,-9622.677246,-370.102971,1455.581446
701.461306,-9548.656652,-444.123565,689.485948
701.461627,-9474.636058,-1036.288319,842.705048
701.461947,-9474.636058,-666.185348,995.924147
701.462268,-9474.636058,-370.102971,612.876398
701.462589,-9474.636058,-518.144159,766.095498
701.462909,-9474.636058,-296.082377,1149.143247
701.463230,-9474.636058,-444.123565,689.485948
701.463551,-9622.677246,-444.123565,1225.752797
701.463871,-9622.677246,-370.102971,995.924147
701.464192,-9696.697840,-370.102971,842.705048
701.464513,-9770.718434,-518.144159,919.314598
701.464833,-9326.594869,-518.144159,995.924147
701.465154,-9622.677246,-444.123565,1149.143247
701.465475,-9622.677246,-222.061783,1072.533697
701.465796,-9474.636058,-444.123565,2145.067394
701.466116,-9474.636058,-370.102971,919.314598
701.466437,-9622.677246,-370.102971,1149.143247
701.466758,-9548.656652,-296.082377,1225.752797
701.467078,-9622.677246,0.000000,1149.143247
701.467399,-9548.656652,-296.082377,919.314598
701.467720,-9548.656652,-370.102971,842.705048
701.468040,-9548.656652,-592.164754,1225.752797
701.468361,-9622.677246,-222.061783,842.705048
701.468682,-9474.636058,-296.082377,459.657299
701.469002,-9622.677246,-74.020594,1225.752797
701.469323,-9474.636058,-370.102971,766.095498
701.469644,-9548.656652,-222.061783,1149.143247
701.469965,-9696.697840,222.061783,612.876398
701.470285,-9548.656652,-518.144159,1225.752797
701.470606,-9474.636058,-518.144159,919.314598
701.470927,-9770.718434,-148.041188,1149.143247
701.471247,-9622.677246,-222.061783,1302.362347
701.471568,-9770.718434,-74.020594,995.924147
701.471889,-9622.677246,-592.164754,1072.533697
701.472209,-9548.656652,-296.082377,1302.362347
701.472530,-9622.677246,-518.144159,995.924147
701.472851,-8956.491898,0.000000,536.266849
701.473171,-9622.677246,-370.102971,383.047749
701.473492,-9548.656652,-296.082377,995.924147
701.473813,-9474.636058,-370.102971,1072.533697
701.474134,-9474.636058,-296.082377,919.314598
701.474454,-9622.677246,-222.061783,919.314598
701.474775,-9622.677246,-222.061783,1072.533697
701.475096,-9474.636058,-444.123565,842.705048
701.475416,-9474.636058,-444.123565,1225.752797
701.475737,-9992.780217,-370.102971,1072.533697
701.476058,-9548.656652,-296.082377,919.314598
701.476378,-9622.677246,-592.164754,1149.143247
701.476699,-9474.636058,-370.102971,995.924147
701.477020,-9474.636058,74.020594,842.705048
701.477340,-9770.718434,-296.082377,1072.533697
701.477661,-9474.636058,-148.041188,919.314598
701.477982,-9622.677246,-444.123565,766.095498
701.478303,-9622.677246,0.000000,1225.752797
701.478623,-9622.677246,-148.041188,1225.752797
701.478944,-9622.677246,-296.082377,1072.533697
701.479265,-9474.636058,-370.102971,1378.971896
701.479585,-9474.636058,-370.102971,1149.143247
701.479906,-9548.656652,-518.144159,1762.019645
701.480227,-9622.677246,-222.061783,1302.362347
701.480547,-9696.697840,-444.123565,842.705048
701.480868,-9622.677246,0.000000,1072.533697
701.481189,-8808.450710,-1332.370696,612.876398
701.481509,-9474.636058,-296.082377,995.924147
701.481830,-9548.656652,-222.061783,995.924147
701.482151,-9622.677246,-370.102971,1149.143247
701.482472,-9622.677246,-296.082377,1302.362347
701.482792,-9548.656652,-296.082377,1225.752797
701.483113,-9548.656652,-148.041188,1149.143247
701.483434,-9622.677246,-296.082377,1302.362347
701.483754,-9770.718434,-148.041188,1378.971896
701.484075,-9696.697840,-444.123565,919.314598
701.484396,-9474.636058,0.000000,1225.752797
701.484716,-9622.677246,-296.082377,1302.362347
701.485037,-9696.697840,-370.102971,995.924147
701.485358,-9474.636058,0.000000,76.609550
701.485678,-9696.697840,-296.082377,766.095498
701.485999,-9622.677246,-148.041188,1149.143247
701.486320,-9696.697840,-296.082377,1072.533697
701.486641,-9844.739029,-296.082377,1149.143247
701.486961,-9474.636058,-444.123565,1072.533697
701.487282,-9696.697840,-148.041188,1225.752797
701.487603,-9548.656652,-296.082377,1072.533697
701.487923,-9548.656652,-296.082377,1072.533697
701.488244,-9770.718434,-296.082377,995.924147
701.488565,-9548.656652,-296.082377,1149.143247
701.488885,-9696.697840,-222.061783,1149.143247
701.489206,-9474.636058,-222.061783,919.314598
701.489527,-10140.821405,1110.308913,306.438199
701.489847,-9474.636058,-148.041188,1302.362347
701.490168,-9770.718434,-370.102971,919.314598
701.490489,-9474.636058,0.000000,919.314598
701.490810,-9622.677246,-370.102971,1072.533697
701.491130,-9326.594869,0.000000,919.314598
701.491451,-9696.697840,-444.123565,1149.143247
701.491772,-9474.636058,-222.061783,1225.752797
701.492092,-9770.718434,-666.185348,995.924147
701.492413,-8734.430116,296.082377,1149.143247
701.492734,-9622.677246,-296.082377,919.314598
701.493054,-9622.677246,-370.102971,1225.752797
701.493375,-9770.718434,0.000000,1302.362347
701.493696,-9696.697840,-444.123565,1149.143247
701.494016,-9622.677246,-222.061783,919.314598
701.494337,-9622.677246,-444.123565,1149.143247
701.494658,-9696.697840,-444.123565,1302.362347
701.494979,-9548.656652,0.000000,1149.143247
701.495299,-9400.615463,-444.123565,1455.581446
701.495620,-9548.656652,-296.082377,1225.752797
701.495941,-9474.636058,-296.082377,766.095498
701.496261,-9770.718434,-444.123565,919.314598
701.496582,-9548.656652,222.061783,76.609550
701.496903,-9770.718434,-222.061783,919.314598
701.497223,-9400.615463,-296.082377,919.314598
701.497544,-9474.636058,-296.082377,995.924147
701.497865,-9622.677246,-370.102971,1149.143247
701.498186,-9622.677246,-740.205942,1225.752797
701.498506,-9622.677246,-444.123565,995.924147
701.498827,-9696.697840,-444.123565,1225.752797
701.499148,-9548.656652,-444.123565,1072.533697
701.499468,-9622.677246,0.000000,1149.143247
701.499789,-9474.636058,-444.123565,919.314598
701.500110,-9474.636058,-222.061783,1378.971896
701.500430,-9474.636058,-296.082377,1455.581446
701.500751,-9548.656652,-148.041188,1225.752797
701.501072,-9548.656652,-370.102971,1455.581446
701.501392,-9696.697840,-296.082377,1225.752797
701.501713,-9770.718434,-592.164754,1225.752797
701.502034,-9474.636058,-444.123565,1072.533697
701.502355,-9474.636058,0.000000,1378.971896
701.502675,-9548.656652,-296.082377,995.924147
701.502996,-9400.615463,-518.144159,842.705048
701.503317,-9474.636058,-296.082377,766.095498
701.503637,-9770.718434,0.000000,1378.971896
701.503958,-9548.656652,-444.123565,1149.143247
701.504279,-9844.739029,-370.102971,1225.752797
701.504599,-9844.739029,-370.102971,1302.362347
701.504920,-9622.677246,-370.102971,1225.752797
701.505241,-9622.677246,-592.164754,842.705048
701.505561,-9548.656652,-222.061783,995.924147
701.505882,-9770.718434,-592.164754,995.924147
701.506203,-9474.636058,-296.082377,995.924147
701.506524,-9548.656652,-518.144159,1072.533697
701.506844,-9474.636058,-296.082377,995.924147
701.507165,-9844.739029,-148.041188,1225.752797
701.507486,-9474.636058,-222.061783,1072.533697
701.507806,-9474.636058,-518.144159,1378.971896
701.508127,-9696.697840,0.000000,1225.752797
701.508448,-9622.677246,-148.041188,995.924147
701.508768,-9548.656652,-222.061783,1302.362347
701.509089,-9548.656652,-222.061783,1302.362347
701.509410,-9548.656652,-296.082377,919.314598
701.509730,-9622.677246,-592.164754,995.924147
701.510051,-9622.677246,-296.082377,766.095498
701.510372,-9696.697840,-222.061783,1378.971896
701.510693,-9548.656652,-296.082377,919.314598
701.511013,-9844.739029,-296.082377,1225.752797
701.511334,-9622.677246,-444.123565,842.705048
701.511655,-9548.656652,0.000000,612.876398
701.511975,-9474.636058,-370.102971,995.924147
701.512296,-9844.739029,0.000000,1455.581446
701.512617,-9844.739029,0.000000,842.705048
701.512937,-9400.615463,-370.102971,1225.752797
701.513258,-9622.677246,0.000000,842.705048
701.513579,-9548.656652,-222.061783,1225.752797
701.513899,-9474.636058,-370.102971,1072.533697
701.514220,-9622.677246,-148.041188,1225.752797
701.514541,-9622.677246,-444.123565,1455.581446
701.514862,-9770.718434,-518.144159,229.828649
701.515182,-9474.636058,-592.164754,1608.800546
701.515503,-9696.697840,-296.082377,1072.533697
701.515824,-9696.697840,-222.061783,1072.533697
701.516144,-9548.656652,-518.144159,842.705048
701.516465,-9548.656652,-370.102971,919.314598
701.516786,-9474.636058,-148.041188,1225.752797
701.517106,-9622.677246,-296.082377,1149.143247
701.517427,-9548.656652,-296.082377,1302.362347
701.517748,-9474.636058,-296.082377,1225.752797
701.518068,-9474.636058,-518.144159,919.314598
701.518389,-9474.636058,-148.041188,1455.581446
701.518710,-9622.677246,-222.061783,1378.971896
701.519030,-9770.718434,370.102971,919.314598
701.519351,-9474.636058,-592.164754,766.095498
701.519672,-9622.677246,-444.123565,1149.143247
701.519992,-9474.636058,-518.144159,1225.752797
701.520313,-9622.677246,296.082377,1532.190996
701.520633,-9548.656652,-444.123565,995.924147
701.520954,-9548.656652,-296.082377,995.924147
701.521275,-9326.594869,-296.082377,1149.143247
701.521595,-9696.697840,0.000000,1225.752797
701.521916,-9474.636058,0.000000,1072.533697
701.522236,-9548.656652,-222.061783,919.314598
701.522557,-9474.636058,-444.123565,919.314598
701.522877,-9548.656652,-148.041188,995.924147
701.523198,-10732.986159,0.000000,1685.410096
701.523519,-9770.718434,-296.082377,1072.533697
701.523839,-9474.636058,-370.102971,995.924147
701.524160,-9548.656652,-518.144159,1149.143247
701.524480,-9770.718434,-296.082377,1225.752797
701.524801,-9622.677246,-444.123565,1072.533697
701.525122,-9622.677246,0.000000,1532.190996
701.525442,-9548.656652,-296.082377,1072.533697
701.525763,-9696.697840,0.000000,1072.533697
701.526083,-8882.471304,-518.144159,1225.752797
701.526404,-9622.677246,-148.041188,1072.533697
701.526725,-9474.636058,-444.123565,842.705048
701.527045,-9622.677246,-370.102971,1072.533697
701.527366,-9400.615463,-1110.308913,1149.143247
701.527686,-9844.739029,-222.061783,1072.533697
701.528007,-9696.697840,-370.102971,995.924147
701.528327,-9696.697840,-370.102971,1149.143247
701.528648,-9696.697840,-370.102971,1378.971896
701.528969,-9770.718434,-444.123565,1378.971896
701.529289,-9474.636058,-148.041188,1149.143247
701.529610,-9622.677246,-296.082377,766.095498
701.529930,-9622.677246,-148.041188,995.924147
701.530251,-9548.656652,0.000000,1532.190996
701.530572,-9474.636058,-148.041188,995.924147
701.530892,-9844.739029,-148.041188,1455.581446
701.531213,-9474.636058,-296.082377,1149.143247
701.531533,-9548.656652,-370.102971,1149.143247
701.531854,-9770.718434,-222.061783,1072.533697
701.532175,-9548.656652,-370.102971,995.924147
701.532495,-9548.656652,-444.123565,995.924147
701.532816,-9622.677246,-444.123565,919.314598
701.533136,-9474.636058,74.020594,1991.848295
701.533457,-9474.636058,-370.102971,995.924147
701.533777,-9622.677246,-222.061783,1149.143247
701.534098,-9474.636058,-296.082377,1072.533697
701.534419,-9474.636058,-148.041188,766.095498
701.534739,-9622.677246,-518.144159,1225.752797
701.535060,-9622.677246,-222.061783,995.924147
701.535380,-9474.636058,-444.123565,1149.143247
701.535701,-9548.656652,-370.102971,1072.533697
701.536022,-9622.677246,-370.102971,536.266849
701.536342,-9844.739029,-444.123565,1225.752797
701.536663,-9696.697840,-444.123565,1302.362347
701.536983,-9622.677246,-370.102971,1072.533697
701.537304,-9474.636058,-888.247130,612.876398
701.537625,-9622.677246,-592.164754,1072.533697
701.537945,-9622.677246,-74.020594,1149.143247
701.538266,-9548.656652,-592.164754,766.095498
701.538586,-9548.656652,-296.082377,919.314598
701.538907,-9474.636058,-222.061783,842.705048
701.539227,-9622.677246,-74.020594,919.314598
701.539548,-9696.697840,-222.061783,1072.533697
701.539869,-9474.636058,-148.041188,1149.143247
701.540189,-9918.759623,0.000000,536.266849
701.540510,-9622.677246,-296.082377,1149.143247
701.540830,-9770.718434,-444.123565,919.314598
701.541151,-9770.718434,-370.102971,1225.752797
701.541472,-9474.636058,-888.247130,153.219100
701.541792,-9844.739029,-370.102971,842.705048
701.542113,-9548.656652,-444.123565,1149.143247
701.542433,-9474.636058,-74.020594,1225.752797
701.542754,-9474.636058,-444.123565,1072.533697
701.543075,-9400.615463,-666.185348,1685.410096
701.543395,-9548.656652,-296.082377,995.924147
701.543716,-9474.636058,-592.164754,689.485948
701.544036,-9696.697840,-296.082377,919.314598
701.544357,-9548.656652,-666.185348,0.000000
701.544677,-9770.718434,-222.061783,842.705048
701.544998,-9696.697840,-296.082377,1149.143247
701.545319,-9548.656652,-222.061783,995.924147
701.545639,-9474.636058,-592.164754,536.266849
701.545960,-9474.636058,-592.164754,1072.533697
701.546280,-9548.656652,-518.144159,1149.143247
701.546601,-9548.656652,-444.123565,1072.533697
701.546922,-9548.656652,-296.082377,1072.533697
701.547242,-9326.594869,-666.185348,1762.019645
701.547563,-9474.636058,-518.144159,1378.971896
701.547883,-9474.636058,-296.082377,995.924147
701.548204,-9696.697840,0.000000,919.314598
701.548525,-9622.677246,0.000000,536.266849
701.548845,-9474.636058,-370.102971,1149.143247
701.549166,-9548.656652,-222.061783,1149.143247
701.549486,-9622.677246,-370.102971,1378.971896
701.549807,-9696.697840,-296.082377,1225.752797
701.550127,-9770.718434,-592.164754,995.924147
701.550448,-9696.697840,-296.082377,919.314598
701.550769,-9696.697840,-296.082377,1225.752797
701.551089,-9474.636058,-296.082377,995.924147
701.551410,-9104.533087,-1332.370696,536.266849
701.551730,-9474.636058,-518.144159,1302.362347
701.552051,-9474.636058,-518.144159,995.924147
701.552372,-9622.677246,0.000000,1378.971896
701.552692,-9992.780217,-296.082377,612.876398
701.553013,-9548.656652,0.000000,1378.971896
701.553333,-9770.718434,-148.041188,1302.362347
701.553654,-9770.718434,-222.061783,1149.143247
701.553975,-9474.636058,-296.082377,1149.143247
701.554295,-9696.697840,0.000000,1378.971896
701.554616,-9622.677246,-296.082377,995.924147
701.554936,-9474.636058,-518.144159,1072.533697
701.555257,-9474.636058,-222.061783,842.705048
701.555577,-9326.594869,0.000000,1225.752797
701.555898,-9548.656652,-296.082377,1072.533697
701.556219,-9622.677246,-222.061783,1072.533697
701.556539,-9548.656652,-148.041188,995.924147
701.556860,-9622.677246,-148.041188,0.000000
701.557180,-9918.759623,-370.102971,1072.533697
701.557501,-9622.677246,-296.082377,1302.362347
701.557822,-9548.656652,0.000000,1302.362347
701.558142,-9622.677246,-74.020594,1149.143247
701.558463,-9770.718434,-296.082377,1072.533697
701.558783,-9770.718434,-222.061783,1149.143247
701.559104,-9548.656652,-370.102971,919.314598
701.559425,-9548.656652,-222.061783,612.876398
701.559745,-9030.512492,-592.164754,-76.609550
701.560066,-9696.697840,-148.041188,1149.143247
701.560386,-9696.697840,0.000000,1608.800546
701.560707,-9696.697840,0.000000,1225.752797
701.561027,-9770.718434,0.000000,1149.143247
701.561348,-9548.656652,-370.102971,1149.143247
701.561669,-9548.656652,-148.041188,1225.752797
701.561989,-9474.636058,-222.061783,995.924147
701.562310,-9474.636058,-222.061783,842.705048
701.562630,-9030.512492,-444.123565,1378.971896
701.562951,-9474.636058,-518.144159,766.095498
701.563272,-9400.615463,-518.144159,766.095498
701.563592,-9622.677246,-444.123565,766.095498
701.563913,-9252.574275,0.000000,1838.629195
701.564233,-9696.697840,-296.082377,842.705048
701.564554,-9474.636058,-444.123565,689.485948
701.564875,-9474.636058,-74.020594,1225.752797
701.565195,-9548.656652,-444.123565,1149.143247
701.565516,-9770.718434,-296.082377,1072.533697
701.565836,-9474.636058,-518.144159,1225.752797
701.566157,-9696.697840,-370.102971,766.095498
701.566477,-9622.677246,-296.082377,995.924147
701.566798,-9326.594869,-222.061783,1378.971896
701.567119,-9474.636058,-444.123565,1072.533697
701.567439,-9474.636058,-592.164754,842.705048
701.567760,-9622.677246,-370.102971,842.705048
701.568080,-9918.759623,-296.082377,689.485948
701.568401,-9548.656652,-148.041188,766.095498
701.568722,-9696.697840,-444.123565,842.705048
701.569042,-9696.697840,-296.082377,1225.752797
701.569363,-9622.677246,-666.185348,1302.362347
701.569683,-9548.656652,-518.144159,1149.143247
701.570004,-9696.697840,-444.123565,1149.143247
701.570325,-9622.677246,-370.102971,1225.752797
701.570645,-9548.656652,-296.082377,1072.533697
701.570966,-9252.574275,-518.144159,919.314598
701.571286,-9400.615463,-370.102971,1302.362347
701.571607,-9474.636058,-518.144159,1378.971896
701.571927,-9548.656652,-370.102971,1149.143247
701.572248,-9104.533087,222.061783,1072.533697
701.572569,-9474.636058,-370.102971,995.924147
701.572889,-9548.656652,-148.041188,1149.143247
701.573210,-9696.697840,-148.041188,1302.362347
701.573530,-9548.656652,-148.041188,612.876398
701.573851,-9622.677246,-518.144159,842.705048
701.574172,-9622.677246,-592.164754,766.095498
701.574492,-9474.636058,-666.185348,1149.143247
701.574813,-9844.739029,-296.082377,995.924147
701.575133,-9770.718434,0.000000,919.314598
701.575454,-9548.656652,-222.061783,1225.752797
701.575774,-9548.656652,-296.082377,1225.752797
701.576095,-9548.656652,-518.144159,1149.143247
701.576416,-9104.533087,592.164754,2221.676944
701.576736,-9400.615463,-444.123565,919.314598
701.577057,-9548.656652,-148.041188,919.314598
701.577377,-9474.636058,0.000000,1149.143247
701.577698,-9696.697840,0.000000,1991.848295
701.578019,-9400.615463,0.000000,1225.752797
701.578339,-9622.677246,-296.082377,612.876398
701.578660,-9474.636058,-370.102971,919.314598
701.578980,-9770.718434,-592.164754,1072.533697
701.579301,-9548.656652,-296.082377,1072.533697
701.579622,-9622.677246,-444.123565,919.314598
701.579942,-9548.656652,-296.082377,995.924147
701.580263,-9770.718434,0.000000,919.314598
701.580583,-9918.759623,222.061783,3370.820191
701.580904,-9548.656652,-296.082377,1072.533697
701.581224,-9548.656652,-518.144159,1072.533697
701.581545,-9548.656652,-222.061783,1149.143247
701.581866,-9696.697840,-370.102971,1149.143247
701.582186,-9622.677246,-148.041188,1072.533697
701.582507,-9474.636058,-444.123565,842.705048
701.582827,-9400.615463,-296.082377,995.924147
701.583148,-9622.677246,-222.061783,1072.533697
701.583469,-9474.636058,-444.123565,1225.752797
701.583789,-9474.636058,-148.041188,1149.143247
701.584110,-9548.656652,-296.082377,919.314598
701.584430,-9696.697840,-148.041188,1072.533697
701.584751,-9696.697840,296.082377,842.705048
701.585072,-9622.677246,-74.020594,1149.143247
701.585392,-9622.677246,-518.144159,1302.362347
701.585713,-9548.656652,-592.164754,1378.971896
701.586033,-9622.677246,-444.123565,995.924147
701.586354,-9696.697840,-148.041188,1149.143247
701.586674,-9474.636058,-74.020594,919.314598
701.586995,-9770.718434,74.020594,1225.752797
701.587316,-9474.636058,-222.061783,1225.752797
701.587636,-9252.574275,0.000000,995.924147
701.587957,-9548.656652,-296.082377,1149.143247
701.588277,-9770.718434,-296.082377,1072.533697
701.588598,-9770.718434,-296.082377,1149.143247
701.588919,-9474.636058,-296.082377,536.266849
701.589239,-9474.636058,-444.123565,1072.533697
701.589560,-9548.656652,0.000000,919.314598
701.589880,-9548.656652,-148.041188,919.314598
701.590201,-9400.615463,-296.082377,1302.362347
701.590522,-9474.636058,-222.061783,1225.752797
701.590842,-9622.677246,-74.020594,1302.362347
701.591163,-9474.636058,-370.102971,1149.143247
701.591483,-9622.677246,-296.082377,1072.533697
701.591804,-9622.677246,-296.082377,1149.143247
701.592124,-9474.636058,-666.185348,842.705048
701.592445,-9622.677246,-518.144159,766.095498
701.592766,-9622.677246,-370.102971,1072.533697
701.593086,-9178.553681,0.000000,842.705048
701.593407,-9474.636058,-370.102971,919.314598
701.593727,-9548.656652,-222.061783,1225.752797
701.594048,-9696.697840,-370.102971,1149.143247
701.594369,-9548.656652,-444.123565,1378.971896
701.594689,-9548.656652,-740.205942,1302.362347
701.595010,-9696.697840,-370.102971,1378.971896
701.595330,-9844.739029,-222.061783,1072.533697
701.595651,-9696.697840,-296.082377,1302.362347
701.595972,-8956.491898,-888.247130,1915.238745
701.596292,-9474.636058,-444.123565,995.924147
701.596613,-9622.677246,-444.123565,1149.143247
701.596933,-9326.594869,-370.102971,919.314598
701.597254,-9474.636058,-370.102971,1149.143247
701.597574,-9696.697840,-370.102971,1149.143247
701.597895,-9474.636058,-148.041188,919.314598
701.598216,-9844.739029,-222.061783,1149.143247
701.598536,-9548.656652,-444.123565,1072.533697
701.598857,-9548.656652,-518.144159,766.095498
701.599177,-9548.656652,-518.144159,995.924147
701.599498,-9622.677246,-444.123565,995.924147
701.599819,-9548.656652,-296.082377,1149.143247
701.600139,-9252.574275,-592.164754,842.705048
701.600460,-9474.636058,-222.061783,995.924147
701.600780,-9548.656652,-370.102971,1072.533697
701.601101,-9696.697840,-148.041188,1072.533697
701.601422,-9770.718434,0.000000,2528.115143
701.601742,-9474.636058,-222.061783,689.485948
701.602063,-9622.677246,-148.041188,1072.533697
701.602383,-9622.677246,-370.102971,1378.971896
701.602704,-9696.697840,-222.061783,689.485948
701.603024,-9918.759623,-370.102971,1149.143247
701.603345,-9696.697840,-296.082377,1302.362347
701.603666,-9548.656652,-370.102971,1072.533697
701.603986,-9696.697840,-370.102971,995.924147
701.604307,-9474.636058,-222.061783,1915.238745
701.604627,-9622.677246,-222.061783,995.924147
701.604948,-9622.677246,-444.123565,919.314598
701.605269,-9548.656652,-444.123565,919.314598
701.605589,-9548.656652,-1110.308913,-76.609550
701.605910,-9474.636058,-518.144159,1072.533697
701.606230,-9474.636058,-148.041188,1072.533697
701.606551,-9696.697840,-370.102971,842.705048
701.606872,-9474.636058,-296.082377,1225.752797
701.607192,-9326.594869,-518.144159,1302.362347
