#time,accel_x,accel_y,accel_z
860.896352,-9696.697840,-2146.597232,0.000000
860.896673,-10066.800811,-2294.638420,76.609550
860.896994,-9770.718434,-2072.576638,-229.828649
860.897314,-9770.718434,-1702.473667,383.047749
860.897635,-10288.862594,-1628.453072,306.438199
860.897956,-9548.656652,-1406.391290,0.000000
860.898276,-9992.780217,-1036.288319,536.266849
860.898597,-9696.697840,-370.102971,536.266849
860.898918,-9548.656652,-444.123565,842.705048
860.899239,-9918.759623,-370.102971,2911.162892
860.899559,-9252.574275,-444.123565,689.485948
860.899880,-9770.718434,-666.185348,459.657299
860.900201,-9474.636058,0.000000,612.876398
860.900521,-9548.656652,-518.144159,76.609550
860.900842,-9770.718434,-740.205942,766.095498
860.901163,-9474.636058,-1184.329507,-689.485948
860.901484,-9770.718434,-1184.329507,-766.095498
860.901804,-10214.842000,-740.205942,-536.266849
860.902125,-9696.697840,-370.102971,-306.438199
860.902446,-10066.800811,-666.185348,0.000000
860.902766,-9622.677246,-962.267725,0.000000
860.903087,-9696.697840,-1628.453072,-612.876398
860.903408,-9474.636058,-740.205942,-536.266849
860.903729,-9548.656652,-1036.288319,-536.266849
860.904049,-9104.533087,-1184.329507,-536.266849
860.904370,-9030.512492,-1406.391290,-1225.752797
860.904691,-8808.450710,-1406.391290,-1378.971896
860.905011,-9326.594869,-1184.329507,-1762.019645
860.905332,-9326.594869,-1332.370696,-2068.457845
860.905653,-9326.594869,-1332.370696,-2604.724693
860.905974,-9474.636058,-1480.411884,-2987.772442
860.906294,-9400.615463,-1998.556043,-4060.306139
860.906615,-9548.656652,-2812.782580,-3830.477490
860.906936,-9548.656652,-3256.906145,-3983.696590
860.907256,-9622.677246,-3701.029710,-4443.353888
860.907577,-9474.636058,-3701.029710,-2681.334243
860.907898,-9770.718434,-3552.988522,-3983.696590
860.908219,-9622.677246,-3849.070898,-4213.525239
860.908539,-9400.615463,-3849.070898,-3677.258390
860.908860,-9326.594869,-4663.297435,-3753.867940
860.909181,-9252.574275,-4959.379811,-3064.381992
860.909501,-9104.533087,-4885.359217,-2987.772442
860.909822,-9326.594869,-4737.318029,-2298.286494
860.910143,-9178.553681,-4515.256246,-1685.410096
860.910463,-9326.594869,-4441.235652,-306.438199
860.910784,-9400.615463,-4145.153275,-1225.752797
860.911105,-9474.636058,-3997.112087,-1225.752797
860.911426,-9474.636058,-4293.194464,-1149.143247
860.911746,-9104.533087,-4737.318029,-2068.457845
860.912067,-9474.636058,-4885.359217,-1685.410096
860.912388,-9548.656652,-5033.400406,-1762.019645
860.912708,-9252.574275,-5181.441594,-2451.505594
860.913029,-9474.636058,-5033.400406,-2145.067394
860.913350,-9474.636058,-5329.482782,-766.095498
860.913671,-9770.718434,-4737.318029,-1225.752797
860.913991,-10510.924376,-5033.400406,-766.095498
860.914312,-10140.821405,-5107.421000,-383.047749
860.914633,-10436.903782,-5625.565159,-383.047749
860.914953,-10066.800811,-4959.379811,0.000000
860.915274,-9992.780217,-4515.256246,229.828649
860.915595,-9844.739029,-3997.112087,383.047749
860.915916,-9252.574275,-3849.070898,229.828649
860.916236,-9400.615463,-2960.823768,459.657299
860.916557,-10140.821405,-3923.091493,1532.190996
860.916878,-10066.800811,-3552.988522,1762.019645
860.917198,-10362.883188,-3034.844362,1302.362347
860.917519,-10140.821405,-2886.803174,995.924147
860.917840,-8734.430116,-3552.988522,459.657299
860.918161,-9474.636058,-2960.823768,-153.219100
860.918481,-9326.594869,-2960.823768,-459.657299
860.918802,-9548.656652,-3108.864956,-919.314598
860.919123,-9326.594869,-2886.803174,0.000000
860.919444,-10214.842000,-2812.782580,-1532.190996
860.919764,-9992.780217,-2072.576638,-1455.581446
860.920085,-9918.759623,-1850.514855,-842.705048
860.920406,-9696.697840,-1110.308913,0.000000
860.920727,-9770.718434,-888.247130,536.266849
860.921048,-10066.800811,-444.123565,1378.971896
860.921368,-10140.821405,-148.041188,1455.581446
860.921689,-9992.780217,296.082377,919.314598
860.922010,-9030.512492,740.205942,306.438199
860.922331,-9252.574275,1480.411884,-612.876398
860.922651,-8882.471304,1184.329507,-1608.800546
860.922972,-8364.327145,222.061783,-2834.553343
860.923293,-8586.388927,-296.082377,-4903.011187
860.923614,-8586.388927,-1332.370696,-4060.306139
860.923935,-9178.553681,-1184.329507,-3677.258390
860.924255,-9326.594869,-592.164754,-3907.087040
860.924576,-8956.491898,1184.329507,-3064.381992
860.924897,-10140.821405,3034.844362,-1532.190996
860.925218,-10362.883188,2442.679609,612.876398
860.925539,-10436.903782,1628.453072,1302.362347
860.925859,-10288.862594,888.247130,1149.143247
860.926180,-9696.697840,1036.288319,1378.971896
860.926501,-9474.636058,666.185348,995.924147
860.926822,-9178.553681,1924.535449,2068.457845
860.927142,-8364.327145,1554.432478,842.705048
860.927463,-8216.285956,1332.370696,76.609550
860.927784,-7994.224174,1184.329507,-689.485948
860.928105,-8882.471304,888.247130,-306.438199
860.928426,-9918.759623,1036.288319,1762.019645
860.928746,-10955.047942,1776.494261,3294.210641
860.929067,-11325.150913,1702.473667,3983.696590
860.929388,-11695.253884,888.247130,4443.353888
860.929709,-11769.274478,740.205942,4213.525239
860.930030,-10140.821405,888.247130,3677.258390
860.930350,-10807.006753,1628.453072,3140.991542
860.930671,-8956.491898,518.144159,2451.505594
860.930992,-7994.224174,-222.061783,1302.362347
860.931313,-8068.244768,-1332.370696,459.657299
860.931633,-7994.224174,-1036.288319,1455.581446
860.931954,-8882.471304,-1554.432478,1532.190996
860.932275,-9030.512492,-1184.329507,2834.553343
860.932596,-10584.944971,-1776.494261,3447.429741
860.932917,-10807.006753,-1628.453072,4213.525239
860.933237,-10658.965565,-2664.741391,4213.525239
860.933558,-10362.883188,-2294.638420,2681.334243
860.933879,-9992.780217,-1850.514855,1225.752797
860.934200,-9326.594869,-1628.453072,383.047749
860.934521,-8216.285956,-1776.494261,153.219100
860.934841,-8290.306550,-2294.638420,-1762.019645
860.935162,-8216.285956,-1924.535449,-2298.286494
860.935483,-8364.327145,-1998.556043,-1915.238745
860.935804,-9030.512492,-1110.308913,76.609550
860.936124,-9918.759623,-962.267725,1685.410096
860.936445,-9992.780217,-1036.288319,2604.724693
860.936766,-10584.944971,-1332.370696,2068.457845
860.937087,-10584.944971,-1998.556043,1532.190996
860.937408,-9474.636058,-1776.494261,229.828649
860.937728,-9104.533087,-1258.350101,-306.438199
860.938049,-8956.491898,-962.267725,-1378.971896
860.938370,-8068.244768,0.000000,-2757.943793
860.938691,-9400.615463,-296.082377,-3294.210641
860.939012,-8808.450710,-444.123565,-2604.724693
860.939332,-9622.677246,-1184.329507,-1915.238745
860.939653,-9844.739029,-1036.288319,153.219100
860.939974,-10436.903782,-1480.411884,1532.190996
860.940295,-10881.027347,-1406.391290,2528.115143
860.940615,-11029.068536,-1850.514855,2604.724693
860.940936,-10288.862594,-1258.350101,2145.067394
860.941257,-10214.842000,-370.102971,2068.457845
860.941578,-9696.697840,296.082377,1838.629195
860.941899,-8660.409521,888.247130,459.657299
860.942219,-8438.347739,370.102971,-383.047749
860.942540,-8512.368333,74.020594,-995.924147
860.942861,-8734.430116,814.226536,459.657299
860.943182,-9252.574275,0.000000,1378.971896
860.943503,-10288.862594,-222.061783,3064.381992
860.943823,-10807.006753,-296.082377,3907.087040
860.944144,-11251.130318,-814.226536,7201.297681
860.944465,-11251.130318,-296.082377,3294.210641
860.944786,-10510.924376,0.000000,2911.162892
860.945106,-9622.677246,0.000000,2451.505594
860.945427,-9178.553681,-222.061783,1685.410096
860.945748,-8586.388927,-296.082377,383.047749
860.946069,-8586.388927,74.020594,383.047749
860.946390,-9030.512492,370.102971,842.705048
860.946710,-8956.491898,962.267725,1838.629195
860.947031,-10288.862594,1628.453072,2834.553343
860.947352,-9770.718434,1406.391290,3983.696590
860.947673,-10066.800811,296.082377,3217.601092
860.947994,-10214.842000,0.000000,3294.210641
860.948314,-9474.636058,0.000000,1608.800546
860.948635,-9474.636058,740.205942,1915.238745
860.948956,-9474.636058,666.185348,1685.410096
860.949277,-8808.450710,962.267725,76.609550
860.949597,-9252.574275,666.185348,-612.876398
860.949918,-9178.553681,740.205942,153.219100
860.950239,-9474.636058,592.164754,536.266849
860.950560,-10214.842000,666.185348,1608.800546
860.950881,-10510.924376,592.164754,2374.896044
860.951201,-10881.027347,592.164754,1915.238745
860.951522,-10214.842000,370.102971,1532.190996
860.951843,-9400.615463,1110.308913,766.095498
860.952164,-9400.615463,1628.453072,0.000000
860.952485,-9696.697840,1332.370696,-153.219100
860.952805,-8808.450710,666.185348,-1838.629195
860.953126,-9178.553681,0.000000,-2528.115143
860.953447,-9030.512492,-888.247130,-2528.115143
860.953768,-9030.512492,-592.164754,-1838.629195
860.954089,-10066.800811,0.000000,229.828649
860.954409,-10881.027347,0.000000,1915.238745
860.954730,-11029.068536,-296.082377,2604.724693
860.955051,-11547.212695,-1702.473667,2604.724693
860.955372,-11103.089130,-1850.514855,1838.629195
860.955692,-10140.821405,-1702.473667,1915.238745
860.956013,-9622.677246,-1480.411884,2221.676944
860.956334,-8882.471304,-1480.411884,1685.410096
860.956655,-8142.265362,-1702.473667,0.000000
860.956976,-8068.244768,-1776.494261,-995.924147
860.957296,-8290.306550,-1258.350101,-842.705048
860.957617,-9030.512492,-518.144159,612.876398
860.957938,-9474.636058,-444.123565,2298.286494
860.958259,-10214.842000,-370.102971,3217.601092
860.958580,-10881.027347,-1184.329507,2911.162892
860.958900,-11325.150913,-1406.391290,2834.553343
860.959221,-10362.883188,-1184.329507,2221.676944
860.959542,-9178.553681,-962.267725,1455.581446
860.959863,-8882.471304,-592.164754,306.438199
860.960183,-8068.244768,-1036.288319,-995.924147
860.960504,-8290.306550,-1702.473667,-1608.800546
860.960825,-7105.977043,-2516.700203,536.266849
860.961146,-8512.368333,-1924.535449,229.828649
860.961467,-9696.697840,-1776.494261,2221.676944
860.961787,-10066.800811,-1776.494261,3677.258390
860.962108,-10658.965565,-2368.659014,3830.477490
860.962429,-10658.965565,-2072.576638,3370.820191
860.962750,-10066.800811,-1924.535449,2604.724693
860.963071,-9770.718434,-518.144159,1991.848295
860.963391,-9326.594869,-148.041188,1302.362347
860.963712,-8216.285956,-592.164754,-689.485948
860.964033,-7772.162391,-1184.329507,-2221.676944
860.964354,-7994.224174,-592.164754,-2757.943793
860.964674,-8956.491898,370.102971,-536.266849
860.964995,-9474.636058,1628.453072,689.485948
860.965316,-10658.965565,518.144159,2757.943793
860.965637,-10807.006753,-444.123565,2834.553343
860.965958,-10807.006753,-1406.391290,2681.334243
860.966278,-11029.068536,-1480.411884,2528.115143
860.966599,-10658.965565,-370.102971,2528.115143
860.966920,-9696.697840,518.144159,1455.581446
860.967241,-9474.636058,74.020594,229.828649
860.967562,-8438.347739,0.000000,-1838.629195
860.967882,-8364.327145,-296.082377,-2221.676944
860.968203,-8808.450710,518.144159,-1532.190996
860.968524,-10510.924376,-370.102971,-383.047749
860.968845,-9474.636058,1776.494261,1838.629195
860.969165,-12435.459826,0.000000,2604.724693
860.969486,-10955.047942,74.020594,1915.238745
860.969807,-9400.615463,74.020594,1838.629195
860.970128,-11251.130318,888.247130,1915.238745
860.970449,-9252.574275,1924.535449,1915.238745
860.970769,-8586.388927,1036.288319,229.828649
860.971090,-10066.800811,1258.350101,689.485948
860.971411,-6883.915261,0.000000,-2145.067394
860.971732,-9326.594869,444.123565,-383.047749
860.972053,-8364.327145,740.205942,1072.533697
860.972373,-9474.636058,296.082377,1608.800546
860.972694,-10955.047942,222.061783,3753.867940
860.973015,-10436.903782,-444.123565,3217.601092
860.973336,-9918.759623,0.000000,2604.724693
860.973656,-11473.192101,0.000000,2757.943793
860.973977,-9400.615463,888.247130,2451.505594
860.974298,-9400.615463,1110.308913,1225.752797
860.974619,-8882.471304,0.000000,536.266849
860.974940,-7772.162391,-518.144159,-1532.190996
860.975260,-8512.368333,-1258.350101,-1225.752797
860.975581,-8734.430116,-740.205942,-612.876398
860.975902,-8660.409521,74.020594,919.314598
860.976223,-9992.780217,0.000000,2145.067394
860.976544,-10732.986159,-888.247130,2911.162892
860.976864,-10807.006753,-296.082377,3294.210641
860.977185,-10732.986159,-888.247130,2451.505594
860.977506,-10066.800811,-222.061783,2068.457845
860.977827,-9844.739029,-370.102971,2068.457845
860.978147,-8808.450710,-1110.308913,306.438199
860.978468,-8734.430116,-1036.288319,-842.705048
860.978789,-7920.203579,-444.123565,229.828649
860.979110,-9400.615463,-444.123565,-306.438199
860.979431,-9326.594869,296.082377,919.314598
860.979751,-10066.800811,74.020594,2145.067394
860.980072,-11177.109724,-962.267725,2681.334243
860.980393,-10510.924376,-1332.370696,2528.115143
860.980714,-10658.965565,-1628.453072,1685.410096
860.981035,-10510.924376,-1110.308913,1455.581446
860.981355,-9400.615463,-666.185348,842.705048
860.981676,-9326.594869,-888.247130,76.609550
860.981997,-8142.265362,-1554.432478,-1072.533697
860.982318,-8660.409521,-1480.411884,-1838.629195
860.982638,-8808.450710,-1258.350101,-1685.410096
860.982959,-9252.574275,-444.123565,-383.047749
860.983280,-9474.636058,0.000000,1455.581446
860.983601,-10288.862594,-666.185348,2221.676944
860.983922,-10584.944971,-1702.473667,2528.115143
860.984242,-10732.986159,-2220.617826,2145.067394
860.984563,-10584.944971,-1850.514855,1072.533697
860.984884,-10066.800811,-444.123565,1608.800546
860.985205,-9474.636058,296.082377,766.095498
860.985526,-8660.409521,444.123565,-383.047749
860.985846,-8882.471304,518.144159,-1455.581446
860.986167,-8068.244768,740.205942,-1455.581446
860.986488,-9104.533087,518.144159,76.609550
860.986809,-9770.718434,518.144159,2145.067394
860.987129,-10807.006753,296.082377,5362.668486
860.987450,-10881.027347,-296.082377,3677.258390
860.987771,-10732.986159,-518.144159,3600.648841
860.988092,-10436.903782,-222.061783,2451.505594
860.988413,-9918.759623,0.000000,1838.629195
860.988733,-9178.553681,-296.082377,766.095498
860.989054,-8512.368333,-666.185348,-229.828649
860.989375,-8438.347739,-1628.453072,-1225.752797
860.989696,-8734.430116,-1110.308913,-1072.533697
860.990017,-9474.636058,-222.061783,0.000000
860.990337,-9400.615463,74.020594,1225.752797
860.990658,-9844.739029,-222.061783,2681.334243
860.990979,-10214.842000,-740.205942,3217.601092
860.991300,-10732.986159,-1850.514855,3677.258390
860.991620,-10584.944971,-962.267725,3140.991542
860.991941,-9992.780217,-222.061783,2757.943793
860.992262,-9326.594869,296.082377,2145.067394
860.992583,-8438.347739,370.102971,919.314598
860.992904,-8586.388927,370.102971,-153.219100
860.993224,-8660.409521,0.000000,-995.924147
860.993545,-8586.388927,296.082377,-383.047749
860.993866,-9178.553681,814.226536,1072.533697
860.994187,-9548.656652,740.205942,3907.087040
860.994508,-10658.965565,74.020594,3064.381992
860.994828,-10732.986159,-222.061783,2987.772442
860.995149,-10584.944971,-222.061783,1991.848295
860.995470,-9770.718434,222.061783,1072.533697
860.995791,-9548.656652,518.144159,1149.143247
860.996111,-9178.553681,370.102971,229.828649
860.996432,-8882.471304,0.000000,-689.485948
860.996753,-8586.388927,-666.185348,-1991.848295
860.997074,-9104.533087,-592.164754,-919.314598
860.997395,-9178.553681,-518.144159,0.000000
860.997715,-9844.739029,0.000000,1225.752797
860.998036,-10436.903782,0.000000,2145.067394
860.998357,-11325.150913,-444.123565,2221.676944
860.998678,-10955.047942,-814.226536,2068.457845
860.998999,-10658.965565,-518.144159,2145.067394
860.999319,-10066.800811,-296.082377,1762.019645
860.999640,-9474.636058,0.000000,1532.190996
860.999961,-8956.491898,-592.164754,-383.047749
861.000282,-8438.347739,-444.123565,-1685.410096
861.000602,-8660.409521,-296.082377,-1685.410096
861.000923,-8586.388927,0.000000,-995.924147
861.001244,-9326.594869,370.102971,536.266849
861.001565,-10214.842000,222.061783,2604.724693
861.001886,-10584.944971,-666.185348,2987.772442
861.002206,-10955.047942,-1110.308913,2681.334243
861.002527,-10658.965565,-1480.411884,3064.381992
861.002848,-10066.800811,-1184.329507,1608.800546
861.003169,-9474.636058,-814.226536,1072.533697
861.003490,-8734.430116,-592.164754,0.000000
861.003810,-8364.327145,-1258.350101,-919.314598
861.004131,-8142.265362,-1036.288319,-1608.800546
861.004452,-8956.491898,-666.185348,-842.705048
861.004773,-8882.471304,-222.061783,0.000000
861.005094,-9844.739029,148.041188,1762.019645
861.005414,-10436.903782,148.041188,3294.210641
861.005735,-10732.986159,-888.247130,3447.429741
861.006056,-10955.047942,-1258.350101,2911.162892
861.006377,-10140.821405,-962.267725,2145.067394
861.006697,-9474.636058,-740.205942,919.314598
861.007018,-9178.553681,0.000000,842.705048
861.007339,-8512.368333,370.102971,76.609550
861.007660,-8364.327145,370.102971,-1225.752797
861.007981,-8660.409521,962.267725,-1608.800546
861.008301,-8808.450710,592.164754,76.609550
861.008622,-9770.718434,444.123565,2451.505594
861.008943,-11029.068536,-592.164754,3524.039291
861.009264,-10658.965565,-1258.350101,3447.429741
861.009585,-10881.027347,-1628.453072,2911.162892
861.009905,-10584.944971,-740.205942,2451.505594
861.010226,-10140.821405,296.082377,2451.505594
861.010547,-9474.636058,592.164754,1685.410096
861.010868,-8364.327145,148.041188,0.000000
861.011188,-8364.327145,-296.082377,-1915.238745
861.011509,-8586.388927,-296.082377,-1455.581446
861.011830,-9252.574275,0.000000,-229.828649
861.012151,-9844.739029,-74.020594,153.219100
861.012472,-10066.800811,0.000000,2298.286494
861.012792,-10436.903782,-814.226536,2681.334243
861.013113,-10955.047942,-814.226536,2834.553343
861.013434,-11325.150913,-814.226536,2757.943793
861.013755,-10584.944971,222.061783,2528.115143
861.014076,-9622.677246,370.102971,1302.362347
861.014396,-9030.512492,-370.102971,0.000000
861.014717,-8438.347739,-518.144159,-1302.362347
861.015038,-8290.306550,-962.267725,-2145.067394
861.015359,-8512.368333,-592.164754,-766.095498
861.015679,-9178.553681,-148.041188,766.095498
861.016000,-10140.821405,0.000000,2068.457845
861.016321,-10436.903782,592.164754,3217.601092
861.016642,-10807.006753,-962.267725,2681.334243
861.016963,-10732.986159,-962.267725,2528.115143
861.017283,-10362.883188,-518.144159,1915.238745
861.017604,-9548.656652,-370.102971,1225.752797
861.017925,-9030.512492,-444.123565,459.657299
861.018246,-8512.368333,-888.247130,-1149.143247
861.018567,-8512.368333,-666.185348,-1838.629195
861.018887,-8660.409521,-296.082377,-1608.800546
861.019208,-8438.347739,-148.041188,0.000000
861.019529,-9696.697840,0.000000,1762.019645
861.019850,-10436.903782,-814.226536,2528.115143
861.020170,-10807.006753,-1110.308913,2528.115143
861.020491,-10807.006753,-1628.453072,3677.258390
861.020812,-10436.903782,-814.226536,2528.115143
861.021133,-10066.800811,444.123565,1915.238745
861.021454,-9548.656652,666.185348,995.924147
861.021774,-8660.409521,296.082377,76.609550
861.022095,-8142.265362,0.000000,-1225.752797
861.022416,-8734.430116,-444.123565,-1072.533697
861.022737,-9252.574275,-222.061783,153.219100
861.023058,-9770.718434,-148.041188,1838.629195
861.023379,-9992.780217,-148.041188,2451.505594
861.023700,-10658.965565,-740.205942,2987.772442
861.024021,-10658.965565,-666.185348,3140.991542
861.024342,-10807.006753,-592.164754,2451.505594
861.024662,-9844.739029,814.226536,995.924147
861.024983,-9548.656652,0.000000,1149.143247
861.025304,-8734.430116,-222.061783,383.047749
861.025625,-8808.450710,-1110.308913,-995.924147
861.025946,-8734.430116,-888.247130,-1149.143247
861.026267,-8734.430116,-888.247130,-842.705048
861.026588,-9400.615463,-148.041188,459.657299
861.026909,-10066.800811,-370.102971,1838.629195
861.027230,-10436.903782,-592.164754,2528.115143
861.027550,-11177.109724,-518.144159,2221.676944
861.027871,-10436.903782,-962.267725,1991.848295
861.028192,-9918.759623,-888.247130,1915.238745
861.028513,-9622.677246,-518.144159,1149.143247
861.028834,-9104.533087,740.205942,0.000000
861.029155,-8956.491898,-148.041188,-1072.533697
861.029476,-8586.388927,74.020594,-1378.971896
861.029797,-8512.368333,0.000000,-1149.143247
861.030117,-9178.553681,0.000000,383.047749
861.030438,-9992.780217,-222.061783,1685.410096
861.030759,-10140.821405,-814.226536,2834.553343
861.031080,-10732.986159,-1406.391290,2374.896044
861.031401,-10288.862594,-1184.329507,2068.457845
861.031722,-10066.800811,0.000000,2374.896044
861.032043,-9770.718434,-74.020594,1455.581446
861.032364,-8956.491898,74.020594,689.485948
861.032685,-8808.450710,74.020594,-536.266849
861.033005,-7994.224174,-222.061783,-1302.362347
861.033326,-8660.409521,-518.144159,-995.924147
861.033647,-9252.574275,-592.164754,0.000000
861.033968,-9326.594869,-296.082377,1072.533697
861.034289,-9918.759623,-444.123565,2681.334243
861.034610,-10436.903782,-1184.329507,2757.943793
861.034931,-10881.027347,-1406.391290,2757.943793
861.035252,-10807.006753,-888.247130,2681.334243
861.035572,-10066.800811,148.041188,2374.896044
861.035893,-9622.677246,296.082377,2221.676944
861.036214,-9030.512492,0.000000,919.314598
861.036535,-8660.409521,-740.205942,-842.705048
861.036856,-8512.368333,-444.123565,-1532.190996
861.037177,-8142.265362,0.000000,-766.095498
861.037498,-9326.594869,962.267725,1532.190996
861.037819,-10362.883188,444.123565,3370.820191
861.038140,-10658.965565,-74.020594,3677.258390
861.038460,-10955.047942,-1036.288319,3064.381992
861.038781,-10510.924376,-1554.432478,2757.943793
861.039102,-10140.821405,-962.267725,2451.505594
861.039423,-9474.636058,0.000000,1532.190996
861.039744,-8734.430116,222.061783,766.095498
861.040065,-8364.327145,0.000000,-842.705048
861.040386,-8290.306550,-222.061783,-1455.581446
861.040707,-8956.491898,-296.082377,-1149.143247
861.041028,-9400.615463,518.144159,536.266849
861.041348,-10288.862594,592.164754,2681.334243
861.041669,-9770.718434,1110.308913,3217.601092
861.041990,-10807.006753,-740.205942,2451.505594
861.042311,-9844.739029,-666.185348,2221.676944
861.042632,-9918.759623,-666.185348,1685.410096
861.042953,-9252.574275,-296.082377,1225.752797
861.043274,-9030.512492,370.102971,459.657299
861.043595,-8216.285956,222.061783,-1225.752797
861.043915,-7994.224174,74.020594,-2298.286494
861.044236,-8364.327145,296.082377,-1762.019645
861.044557,-8586.388927,222.061783,-766.095498
861.044878,-9770.718434,740.205942,1225.752797
861.045199,-10732.986159,518.144159,2451.505594
861.045520,-10881.027347,740.205942,3983.696590
861.045841,-11399.171507,-518.144159,3140.991542
861.046162,-11177.109724,-296.082377,3064.381992
861.046483,-11177.109724,-518.144159,2374.896044
861.046803,-9400.615463,518.144159,1838.629195
861.047124,-9400.615463,222.061783,383.047749
861.047445,-8068.244768,0.000000,-1378.971896
861.047766,-7550.100608,0.000000,-1991.848295
861.048087,-8438.347739,-666.185348,-1378.971896
861.048408,-8216.285956,222.061783,-612.876398
861.048729,-9474.636058,-814.226536,1685.410096
861.049050,-9918.759623,-740.205942,3064.381992
861.049370,-10807.006753,-1702.473667,3217.601092
861.049691,-11177.109724,-1702.473667,5362.668486
861.050012,-10955.047942,-1332.370696,3830.477490
861.050333,-10066.800811,-592.164754,2528.115143
861.050654,-9696.697840,0.000000,1838.629195
861.050975,-8586.388927,-222.061783,0.000000
861.051296,-8216.285956,-222.061783,-1225.752797
861.051617,-8068.244768,-518.144159,-1072.533697
861.051938,-8438.347739,-148.041188,383.047749
861.052258,-9474.636058,-814.226536,1762.019645
861.052579,-10362.883188,-1036.288319,3294.210641
861.052900,-10955.047942,-1332.370696,3600.648841
861.053221,-10807.006753,-1258.350101,3140.991542
861.053542,-10436.903782,-962.267725,2374.896044
861.053863,-10881.027347,0.000000,2451.505594
861.054184,-9474.636058,222.061783,919.314598
861.054505,-9104.533087,74.020594,0.000000
861.054826,-8512.368333,0.000000,-1608.800546
861.055146,-9104.533087,-296.082377,689.485948
861.055467,-9326.594869,-222.061783,76.609550
861.055788,-9770.718434,-222.061783,1378.971896
861.056109,-10214.842000,-666.185348,2528.115143
861.056430,-10510.924376,-814.226536,2604.724693
861.056751,-10658.965565,-1184.329507,2221.676944
861.057072,-11029.068536,-740.205942,2451.505594
861.057393,-10066.800811,222.061783,1838.629195
861.057713,-9474.636058,444.123565,1378.971896
861.058034,-8808.450710,-1110.308913,0.000000
861.058355,-8290.306550,-888.247130,-1532.190996
861.058676,-8142.265362,-518.144159,-2145.067394
861.058997,-8512.368333,-370.102971,-995.924147
861.059318,-9104.533087,74.020594,919.314598
861.059639,-10214.842000,0.000000,1838.629195
861.059960,-10807.006753,-370.102971,2681.334243
861.060281,-10807.006753,-1110.308913,2145.067394
861.060601,-10436.903782,-518.144159,1532.190996
861.060922,-9622.677246,0.000000,1685.410096
861.061243,-9474.636058,370.102971,1225.752797
861.061564,-8956.491898,0.000000,0.000000
861.061885,-8438.347739,-740.205942,-919.314598
861.062206,-7624.121203,0.000000,-1378.971896
861.062527,-8660.409521,-592.164754,-919.314598
861.062848,-9178.553681,148.041188,229.828649
861.063168,-9770.718434,666.185348,1762.019645
861.063489,-10510.924376,740.205942,1838.629195
861.063810,-10584.944971,0.000000,2757.943793
861.064131,-10584.944971,-666.185348,2451.505594
861.064452,-10436.903782,-740.205942,2451.505594
861.064773,-9844.739029,148.041188,2145.067394
861.065094,-9474.636058,518.144159,1455.581446
861.065415,-8734.430116,0.000000,0.000000
861.065736,-8512.368333,0.000000,-1225.752797
861.066056,-8808.450710,-296.082377,-919.314598
861.066377,-9474.636058,592.164754,1149.143247
861.066698,-10066.800811,74.020594,2298.286494
861.067019,-10807.006753,0.000000,3217.601092
861.067340,-11695.253884,-1036.288319,3447.429741
861.067661,-11029.068536,-740.205942,2528.115143
861.067982,-10955.047942,-1258.350101,2451.505594
861.068303,-9770.718434,-296.082377,1608.800546
861.068624,-9252.574275,-444.123565,919.314598
861.068944,-8734.430116,-296.082377,-153.219100
861.069265,-8438.347739,-666.185348,-1608.800546
861.069586,-8142.265362,-740.205942,-1762.019645
861.069907,-8956.491898,-296.082377,-919.314598
861.070228,-9178.553681,0.000000,919.314598
861.070549,-9770.718434,-296.082377,1991.848295
861.070870,-10436.903782,-1110.308913,2451.505594
861.071191,-10510.924376,-1480.411884,2451.505594
861.071511,-10732.986159,-962.267725,2298.286494
861.071832,-9770.718434,0.000000,2145.067394
861.072153,-9400.615463,444.123565,1455.581446
861.072474,-9104.533087,518.144159,-76.609550
861.072795,-8290.306550,74.020594,-1915.238745
861.073116,-7698.141797,-740.205942,-2528.115143
861.073437,-8290.306550,-666.185348,-1532.190996
861.073758,-9104.533087,-740.205942,0.000000
861.074079,-9770.718434,-666.185348,2145.067394
861.074399,-10584.944971,-1184.329507,2757.943793
861.074720,-10881.027347,-1258.350101,2911.162892
861.075041,-11251.130318,-1332.370696,2604.724693
861.075362,-10140.821405,-370.102971,2068.457845
861.075683,-9548.656652,-296.082377,1608.800546
861.076004,-8734.430116,222.061783,-459.657299
861.076325,-8586.388927,-370.102971,-766.095498
861.076646,-8512.368333,-148.041188,-1149.143247
861.076966,-8808.450710,0.000000,-689.485948
861.077287,-9030.512492,518.144159,229.828649
861.077608,-10214.842000,814.226536,1991.848295
861.077929,-10362.883188,74.020594,2987.772442
861.078250,-10732.986159,-666.185348,2987.772442
861.078571,-10807.006753,-1036.288319,3064.381992
861.078892,-10584.944971,-666.185348,2681.334243
861.079213,-9770.718434,222.061783,2068.457845
861.079534,-9622.677246,740.205942,1608.800546
861.079854,-9030.512492,370.102971,612.876398
861.080175,-8882.471304,222.061783,-612.876398
861.080496,-8734.430116,-666.185348,-536.266849
861.080817,-9104.533087,-370.102971,153.219100
861.081138,-9770.718434,-222.061783,2145.067394
861.081459,-10140.821405,-370.102971,3064.381992
861.081780,-10436.903782,-518.144159,3677.258390
861.082101,-10881.027347,-1406.391290,3294.210641
861.082422,-10214.842000,-1110.308913,2451.505594
861.082742,-9400.615463,-370.102971,1685.410096
861.083063,-9474.636058,74.020594,689.485948
861.083384,-8216.285956,370.102971,0.000000
861.083705,-8586.388927,222.061783,-766.095498
861.084026,-8068.244768,-296.082377,-1225.752797
861.084347,-8734.430116,-1776.494261,-2145.067394
861.084668,-8586.388927,148.041188,536.266849
861.084989,-10807.006753,222.061783,2374.896044
861.085309,-10732.986159,592.164754,2834.553343
861.085630,-11029.068536,-370.102971,3370.820191
861.085951,-10214.842000,-1406.391290,2145.067394
861.086272,-10288.862594,-592.164754,1608.800546
861.086593,-9770.718434,-888.247130,1302.362347
861.086914,-9104.533087,-370.102971,0.000000
861.087235,-8142.265362,-666.185348,-1149.143247
861.087556,-7994.224174,-148.041188,-2298.286494
861.087877,-8808.450710,-518.144159,-1991.848295
861.088197,-8956.491898,740.205942,-459.657299
861.088518,-10066.800811,666.185348,2681.334243
861.088839,-10436.903782,0.000000,2681.334243
861.089160,-11103.089130,-962.267725,2681.334243
861.089481,-11251.130318,-1554.432478,2451.505594
861.089802,-10288.862594,-1184.329507,2298.286494
861.090123,-9622.677246,-296.082377,1455.581446
861.090444,-9474.636058,-296.082377,536.266849
861.090764,-8586.388927,0.000000,-459.657299
861.091085,-8734.430116,-296.082377,-1302.362347
861.091406,-8586.388927,-444.123565,-459.657299
861.091727,-9030.512492,-592.164754,306.438199
861.092048,-9696.697840,-444.123565,1762.019645
861.092369,-10066.800811,-666.185348,2528.115143
861.092690,-9844.739029,-296.082377,2911.162892
861.093011,-10881.027347,-888.247130,3064.381992
861.093332,-10362.883188,-814.226536,2757.943793
861.093652,-9844.739029,74.020594,2374.896044
861.093973,-9622.677246,296.082377,3447.429741
861.094294,-9030.512492,74.020594,919.314598
861.094615,-8734.430116,-296.082377,-383.047749
861.094936,-8364.327145,-370.102971,-842.705048
861.095257,-8808.450710,-592.164754,76.609550
861.095578,-9104.533087,0.000000,1685.410096
861.095899,-10140.821405,-592.164754,2681.334243
861.096220,-10510.924376,-740.205942,3294.210641
861.096540,-10732.986159,-592.164754,3064.381992
861.096861,-10362.883188,-962.267725,1455.581446
861.097182,-9770.718434,-222.061783,1532.190996
861.097503,-9400.615463,0.000000,1302.362347
861.097824,-8438.347739,0.000000,306.438199
861.098145,-8142.265362,-592.164754,-1762.019645
861.098466,-8660.409521,-740.205942,-1072.533697
861.098787,-8956.491898,-370.102971,-459.657299
861.099107,-9474.636058,222.061783,995.924147
861.099428,-10066.800811,148.041188,2221.676944
861.099749,-10288.862594,74.020594,2604.724693
861.100070,-10658.965565,-740.205942,2451.505594
861.100391,-10732.986159,-1258.350101,1838.629195
861.100712,-9696.697840,-740.205942,1378.971896
861.101033,-8882.471304,-592.164754,1915.238745
861.101354,-9474.636058,0.000000,153.219100
861.101675,-9030.512492,666.185348,-459.657299
861.101995,-9030.512492,148.041188,-1685.410096
861.102316,-8734.430116,888.247130,-1991.848295
861.102637,-9400.615463,370.102971,-229.828649
861.102958,-9918.759623,444.123565,1072.533697
861.103279,-10510.924376,222.061783,2451.505594
861.103600,-10732.986159,-148.041188,2374.896044
861.103921,-10881.027347,-148.041188,2374.896044
861.104242,-10436.903782,-222.061783,1532.190996
861.104562,-9844.739029,0.000000,1225.752797
861.104883,-9474.636058,0.000000,689.485948
861.105204,-8882.471304,0.000000,-76.609550
861.105525,-8660.409521,-444.123565,-1072.533697
861.105846,-8734.430116,-444.123565,-1302.362347
861.106167,-9030.512492,-370.102971,-229.828649
861.106488,-9992.780217,1184.329507,995.924147
861.106809,-10066.800811,444.123565,2451.505594
861.107130,-10214.842000,0.000000,2911.162892
861.107450,-10436.903782,-1480.411884,2604.724693
861.107771,-10214.842000,-1406.391290,2374.896044
861.108092,-9770.718434,-1036.288319,2068.457845
861.108413,-9474.636058,-444.123565,1455.581446
861.108734,-8808.450710,-222.061783,1072.533697
861.109055,-8142.265362,-740.205942,-612.876398
861.109376,-7920.203579,-370.102971,-1532.190996
861.109697,-8586.388927,0.000000,-306.438199
861.110018,-9030.512492,0.000000,1455.581446
861.110338,-9770.718434,-296.082377,2451.505594
861.110659,-11029.068536,0.000000,2757.943793
861.110980,-10658.965565,-1776.494261,2834.553343
861.111301,-10658.965565,-1332.370696,2298.286494
861.111622,-9622.677246,222.061783,2298.286494
861.111943,-9992.780217,296.082377,1378.971896
861.112264,-8660.409521,1110.308913,919.314598
861.112585,-8956.491898,-444.123565,-536.266849
861.112905,-8290.306550,-592.164754,-1608.800546
861.113226,-8808.450710,-740.205942,-536.266849
861.113547,-9326.594869,0.000000,383.047749
861.113868,-9918.759623,296.082377,1838.629195
861.114189,-10584.944971,296.082377,2987.772442
861.114510,-10807.006753,-370.102971,3524.039291
861.114831,-10807.006753,-740.205942,3830.477490
861.115152,-10658.965565,-370.102971,2374.896044
861.115473,-9770.718434,296.082377,2528.115143
861.115793,-9770.718434,0.000000,1378.971896
861.116114,-8808.450710,0.000000,1991.848295
861.116435,-9178.553681,-592.164754,-1072.533697
861.116756,-8216.285956,-370.102971,-1685.410096
861.117077,-9030.512492,-222.061783,-612.876398
861.117398,-9622.677246,370.102971,1455.581446
861.117719,-10362.883188,592.164754,2145.067394
861.118040,-10881.027347,0.000000,2911.162892
861.118360,-11177.109724,-444.123565,2757.943793
861.118681,-10807.006753,-1110.308913,1991.848295
861.119002,-10658.965565,0.000000,1685.410096
861.119323,-9326.594869,-592.164754,536.266849
861.119644,-8438.347739,-666.185348,-842.705048
861.119965,-8586.388927,-740.205942,-1762.019645
861.120286,-8512.368333,-666.185348,-1455.581446
861.120607,-8660.409521,-148.041188,-536.266849
861.120928,-9474.636058,0.000000,766.095498
861.121248,-9770.718434,-370.102971,2451.505594
861.121569,-10658.965565,-1184.329507,3217.601092
861.121890,-10732.986159,-1480.411884,2834.553343
861.122211,-10436.903782,-1258.350101,2911.162892
861.122532,-9622.677246,-666.185348,2604.724693
861.122852,-9696.697840,-222.061783,1915.238745
861.123173,-9178.553681,-444.123565,-153.219100
861.123494,-8142.265362,-740.205942,-612.876398
861.123815,-7846.182985,-1480.411884,-1915.238745
861.124136,-8068.244768,-1184.329507,-1915.238745
861.124457,-8956.491898,-222.061783,-459.657299
861.124777,-9548.656652,-148.041188,1072.533697
861.125098,-10288.862594,-370.102971,2145.067394
861.125419,-11029.068536,-1406.391290,2068.457845
861.125740,-10807.006753,-1332.370696,1838.629195
861.126061,-10955.047942,-148.041188,1838.629195
861.126381,-10584.944971,518.144159,1762.019645
861.126702,-9918.759623,666.185348,1378.971896
861.127023,-9474.636058,74.020594,459.657299
861.127344,-9474.636058,-1184.329507,-1149.143247
861.127665,-8364.327145,-666.185348,-612.876398
861.127986,-8438.347739,-814.226536,-229.828649
861.128306,-9178.553681,740.205942,919.314598
861.128627,-9548.656652,1628.453072,2528.115143
861.128948,-9696.697840,814.226536,2911.162892
861.129269,-10066.800811,444.123565,3064.381992
861.129590,-10658.965565,-592.164754,3064.381992
861.129910,-10436.903782,-888.247130,3370.820191
861.130231,-10288.862594,-444.123565,3524.039291
861.130552,-9770.718434,-814.226536,2221.676944
861.130873,-9252.574275,-592.164754,919.314598
861.131194,-8216.285956,-666.185348,-383.047749
861.131514,-8586.388927,-148.041188,-3140.991542
861.131835,-9178.553681,74.020594,842.705048
861.132156,-9400.615463,296.082377,1991.848295
861.132477,-9918.759623,-148.041188,3064.381992
861.132798,-10658.965565,-740.205942,2451.505594
861.133119,-10288.862594,-1110.308913,2298.286494
861.133439,-9770.718434,-518.144159,1532.190996
861.133760,-9548.656652,-444.123565,1149.143247
861.134081,-8734.430116,-740.205942,153.219100
861.134402,-8586.388927,-1406.391290,-1149.143247
861.134723,-8586.388927,-1258.350101,-1532.190996
861.135043,-8808.450710,-592.164754,-1225.752797
861.135364,-9252.574275,296.082377,306.438199
861.135685,-9030.512492,370.102971,1685.410096
861.136006,-9918.759623,296.082377,2145.067394
861.136327,-10510.924376,-518.144159,2068.457845
861.136648,-10658.965565,-518.144159,2451.505594
861.136968,-10436.903782,-370.102971,2451.505594
861.137289,-9548.656652,-222.061783,2145.067394
861.137610,-9474.636058,0.000000,1225.752797
861.137931,-8808.450710,-370.102971,-383.047749
861.138252,-8734.430116,-444.123565,-1378.971896
861.138572,-8512.368333,-518.144159,-689.485948
861.138893,-8808.450710,74.020594,-766.095498
861.139214,-9844.739029,296.082377,842.705048
861.139535,-10584.944971,0.000000,2145.067394
861.139856,-11029.068536,-888.247130,2298.286494
861.140176,-10807.006753,-1332.370696,2298.286494
861.140497,-10955.047942,-1036.288319,1838.629195
861.140818,-10066.800811,-444.123565,1378.971896
861.141139,-9696.697840,-296.082377,766.095498
861.141460,-9474.636058,0.000000,-612.876398
861.141781,-8734.430116,-814.226536,-1455.581446
861.142101,-8438.347739,-1036.288319,-1532.190996
861.142422,-8882.471304,-666.185348,-766.095498
861.142743,-9252.574275,0.000000,459.657299
861.143064,-9992.780217,296.082377,2374.896044
861.143385,-10066.800811,74.020594,2681.334243
861.143705,-10807.006753,-296.082377,2757.943793
861.144026,-10732.986159,-592.164754,3217.601092
861.144347,-10658.965565,-370.102971,2604.724693
861.144668,-9844.739029,-666.185348,2145.067394
861.144989,-8808.450710,-592.164754,766.095498
861.145310,-8290.306550,-888.247130,-306.438199
861.145630,-8364.327145,-740.205942,-383.047749
861.145951,-8068.244768,-888.247130,-612.876398
861.146272,-8512.368333,-222.061783,919.314598
861.146593,-9622.677246,-222.061783,2681.334243
861.146914,-10584.944971,-222.061783,3753.867940
861.147234,-11029.068536,-666.185348,3600.648841
861.147555,-10658.965565,-814.226536,3064.381992
861.147876,-9992.780217,-444.123565,2298.286494
861.148197,-9622.677246,0.000000,1991.848295
861.148518,-9326.594869,444.123565,919.314598
861.148839,-8512.368333,-148.041188,-766.095498
861.149159,-8808.450710,0.000000,-1302.362347
861.149480,-9474.636058,518.144159,-995.924147
861.149801,-10214.842000,1480.411884,-612.876398
861.150122,-10288.862594,1480.411884,1532.190996
861.150443,-10807.006753,1110.308913,2528.115143
861.150763,-10955.047942,0.000000,2528.115143
861.151084,-10658.965565,-1258.350101,2451.505594
861.151405,-10436.903782,-888.247130,1838.629195
861.151726,-9696.697840,-296.082377,1532.190996
861.152047,-9474.636058,296.082377,1302.362347
861.152367,-8512.368333,296.082377,-383.047749
861.152688,-8290.306550,148.041188,-1302.362347
861.153009,-8290.306550,370.102971,-1838.629195
861.153330,-8512.368333,296.082377,-459.657299
861.153651,-9178.553681,1332.370696,1685.410096
861.153972,-10658.965565,-1998.556043,2987.772442
861.154292,-9474.636058,-370.102971,2451.505594
861.154613,-11473.192101,-1776.494261,1991.848295
861.154934,-10584.944971,-444.123565,2068.457845
861.155255,-9400.615463,0.000000,1762.019645
861.155576,-9696.697840,666.185348,1685.410096
861.155896,-9178.553681,-222.061783,229.828649
861.156217,-7920.203579,-1110.308913,-1762.019645
861.156538,-9696.697840,-1332.370696,-306.438199
861.156859,-7402.059420,-1332.370696,-689.485948
861.157180,-9474.636058,444.123565,306.438199
861.157501,-9770.718434,592.164754,2221.676944
861.157821,-9548.656652,518.144159,2145.067394
861.158142,-10807.006753,148.041188,2451.505594
861.158463,-11029.068536,0.000000,2834.553343
861.158784,-10066.800811,-592.164754,2374.896044
861.159105,-10510.924376,-814.226536,1991.848295
861.159425,-9622.677246,-518.144159,1302.362347
861.159746,-8882.471304,0.000000,-76.609550
861.160067,-8956.491898,-370.102971,-689.485948
861.160388,-9104.533087,74.020594,-383.047749
861.160709,-9474.636058,518.144159,1149.143247
861.161030,-10066.800811,222.061783,2221.676944
861.161350,-11103.089130,-296.082377,3830.477490
861.161671,-10955.047942,-1036.288319,3370.820191
861.161992,-10881.027347,-1332.370696,2757.943793
861.162313,-10436.903782,0.000000,4673.182538
861.162634,-9696.697840,-296.082377,1608.800546
861.162954,-9400.615463,-666.185348,919.314598
861.163275,-8586.388927,-1036.288319,-612.876398
861.163596,-8142.265362,-1776.494261,-2221.676944
861.163917,-8660.409521,-1480.411884,-1455.581446
861.164238,-8142.265362,-1258.350101,-1378.971896
861.164558,-9030.512492,-962.267725,229.828649
861.164879,-9918.759623,-740.205942,1762.019645
861.165200,-9918.759623,-444.123565,2911.162892
861.165521,-11547.212695,-1332.370696,2604.724693
861.165842,-10807.006753,-962.267725,2604.724693
861.166163,-10436.903782,-592.164754,2221.676944
861.166483,-9474.636058,-666.185348,3370.820191
861.166804,-8882.471304,0.000000,229.828649
861.167125,-8216.285956,-148.041188,-919.314598
861.167446,-7920.203579,-370.102971,-1838.629195
861.167767,-8364.327145,74.020594,-1072.533697
861.168087,-8882.471304,222.061783,229.828649
861.168408,-9770.718434,444.123565,1762.019645
861.168729,-10658.965565,222.061783,2681.334243
861.169050,-10807.006753,-592.164754,2681.334243
861.169371,-10955.047942,-962.267725,2604.724693
861.169692,-10584.944971,-740.205942,2068.457845
861.170012,-9770.718434,-296.082377,1378.971896
861.170333,-9474.636058,-222.061783,0.000000
861.170654,-8660.409521,0.000000,1378.971896
861.170975,-8512.368333,0.000000,-1225.752797
861.171296,-9104.533087,-296.082377,-1608.800546
861.171616,-8660.409521,74.020594,153.219100
861.171937,-9474.636058,0.000000,1149.143247
861.172258,-10362.883188,-370.102971,3064.381992
861.172579,-10807.006753,-1110.308913,2987.772442
861.172900,-10807.006753,-1406.391290,2911.162892
861.173221,-10214.842000,-740.205942,2298.286494
861.173541,-9918.759623,-296.082377,1991.848295
861.173862,-9622.677246,592.164754,1685.410096
861.174183,-9104.533087,370.102971,229.828649
861.174504,-8586.388927,0.000000,-919.314598
861.174825,-8512.368333,-370.102971,-2145.067394
861.175145,-8660.409521,-444.123565,76.609550
861.175466,-9696.697840,0.000000,1915.238745
861.175787,-10658.965565,0.000000,2987.772442
861.176108,-10881.027347,-296.082377,3447.429741
861.176429,-11029.068536,-814.226536,3140.991542
861.176749,-10955.047942,-296.082377,2451.505594
861.177070,-9918.759623,148.041188,1915.238745
861.177391,-9474.636058,518.144159,995.924147
861.177712,-8512.368333,0.000000,-306.438199
861.178033,-8290.306550,-814.226536,-1302.362347
861.178354,-8364.327145,-1480.411884,-1762.019645
861.178674,-8586.388927,-962.267725,-1302.362347
861.178995,-9178.553681,-592.164754,1915.238745
861.179316,-10288.862594,74.020594,1991.848295
861.179637,-9844.739029,-148.041188,2681.334243
861.179958,-10510.924376,-666.185348,2221.676944
861.180278,-10584.944971,-888.247130,2145.067394
861.180599,-9918.759623,-666.185348,2145.067394
861.180920,-9548.656652,-592.164754,1838.629195
861.181241,-8956.491898,-518.144159,536.266849
861.181562,-8438.347739,-518.144159,-689.485948
861.181883,-8364.327145,0.000000,-2145.067394
861.182203,-8364.327145,222.061783,-919.314598
861.182524,-8808.450710,518.144159,76.609550
861.182845,-9622.677246,444.123565,1762.019645
861.183166,-10732.986159,-592.164754,2068.457845
861.183487,-10362.883188,-1036.288319,2298.286494
861.183807,-10510.924376,-888.247130,2068.457845
861.184128,-10140.821405,-666.185348,1608.800546
861.184449,-9770.718434,0.000000,1072.533697
861.184770,-9326.594869,444.123565,919.314598
861.185091,-9030.512492,0.000000,-306.438199
861.185411,-8808.450710,-296.082377,-1072.533697
861.185732,-9474.636058,-666.185348,-612.876398
861.186053,-9474.636058,-1036.288319,536.266849
861.186374,-9844.739029,-148.041188,1915.238745
861.186695,-10362.883188,-148.041188,3064.381992
861.187016,-9844.739029,296.082377,3447.429741
861.187336,-11843.295072,-1110.308913,3064.381992
861.187657,-10214.842000,-370.102971,2604.724693
861.187978,-10140.821405,74.020594,1991.848295
861.188299,-9474.636058,-296.082377,1378.971896
861.188620,-8882.471304,444.123565,536.266849
861.188940,-9104.533087,296.082377,76.609550
861.189261,-8882.471304,0.000000,-459.657299
861.189582,-8808.450710,666.185348,306.438199
861.189903,-9844.739029,518.144159,2068.457845
861.190224,-9844.739029,-370.102971,2451.505594
861.190545,-10955.047942,74.020594,2911.162892
861.190865,-10584.944971,-740.205942,3370.820191
861.191186,-9918.759623,-962.267725,2068.457845
861.191507,-9844.739029,296.082377,536.266849
861.191828,-9178.553681,-370.102971,919.314598
861.192149,-8808.450710,-222.061783,76.609550
861.192469,-8438.347739,-740.205942,-842.705048
861.192790,-8438.347739,-740.205942,-1302.362347
861.193111,-9030.512492,-740.205942,-766.095498
861.193432,-8956.491898,-370.102971,153.219100
861.193753,-9992.780217,74.020594,1915.238745
861.194074,-10362.883188,-814.226536,2681.334243
861.194394,-10066.800811,-1036.288319,2298.286494
861.194715,-10584.944971,-1850.514855,2374.896044
861.195036,-9770.718434,-1110.308913,1378.971896
861.195357,-9474.636058,-222.061783,1378.971896
861.195678,-9696.697840,-444.123565,459.657299
861.195998,-8438.347739,-296.082377,-306.438199
861.196319,-8438.347739,0.000000,-1532.190996
861.196640,-8882.471304,-296.082377,-995.924147
861.196961,-8956.491898,0.000000,0.000000
861.197282,-10140.821405,518.144159,2221.676944
861.197602,-10510.924376,222.061783,2451.505594
861.197923,-10807.006753,-296.082377,2681.334243
861.198244,-11103.089130,-1036.288319,2604.724693
861.198565,-10362.883188,-370.102971,2068.457845
861.198886,-10288.862594,-592.164754,1455.581446
861.199207,-9178.553681,-296.082377,919.314598
861.199527,-8882.471304,-592.164754,-459.657299
861.199848,-8660.409521,-370.102971,-459.657299
861.200169,-8882.471304,-962.267725,-1455.581446
861.200490,-9326.594869,-592.164754,-229.828649
861.200811,-9548.656652,-148.041188,1225.752797
861.201131,-10510.924376,-148.041188,2604.724693
861.201452,-10732.986159,-370.102971,3294.210641
861.201773,-10732.986159,-1036.288319,2681.334243
861.202094,-10584.944971,-666.185348,2604.724693
861.202415,-10066.800811,-296.082377,2451.505594
861.202736,-9844.739029,0.000000,1915.238745
861.203056,-9252.574275,-370.102971,766.095498
861.203377,-8438.347739,-888.247130,-766.095498
861.203698,-8290.306550,-666.185348,-1455.581446
861.204019,-8068.244768,74.020594,-536.266849
861.204340,-9622.677246,444.123565,1455.581446
861.204660,-9844.739029,296.082377,3217.601092
861.204981,-10214.842000,-740.205942,3064.381992
861.205302,-10362.883188,-1554.432478,2911.162892
861.205623,-10510.924376,-1554.432478,2298.286494
861.205944,-9844.739029,-888.247130,2068.457845
861.206265,-9252.574275,0.000000,1225.752797
861.206585,-8586.388927,148.041188,229.828649
861.206906,-8142.265362,-518.144159,-1149.143247
861.207227,-8364.327145,-962.267725,-1915.238745
861.207548,-8438.347739,-1184.329507,-1991.848295
861.207869,-8512.368333,-740.205942,-995.924147
861.208189,-8882.471304,-518.144159,76.609550
861.208510,-10066.800811,74.020594,2221.676944
861.208831,-10362.883188,-740.205942,2681.334243
861.209152,-10732.986159,-1554.432478,2528.115143
861.209473,-10658.965565,-1258.350101,2528.115143
861.209793,-10066.800811,-814.226536,2145.067394
861.210114,-10288.862594,-592.164754,1455.581446
861.210435,-9252.574275,-296.082377,689.485948
861.210756,-8734.430116,-518.144159,-766.095498
861.211077,-8068.244768,-370.102971,-995.924147
861.211398,-8734.430116,-296.082377,-383.047749
861.211718,-9474.636058,0.000000,1302.362347
861.212039,-10362.883188,74.020594,2451.505594
861.212360,-10955.047942,74.020594,3370.820191
861.212681,-10955.047942,0.000000,2451.505594
861.213002,-10807.006753,-222.061783,2451.505594
861.213322,-10584.944971,148.041188,2221.676944
861.213643,-10140.821405,518.144159,1532.190996
861.213964,-9474.636058,0.000000,76.609550
861.214285,-9030.512492,0.000000,-1072.533697
861.214606,-9178.553681,-222.061783,-995.924147
861.214927,-9400.615463,0.000000,-229.828649
861.215247,-8216.285956,0.000000,229.828649
861.215568,-9770.718434,74.020594,1685.410096
861.215889,-10510.924376,-296.082377,2528.115143
861.216210,-10658.965565,-1258.350101,2528.115143
861.216531,-10584.944971,-1776.494261,2911.162892
861.216851,-9918.759623,-962.267725,2374.896044
861.217172,-9844.739029,-666.185348,1532.190996
861.217493,-8956.491898,0.000000,842.705048
861.217814,-8734.430116,-222.061783,-306.438199
861.218135,-8216.285956,0.000000,-229.828649
861.218455,-8586.388927,0.000000,-612.876398
861.218776,-8660.409521,444.123565,229.828649
861.219097,-9622.677246,518.144159,2145.067394
861.219418,-9622.677246,-148.041188,2451.505594
861.219739,-10214.842000,-888.247130,3217.601092
861.220060,-10140.821405,-1184.329507,2145.067394
861.220380,-9918.759623,-518.144159,1991.848295
861.220701,-9474.636058,-370.102971,766.095498
861.221022,-9178.553681,-148.041188,919.314598
861.221343,-8734.430116,-296.082377,-229.828649
861.221663,-8364.327145,-814.226536,-1378.971896
861.221984,-8512.368333,-814.226536,-1149.143247
861.222305,-9474.636058,-888.247130,-689.485948
861.222625,-9400.615463,-222.061783,1072.533697
861.222946,-10066.800811,148.041188,1915.238745
861.223267,-10732.986159,0.000000,2604.724693
861.223588,-10140.821405,0.000000,2145.067394
861.223908,-10807.006753,148.041188,1685.410096
861.224229,-10140.821405,814.226536,1991.848295
861.224550,-9622.677246,1036.288319,1225.752797
861.224871,-9400.615463,370.102971,536.266849
861.225191,-9104.533087,148.041188,-1149.143247
861.225512,-8438.347739,-148.041188,-1455.581446
861.225833,-8882.471304,0.000000,-612.876398
861.226154,-9474.636058,222.061783,995.924147
861.226474,-10362.883188,518.144159,2528.115143
861.226795,-10732.986159,222.061783,2911.162892
861.227116,-11177.109724,0.000000,2834.553343
861.227436,-10732.986159,-740.205942,2451.505594
861.227757,-10436.903782,-370.102971,1915.238745
861.228078,-9770.718434,-444.123565,1455.581446
861.228399,-8956.491898,-370.102971,229.828649
861.228719,-8586.388927,-666.185348,-536.266849
861.229040,-8586.388927,-666.185348,-1532.190996
861.229361,-8290.306550,-740.205942,-1149.143247
861.229682,-8882.471304,-296.082377,76.609550
861.230002,-9622.677246,-444.123565,1685.410096
861.230323,-10288.862594,-666.185348,2528.115143
861.230644,-11325.150913,-962.267725,3064.381992
861.230964,-11177.109724,-888.247130,3064.381992
861.231285,-10510.924376,-1184.329507,2604.724693
861.231606,-9400.615463,-962.267725,1915.238745
861.231927,-9474.636058,-1406.391290,766.095498
861.232247,-8216.285956,-962.267725,-306.438199
861.232568,-8142.265362,-444.123565,-1378.971896
861.232889,-8068.244768,222.061783,-1302.362347
861.233210,-8216.285956,740.205942,76.609550
861.233530,-9252.574275,0.000000,1608.800546
861.233851,-9770.718434,-592.164754,2681.334243
861.234172,-10881.027347,-1184.329507,3294.210641
861.234492,-11103.089130,-1258.350101,3677.258390
861.234813,-11177.109724,-1554.432478,3524.039291
861.235134,-10584.944971,-222.061783,2911.162892
861.235455,-9918.759623,0.000000,1685.410096
861.235775,-9326.594869,74.020594,919.314598
861.236096,-7846.182985,-666.185348,-383.047749
861.236417,-8290.306550,-1184.329507,-1685.410096
861.236738,-8734.430116,-1184.329507,-1149.143247
861.237058,-8734.430116,-148.041188,-153.219100
861.237379,-10362.883188,0.000000,2145.067394
861.237700,-10362.883188,0.000000,2834.553343
861.238020,-10807.006753,-666.185348,2681.334243
861.238341,-10955.047942,-666.185348,2528.115143
861.238662,-10066.800811,-222.061783,2068.457845
861.238983,-9918.759623,0.000000,2068.457845
861.239303,-9622.677246,444.123565,1072.533697
861.239624,-8734.430116,0.000000,-612.876398
861.239945,-8290.306550,-222.061783,-1302.362347
861.240266,-8142.265362,-592.164754,-1608.800546
861.240586,-8882.471304,148.041188,383.047749
861.240907,-10214.842000,0.000000,2374.896044
861.241228,-10584.944971,-370.102971,2451.505594
861.241548,-10436.903782,-888.247130,1838.629195
861.241869,-10658.965565,-888.247130,1838.629195
861.242190,-10288.862594,-148.041188,1838.629195
861.242511,-9770.718434,518.144159,1838.629195
861.242831,-9104.533087,296.082377,459.657299
861.243152,-8660.409521,0.000000,-612.876398
861.243473,-8808.450710,-296.082377,-1685.410096
861.243794,-8808.450710,-296.082377,-1072.533697
861.244114,-9252.574275,0.000000,229.828649
861.244435,-9474.636058,222.061783,2221.676944
861.244756,-10066.800811,-592.164754,1991.848295
861.245076,-10214.842000,-814.226536,2451.505594
861.245397,-10288.862594,-1110.308913,2145.067394
861.245718,-10436.903782,0.000000,2451.505594
861.246039,-9992.780217,370.102971,2221.676944
861.246359,-9622.677246,74.020594,1302.362347
861.246680,-9030.512492,-222.061783,-229.828649
861.247001,-8660.409521,-740.205942,-1149.143247
861.247322,-8808.450710,-444.123565,-995.924147
861.247642,-9326.594869,-518.144159,0.000000
861.247963,-9252.574275,74.020594,1685.410096
861.248284,-10288.862594,-814.226536,2451.505594
861.248605,-10807.006753,-444.123565,2298.286494
861.248925,-10881.027347,-1258.350101,2681.334243
861.249246,-10436.903782,-1184.329507,2068.457845
861.249567,-9548.656652,0.000000,1532.190996
861.249887,-9474.636058,74.020594,76.609550
861.250208,-8882.471304,814.226536,153.219100
861.250529,-9400.615463,0.000000,-306.438199
861.250850,-8734.430116,-962.267725,-919.314598
861.251170,-9178.553681,-1258.350101,-612.876398
861.251491,-9770.718434,-592.164754,536.266849
861.251812,-10658.965565,296.082377,2068.457845
861.252133,-10510.924376,592.164754,3294.210641
861.252453,-10955.047942,0.000000,3064.381992
861.252774,-9622.677246,296.082377,1225.752797
861.253095,-10214.842000,-148.041188,1838.629195
861.253415,-9548.656652,222.061783,1532.190996
861.253736,-9252.574275,0.000000,536.266849
861.254057,-7994.224174,-1036.288319,-995.924147
861.254378,-8068.244768,-592.164754,-995.924147
861.254698,-8512.368333,-518.144159,-536.266849
861.255019,-8882.471304,-444.123565,612.876398
861.255340,-9918.759623,-148.041188,2068.457845
861.255661,-10140.821405,-666.185348,2987.772442
861.255981,-10510.924376,-1258.350101,2987.772442
861.256302,-10214.842000,-1480.411884,2298.286494
861.256623,-9770.718434,-1184.329507,1915.238745
861.256943,-9252.574275,0.000000,229.828649
861.257264,-9104.533087,0.000000,919.314598
861.257585,-8290.306550,-222.061783,-766.095498
861.257906,-8586.388927,-370.102971,-1072.533697
861.258226,-8512.368333,0.000000,-1149.143247
861.258547,-9030.512492,74.020594,383.047749
861.258868,-9844.739029,222.061783,1608.800546
861.259189,-9622.677246,370.102971,2528.115143
861.259509,-10881.027347,-740.205942,2528.115143
861.259830,-10362.883188,-370.102971,3447.429741
861.260151,-10510.924376,-1258.350101,2221.676944
861.260471,-9844.739029,-666.185348,1608.800546
861.260792,-9622.677246,592.164754,1149.143247
861.261113,-9030.512492,296.082377,0.000000
861.261434,-8808.450710,74.020594,-689.485948
861.261754,-9326.594869,148.041188,-1378.971896
861.262075,-9178.553681,0.000000,-229.828649
861.262396,-9400.615463,1110.308913,1838.629195
861.262717,-10510.924376,-370.102971,2374.896044
861.263037,-10436.903782,-1110.308913,2604.724693
861.263358,-10955.047942,-1110.308913,2374.896044
861.263679,-10510.924376,0.000000,1915.238745
861.263999,-10214.842000,1110.308913,1532.190996
861.264320,-10066.800811,1184.329507,1455.581446
861.264641,-8956.491898,814.226536,1072.533697
861.264962,-9030.512492,-1184.329507,-842.705048
861.265282,-8586.388927,-1036.288319,-1149.143247
861.265603,-9400.615463,-1110.308913,-766.095498
861.265924,-9252.574275,222.061783,1149.143247
861.266245,-9992.780217,74.020594,2221.676944
861.266565,-9622.677246,592.164754,3830.477490
861.266886,-11029.068536,-1554.432478,3294.210641
861.267207,-10807.006753,-1850.514855,2911.162892
861.267527,-10066.800811,-1258.350101,2604.724693
861.267848,-9326.594869,-592.164754,2145.067394
861.268169,-8882.471304,296.082377,1378.971896
861.268490,-8586.388927,74.020594,459.657299
861.268810,-8142.265362,-666.185348,-766.095498
861.269131,-7698.141797,-962.267725,-1455.581446
861.269452,-8586.388927,-1332.370696,-306.438199
861.269773,-9030.512492,-888.247130,1072.533697
861.270093,-10362.883188,-518.144159,2374.896044
861.270414,-10362.883188,-666.185348,2834.553343
861.270735,-10140.821405,-222.061783,2757.943793
861.271056,-9918.759623,-1110.308913,1762.019645
861.271376,-9696.697840,-1036.288319,1302.362347
861.271697,-9400.615463,-888.247130,383.047749
861.272018,-9252.574275,-666.185348,-153.219100
861.272338,-8586.388927,-962.267725,-1149.143247
861.272659,-9030.512492,-296.082377,-1378.971896
861.272980,-9992.780217,0.000000,0.000000
861.273301,-9474.636058,888.247130,1225.752797
861.273621,-10214.842000,74.020594,2221.676944
861.273942,-10955.047942,-296.082377,2681.334243
861.274263,-11177.109724,-740.205942,2451.505594
861.274584,-10658.965565,-444.123565,1838.629195
861.274904,-10214.842000,444.123565,1608.800546
861.275225,-9548.656652,814.226536,1532.190996
861.275546,-9252.574275,592.164754,612.876398
861.275866,-9252.574275,148.041188,-383.047749
861.276187,-8734.430116,-148.041188,-1532.190996
861.276508,-8882.471304,0.000000,-995.924147
861.276829,-9474.636058,222.061783,689.485948
861.277149,-10140.821405,0.000000,1762.019645
861.277470,-10732.986159,-666.185348,2604.724693
861.277791,-10584.944971,-1628.453072,2987.772442
861.278112,-10436.903782,-1776.494261,2374.896044
861.278432,-10214.842000,-1184.329507,1532.190996
861.278753,-9696.697840,-296.082377,1302.362347
861.279074,-8142.265362,-518.144159,-229.828649
861.279394,-8512.368333,-666.185348,-842.705048
861.279715,-8216.285956,-962.267725,-1302.362347
861.280036,-8290.306550,-1332.370696,-1532.190996
861.280357,-8882.471304,-888.247130,-153.219100
861.280677,-8956.491898,-222.061783,1378.971896
861.280998,-9918.759623,0.000000,2911.162892
861.281319,-10510.924376,-962.267725,3294.210641
861.281640,-10066.800811,-1480.411884,2987.772442
861.281960,-10436.903782,-1332.370696,2068.457845
861.282281,-9548.656652,-444.123565,2145.067394
861.282602,-9326.594869,-222.061783,1685.410096
861.282922,-9104.533087,148.041188,766.095498
861.283243,-8512.368333,-296.082377,459.657299
861.283564,-8586.388927,0.000000,-689.485948
861.283885,-8956.491898,-444.123565,0.000000
861.284205,-9696.697840,0.000000,1762.019645
861.284526,-10288.862594,0.000000,2911.162892
861.284847,-11029.068536,-518.144159,2911.162892
861.285168,-10658.965565,-814.226536,2451.505594
861.285488,-10584.944971,-740.205942,1685.410096
861.285809,-10288.862594,0.000000,1302.362347
861.286130,-9918.759623,444.123565,919.314598
861.286450,-9326.594869,74.020594,0.000000
861.286771,-9474.636058,-666.185348,-1072.533697
861.287092,-9400.615463,-962.267725,-1225.752797
861.287413,-9844.739029,-148.041188,-612.876398
861.287733,-9622.677246,-148.041188,0.000000
861.288054,-10066.800811,0.000000,1532.190996
861.288375,-10066.800811,-222.061783,2145.067394
861.288696,-10510.924376,-814.226536,1915.238745
861.289016,-10436.903782,-962.267725,1072.533697
861.289337,-9918.759623,-518.144159,1149.143247
861.289658,-9548.656652,370.102971,1225.752797
861.289978,-9178.553681,592.164754,919.314598
861.290299,-8512.368333,518.144159,383.047749
861.290620,-9178.553681,-148.041188,-689.485948
861.290941,-9030.512492,-666.185348,-459.657299
861.291261,-9252.574275,-444.123565,995.924147
861.291582,-9622.677246,-1184.329507,2221.676944
861.291903,-10066.800811,-296.082377,2987.772442
861.292224,-10288.862594,-740.205942,2757.943793
861.292544,-9992.780217,-1110.308913,2298.286494
861.292865,-9548.656652,-962.267725,1762.019645
861.293186,-9252.574275,-666.185348,1378.971896
861.293506,-8956.491898,-666.185348,1532.190996
861.293827,-8438.347739,-888.247130,229.828649
861.294148,-8734.430116,-1554.432478,-536.266849
861.294469,-8586.388927,-1480.411884,-229.828649
861.294789,-8660.409521,-592.164754,306.438199
861.295110,-9622.677246,444.123565,1991.848295
861.295431,-10288.862594,814.226536,3447.429741
861.295752,-10658.965565,0.000000,2911.162892
861.296072,-10807.006753,-296.082377,2604.724693
861.296393,-10362.883188,-222.061783,2451.505594
861.296714,-10288.862594,296.082377,2221.676944
861.297035,-9770.718434,814.226536,2068.457845
861.297355,-9326.594869,888.247130,842.705048
861.297676,-8882.471304,370.102971,-306.438199
861.297997,-8512.368333,-222.061783,-766.095498
861.298317,-8882.471304,370.102971,-383.047749
861.298638,-9844.739029,444.123565,1149.143247
861.298959,-10288.862594,1258.350101,2604.724693
861.299280,-10881.027347,370.102971,2834.553343
861.299600,-11029.068536,-740.205942,2604.724693
861.299921,-10140.821405,-518.144159,3294.210641
861.300242,-10140.821405,-1184.329507,1608.800546
861.300563,-9770.718434,-518.144159,919.314598
861.300883,-9030.512492,-296.082377,76.609550
861.301204,-8734.430116,-222.061783,-995.924147
861.301525,-8512.368333,-518.144159,-2068.457845
861.301845,-8882.471304,-740.205942,-1532.190996
861.302166,-8660.409521,-888.247130,-689.485948
861.302487,-9844.739029,-814.226536,1225.752797
861.302808,-10436.903782,0.000000,2374.896044
861.303128,-10584.944971,-592.164754,3064.381992
861.303449,-10732.986159,-370.102971,3217.601092
861.303770,-10066.800811,-296.082377,2528.115143
861.304091,-9474.636058,222.061783,1302.362347
861.304411,-9326.594869,0.000000,1302.362347
861.304732,-8438.347739,-296.082377,229.828649
861.305053,-8068.244768,-518.144159,-1225.752797
861.305373,-8512.368333,-740.205942,-1302.362347
861.305694,-8438.347739,0.000000,-459.657299
861.306015,-9400.615463,0.000000,1302.362347
861.306336,-10140.821405,0.000000,2451.505594
861.306656,-10658.965565,-592.164754,2528.115143
861.306977,-10807.006753,-1184.329507,2757.943793
861.307298,-10214.842000,-1184.329507,2068.457845
861.307619,-10436.903782,-518.144159,1532.190996
861.307939,-9548.656652,-444.123565,1302.362347
861.308260,-8882.471304,-148.041188,-229.828649
861.308581,-8290.306550,-1480.411884,-1302.362347
861.308901,-8216.285956,-1406.391290,-1685.410096
861.309222,-9030.512492,-888.247130,-995.924147
861.309543,-9474.636058,370.102971,842.705048
861.309864,-9918.759623,370.102971,2451.505594
861.310184,-10436.903782,-222.061783,2911.162892
861.310505,-10584.944971,-1110.308913,2987.772442
861.310826,-11177.109724,-1554.432478,2987.772442
861.311147,-10807.006753,-1184.329507,2911.162892
861.311467,-9844.739029,-592.164754,1838.629195
861.311788,-9474.636058,-222.061783,842.705048
861.312109,-8808.450710,0.000000,-612.876398
861.312429,-8956.491898,1036.288319,-995.924147
861.312750,-9178.553681,888.247130,-229.828649
861.313071,-9474.636058,740.205942,995.924147
861.313392,-9992.780217,296.082377,2451.505594
861.313712,-10214.842000,-592.164754,2987.772442
861.314033,-9918.759623,-1480.411884,2451.505594
861.314354,-10214.842000,-962.267725,2221.676944
861.314675,-9770.718434,-444.123565,1915.238745
861.314995,-9400.615463,-296.082377,1225.752797
861.315316,-9252.574275,0.000000,1302.362347
861.315637,-9104.533087,-222.061783,-306.438199
861.315957,-9252.574275,-666.185348,-383.047749
861.316278,-8882.471304,-962.267725,-995.924147
861.316599,-8882.471304,0.000000,76.609550
861.316920,-9844.739029,0.000000,1149.143247
861.317240,-10140.821405,0.000000,2604.724693
861.317561,-10510.924376,-962.267725,2451.505594
861.317882,-10066.800811,-814.226536,2298.286494
861.318203,-10362.883188,-592.164754,1149.143247
861.318523,-9252.574275,444.123565,1225.752797
861.318844,-9178.553681,592.164754,842.705048
861.319165,-8956.491898,518.144159,-383.047749
861.319486,-8438.347739,0.000000,-1149.143247
861.319806,-8586.388927,-1258.350101,-1225.752797
861.320128,-8956.491898,-1184.329507,-689.485948
861.320449,-9696.697840,-1036.288319,1378.971896
861.320769,-10066.800811,-370.102971,3830.477490
861.321090,-10584.944971,-74.020594,2757.943793
861.321411,-10881.027347,-296.082377,2451.505594
861.321731,-10362.883188,0.000000,2068.457845
861.322052,-9992.780217,0.000000,1072.533697
861.322373,-9770.718434,148.041188,842.705048
861.322694,-9326.594869,-296.082377,0.000000
861.323014,-8882.471304,-888.247130,-229.828649
861.323335,-9104.533087,-962.267725,-842.705048
861.323656,-9030.512492,-296.082377,306.438199
861.323976,-9696.697840,74.020594,1149.143247
861.324297,-10288.862594,444.123565,1991.848295
861.324618,-10140.821405,592.164754,2528.115143
861.324938,-10807.006753,-444.123565,2221.676944
861.325259,-10288.862594,0.000000,2451.505594
861.325580,-10436.903782,444.123565,2068.457845
861.325900,-9992.780217,814.226536,2221.676944
861.326221,-9474.636058,518.144159,1532.190996
861.326542,-9178.553681,74.020594,-153.219100
861.326862,-8808.450710,-666.185348,-1072.533697
861.327183,-8660.409521,-370.102971,-919.314598
861.327504,-8734.430116,0.000000,0.000000
861.327824,-9474.636058,-222.061783,766.095498
861.328145,-9918.759623,-740.205942,2604.724693
861.328466,-10658.965565,-1554.432478,2681.334243
861.328786,-10436.903782,-1406.391290,2451.505594
861.329107,-10140.821405,-962.267725,1991.848295
861.329428,-9474.636058,296.082377,2145.067394
861.329748,-9474.636058,296.082377,1225.752797
861.330069,-8512.368333,370.102971,-153.219100
861.330390,-7920.203579,296.082377,-1225.752797
861.330710,-7772.162391,-666.185348,-1915.238745
861.331031,-7698.141797,-148.041188,-842.705048
861.331352,-9474.636058,-592.164754,689.485948
861.331672,-9918.759623,-444.123565,1991.848295
861.331993,-10140.821405,-962.267725,2068.457845
861.332314,-10658.965565,-740.205942,2528.115143
861.332634,-10288.862594,-444.123565,2451.505594
861.332955,-10362.883188,148.041188,2298.286494
861.333276,-9770.718434,444.123565,1915.238745
861.333596,-9400.615463,444.123565,612.876398
861.333917,-8438.347739,-222.061783,-689.485948
861.334238,-8290.306550,0.000000,-1225.752797
861.334558,-9030.512492,444.123565,-919.314598
861.334879,-8586.388927,814.226536,1762.019645
861.335200,-10066.800811,222.061783,2221.676944
861.335521,-10436.903782,-222.061783,2604.724693
861.335841,-11177.109724,-1258.350101,2834.553343
861.336162,-10807.006753,-1036.288319,766.095498
861.336483,-10140.821405,-666.185348,1685.410096
861.336803,-9844.739029,0.000000,919.314598
861.337124,-9252.574275,0.000000,0.000000
861.337445,-8956.491898,-444.123565,-1149.143247
861.337765,-8956.491898,-592.164754,-1685.410096
861.338086,-9104.533087,-1110.308913,-1378.971896
861.338407,-8808.450710,-296.082377,-229.828649
861.338727,-9844.739029,-296.082377,1762.019645
861.339048,-10362.883188,-888.247130,2528.115143
861.339369,-10288.862594,-1702.473667,3140.991542
861.339689,-10436.903782,-2368.659014,2451.505594
861.340010,-9844.739029,-1998.556043,1685.410096
861.340331,-9622.677246,-296.082377,1991.848295
861.340651,-8438.347739,-148.041188,0.000000
861.340972,-8734.430116,740.205942,76.609550
861.341293,-8068.244768,518.144159,-1149.143247
861.341613,-9252.574275,0.000000,-842.705048
861.341934,-9252.574275,-370.102971,0.000000
861.342255,-9326.594869,-370.102971,2068.457845
861.342575,-10288.862594,-1776.494261,2987.772442
861.342896,-9844.739029,-370.102971,2757.943793
861.343217,-11399.171507,-962.267725,2834.553343
861.343537,-10140.821405,-74.020594,1685.410096
861.343858,-10066.800811,1036.288319,1762.019645
861.344179,-9252.574275,592.164754,1149.143247
861.344499,-8734.430116,222.061783,-229.828649
861.344820,-8660.409521,-518.144159,-1302.362347
861.345141,-9178.553681,-1258.350101,-1225.752797
861.345461,-8882.471304,-962.267725,-612.876398
861.345782,-9474.636058,-666.185348,842.705048
861.346103,-10362.883188,-296.082377,2145.067394
861.346423,-11695.253884,0.000000,3064.381992
861.346744,-10955.047942,-740.205942,3140.991542
861.347065,-10732.986159,-1036.288319,3064.381992
861.347385,-9918.759623,-74.020594,2221.676944
861.347706,-9622.677246,592.164754,0.000000
861.348027,-9030.512492,222.061783,1149.143247
861.348348,-8364.327145,-148.041188,-383.047749
861.348668,-8216.285956,-962.267725,-1225.752797
861.348989,-8438.347739,-370.102971,-459.657299
861.349310,-9178.553681,-296.082377,612.876398
861.349630,-10066.800811,0.000000,2681.334243
861.349951,-10510.924376,-444.123565,3370.820191
861.350272,-10066.800811,-1036.288319,2528.115143
861.350592,-11029.068536,-814.226536,1608.800546
861.350913,-10066.800811,-370.102971,1685.410096
861.351234,-9326.594869,-222.061783,1072.533697
861.351554,-9104.533087,-296.082377,229.828649
861.351875,-8512.368333,-592.164754,-1838.629195
861.352196,-8808.450710,-1702.473667,-1685.410096
861.352516,-9030.512492,-1258.350101,-1072.533697
861.352837,-9474.636058,-518.144159,0.000000
861.353158,-9844.739029,0.000000,1532.190996
861.353478,-10214.842000,-148.041188,2451.505594
861.353799,-10362.883188,-1036.288319,2374.896044
861.354120,-10214.842000,-1332.370696,1991.848295
861.354440,-10214.842000,-1110.308913,1685.410096
861.354761,-9992.780217,222.061783,1685.410096
861.355082,-9548.656652,592.164754,1225.752797
861.355402,-9178.553681,592.164754,153.219100
861.355723,-8734.430116,74.020594,-612.876398
861.356044,-8142.265362,-74.020594,-1302.362347
861.356364,-9178.553681,0.000000,-383.047749
861.356685,-9622.677246,0.000000,1149.143247
861.357006,-10436.903782,-148.041188,2528.115143
861.357326,-11103.089130,-370.102971,3064.381992
861.357647,-10658.965565,-1184.329507,2604.724693
861.357968,-10658.965565,-1480.411884,1608.800546
861.358288,-9770.718434,-370.102971,1302.362347
861.358609,-9400.615463,74.020594,766.095498
861.358930,-9030.512492,592.164754,459.657299
861.359250,-8882.471304,-222.061783,-459.657299
861.359571,-9030.512492,-1184.329507,-1225.752797
861.359892,-9178.553681,-1258.350101,-995.924147
861.360212,-8512.368333,-444.123565,1608.800546
861.360533,-9770.718434,-296.082377,1685.410096
861.360854,-10436.903782,-296.082377,2451.505594
861.361175,-10584.944971,-518.144159,2681.334243
861.361495,-9992.780217,-444.123565,2068.457845
861.361816,-10214.842000,0.000000,1838.629195
861.362137,-9918.759623,518.144159,1685.410096
861.362457,-9252.574275,740.205942,1072.533697
861.362778,-8808.450710,148.041188,0.000000
861.363099,-8660.409521,148.041188,-689.485948
861.363419,-8586.388927,-592.164754,-766.095498
861.363740,-8734.430116,0.000000,459.657299
861.364061,-9696.697840,-148.041188,1838.629195
861.364381,-9770.718434,0.000000,2451.505594
861.364702,-10436.903782,-888.247130,2911.162892
861.365023,-10140.821405,-592.164754,2145.067394
861.365343,-10510.924376,-148.041188,2374.896044
861.365664,-9474.636058,518.144159,2068.457845
861.365985,-9178.553681,444.123565,1225.752797
861.366305,-9030.512492,0.000000,-383.047749
861.366626,-8882.471304,-666.185348,-1302.362347
861.366947,-8882.471304,-370.102971,-766.095498
861.367267,-8956.491898,-518.144159,0.000000
861.367588,-9548.656652,370.102971,1608.800546
861.367909,-10362.883188,518.144159,2528.115143
861.368229,-10436.903782,-148.041188,2834.553343
861.368550,-10510.924376,-370.102971,3524.039291
861.368871,-10288.862594,-296.082377,1302.362347
861.369191,-9696.697840,592.164754,1072.533697
861.369512,-9326.594869,1184.329507,536.266849
861.369833,-9030.512492,444.123565,0.000000
861.370153,-8364.327145,-296.082377,-1532.190996
861.370474,-8586.388927,-740.205942,-1685.410096
861.370795,-9178.553681,-592.164754,-995.924147
861.371115,-9474.636058,74.020594,612.876398
861.371436,-10066.800811,592.164754,2145.067394
861.371757,-10584.944971,-148.041188,3370.820191
861.372077,-10510.924376,-1554.432478,2604.724693
861.372398,-10807.006753,-1036.288319,2987.772442
861.372719,-10214.842000,-1406.391290,2681.334243
861.373039,-9696.697840,-592.164754,2145.067394
861.373360,-8808.450710,-444.123565,1302.362347
861.373681,-8882.471304,-666.185348,153.219100
861.374002,-8438.347739,-666.185348,-306.438199
861.374322,-8586.388927,-740.205942,-766.095498
861.374643,-8808.450710,0.000000,536.266849
861.374964,-9326.594869,0.000000,1762.019645
861.375284,-9918.759623,222.061783,3064.381992
861.375605,-10807.006753,0.000000,2987.772442
861.375926,-10362.883188,-740.205942,2757.943793
861.376246,-10436.903782,-1406.391290,2451.505594
861.376567,-9696.697840,-740.205942,1991.848295
861.376888,-8882.471304,-814.226536,2528.115143
861.377208,-8956.491898,-814.226536,383.047749
861.377529,-8290.306550,-740.205942,-842.705048
861.377850,-8364.327145,-592.164754,-1532.190996
861.378170,-9178.553681,-148.041188,153.219100
861.378491,-9474.636058,0.000000,1302.362347
861.378812,-10436.903782,-370.102971,2604.724693
861.379132,-10436.903782,-1036.288319,2451.505594
861.379453,-10510.924376,-1554.432478,2221.676944
861.379774,-10584.944971,-1850.514855,1838.629195
861.380094,-10362.883188,-222.061783,1532.190996
861.380415,-9696.697840,148.041188,919.314598
861.380736,-9252.574275,518.144159,0.000000
861.381056,-8956.491898,-444.123565,-1762.019645
861.381377,-8660.409521,-518.144159,-1532.190996
861.381698,-9104.533087,-592.164754,-995.924147
861.382018,-9104.533087,-370.102971,536.266849
861.382339,-9770.718434,-444.123565,1915.238745
861.382660,-10436.903782,-444.123565,2681.334243
861.382980,-10436.903782,-666.185348,2604.724693
861.383301,-10658.965565,-518.144159,2528.115143
861.383622,-10288.862594,0.000000,1838.629195
861.383942,-9474.636058,296.082377,1685.410096
861.384263,-9548.656652,74.020594,459.657299
861.384584,-8438.347739,-370.102971,-612.876398
861.384904,-8438.347739,-1036.288319,-1455.581446
861.385225,-8438.347739,-1480.411884,-2298.286494
861.385546,-8808.450710,-592.164754,76.609550
861.385866,-9696.697840,0.000000,1991.848295
861.386187,-10066.800811,74.020594,2911.162892
861.386508,-10288.862594,148.041188,2604.724693
861.386829,-10066.800811,-370.102971,2451.505594
861.387149,-10362.883188,148.041188,2068.457845
861.387470,-9622.677246,148.041188,1991.848295
861.387791,-9326.594869,-222.061783,1225.752797
861.388111,-8660.409521,-1110.308913,0.000000
861.388432,-8586.388927,-1554.432478,-1225.752797
861.388753,-8734.430116,-1184.329507,-842.705048
861.389073,-8882.471304,0.000000,0.000000
861.389394,-9474.636058,592.164754,1455.581446
861.389715,-10436.903782,1184.329507,2298.286494
861.390035,-10436.903782,-740.205942,2451.505594
861.390356,-10362.883188,-1184.329507,2528.115143
861.390677,-10436.903782,-1406.391290,1991.848295
861.390997,-9548.656652,-740.205942,2068.457845
861.391318,-9622.677246,-296.082377,1838.629195
861.391639,-8808.450710,-962.267725,459.657299
861.391959,-8438.347739,-592.164754,-995.924147
861.392280,-8734.430116,-370.102971,-1149.143247
861.392601,-8438.347739,370.102971,229.828649
861.392921,-9548.656652,0.000000,1225.752797
861.393242,-10362.883188,518.144159,2834.553343
861.393563,-11251.130318,-148.041188,3524.039291
861.393883,-10807.006753,0.000000,4749.792088
861.394204,-11103.089130,-592.164754,2374.896044
861.394525,-10362.883188,888.247130,2298.286494
861.394845,-10066.800811,1184.329507,1225.752797
861.395166,-8956.491898,1554.432478,229.828649
861.395487,-8364.327145,222.061783,-766.095498
861.395807,-8586.388927,0.000000,-1991.848295
861.396128,-8956.491898,-518.144159,-1225.752797
861.396449,-9474.636058,-592.164754,153.219100
861.396769,-9918.759623,-666.185348,2145.067394
861.397090,-10214.842000,-222.061783,2298.286494
861.397411,-10510.924376,-888.247130,1762.019645
861.397731,-10510.924376,-666.185348,2145.067394
861.398052,-9844.739029,-962.267725,1455.581446
861.398373,-9474.636058,0.000000,1072.533697
861.398693,-9030.512492,-592.164754,0.000000
861.399014,-8438.347739,-888.247130,-689.485948
861.399335,-8438.347739,-814.226536,-1685.410096
861.399656,-7846.182985,-888.247130,-1072.533697
861.399976,-8438.347739,-370.102971,0.000000
861.400297,-9918.759623,-148.041188,2451.505594
861.400618,-9992.780217,-444.123565,3140.991542
861.400938,-9918.759623,-1184.329507,3677.258390
861.401259,-10066.800811,-1184.329507,2604.724693
861.401580,-9696.697840,-370.102971,2145.067394
861.401900,-9474.636058,666.185348,1685.410096
861.402221,-9252.574275,740.205942,2298.286494
861.402542,-8660.409521,296.082377,383.047749
861.402862,-8734.430116,-592.164754,-612.876398
861.403183,-8882.471304,-1258.350101,-459.657299
861.403504,-9474.636058,-1036.288319,536.266849
861.403824,-9548.656652,-296.082377,1762.019645
861.404145,-9844.739029,962.267725,2604.724693
861.404466,-10732.986159,0.000000,2911.162892
861.404786,-10658.965565,-296.082377,2681.334243
861.405107,-10658.965565,0.000000,2834.553343
861.405428,-10510.924376,-296.082377,1685.410096
861.405748,-9770.718434,444.123565,2068.457845
861.406069,-9770.718434,222.061783,1532.190996
861.406390,-8734.430116,-814.226536,-1225.752797
861.406710,-9030.512492,-148.041188,-689.485948
861.407031,-9178.553681,-518.144159,-153.219100
861.407352,-9178.553681,296.082377,766.095498
861.407672,-10584.944971,-148.041188,1838.629195
861.407993,-10362.883188,148.041188,2604.724693
861.408314,-10955.047942,-148.041188,2604.724693
861.408634,-11029.068536,0.000000,2374.896044
861.408955,-9992.780217,0.000000,1838.629195
861.409276,-9474.636058,-222.061783,1378.971896
861.409596,-8808.450710,-592.164754,153.219100
861.409917,-9326.594869,-814.226536,-306.438199
861.410238,-8586.388927,-1184.329507,-1455.581446
861.410558,-8660.409521,-962.267725,-1378.971896
861.410879,-9104.533087,0.000000,-306.438199
861.411200,-9400.615463,148.041188,1072.533697
861.411520,-9770.718434,-296.082377,2068.457845
861.411841,-10066.800811,-1258.350101,2298.286494
861.412162,-9844.739029,-1332.370696,1915.238745
861.412483,-10288.862594,-1480.411884,1838.629195
861.412803,-9474.636058,-592.164754,1762.019645
861.413124,-9400.615463,0.000000,1455.581446
861.413445,-8734.430116,-222.061783,536.266849
861.413765,-7994.224174,-740.205942,-1378.971896
861.414086,-8364.327145,-740.205942,-1378.971896
861.414407,-8882.471304,-222.061783,-153.219100
861.414727,-9474.636058,222.061783,919.314598
861.415048,-9918.759623,222.061783,2987.772442
861.415369,-10436.903782,-740.205942,2757.943793
861.415689,-10436.903782,-1480.411884,2911.162892
861.416010,-10584.944971,-1924.535449,2145.067394
861.416331,-9844.739029,-962.267725,1378.971896
861.416651,-9474.636058,-148.041188,689.485948
861.416972,-9030.512492,0.000000,229.828649
861.417293,-8808.450710,0.000000,-612.876398
861.417613,-9326.594869,-888.247130,-1302.362347
861.417934,-9474.636058,-518.144159,-306.438199
861.418255,-9548.656652,74.020594,536.266849
861.418575,-10436.903782,888.247130,2298.286494
861.418896,-10955.047942,666.185348,3600.648841
861.419217,-11103.089130,-296.082377,2834.553343
861.419537,-10732.986159,-888.247130,2451.505594
861.419858,-10436.903782,-666.185348,2374.896044
861.420179,-9992.780217,148.041188,1532.190996
861.420499,-9474.636058,296.082377,1225.752797
861.420820,-9030.512492,666.185348,-383.047749
861.421141,-8734.430116,296.082377,-1378.971896
861.421461,-8882.471304,222.061783,-766.095498
861.421782,-8734.430116,-666.185348,76.609550
861.422103,-9844.739029,0.000000,2374.896044
861.422423,-10881.027347,-888.247130,3370.820191
861.422744,-10584.944971,-1036.288319,3447.429741
861.423065,-10584.944971,-592.164754,2987.772442
861.423386,-10066.800811,0.000000,2451.505594
861.423707,-9252.574275,296.082377,1608.800546
861.424027,-8808.450710,0.000000,689.485948
861.424348,-8364.327145,-666.185348,-612.876398
861.424669,-7624.121203,-1480.411884,-1532.190996
861.424990,-8364.327145,-1036.288319,-1302.362347
861.425311,-8586.388927,-444.123565,-153.219100
861.425631,-9400.615463,222.061783,1532.190996
861.425952,-9622.677246,-370.102971,3370.820191
861.426273,-10140.821405,-666.185348,2834.553343
861.426594,-10436.903782,-962.267725,2298.286494
861.426914,-10214.842000,-666.185348,1991.848295
861.427235,-9918.759623,518.144159,2145.067394
861.427556,-9474.636058,740.205942,919.314598
861.427877,-8512.368333,444.123565,-306.438199
861.428198,-8808.450710,-592.164754,-1455.581446
861.428518,-8364.327145,-592.164754,-1378.971896
861.428839,-9622.677246,-1184.329507,-612.876398
861.429160,-9770.718434,-296.082377,1685.410096
861.429481,-10955.047942,0.000000,3064.381992
861.429802,-11325.150913,-296.082377,3370.820191
861.430122,-10732.986159,0.000000,2911.162892
861.430443,-10288.862594,-518.144159,1685.410096
861.430764,-9696.697840,-296.082377,842.705048
861.431085,-9252.574275,74.020594,0.000000
861.431406,-9178.553681,222.061783,-612.876398
861.431726,-8660.409521,0.000000,-1149.143247
861.432047,-9326.594869,-814.226536,-995.924147
861.432368,-9548.656652,-1184.329507,-229.828649
861.432689,-10066.800811,-1110.308913,766.095498
861.433009,-10658.965565,-666.185348,1455.581446
861.433330,-10584.944971,-518.144159,2834.553343
861.433651,-10658.965565,-888.247130,2757.943793
861.433972,-10436.903782,-1184.329507,1378.971896
861.434293,-9474.636058,-962.267725,689.485948
861.434613,-9400.615463,0.000000,842.705048
861.434934,-9030.512492,222.061783,689.485948
861.435255,-9326.594869,0.000000,229.828649
861.435576,-8660.409521,-296.082377,-459.657299
861.435897,-8586.388927,-740.205942,-842.705048
861.436217,-8734.430116,0.000000,0.000000
861.436538,-9622.677246,444.123565,1608.800546
861.436859,-10436.903782,0.000000,2528.115143
861.437180,-10066.800811,0.000000,2987.772442
861.437501,-10214.842000,-1850.514855,2068.457845
861.437821,-9252.574275,-444.123565,1302.362347
861.438142,-10140.821405,-814.226536,1532.190996
861.438463,-9474.636058,-518.144159,1838.629195
861.438784,-8808.450710,-222.061783,459.657299
861.439104,-8364.327145,-1036.288319,-766.095498
861.439425,-8512.368333,-1184.329507,-612.876398
861.439746,-9104.533087,-962.267725,1532.190996
861.440067,-9474.636058,148.041188,1838.629195
861.440388,-10288.862594,296.082377,2604.724693
861.440708,-10510.924376,518.144159,2911.162892
861.441029,-10732.986159,-222.061783,2451.505594
861.441350,-10807.006753,0.000000,1915.238745
861.441671,-9992.780217,0.000000,1685.410096
861.441992,-9622.677246,148.041188,1455.581446
861.442312,-9178.553681,296.082377,0.000000
861.442633,-8660.409521,0.000000,-842.705048
861.442954,-8956.491898,148.041188,-1225.752797
861.443275,-9104.533087,296.082377,-459.657299
861.443596,-9992.780217,1332.370696,1149.143247
861.443916,-10658.965565,518.144159,2604.724693
861.444237,-10732.986159,-814.226536,3447.429741
861.444558,-10732.986159,-1998.556043,3217.601092
861.444879,-10584.944971,-2146.597232,2145.067394
861.445199,-9770.718434,-1184.329507,1991.848295
861.445520,-9696.697840,222.061783,1302.362347
861.445841,-8512.368333,962.267725,919.314598
861.446162,-8734.430116,444.123565,0.000000
861.446483,-8586.388927,-296.082377,-1149.143247
861.446803,-7624.121203,-1776.494261,0.000000
861.447124,-9474.636058,-666.185348,153.219100
861.447445,-9548.656652,0.000000,2298.286494
861.447766,-10140.821405,-148.041188,3217.601092
861.448087,-10510.924376,-518.144159,3600.648841
861.448407,-10436.903782,-1332.370696,2911.162892
861.448728,-10214.842000,-1258.350101,1838.629195
861.449049,-9696.697840,-592.164754,1455.581446
861.449370,-9030.512492,148.041188,383.047749
861.449690,-8734.430116,370.102971,0.000000
861.450011,-7846.182985,222.061783,-1455.581446
861.450332,-8512.368333,-518.144159,-1991.848295
861.450653,-8586.388927,-740.205942,-842.705048
861.450974,-8882.471304,-518.144159,919.314598
861.451294,-10510.924376,-740.205942,2451.505594
861.451615,-10584.944971,-444.123565,2757.943793
861.451936,-11177.109724,-888.247130,2757.943793
861.452257,-10955.047942,-666.185348,2757.943793
861.452578,-10436.903782,148.041188,1991.848295
861.452898,-9844.739029,0.000000,1378.971896
861.453219,-9178.553681,-74.020594,383.047749
861.453540,-8734.430116,-888.247130,-995.924147
861.453861,-9104.533087,-592.164754,-1072.533697
861.454182,-8956.491898,-592.164754,-306.438199
861.454502,-9400.615463,0.000000,536.266849
861.454823,-10214.842000,592.164754,2298.286494
861.455144,-11029.068536,-222.061783,2834.553343
861.455465,-10658.965565,-666.185348,2911.162892
861.455785,-11029.068536,-740.205942,2681.334243
861.456106,-10362.883188,-74.020594,1991.848295
861.456427,-10140.821405,370.102971,2145.067394
861.456748,-9696.697840,296.082377,1302.362347
861.457069,-8734.430116,-740.205942,-383.047749
861.457389,-8808.450710,-1184.329507,-1149.143247
861.457710,-8660.409521,-888.247130,-1149.143247
861.458031,-8364.327145,-518.144159,306.438199
861.458352,-9918.759623,222.061783,1838.629195
861.458673,-10436.903782,0.000000,2911.162892
861.458993,-10436.903782,-592.164754,2911.162892
861.459314,-10362.883188,-592.164754,3064.381992
861.459635,-10436.903782,-444.123565,1915.238745
861.459956,-9696.697840,0.000000,1685.410096
861.460277,-9326.594869,370.102971,1302.362347
861.460597,-8586.388927,-222.061783,0.000000
861.460918,-8216.285956,-740.205942,-1225.752797
861.461239,-8364.327145,-1332.370696,-1378.971896
861.461560,-8586.388927,-1110.308913,-612.876398
861.461880,-9178.553681,-592.164754,689.485948
861.462201,-9770.718434,518.144159,2451.505594
861.462522,-9918.759623,0.000000,2757.943793
861.462843,-10362.883188,-592.164754,2451.505594
861.463164,-10510.924376,-962.267725,2298.286494
861.463484,-9622.677246,-370.102971,2374.896044
861.463805,-9474.636058,0.000000,1302.362347
861.464126,-8956.491898,-148.041188,459.657299
861.464447,-8660.409521,-370.102971,-383.047749
861.464768,-9030.512492,-666.185348,-612.876398
861.465088,-8808.450710,-740.205942,-612.876398
861.465409,-9252.574275,-518.144159,536.266849
861.465730,-9992.780217,-888.247130,1685.410096
861.466051,-10436.903782,-740.205942,2681.334243
861.466372,-10658.965565,-888.247130,2068.457845
861.466692,-10584.944971,-740.205942,1838.629195
861.467013,-9918.759623,-148.041188,919.314598
861.467334,-9696.697840,222.061783,689.485948
861.467655,-8956.491898,-518.144159,-306.438199
861.467975,-9474.636058,-370.102971,-383.047749
861.468296,-8808.450710,-518.144159,-1149.143247
861.468617,-9400.615463,-740.205942,-919.314598
861.468938,-9474.636058,0.000000,536.266849
861.469259,-10140.821405,296.082377,2298.286494
861.469579,-10362.883188,296.082377,3140.991542
861.469900,-10510.924376,0.000000,2757.943793
861.470221,-10510.924376,-666.185348,2145.067394
861.470542,-10436.903782,0.000000,1991.848295
861.470863,-10066.800811,222.061783,1915.238745
861.471183,-9400.615463,962.267725,1991.848295
861.471504,-8956.491898,74.020594,153.219100
861.471825,-7698.141797,-222.061783,-1378.971896
861.472146,-8660.409521,-814.226536,-1762.019645
861.472467,-8660.409521,-518.144159,-306.438199
861.472787,-9400.615463,-296.082377,1532.190996
861.473108,-10288.862594,-518.144159,2987.772442
861.473429,-10584.944971,-1332.370696,3140.991542
861.473750,-10658.965565,-1924.535449,2681.334243
861.474070,-10288.862594,-1332.370696,2528.115143
861.474391,-9548.656652,-296.082377,1685.410096
861.474712,-9548.656652,0.000000,919.314598
861.475033,-8660.409521,148.041188,229.828649
861.475354,-8586.388927,-296.082377,-842.705048
861.475674,-8142.265362,-148.041188,-1225.752797
861.475995,-8364.327145,0.000000,-995.924147
861.476316,-8734.430116,-148.041188,153.219100
861.476637,-9548.656652,-296.082377,1532.190996
861.476958,-9474.636058,-592.164754,2451.505594
861.477278,-9770.718434,-370.102971,2528.115143
861.477599,-11029.068536,-518.144159,2681.334243
861.477920,-10362.883188,444.123565,2451.505594
861.478241,-10658.965565,1036.288319,3217.601092
861.478562,-10288.862594,0.000000,1532.190996
861.478882,-9548.656652,1110.308913,612.876398
861.479203,-9548.656652,74.020594,0.000000
861.479524,-8586.388927,296.082377,-612.876398
861.479845,-9400.615463,814.226536,229.828649
861.480165,-8586.388927,1110.308913,1225.752797
861.480486,-9918.759623,148.041188,1915.238745
861.480807,-10658.965565,-444.123565,2145.067394
861.481128,-10214.842000,-666.185348,2068.457845
861.481449,-10436.903782,-962.267725,766.095498
861.481769,-9918.759623,296.082377,995.924147
861.482090,-9622.677246,444.123565,919.314598
861.482411,-9178.553681,-296.082377,-306.438199
861.482732,-9030.512492,-1258.350101,-995.924147
861.483053,-9178.553681,-1406.391290,-1532.190996
861.483373,-9178.553681,-444.123565,-153.219100
861.483694,-9770.718434,0.000000,1072.533697
861.484015,-10362.883188,296.082377,2604.724693
861.484336,-10362.883188,-814.226536,1685.410096
861.484657,-10288.862594,-1480.411884,2604.724693
861.484977,-10362.883188,-1702.473667,2298.286494
861.485298,-9622.677246,-740.205942,2221.676944
861.485619,-9696.697840,-222.061783,1915.238745
861.485940,-8882.471304,0.000000,842.705048
861.486260,-8364.327145,-222.061783,-459.657299
861.486581,-8142.265362,-444.123565,-1072.533697
861.486902,-8660.409521,-518.144159,-306.438199
861.487223,-9474.636058,-592.164754,766.095498
861.487544,-10214.842000,-370.102971,2834.553343
861.487864,-10362.883188,-962.267725,3217.601092
861.488185,-10658.965565,-1776.494261,2145.067394
861.488506,-10288.862594,-1332.370696,1762.019645
861.488827,-9548.656652,-814.226536,1455.581446
861.489148,-9474.636058,0.000000,1378.971896
861.489468,-8882.471304,0.000000,612.876398
861.489789,-8660.409521,-814.226536,-383.047749
861.490110,-8734.430116,-1258.350101,-766.095498
861.490431,-8882.471304,-1406.391290,-612.876398
861.490751,-9030.512492,-888.247130,842.705048
861.491072,-9918.759623,-74.020594,1991.848295
861.491393,-10436.903782,740.205942,3830.477490
861.491714,-11103.089130,0.000000,2911.162892
861.492035,-10362.883188,-592.164754,2145.067394
861.492355,-10214.842000,0.000000,1608.800546
861.492676,-9622.677246,-666.185348,1149.143247
861.492997,-9622.677246,222.061783,1149.143247
861.493318,-9104.533087,-222.061783,76.609550
861.493639,-9178.553681,-370.102971,-1302.362347
861.493959,-9104.533087,-74.020594,-1302.362347
861.494280,-9474.636058,592.164754,689.485948
861.494601,-10214.842000,666.185348,2221.676944
861.494922,-10584.944971,518.144159,2834.553343
861.495243,-10807.006753,-222.061783,2757.943793
861.495563,-10658.965565,-814.226536,2221.676944
861.495884,-10214.842000,-962.267725,1225.752797
861.496205,-9622.677246,-296.082377,1378.971896
861.496526,-8956.491898,74.020594,995.924147
861.496846,-8512.368333,0.000000,-919.314598
861.497167,-8512.368333,-370.102971,-995.924147
861.497488,-8660.409521,-1110.308913,-1225.752797
861.497809,-9104.533087,-1036.288319,-536.266849
861.498130,-9326.594869,-296.082377,842.705048
861.498450,-9918.759623,0.000000,1915.238745
861.498771,-9918.759623,-444.123565,2451.505594
861.499092,-10214.842000,-740.205942,2451.505594
861.499413,-9992.780217,-666.185348,2145.067394
861.499734,-9844.739029,0.000000,1532.190996
861.500054,-9474.636058,296.082377,1455.581446
861.500375,-8512.368333,962.267725,1149.143247
861.500696,-9474.636058,-1184.329507,-1072.533697
861.501017,-6957.935855,962.267725,-1149.143247
861.501338,-9696.697840,-740.205942,-1149.143247
861.501658,-8956.491898,814.226536,1378.971896
861.501979,-9844.739029,-740.205942,1762.019645
861.502300,-11251.130318,-592.164754,3907.087040
861.502621,-10732.986159,-1406.391290,2068.457845
861.502941,-10510.924376,-296.082377,1608.800546
861.503262,-10881.027347,296.082377,2757.943793
861.503583,-8956.491898,592.164754,1072.533697
861.503904,-9770.718434,0.000000,1608.800546
861.504225,-8882.471304,-814.226536,-459.657299
861.504545,-8364.327145,-1702.473667,-2298.286494
861.504866,-9622.677246,-1628.453072,-995.924147
861.505187,-9548.656652,-962.267725,-229.828649
861.505508,-9548.656652,0.000000,1838.629195
861.505829,-11103.089130,0.000000,2757.943793
861.506149,-10066.800811,-518.144159,2528.115143
861.506470,-10584.944971,-1332.370696,2681.334243
861.506791,-10658.965565,-1480.411884,2451.505594
861.507112,-9548.656652,-592.164754,1685.410096
861.507433,-9400.615463,-296.082377,766.095498
861.507753,-8808.450710,-148.041188,0.000000
861.508074,-8586.388927,-296.082377,-383.047749
861.508395,-8808.450710,-222.061783,-842.705048
861.508716,-9548.656652,518.144159,459.657299
861.509036,-9696.697840,518.144159,2145.067394
861.509357,-10288.862594,0.000000,2298.286494
861.509678,-11029.068536,-222.061783,3983.696590
861.509999,-10288.862594,-962.267725,2911.162892
861.510320,-9918.759623,-962.267725,2068.457845
861.510640,-9030.512492,74.020594,995.924147
861.510961,-8290.306550,0.000000,766.095498
861.511282,-8586.388927,0.000000,0.000000
861.511603,-8660.409521,-666.185348,-689.485948
861.511924,-8586.388927,-666.185348,-1455.581446
861.512244,-9548.656652,-444.123565,-612.876398
861.512565,-9400.615463,-444.123565,229.828649
861.512886,-9622.677246,74.020594,1455.581446
861.513207,-10288.862594,-1480.411884,2145.067394
861.513528,-9548.656652,666.185348,2145.067394
861.513848,-10732.986159,-666.185348,1838.629195
861.514169,-9992.780217,0.000000,1072.533697
861.514490,-9918.759623,1628.453072,1685.410096
861.514811,-9474.636058,1184.329507,1685.410096
861.515131,-8882.471304,592.164754,-459.657299
861.515452,-8660.409521,74.020594,-1532.190996
861.515773,-9178.553681,-222.061783,-612.876398
861.516094,-9326.594869,0.000000,383.047749
861.516415,-10436.903782,740.205942,1762.019645
861.516735,-10362.883188,222.061783,2451.505594
861.517056,-11029.068536,74.020594,2757.943793
861.517377,-10362.883188,-296.082377,2528.115143
861.517698,-9622.677246,0.000000,2451.505594
861.518019,-9548.656652,444.123565,1072.533697
861.518339,-9474.636058,0.000000,612.876398
861.518660,-8660.409521,-444.123565,76.609550
861.518981,-9030.512492,-1258.350101,-995.924147
861.519302,-8956.491898,-1480.411884,-459.657299
861.519623,-9030.512492,-1036.288319,383.047749
861.519943,-9548.656652,-222.061783,1838.629195
861.520264,-9844.739029,0.000000,3064.381992
861.520585,-10584.944971,-740.205942,3064.381992
861.520906,-10066.800811,-962.267725,2834.553343
861.521226,-10066.800811,-814.226536,2068.457845
861.521547,-9696.697840,0.000000,1915.238745
861.521868,-8956.491898,-888.247130,1225.752797
861.522189,-8808.450710,0.000000,689.485948
861.522510,-8734.430116,-222.061783,-459.657299
861.522830,-9030.512492,-814.226536,-995.924147
861.523151,-8956.491898,296.082377,459.657299
861.523472,-9918.759623,-370.102971,1685.410096
861.523793,-10362.883188,-148.041188,3064.381992
861.524113,-10436.903782,-666.185348,2911.162892
861.524434,-10510.924376,-1776.494261,2451.505594
861.524755,-10066.800811,-962.267725,1225.752797
861.525076,-9992.780217,-666.185348,1608.800546
861.525396,-9326.594869,-148.041188,842.705048
861.525717,-9030.512492,444.123565,229.828649
861.526038,-7846.182985,-518.144159,-995.924147
861.526359,-9104.533087,-962.267725,-1225.752797
861.526679,-9326.594869,-1036.288319,-995.924147
861.527000,-9474.636058,-222.061783,0.000000
861.527321,-10362.883188,148.041188,1378.971896
861.527642,-10510.924376,222.061783,2681.334243
861.527962,-10362.883188,-444.123565,2757.943793
861.528283,-10732.986159,-740.205942,2528.115143
861.528604,-10066.800811,-370.102971,1762.019645
861.528925,-9844.739029,666.185348,1455.581446
861.529245,-9252.574275,222.061783,536.266849
861.529566,-8586.388927,0.000000,-766.095498
861.529887,-8512.368333,-592.164754,-1915.238745
861.530208,-8216.285956,-148.041188,-1838.629195
861.530528,-9030.512492,0.000000,-536.266849
861.530849,-9474.636058,148.041188,919.314598
861.531170,-10140.821405,0.000000,2374.896044
861.531490,-10510.924376,-592.164754,2911.162892
861.531811,-10732.986159,-518.144159,2757.943793
861.532132,-10288.862594,-1110.308913,2068.457845
861.532453,-9400.615463,-518.144159,1225.752797
861.532773,-9326.594869,148.041188,1608.800546
861.533094,-8956.491898,-666.185348,229.828649
861.533415,-8734.430116,-740.205942,-383.047749
861.533736,-9178.553681,-1628.453072,-612.876398
861.534056,-8956.491898,-888.247130,-229.828649
861.534377,-9474.636058,-518.144159,1225.752797
861.534698,-9992.780217,0.000000,2911.162892
861.535019,-10066.800811,-518.144159,3370.820191
861.535339,-9770.718434,-814.226536,2911.162892
861.535660,-10732.986159,-1554.432478,2451.505594
861.535981,-9622.677246,-1036.288319,2145.067394
861.536302,-9696.697840,296.082377,1991.848295
861.536622,-9622.677246,518.144159,1838.629195
861.536943,-8660.409521,518.144159,0.000000
861.537264,-8882.471304,-666.185348,-1608.800546
861.537585,-9400.615463,-962.267725,0.000000
861.537905,-8882.471304,-296.082377,1072.533697
861.538226,-10732.986159,-740.205942,2374.896044
861.538547,-10362.883188,-444.123565,3370.820191
861.538868,-10510.924376,-1406.391290,2374.896044
861.539188,-10658.965565,-1406.391290,2221.676944
861.539509,-9622.677246,0.000000,1302.362347
861.539830,-9992.780217,296.082377,919.314598
861.540151,-10066.800811,888.247130,919.314598
861.540471,-9030.512492,0.000000,-919.314598
861.540792,-9030.512492,-666.185348,-1532.190996
861.541113,-9326.594869,-518.144159,-1225.752797
861.541434,-9178.553681,0.000000,919.314598
861.541754,-10214.842000,296.082377,1302.362347
861.542075,-10362.883188,444.123565,2528.115143
861.542396,-10658.965565,-222.061783,2145.067394
861.542717,-10214.842000,-740.205942,1532.190996
861.543037,-10584.944971,-370.102971,1532.190996
861.543358,-9622.677246,740.205942,1302.362347
861.543679,-9474.636058,814.226536,536.266849
861.544000,-8586.388927,666.185348,-306.438199
861.544320,-8068.244768,-370.102971,-1302.362347
861.544641,-8956.491898,-888.247130,-1532.190996
861.544962,-9104.533087,-740.205942,-229.828649
861.545283,-9474.636058,-518.144159,1378.971896
861.545603,-10362.883188,-222.061783,2681.334243
861.545924,-10362.883188,-148.041188,3294.210641
861.546245,-10584.944971,-666.185348,2911.162892
861.546566,-10066.800811,-814.226536,2451.505594
861.546886,-9474.636058,-518.144159,1149.143247
861.547207,-9326.594869,74.020594,1225.752797
861.547528,-8734.430116,-592.164754,-229.828649
861.547849,-8290.306550,-740.205942,-842.705048
861.548169,-8808.450710,-444.123565,-1378.971896
861.548490,-8882.471304,148.041188,-1378.971896
861.548811,-8882.471304,666.185348,995.924147
861.549132,-10140.821405,-444.123565,2068.457845
861.549452,-9474.636058,-222.061783,3140.991542
861.549773,-10732.986159,-1406.391290,3370.820191
861.550094,-10288.862594,-1036.288319,2451.505594
861.550415,-9992.780217,-370.102971,2451.505594
861.550735,-9622.677246,370.102971,1991.848295
861.551056,-8956.491898,962.267725,1455.581446
861.551377,-8882.471304,296.082377,-306.438199
861.551698,-8586.388927,148.041188,-536.266849
861.552018,-9548.656652,-444.123565,-153.219100
861.552339,-9178.553681,-222.061783,919.314598
861.552660,-9992.780217,148.041188,1302.362347
861.552981,-10362.883188,0.000000,3753.867940
861.553301,-10807.006753,-592.164754,3447.429741
861.553622,-10362.883188,-666.185348,2757.943793
861.553943,-10066.800811,-296.082377,1225.752797
861.554264,-9178.553681,148.041188,1302.362347
861.554584,-9326.594869,296.082377,459.657299
861.554905,-8660.409521,148.041188,-459.657299
861.555226,-9178.553681,-740.205942,-1225.752797
861.555547,-8216.285956,-1110.308913,-1302.362347
861.555867,-9400.615463,-814.226536,-919.314598
861.556188,-9548.656652,-222.061783,1072.533697
861.556509,-10214.842000,0.000000,2374.896044
861.556830,-9992.780217,-296.082377,3140.991542
861.557150,-10362.883188,-888.247130,2451.505594
861.557471,-10066.800811,-1258.350101,1838.629195
861.557792,-9844.739029,-296.082377,1915.238745
861.558113,-10066.800811,0.000000,1991.848295
861.558433,-9252.574275,74.020594,1225.752797
861.558754,-9030.512492,-592.164754,0.000000
861.559075,-8882.471304,-1036.288319,-612.876398
861.559396,-8882.471304,-592.164754,-689.485948
861.559716,-8956.491898,-148.041188,0.000000
861.560037,-10214.842000,370.102971,1991.848295
861.560358,-10140.821405,74.020594,2528.115143
861.560679,-10510.924376,-888.247130,2068.457845
861.560999,-10362.883188,-444.123565,612.876398
861.561320,-9548.656652,-814.226536,766.095498
861.561641,-9326.594869,-592.164754,689.485948
861.561962,-8956.491898,-370.102971,0.000000
861.562282,-8660.409521,-814.226536,-919.314598
861.562603,-8808.450710,-814.226536,-1302.362347
861.562924,-9030.512492,-370.102971,-1149.143247
861.563245,-9326.594869,222.061783,229.828649
861.563565,-10288.862594,592.164754,2068.457845
861.563886,-10807.006753,666.185348,2451.505594
861.564207,-10436.903782,-888.247130,2757.943793
861.564528,-10510.924376,-1184.329507,2604.724693
861.564848,-10214.842000,-814.226536,1991.848295
861.565169,-9696.697840,-74.020594,-153.219100
861.565490,-9326.594869,592.164754,1225.752797
861.565811,-8734.430116,444.123565,153.219100
861.566131,-8882.471304,-148.041188,-612.876398
861.566452,-8734.430116,-222.061783,-842.705048
861.566773,-9104.533087,222.061783,536.266849
861.567094,-9992.780217,148.041188,2221.676944
861.567414,-10732.986159,0.000000,3294.210641
861.567735,-10881.027347,-1110.308913,3830.477490
861.568056,-10214.842000,-814.226536,4290.134789
861.568377,-10288.862594,-1110.308913,2451.505594
861.568697,-9770.718434,-296.082377,1991.848295
861.569018,-9474.636058,444.123565,1378.971896
861.569339,-8882.471304,444.123565,689.485948
861.569660,-8660.409521,-222.061783,-766.095498
861.569980,-8586.388927,0.000000,-995.924147
861.570301,-9178.553681,-222.061783,-229.828649
861.570622,-9326.594869,0.000000,1225.752797
861.570943,-9992.780217,-148.041188,2681.334243
861.571263,-10140.821405,-740.205942,2451.505594
861.571584,-10140.821405,-1110.308913,1991.848295
861.571905,-10362.883188,-962.267725,2145.067394
861.572226,-9770.718434,-518.144159,1225.752797
861.572546,-9178.553681,74.020594,1072.533697
861.572867,-8734.430116,296.082377,306.438199
861.573188,-8734.430116,-222.061783,-612.876398
861.573509,-8364.327145,-1702.473667,-2604.724693
861.573829,-8956.491898,-1702.473667,-689.485948
861.574150,-8734.430116,-740.205942,459.657299
861.574471,-10066.800811,-370.102971,2145.067394
861.574792,-10584.944971,-518.144159,2987.772442
861.575112,-10584.944971,-962.267725,2451.505594
861.575433,-10436.903782,-1258.350101,1838.629195
861.575754,-10066.800811,-740.205942,689.485948
861.576075,-9474.636058,-666.185348,306.438199
861.576395,-9104.533087,-222.061783,-459.657299
861.576716,-9030.512492,-370.102971,-459.657299
861.577037,-9474.636058,-592.164754,-842.705048
861.577358,-9326.594869,-1036.288319,-919.314598
861.577678,-9696.697840,-1036.288319,0.000000
861.577999,-10288.862594,-370.102971,1072.533697
861.578320,-10955.047942,-296.082377,2298.286494
861.578641,-10807.006753,-1036.288319,2451.505594
861.578961,-10436.903782,-1406.391290,1915.238745
861.579282,-10362.883188,-1110.308913,1455.581446
861.579603,-9252.574275,-666.185348,766.095498
861.579924,-9326.594869,0.000000,536.266849
861.580244,-9030.512492,0.000000,-306.438199
861.580565,-7846.182985,-592.164754,-1532.190996
861.580886,-8882.471304,-740.205942,-995.924147
861.581207,-8734.430116,0.000000,306.438199
861.581527,-9770.718434,0.000000,1838.629195
861.581848,-10436.903782,-222.061783,4060.306139
861.582169,-10140.821405,-888.247130,4136.915689
861.582490,-10584.944971,-1406.391290,3524.039291
861.582810,-10214.842000,-1258.350101,2681.334243
861.583131,-9400.615463,-888.247130,2068.457845
861.583452,-8956.491898,-518.144159,1532.190996
861.583773,-8438.347739,-444.123565,229.828649
861.584093,-8586.388927,-740.205942,-229.828649
861.584414,-8586.388927,-1110.308913,-612.876398
861.584735,-9178.553681,-296.082377,153.219100
861.585056,-9548.656652,962.267725,1455.581446
861.585376,-10436.903782,1184.329507,2681.334243
861.585697,-10214.842000,1036.288319,3677.258390
861.586018,-10436.903782,962.267725,3217.601092
861.586339,-10066.800811,-1110.308913,2451.505594
861.586659,-9474.636058,-370.102971,1455.581446
861.586980,-9548.656652,-222.061783,1455.581446
861.587301,-9030.512492,1036.288319,689.485948
861.587622,-8512.368333,1184.329507,-229.828649
861.587942,-8734.430116,1036.288319,-612.876398
861.588263,-9030.512492,592.164754,-612.876398
861.588584,-9844.739029,296.082377,536.266849
861.588905,-10140.821405,-148.041188,1915.238745
861.589225,-10732.986159,-370.102971,2834.553343
861.589546,-10658.965565,-962.267725,2757.943793
861.589867,-10214.842000,-1480.411884,2221.676944
861.590188,-9918.759623,-444.123565,-229.828649
861.590508,-9252.574275,518.144159,459.657299
861.590829,-9474.636058,1036.288319,0.000000
861.591150,-8882.471304,888.247130,-766.095498
861.591471,-8882.471304,-148.041188,-1378.971896
861.591791,-8882.471304,-1628.453072,-1072.533697
861.592112,-9400.615463,-1332.370696,0.000000
861.592433,-9844.739029,-1332.370696,919.314598
861.592754,-10362.883188,-740.205942,2604.724693
861.593074,-10288.862594,-1036.288319,3064.381992
861.593395,-10584.944971,-740.205942,2374.896044
861.593716,-10066.800811,0.000000,1149.143247
861.594037,-9474.636058,666.185348,689.485948
861.594357,-9326.594869,1110.308913,766.095498
861.594678,-8882.471304,1554.432478,229.828649
861.594999,-8808.450710,-222.061783,-229.828649
861.595320,-8438.347739,-1110.308913,-766.095498
861.595640,-8586.388927,-1332.370696,-536.266849
861.595961,-9474.636058,-962.267725,1072.533697
861.596282,-9992.780217,148.041188,3064.381992
861.596603,-10807.006753,-518.144159,3830.477490
861.596923,-10214.842000,-444.123565,2987.772442
861.597244,-10362.883188,-518.144159,4290.134789
861.597565,-9844.739029,-592.164754,1762.019645
861.597886,-9104.533087,0.000000,1378.971896
861.598206,-8882.471304,-370.102971,459.657299
861.598527,-8586.388927,-814.226536,-229.828649
861.598848,-8512.368333,-1480.411884,-766.095498
861.599169,-9326.594869,-1702.473667,-536.266849
861.599489,-9252.574275,-592.164754,842.705048
861.599810,-10510.924376,-666.185348,2374.896044
861.600131,-10510.924376,-222.061783,3217.601092
861.600452,-10807.006753,-1036.288319,3294.210641
861.600772,-10362.883188,-1332.370696,2145.067394
861.601093,-10066.800811,-962.267725,1225.752797
861.601414,-10288.862594,1258.350101,2451.505594
861.601735,-9474.636058,222.061783,1072.533697
861.602055,-8586.388927,518.144159,153.219100
861.602376,-9030.512492,-296.082377,-842.705048
861.602697,-8956.491898,-518.144159,-536.266849
861.603017,-9326.594869,-370.102971,766.095498
861.603338,-9844.739029,-222.061783,2068.457845
861.603659,-10362.883188,-518.144159,2757.943793
861.603980,-10658.965565,-444.123565,2987.772442
861.604300,-10066.800811,-1184.329507,1991.848295
861.604621,-10066.800811,148.041188,1685.410096
861.604942,-9992.780217,888.247130,1302.362347
861.605263,-9474.636058,888.247130,689.485948
861.605583,-8956.491898,296.082377,-995.924147
861.605904,-8512.368333,-1036.288319,-1532.190996
861.606225,-8882.471304,-962.267725,-1915.238745
861.606546,-9030.512492,-1036.288319,-1378.971896
861.606866,-9400.615463,-148.041188,306.438199
861.607187,-9918.759623,222.061783,1991.848295
861.607508,-10510.924376,-222.061783,2451.505594
861.607829,-10362.883188,-1258.350101,2681.334243
861.608149,-10214.842000,-1776.494261,2068.457845
861.608470,-9918.759623,-666.185348,1838.629195
861.608791,-9622.677246,-148.041188,1608.800546
861.609112,-9178.553681,0.000000,842.705048
861.609432,-8660.409521,-814.226536,-306.438199
861.609753,-8068.244768,-1776.494261,-2221.676944
861.610074,-8586.388927,-1480.411884,-1608.800546
861.610395,-9326.594869,-740.205942,0.000000
861.610715,-9918.759623,0.000000,1762.019645
861.611036,-10436.903782,0.000000,2528.115143
861.611357,-10362.883188,-444.123565,2374.896044
861.611678,-10362.883188,-1036.288319,1838.629195
861.611998,-10288.862594,-444.123565,1762.019645
861.612319,-9696.697840,222.061783,1838.629195
861.612640,-9548.656652,-222.061783,1378.971896
861.612961,-9474.636058,0.000000,842.705048
861.613281,-9474.636058,-148.041188,0.000000
861.613602,-9770.718434,0.000000,536.266849
861.613923,-9548.656652,518.144159,0.000000
861.614244,-10436.903782,814.226536,2298.286494
861.614564,-10214.842000,888.247130,3524.039291
861.614885,-10510.924376,148.041188,2681.334243
861.615206,-10584.944971,-222.061783,2451.505594
861.615527,-9844.739029,-148.041188,1838.629195
861.615847,-9548.656652,370.102971,1072.533697
861.616168,-9104.533087,518.144159,536.266849
861.616489,-8660.409521,148.041188,-612.876398
861.616810,-9326.594869,0.000000,-1378.971896
861.617130,-8882.471304,-1258.350101,-1072.533697
861.617451,-9326.594869,-1480.411884,-383.047749
861.617772,-10066.800811,-1110.308913,1149.143247
861.618093,-10658.965565,-740.205942,1762.019645
861.618413,-10955.047942,-888.247130,3064.381992
861.618734,-10288.862594,-1110.308913,2374.896044
861.619055,-9918.759623,-1110.308913,1455.581446
861.619376,-9178.553681,0.000000,842.705048
861.619696,-9326.594869,74.020594,76.609550
861.620017,-8364.327145,518.144159,-459.657299
861.620338,-8290.306550,-444.123565,-1532.190996
861.620659,-8142.265362,-666.185348,-1378.971896
861.620979,-8734.430116,-518.144159,0.000000
861.621300,-9326.594869,74.020594,995.924147
861.621621,-9918.759623,296.082377,2451.505594
861.621942,-9918.759623,296.082377,3217.601092
861.622262,-10140.821405,-962.267725,1149.143247
861.622583,-9992.780217,-296.082377,2451.505594
861.622904,-9918.759623,888.247130,1762.019645
861.623225,-8956.491898,1924.535449,1302.362347
861.623545,-9622.677246,740.205942,766.095498
861.623866,-8068.244768,148.041188,-459.657299
861.624187,-9104.533087,-740.205942,-1225.752797
861.624508,-8956.491898,-666.185348,-842.705048
861.624828,-9400.615463,-370.102971,766.095498
861.625149,-10214.842000,296.082377,1838.629195
861.625470,-10807.006753,148.041188,3370.820191
861.625791,-10881.027347,-222.061783,3294.210641
861.626112,-10436.903782,-962.267725,2298.286494
861.626432,-10584.944971,-1184.329507,3600.648841
861.626753,-9474.636058,-370.102971,1149.143247
861.627074,-9474.636058,0.000000,995.924147
861.627395,-9030.512492,-592.164754,76.609550
861.627715,-9252.574275,-1184.329507,-536.266849
861.628036,-9252.574275,-1702.473667,-766.095498
861.628357,-9770.718434,-1258.350101,306.438199
861.628678,-10066.800811,-222.061783,1991.848295
861.628999,-10658.965565,370.102971,3140.991542
861.629319,-9326.594869,740.205942,2451.505594
861.629640,-10807.006753,0.000000,2987.772442
861.629961,-10140.821405,-518.144159,2528.115143
861.630282,-9548.656652,-518.144159,1762.019645
861.630602,-9252.574275,-444.123565,766.095498
861.630923,-8734.430116,-296.082377,0.000000
861.631244,-8216.285956,0.000000,-995.924147
861.631565,-8882.471304,0.000000,-919.314598
861.631886,-8808.450710,0.000000,-459.657299
861.632206,-9474.636058,0.000000,536.266849
861.632527,-9918.759623,0.000000,2451.505594
861.632848,-10658.965565,-814.226536,2681.334243
861.633169,-10584.944971,-1628.453072,2451.505594
861.633489,-9918.759623,-2368.659014,1072.533697
861.633810,-9474.636058,-1406.391290,689.485948
861.634131,-8956.491898,-592.164754,306.438199
861.634452,-8734.430116,0.000000,-459.657299
861.634772,-8586.388927,0.000000,-689.485948
861.635093,-8586.388927,-370.102971,-1378.971896
861.635414,-9030.512492,-592.164754,-842.705048
861.635735,-9622.677246,-888.247130,-153.219100
861.636056,-10066.800811,-444.123565,1608.800546
861.636376,-10214.842000,-814.226536,2221.676944
861.636697,-10362.883188,-1184.329507,2604.724693
861.637018,-9844.739029,-296.082377,2068.457845
861.637339,-10510.924376,0.000000,1838.629195
861.637659,-9474.636058,1110.308913,1378.971896
861.637980,-9474.636058,1480.411884,1072.533697
861.638301,-9178.553681,296.082377,0.000000
861.638622,-8882.471304,-518.144159,-995.924147
861.638943,-9474.636058,-1332.370696,-612.876398
861.639263,-9030.512492,0.000000,-1072.533697
861.639584,-10584.944971,444.123565,2068.457845
861.639905,-11029.068536,740.205942,3677.258390
861.640226,-11325.150913,74.020594,3447.429741
861.640546,-10436.903782,74.020594,2374.896044
861.640867,-10140.821405,74.020594,1608.800546
861.641188,-9474.636058,222.061783,1225.752797
861.641509,-9178.553681,148.041188,612.876398
861.641830,-8586.388927,-518.144159,306.438199
861.642150,-8216.285956,-1184.329507,-1225.752797
861.642471,-8660.409521,-1406.391290,-612.876398
861.642792,-9252.574275,-1406.391290,0.000000
861.643113,-9030.512492,-222.061783,1455.581446
861.643433,-9992.780217,222.061783,2604.724693
861.643754,-10584.944971,148.041188,3370.820191
861.644075,-9992.780217,-814.226536,3140.991542
861.644396,-9548.656652,-1480.411884,1991.848295
861.644717,-9474.636058,-1036.288319,1608.800546
861.645037,-10436.903782,148.041188,1455.581446
861.645358,-9030.512492,-222.061783,919.314598
861.645679,-8364.327145,-814.226536,0.000000
861.646000,-8290.306550,-1036.288319,-1149.143247
861.646320,-8956.491898,-666.185348,-919.314598
861.646641,-9548.656652,-592.164754,689.485948
861.646962,-9844.739029,-296.082377,2145.067394
861.647283,-10214.842000,-666.185348,2681.334243
861.647603,-10436.903782,-370.102971,2757.943793
861.647924,-10510.924376,-740.205942,2298.286494
861.648245,-10288.862594,-148.041188,1762.019645
861.648566,-9844.739029,0.000000,766.095498
861.648887,-9252.574275,74.020594,0.000000
861.649207,-9104.533087,-222.061783,-919.314598
861.649528,-9252.574275,-518.144159,-1149.143247
861.649849,-9400.615463,-1036.288319,-995.924147
861.650170,-9400.615463,-740.205942,-919.314598
861.650490,-9992.780217,74.020594,766.095498
861.650811,-11029.068536,222.061783,2451.505594
861.651132,-10881.027347,370.102971,2987.772442
861.651453,-11399.171507,-222.061783,2528.115143
861.651774,-10362.883188,-296.082377,1838.629195
861.652094,-10510.924376,-518.144159,1072.533697
861.652415,-9918.759623,148.041188,1225.752797
861.652736,-9252.574275,222.061783,306.438199
861.653057,-8882.471304,-518.144159,-536.266849
861.653377,-8808.450710,-740.205942,0.000000
861.653698,-9030.512492,-666.185348,0.000000
861.654019,-9474.636058,148.041188,1378.971896
861.654340,-10510.924376,370.102971,2987.772442
861.654661,-10288.862594,74.020594,3294.210641
861.654981,-10066.800811,-222.061783,2604.724693
861.655302,-9844.739029,-1554.432478,1991.848295
861.655623,-9178.553681,-1110.308913,1072.533697
861.655944,-9252.574275,-518.144159,842.705048
861.656264,-7994.224174,-814.226536,-459.657299
861.656585,-8586.388927,-222.061783,-766.095498
861.656906,-8586.388927,-666.185348,-766.095498
861.657227,-8808.450710,-1110.308913,0.000000
861.657548,-9326.594869,-222.061783,1149.143247
861.657868,-10140.821405,-740.205942,2221.676944
861.658189,-9844.739029,-592.164754,2987.772442
861.658510,-10362.883188,-518.144159,2834.553343
861.658831,-10214.842000,-148.041188,2528.115143
861.659151,-10214.842000,1036.288319,1991.848295
861.659472,-9696.697840,888.247130,1455.581446
861.659793,-8364.327145,1480.411884,459.657299
861.660114,-8808.450710,962.267725,-612.876398
861.660434,-8586.388927,1332.370696,76.609550
861.660755,-9918.759623,0.000000,-689.485948
861.661076,-8882.471304,666.185348,689.485948
861.661397,-10436.903782,-518.144159,1455.581446
861.661718,-10658.965565,0.000000,3524.039291
861.662038,-10436.903782,-666.185348,3447.429741
861.662359,-11251.130318,-296.082377,3064.381992
861.662680,-10214.842000,0.000000,2145.067394
861.663001,-9252.574275,0.000000,459.657299
861.663321,-9252.574275,-296.082377,459.657299
861.663642,-8956.491898,-370.102971,-612.876398
861.663963,-9178.553681,-740.205942,-1072.533697
861.664284,-8956.491898,-1258.350101,-842.705048
861.664605,-8956.491898,-962.267725,153.219100
861.664925,-9992.780217,-444.123565,1149.143247
861.665246,-10288.862594,-296.082377,2681.334243
861.665567,-9992.780217,-740.205942,2987.772442
861.665888,-10658.965565,-1406.391290,2604.724693
861.666208,-9992.780217,-962.267725,1685.410096
861.666529,-9252.574275,-222.061783,1608.800546
861.666850,-9622.677246,0.000000,1455.581446
861.667171,-8660.409521,296.082377,536.266849
861.667492,-8512.368333,74.020594,-459.657299
861.667812,-8438.347739,-814.226536,-1149.143247
861.668133,-9178.553681,-1036.288319,-153.219100
861.668454,-9252.574275,-296.082377,1225.752797
861.668775,-10214.842000,0.000000,2374.896044
861.669095,-10436.903782,-370.102971,2987.772442
861.669416,-10436.903782,-1258.350101,2221.676944
861.669737,-10066.800811,-1554.432478,1762.019645
861.670058,-9474.636058,-1332.370696,612.876398
861.670379,-7772.162391,-814.226536,-306.438199
861.670699,-9326.594869,0.000000,0.000000
861.671020,-8290.306550,-444.123565,-1072.533697
861.671341,-8956.491898,-814.226536,-1455.581446
861.671662,-9252.574275,-1036.288319,-459.657299
861.671982,-9104.533087,-740.205942,689.485948
861.672303,-10140.821405,-740.205942,1991.848295
861.672624,-10510.924376,-370.102971,3370.820191
861.672945,-10807.006753,-1332.370696,2987.772442
861.673265,-10584.944971,-888.247130,2987.772442
861.673586,-10066.800811,-962.267725,2068.457845
861.673907,-9474.636058,0.000000,1685.410096
861.674228,-9474.636058,148.041188,1072.533697
861.674549,-9030.512492,0.000000,-229.828649
861.674869,-9104.533087,0.000000,-995.924147
861.675190,-9474.636058,-148.041188,-536.266849
861.675511,-9474.636058,148.041188,612.876398
861.675832,-9622.677246,0.000000,1915.238745
861.676152,-10658.965565,-222.061783,3294.210641
861.676473,-11029.068536,-888.247130,3294.210641
861.676794,-10584.944971,-1258.350101,2451.505594
861.677115,-10362.883188,-666.185348,2068.457845
861.677436,-9178.553681,666.185348,1685.410096
861.677756,-9474.636058,1184.329507,1072.533697
861.678077,-9326.594869,814.226536,229.828649
861.678398,-8512.368333,148.041188,-919.314598
861.678719,-9400.615463,-1554.432478,-2451.505594
861.679039,-8808.450710,-1184.329507,-766.095498
861.679360,-9622.677246,-592.164754,1072.533697
861.679681,-9844.739029,-296.082377,2145.067394
861.680002,-10066.800811,148.041188,3294.210641
861.680323,-10288.862594,-740.205942,2604.724693
861.680643,-9992.780217,-962.267725,1915.238745
861.680964,-9474.636058,0.000000,1455.581446
861.681285,-9474.636058,0.000000,1532.190996
861.681606,-8734.430116,148.041188,0.000000
861.681926,-7994.224174,-296.082377,-612.876398
861.682247,-8068.244768,-592.164754,-1532.190996
861.682568,-8512.368333,-370.102971,-995.924147
861.682889,-9030.512492,0.000000,383.047749
861.683210,-9992.780217,-74.020594,2145.067394
861.683530,-10510.924376,-592.164754,2757.943793
861.683851,-10955.047942,-1554.432478,3140.991542
861.684172,-10584.944971,-1184.329507,2221.676944
861.684493,-10066.800811,-1258.350101,1149.143247
861.684813,-9326.594869,148.041188,383.047749
861.685134,-9104.533087,888.247130,0.000000
861.685455,-8956.491898,518.144159,-383.047749
861.685776,-8956.491898,0.000000,-689.485948
861.686097,-9474.636058,-740.205942,-1225.752797
861.686417,-9400.615463,-222.061783,-612.876398
861.686738,-10288.862594,222.061783,1225.752797
861.687059,-10140.821405,814.226536,4443.353888
861.687380,-10807.006753,-370.102971,3140.991542
861.687700,-10807.006753,-148.041188,2834.553343
861.688021,-10584.944971,-518.144159,2068.457845
861.688342,-10066.800811,370.102971,1762.019645
861.688663,-10214.842000,1184.329507,1532.190996
861.688983,-9400.615463,740.205942,612.876398
861.689304,-9104.533087,370.102971,0.000000
861.689625,-8734.430116,-962.267725,-612.876398
861.689946,-8734.430116,-1554.432478,0.000000
861.690267,-9622.677246,-1110.308913,1455.581446
861.690587,-10214.842000,-1184.329507,2757.943793
861.690908,-10214.842000,-1110.308913,2987.772442
861.691229,-9992.780217,-1332.370696,2681.334243
861.691550,-9696.697840,-666.185348,1608.800546
861.691870,-9400.615463,-222.061783,766.095498
861.692191,-8956.491898,0.000000,76.609550
861.692512,-8290.306550,0.000000,-536.266849
861.692833,-8142.265362,-592.164754,-1225.752797
861.693154,-8438.347739,-1184.329507,-995.924147
861.693474,-8734.430116,-962.267725,-459.657299
861.693795,-9030.512492,-592.164754,1302.362347
861.694116,-10510.924376,-222.061783,3064.381992
861.694437,-10807.006753,-592.164754,4826.401637
861.694757,-10510.924376,-1258.350101,4366.744339
861.695078,-10214.842000,-1554.432478,3447.429741
861.695399,-9474.636058,-740.205942,2681.334243
861.695720,-8734.430116,1110.308913,1149.143247
861.696041,-8216.285956,2516.700203,689.485948
861.696361,-8586.388927,1110.308913,-536.266849
861.696682,-7179.997637,1110.308913,-1149.143247
861.697003,-9400.615463,-222.061783,-919.314598
861.697324,-9030.512492,-666.185348,-383.047749
861.697644,-10510.924376,0.000000,2221.676944
861.697965,-11177.109724,222.061783,3677.258390
861.698286,-10066.800811,-444.123565,2911.162892
861.698607,-11399.171507,-1036.288319,2528.115143
861.698928,-10362.883188,222.061783,1762.019645
861.699248,-10288.862594,0.000000,1149.143247
861.699569,-9992.780217,0.000000,2681.334243
861.699890,-8734.430116,222.061783,-229.828649
861.700211,-9326.594869,-1110.308913,-1838.629195
861.700531,-8882.471304,-1258.350101,-1532.190996
861.700852,-9474.636058,-1110.308913,-689.485948
861.701173,-9918.759623,0.000000,1302.362347
861.701494,-10807.006753,148.041188,2681.334243
