#time,accel_x,accel_y,accel_z
1252.130372,-9030.512492,-3256.906145,2834.553343
1252.130693,-8956.491898,-4441.235652,2911.162892
1252.131014,-8808.450710,-4811.338623,2068.457845
1252.131335,-7846.182985,-3627.009116,1149.143247
1252.131656,-9030.512492,-2368.659014,612.876398
1252.131977,-8734.430116,-518.144159,1455.581446
1252.132298,-9474.636058,444.123565,1608.800546
1252.132619,-10510.924376,1258.350101,1685.410096
1252.132940,-10214.842000,1036.288319,1608.800546
1252.133261,-10436.903782,592.164754,1532.190996
1252.133582,-10732.986159,0.000000,2221.676944
1252.133903,-10140.821405,-592.164754,1991.848295
1252.134224,-9992.780217,-1924.535449,1991.848295
1252.134545,-9252.574275,-2664.741391,1455.581446
1252.134866,-8142.265362,-3404.947333,1149.143247
1252.135187,-9178.553681,-3478.967927,1378.971896
1252.135508,-9030.512492,-2516.700203,1608.800546
1252.135829,-9252.574275,-2368.659014,1685.410096
1252.136150,-9178.553681,-1850.514855,1455.581446
1252.136471,-9252.574275,-1258.350101,1302.362347
1252.136792,-9844.739029,-592.164754,1685.410096
1252.137113,-10066.800811,0.000000,2374.896044
1252.137434,-10140.821405,-74.020594,2681.334243
1252.137755,-10066.800811,0.000000,2528.115143
1252.138076,-10066.800811,-666.185348,3294.210641
1252.138396,-10288.862594,-888.247130,4290.134789
1252.138717,-9770.718434,-1406.391290,4290.134789
1252.139038,-9622.677246,-1924.535449,4749.792088
1252.139359,-9252.574275,-2812.782580,5056.230287
1252.139680,-9104.533087,-3552.988522,4979.620737
1252.140001,-9030.512492,-3849.070898,5515.887586
1252.140322,-8438.347739,-3997.112087,5515.887586
1252.140643,-8808.450710,-3997.112087,5822.325785
1252.140964,-8882.471304,-3923.091493,5286.058936
1252.141285,-8882.471304,-3552.988522,5515.887586
1252.141606,-9178.553681,-3256.906145,5515.887586
1252.141927,-9030.512492,-3330.926739,6128.763984
1252.142248,-9326.594869,-3552.988522,6358.592633
1252.142569,-9474.636058,-4293.194464,6358.592633
1252.142890,-9400.615463,-4589.276840,6588.421283
1252.143211,-9474.636058,-4885.359217,7737.564530
1252.143532,-9252.574275,-5403.503377,6205.373534
1252.143853,-9178.553681,-5773.606348,5745.716235
1252.144174,-8956.491898,-5921.647536,5209.449386
1252.144495,-8586.388927,-6217.729913,4519.963438
1252.144816,-8438.347739,-6069.688724,3370.820191
1252.145137,-8956.491898,-5477.523971,2528.115143
1252.145458,-8586.388927,-3923.091493,2604.724693
1252.145779,-9918.759623,-3701.029710,1915.238745
1252.146100,-8364.327145,-1702.473667,3217.601092
1252.146421,-10214.842000,-2738.761985,2681.334243
1252.146742,-10658.965565,-2664.741391,2987.772442
1252.147063,-9844.739029,-3552.988522,2757.943793
1252.147384,-10955.047942,-4441.235652,2451.505594
1252.147705,-10436.903782,-4959.379811,3524.039291
1252.148026,-9770.718434,-5995.668130,3064.381992
1252.148347,-9474.636058,-5625.565159,3064.381992
1252.148668,-9400.615463,-5107.421000,2451.505594
1252.148989,-9474.636058,-4145.153275,3294.210641
1252.149310,-9622.677246,-3997.112087,2451.505594
1252.149631,-9326.594869,-3775.050304,1685.410096
1252.149952,-9622.677246,-4071.132681,919.314598
1252.150273,-9252.574275,-3923.091493,459.657299
1252.150594,-9326.594869,-2738.761985,-536.266849
1252.150915,-9992.780217,-1480.411884,-1149.143247
1252.151236,-9844.739029,444.123565,-612.876398
1252.151557,-10436.903782,1184.329507,-306.438199
1252.151878,-10658.965565,1406.391290,1302.362347
1252.152199,-11177.109724,222.061783,1915.238745
1252.152520,-10807.006753,-1776.494261,2451.505594
1252.152841,-9844.739029,-3627.009116,3217.601092
1252.153162,-9770.718434,-4885.359217,3217.601092
1252.153483,-8808.450710,-5329.482782,3600.648841
1252.153804,-8734.430116,-5329.482782,4519.963438
1252.154125,-8438.347739,-5107.421000,4596.572988
1252.154445,-7846.182985,-5033.400406,3907.087040
1252.154766,-8364.327145,-3997.112087,2757.943793
1252.155087,-8142.265362,-2072.576638,2068.457845
1252.155408,-8734.430116,666.185348,1685.410096
1252.155729,-9400.615463,3034.844362,2604.724693
1252.156050,-9696.697840,3701.029710,2834.553343
1252.156371,-10510.924376,3182.885551,2911.162892
1252.156692,-10288.862594,2442.679609,3524.039291
1252.157013,-10881.027347,444.123565,4519.963438
1252.157334,-11325.150913,-296.082377,5132.839837
1252.157655,-9992.780217,-1184.329507,5898.935335
1252.157976,-9474.636058,-2664.741391,5515.887586
1252.158297,-8734.430116,-3552.988522,5745.716235
1252.158618,-8808.450710,-5551.544565,4519.963438
1252.158939,-7624.121203,-4959.379811,3217.601092
1252.159260,-7994.224174,-2886.803174,2451.505594
1252.159581,-8956.491898,0.000000,2911.162892
1252.159902,-9622.677246,2072.576638,3217.601092
1252.160222,-9474.636058,2664.741391,2987.772442
1252.160543,-9548.656652,3256.906145,1608.800546
1252.160864,-10584.944971,3404.947333,1532.190996
1252.161185,-11547.212695,2368.659014,2451.505594
1252.161506,-11621.233289,370.102971,1302.362347
1252.161827,-10362.883188,-370.102971,2451.505594
1252.162148,-10140.821405,-2072.576638,1838.629195
1252.162469,-9326.594869,-2516.700203,919.314598
1252.162790,-9400.615463,-2146.597232,1225.752797
1252.163111,-9252.574275,-666.185348,1915.238745
1252.163432,-9252.574275,-370.102971,1991.848295
1252.163753,-9474.636058,-2294.638420,1838.629195
1252.164074,-8290.306550,-1332.370696,1149.143247
1252.164395,-10436.903782,-2220.617826,766.095498
1252.164716,-9474.636058,-1776.494261,1991.848295
1252.165037,-10066.800811,-2516.700203,1991.848295
1252.165358,-10362.883188,-3108.864956,0.000000
1252.165679,-7846.182985,0.000000,-1225.752797
1252.165999,-10362.883188,222.061783,-1378.971896
1252.166320,-9474.636058,2516.700203,612.876398
1252.166641,-9918.759623,740.205942,-153.219100
1252.166962,-10288.862594,0.000000,0.000000
1252.167283,-8512.368333,-1480.411884,-919.314598
1252.167604,-9548.656652,-1628.453072,0.000000
1252.167925,-10584.944971,-1924.535449,2451.505594
1252.168246,-8956.491898,-3330.926739,2451.505594
1252.168567,-9548.656652,-4515.256246,1149.143247
1252.168888,-7698.141797,-5773.606348,-459.657299
1252.169209,-7772.162391,-3923.091493,-1455.581446
1252.169530,-9400.615463,-1480.411884,842.705048
1252.169851,-9178.553681,814.226536,2451.505594
1252.170172,-9252.574275,1184.329507,1532.190996
1252.170493,-9474.636058,1332.370696,612.876398
1252.170814,-10807.006753,1406.391290,1838.629195
1252.171135,-11325.150913,1406.391290,3524.039291
1252.171455,-11473.192101,-740.205942,4749.792088
1252.171776,-10584.944971,-2368.659014,3140.991542
1252.172097,-9030.512492,-2294.638420,1225.752797
1252.172418,-8882.471304,-2220.617826,536.266849
1252.172739,-9400.615463,-666.185348,1302.362347
1252.173060,-8882.471304,-1036.288319,1072.533697
1252.173381,-9252.574275,-1036.288319,76.609550
1252.173702,-8142.265362,-444.123565,-919.314598
1252.174023,-8438.347739,1628.453072,995.924147
1252.174344,-10658.965565,592.164754,3140.991542
1252.174665,-10066.800811,-740.205942,3217.601092
1252.174986,-9844.739029,-2442.679609,1302.362347
1252.175307,-9252.574275,-1480.411884,-536.266849
1252.175628,-9770.718434,444.123565,76.609550
1252.175949,-10510.924376,2220.617826,1991.848295
1252.176270,-10732.986159,1776.494261,2374.896044
1252.176591,-9622.677246,444.123565,383.047749
1252.176912,-9474.636058,-814.226536,-1225.752797
1252.177232,-10436.903782,-666.185348,1532.190996
1252.177553,-10881.027347,-1036.288319,3447.429741
1252.177874,-9696.697840,-2294.638420,2681.334243
1252.178195,-8290.306550,-2664.741391,0.000000
1252.178516,-7698.141797,-962.267725,-766.095498
1252.178837,-8734.430116,148.041188,76.609550
1252.179158,-9474.636058,1258.350101,1991.848295
1252.179479,-9622.677246,814.226536,1149.143247
1252.179800,-9474.636058,888.247130,-612.876398
1252.180121,-9918.759623,1702.473667,-459.657299
1252.180442,-10881.027347,2368.659014,1608.800546
1252.180763,-11547.212695,1480.411884,3370.820191
1252.181084,-10362.883188,-370.102971,1685.410096
1252.181405,-9252.574275,-1184.329507,-995.924147
1252.181726,-8438.347739,-444.123565,-2604.724693
1252.182047,-8956.491898,1776.494261,-766.095498
1252.182368,-9326.594869,2664.741391,2528.115143
1252.182689,-9474.636058,1628.453072,1608.800546
1252.183009,-8882.471304,-74.020594,229.828649
1252.183330,-9252.574275,-1036.288319,612.876398
1252.183651,-10362.883188,-1776.494261,4136.915689
1252.183972,-11177.109724,-2294.638420,4519.963438
1252.184293,-9548.656652,-3256.906145,2528.115143
1252.184614,-7846.182985,-2220.617826,-612.876398
1252.184935,-7772.162391,592.164754,-995.924147
1252.185256,-8882.471304,2294.638420,1455.581446
1252.185577,-9770.718434,2812.782580,1608.800546
1252.185898,-9622.677246,1776.494261,229.828649
1252.186219,-9178.553681,740.205942,-995.924147
1252.186540,-10436.903782,666.185348,-153.219100
1252.186861,-11843.295072,0.000000,3753.867940
1252.187182,-11547.212695,-1702.473667,4903.011187
1252.187503,-9844.739029,-2812.782580,2757.943793
1252.187824,-8808.450710,-2442.679609,536.266849
1252.188145,-8586.388927,-1036.288319,-229.828649
1252.188466,-9400.615463,1332.370696,1762.019645
1252.188786,-9474.636058,1776.494261,2145.067394
1252.189107,-8808.450710,1110.308913,383.047749
1252.189428,-7994.224174,0.000000,-536.266849
1252.189749,-9844.739029,-888.247130,1149.143247
1252.190070,-10881.027347,-1332.370696,3677.258390
1252.190391,-11251.130318,-2664.741391,4366.744339
1252.190712,-9178.553681,-3034.844362,2298.286494
1252.191033,-8512.368333,-1702.473667,-383.047749
1252.191354,-9400.615463,666.185348,306.438199
1252.191675,-10066.800811,2812.782580,1838.629195
1252.191996,-10140.821405,1406.391290,1378.971896
1252.192317,-8956.491898,296.082377,-1225.752797
1252.192638,-8882.471304,-592.164754,-1838.629195
1252.192959,-10140.821405,-1850.514855,0.000000
1252.193280,-10510.924376,-2368.659014,2145.067394
1252.193601,-9844.739029,-3997.112087,1991.848295
1252.193922,-8364.327145,-3552.988522,-1149.143247
1252.194242,-8586.388927,-1628.453072,-2298.286494
1252.194563,-9474.636058,296.082377,-229.828649
1252.194884,-10140.821405,1480.411884,1302.362347
1252.195205,-10658.965565,888.247130,1532.190996
1252.195526,-9474.636058,0.000000,612.876398
1252.195847,-9918.759623,-962.267725,383.047749
1252.196168,-11029.068536,-1850.514855,2834.553343
1252.196489,-10881.027347,-2368.659014,4213.525239
1252.196810,-9918.759623,-3627.009116,2681.334243
1252.197131,-7994.224174,-3478.967927,-153.219100
1252.197452,-8586.388927,-1184.329507,-1149.143247
1252.197773,-9178.553681,666.185348,536.266849
1252.198094,-9474.636058,1628.453072,1378.971896
1252.198415,-9474.636058,1110.308913,612.876398
1252.198736,-8882.471304,740.205942,-995.924147
1252.199057,-9548.656652,962.267725,-153.219100
1252.199378,-10955.047942,-148.041188,2911.162892
1252.199699,-10955.047942,-1480.411884,3830.477490
1252.200019,-10362.883188,-1998.556043,2451.505594
1252.200340,-9178.553681,-1406.391290,0.000000
1252.200661,-8882.471304,370.102971,-383.047749
1252.200982,-9622.677246,1776.494261,1455.581446
1252.201303,-9918.759623,1850.514855,2221.676944
1252.201624,-9474.636058,740.205942,1072.533697
1252.201945,-9252.574275,0.000000,-383.047749
1252.202266,-9474.636058,-1036.288319,306.438199
1252.202587,-10362.883188,-1628.453072,2681.334243
1252.202908,-10658.965565,-2368.659014,3907.087040
1252.203229,-9622.677246,-2220.617826,2451.505594
1252.203550,-7772.162391,592.164754,0.000000
1252.203871,-9474.636058,1332.370696,0.000000
1252.204192,-9104.533087,2812.782580,1149.143247
1252.204513,-10066.800811,1850.514855,919.314598
1252.204834,-9400.615463,814.226536,-612.876398
1252.205155,-8882.471304,1110.308913,-1072.533697
1252.205476,-10510.924376,1258.350101,842.705048
1252.205796,-10732.986159,74.020594,3370.820191
1252.206117,-10658.965565,-2146.597232,2681.334243
1252.206438,-9474.636058,-2368.659014,612.876398
1252.206759,-8586.388927,-1406.391290,-1225.752797
1252.207080,-9178.553681,518.144159,-689.485948
1252.207401,-9326.594869,2664.741391,2221.676944
1252.207722,-10140.821405,1554.432478,2528.115143
1252.208043,-9548.656652,666.185348,919.314598
1252.208364,-8956.491898,-888.247130,0.000000
1252.208685,-10214.842000,-1850.514855,1149.143247
1252.209006,-10288.862594,-2664.741391,2987.772442
1252.209327,-10214.842000,-2516.700203,2987.772442
1252.209648,-8586.388927,-2294.638420,919.314598
1252.209969,-7772.162391,-814.226536,-1455.581446
1252.210290,-8956.491898,1258.350101,306.438199
1252.210611,-9474.636058,1036.288319,1302.362347
1252.210932,-9400.615463,1258.350101,612.876398
1252.211253,-9622.677246,148.041188,-536.266849
1252.211573,-9400.615463,148.041188,-306.438199
1252.211894,-10807.006753,296.082377,2298.286494
1252.212215,-11029.068536,-1184.329507,3524.039291
1252.212536,-10214.842000,-2368.659014,2604.724693
1252.212857,-8808.450710,-2960.823768,0.000000
1252.213178,-8142.265362,-1332.370696,-1608.800546
1252.213499,-9400.615463,370.102971,-153.219100
1252.213820,-9844.739029,1850.514855,1685.410096
1252.214141,-9548.656652,814.226536,919.314598
1252.214462,-8290.306550,0.000000,-919.314598
1252.214783,-9622.677246,-1110.308913,153.219100
1252.215104,-10881.027347,-1998.556043,2604.724693
1252.215425,-10807.006753,-2368.659014,4290.134789
1252.215746,-9844.739029,-3182.885551,2145.067394
1252.216067,-8142.265362,-1924.535449,0.000000
1252.216388,-8882.471304,-814.226536,-153.219100
1252.216709,-9696.697840,1110.308913,1378.971896
1252.217029,-9770.718434,1036.288319,3600.648841
1252.217350,-9474.636058,592.164754,229.828649
1252.217671,-9104.533087,0.000000,-689.485948
1252.217992,-9696.697840,0.000000,536.266849
1252.218313,-10807.006753,-1110.308913,2987.772442
1252.218634,-10436.903782,-2368.659014,3907.087040
1252.218955,-9844.739029,-3108.864956,1915.238745
1252.219276,-8808.450710,-1776.494261,-306.438199
1252.219597,-9104.533087,74.020594,-229.828649
1252.219918,-9474.636058,3034.844362,689.485948
1252.220239,-10288.862594,2590.720797,2604.724693
1252.220560,-9178.553681,1776.494261,1149.143247
1252.220881,-8734.430116,0.000000,-229.828649
1252.221202,-9474.636058,-1776.494261,1072.533697
1252.221523,-10510.924376,-2294.638420,3830.477490
1252.221844,-10214.842000,-2886.803174,3677.258390
1252.222165,-8956.491898,-2220.617826,1532.190996
1252.222486,-7994.224174,-740.205942,-612.876398
1252.222806,-8660.409521,1702.473667,229.828649
1252.223127,-10066.800811,2146.597232,2068.457845
1252.223448,-9992.780217,1406.391290,1608.800546
1252.223769,-9104.533087,296.082377,0.000000
1252.224090,-9770.718434,666.185348,-459.657299
1252.224411,-10584.944971,-148.041188,1762.019645
1252.224732,-11325.150913,-518.144159,4060.306139
1252.225053,-10288.862594,-1702.473667,3217.601092
1252.225374,-9030.512492,-2072.576638,229.828649
1252.225695,-8290.306550,-518.144159,-1378.971896
1252.226016,-9326.594869,1406.391290,76.609550
1252.226337,-9992.780217,2442.679609,1838.629195
1252.226658,-9474.636058,2220.617826,1532.190996
1252.226979,-9030.512492,1406.391290,0.000000
1252.227300,-8956.491898,-592.164754,0.000000
1252.227621,-10362.883188,-1924.535449,2221.676944
1252.227942,-10955.047942,-2664.741391,4060.306139
1252.228263,-10584.944971,-3108.864956,2068.457845
1252.228583,-8882.471304,-1702.473667,306.438199
1252.228904,-8956.491898,296.082377,-306.438199
1252.229225,-9548.656652,2146.597232,536.266849
1252.229546,-9622.677246,1998.556043,1072.533697
1252.229867,-9696.697840,814.226536,-306.438199
1252.230188,-9178.553681,444.123565,-1762.019645
1252.230509,-9844.739029,148.041188,-766.095498
1252.230830,-10955.047942,0.000000,1991.848295
1252.231151,-10584.944971,-888.247130,2604.724693
1252.231472,-9844.739029,-1628.453072,1532.190996
1252.231793,-8956.491898,-1036.288319,-842.705048
1252.232114,-8882.471304,592.164754,-1225.752797
1252.232435,-9474.636058,2960.823768,153.219100
1252.232756,-9844.739029,2294.638420,1608.800546
1252.233077,-8660.409521,1332.370696,689.485948
1252.233398,-8882.471304,-444.123565,-229.828649
1252.233719,-9474.636058,-1110.308913,995.924147
1252.234040,-10658.965565,-2146.597232,3600.648841
1252.234360,-10658.965565,-3256.906145,3830.477490
1252.234681,-9548.656652,-2738.761985,2145.067394
1252.235002,-8660.409521,-1406.391290,0.000000
1252.235323,-9104.533087,592.164754,612.876398
1252.235644,-9844.739029,1554.432478,1762.019645
1252.235965,-9844.739029,1406.391290,1685.410096
1252.236286,-8808.450710,518.144159,-842.705048
1252.236607,-8882.471304,592.164754,-306.438199
1252.236928,-10140.821405,-444.123565,306.438199
1252.237249,-9992.780217,-592.164754,3524.039291
1252.237570,-10881.027347,-2368.659014,2911.162892
1252.237891,-8734.430116,-2368.659014,995.924147
1252.238212,-8660.409521,-1924.535449,-995.924147
1252.238533,-9548.656652,370.102971,612.876398
1252.238854,-9474.636058,1258.350101,1149.143247
1252.239175,-9770.718434,1332.370696,1532.190996
1252.239496,-8512.368333,296.082377,-919.314598
1252.239816,-9030.512492,-814.226536,-766.095498
1252.240137,-10066.800811,-1332.370696,1991.848295
1252.240458,-11103.089130,-2516.700203,3524.039291
1252.240779,-9844.739029,-2960.823768,2911.162892
1252.241100,-9104.533087,-2960.823768,1072.533697
1252.241421,-8216.285956,-370.102971,306.438199
1252.241742,-9770.718434,1036.288319,1685.410096
1252.242063,-10362.883188,1776.494261,3140.991542
1252.242384,-9770.718434,1036.288319,1991.848295
1252.242705,-9474.636058,-666.185348,-229.828649
1252.243026,-9696.697840,-296.082377,689.485948
1252.243347,-11325.150913,-962.267725,2451.505594
1252.243668,-10510.924376,-814.226536,4596.572988
1252.243989,-9622.677246,-2368.659014,1608.800546
1252.244310,-8290.306550,-1184.329507,-1225.752797
1252.244631,-8956.491898,-222.061783,-1532.190996
1252.244952,-9326.594869,1776.494261,229.828649
1252.245273,-10066.800811,2812.782580,1608.800546
1252.245593,-9696.697840,1702.473667,689.485948
1252.245914,-9548.656652,518.144159,229.828649
1252.246235,-9474.636058,-962.267725,383.047749
1252.246556,-10732.986159,-1924.535449,2757.943793
1252.246877,-11029.068536,-2590.720797,3907.087040
1252.247198,-9844.739029,-2738.761985,2145.067394
1252.247519,-8586.388927,-2072.576638,0.000000
1252.247840,-8660.409521,-296.082377,-383.047749
1252.248161,-9030.512492,1628.453072,689.485948
1252.248482,-10436.903782,1184.329507,1532.190996
1252.248803,-9030.512492,1406.391290,153.219100
1252.249124,-8956.491898,814.226536,536.266849
1252.249445,-9918.759623,148.041188,612.876398
1252.249766,-10881.027347,-592.164754,2528.115143
1252.250087,-10732.986159,-1776.494261,3524.039291
1252.250408,-9696.697840,-2146.597232,1072.533697
1252.250729,-8882.471304,-814.226536,-306.438199
1252.251050,-9696.697840,814.226536,0.000000
1252.251370,-9918.759623,1850.514855,1302.362347
1252.251691,-9844.739029,1628.453072,1685.410096
1252.252012,-8956.491898,740.205942,-229.828649
1252.252333,-8956.491898,-296.082377,-536.266849
1252.252654,-9696.697840,-1184.329507,1302.362347
1252.252975,-10510.924376,-1554.432478,3370.820191
1252.253296,-10140.821405,-2516.700203,2911.162892
1252.253617,-9104.533087,-2220.617826,1149.143247
1252.253938,-8586.388927,-1184.329507,-229.828649
1252.254259,-9326.594869,444.123565,612.876398
1252.254579,-9992.780217,1332.370696,1838.629195
1252.254900,-9252.574275,962.267725,1072.533697
1252.255221,-9252.574275,370.102971,-383.047749
1252.255542,-8956.491898,814.226536,-2221.676944
1252.255863,-10140.821405,222.061783,1149.143247
1252.256184,-10214.842000,-740.205942,2068.457845
1252.256504,-9918.759623,-1850.514855,2528.115143
1252.256825,-9400.615463,-2960.823768,153.219100
1252.257146,-8808.450710,-1702.473667,-1072.533697
1252.257467,-9770.718434,222.061783,1991.848295
1252.257788,-10288.862594,1184.329507,1838.629195
1252.258109,-9400.615463,1332.370696,1838.629195
1252.258429,-9474.636058,0.000000,383.047749
1252.258750,-9030.512492,-1036.288319,0.000000
1252.259071,-10140.821405,-1702.473667,2451.505594
1252.259392,-10732.986159,-2146.597232,3524.039291
1252.259713,-10658.965565,-2960.823768,2528.115143
1252.260034,-9030.512492,-1850.514855,153.219100
1252.260354,-8734.430116,0.000000,-766.095498
1252.260675,-9918.759623,2220.617826,612.876398
1252.260996,-10362.883188,3404.947333,1685.410096
1252.261317,-9918.759623,2442.679609,459.657299
1252.261638,-8882.471304,1184.329507,-1685.410096
1252.261959,-8808.450710,148.041188,-1378.971896
1252.262280,-9622.677246,-1184.329507,1225.752797
1252.262600,-9622.677246,-3034.844362,2451.505594
1252.262921,-8956.491898,-4071.132681,229.828649
1252.263242,-8216.285956,-2590.720797,-1838.629195
1252.263563,-8364.327145,-666.185348,-1838.629195
1252.263884,-9474.636058,2442.679609,459.657299
1252.264205,-10214.842000,3478.967927,2757.943793
1252.264525,-10140.821405,814.226536,1302.362347
1252.264846,-8882.471304,0.000000,153.219100
1252.265167,-10214.842000,-2294.638420,1072.533697
1252.265488,-10881.027347,-2886.803174,3447.429741
1252.265809,-11103.089130,-3256.906145,4749.792088
1252.266130,-9104.533087,-2664.741391,2298.286494
1252.266450,-7846.182985,-1332.370696,-306.438199
1252.266771,-8586.388927,222.061783,0.000000
1252.267092,-9474.636058,1184.329507,1762.019645
1252.267413,-10362.883188,1924.535449,1532.190996
1252.267734,-9252.574275,814.226536,229.828649
1252.268055,-9104.533087,740.205942,0.000000
1252.268375,-10584.944971,222.061783,2145.067394
1252.268696,-10881.027347,-1628.453072,4213.525239
1252.269017,-10584.944971,-2072.576638,4060.306139
1252.269338,-9770.718434,-2442.679609,995.924147
1252.269659,-8734.430116,-592.164754,-1225.752797
1252.269980,-9548.656652,1776.494261,383.047749
1252.270301,-9696.697840,2960.823768,2298.286494
1252.270621,-9548.656652,3108.864956,1532.190996
1252.270942,-9252.574275,1554.432478,0.000000
1252.271263,-8956.491898,-370.102971,-383.047749
1252.271584,-10436.903782,-1702.473667,2374.896044
1252.271905,-10955.047942,-2368.659014,4290.134789
1252.272226,-10214.842000,-2886.803174,3370.820191
1252.272546,-9326.594869,-2516.700203,1149.143247
1252.272867,-7994.224174,-1406.391290,919.314598
1252.273188,-9696.697840,1332.370696,459.657299
1252.273509,-10140.821405,2072.576638,2298.286494
1252.273830,-9622.677246,1036.288319,919.314598
1252.274151,-8808.450710,0.000000,-1225.752797
1252.274471,-9030.512492,-592.164754,-1532.190996
1252.274792,-10140.821405,-518.144159,1302.362347
1252.275113,-10807.006753,-1332.370696,3140.991542
1252.275434,-9770.718434,-2368.659014,1532.190996
1252.275755,-9030.512492,-2368.659014,-995.924147
1252.276076,-8660.409521,-1110.308913,-1455.581446
1252.276396,-9696.697840,666.185348,0.000000
1252.276717,-10436.903782,1702.473667,1302.362347
1252.277038,-8808.450710,2368.659014,153.219100
1252.277359,-8734.430116,0.000000,-459.657299
1252.277680,-9400.615463,-1110.308913,0.000000
1252.278001,-10658.965565,-1776.494261,2528.115143
1252.278321,-11103.089130,-2146.597232,4136.915689
1252.278642,-9696.697840,-2590.720797,2374.896044
1252.278963,-8216.285956,-1480.411884,76.609550
1252.279284,-8660.409521,0.000000,-459.657299
1252.279605,-8956.491898,1776.494261,1225.752797
1252.279926,-9844.739029,2294.638420,1762.019645
1252.280247,-9326.594869,1036.288319,536.266849
1252.280567,-8956.491898,0.000000,-612.876398
1252.280888,-9474.636058,-148.041188,689.485948
1252.281209,-10732.986159,-444.123565,4213.525239
1252.281530,-10732.986159,-1332.370696,4366.744339
1252.281851,-9548.656652,-2072.576638,2451.505594
1252.282172,-9326.594869,-1702.473667,459.657299
1252.282492,-9178.553681,0.000000,459.657299
1252.282813,-10214.842000,1702.473667,2145.067394
1252.283134,-10584.944971,1480.411884,2604.724693
1252.283455,-8882.471304,1184.329507,766.095498
1252.283776,-9400.615463,-148.041188,0.000000
1252.284097,-9178.553681,-1184.329507,2068.457845
1252.284417,-10436.903782,-2368.659014,2987.772442
1252.284738,-10584.944971,-2738.761985,3140.991542
1252.285059,-9252.574275,-2294.638420,1302.362347
1252.285380,-8290.306550,222.061783,1149.143247
1252.285701,-9622.677246,1036.288319,1149.143247
1252.286022,-9770.718434,1924.535449,1762.019645
1252.286342,-10066.800811,1628.453072,1685.410096
1252.286663,-9326.594869,444.123565,0.000000
1252.286984,-9178.553681,370.102971,76.609550
1252.287305,-10658.965565,-740.205942,1915.238745
1252.287626,-10288.862594,-1554.432478,3370.820191
1252.287947,-9770.718434,-2590.720797,2528.115143
1252.288268,-8660.409521,-2960.823768,229.828649
1252.288588,-8068.244768,-1480.411884,-1072.533697
1252.288909,-9326.594869,444.123565,383.047749
1252.289230,-10214.842000,1998.556043,1685.410096
1252.289551,-9548.656652,2146.597232,0.000000
1252.289872,-9178.553681,888.247130,0.000000
1252.290193,-9474.636058,-518.144159,0.000000
1252.290513,-10288.862594,-1406.391290,1991.848295
1252.290834,-10584.944971,-2146.597232,3140.991542
1252.291155,-10066.800811,-2146.597232,1685.410096
1252.291476,-8660.409521,-1480.411884,-612.876398
1252.291797,-8216.285956,296.082377,-1302.362347
1252.292118,-9696.697840,2442.679609,229.828649
1252.292438,-9770.718434,2664.741391,919.314598
1252.292759,-9474.636058,1258.350101,0.000000
1252.293080,-9178.553681,0.000000,-1302.362347
1252.293401,-9474.636058,0.000000,-766.095498
1252.293722,-10732.986159,-370.102971,1838.629195
1252.294043,-10807.006753,-1554.432478,3677.258390
1252.294363,-9474.636058,-2516.700203,1455.581446
1252.294684,-8808.450710,-2368.659014,-612.876398
1252.295005,-8882.471304,-518.144159,-766.095498
1252.295326,-9992.780217,1480.411884,1072.533697
1252.295647,-10362.883188,1924.535449,1991.848295
1252.295968,-9030.512492,1480.411884,459.657299
1252.296289,-9104.533087,222.061783,-229.828649
1252.296609,-9918.759623,-148.041188,919.314598
1252.296930,-10584.944971,-1850.514855,3370.820191
1252.297251,-10658.965565,-2960.823768,3447.429741
1252.297572,-9474.636058,-2146.597232,1838.629195
1252.297893,-9474.636058,-518.144159,0.000000
1252.298214,-9178.553681,1036.288319,689.485948
1252.298534,-9770.718434,1998.556043,1915.238745
1252.298855,-9770.718434,1406.391290,1685.410096
1252.299176,-9030.512492,148.041188,-306.438199
1252.299497,-9030.512492,-222.061783,-1149.143247
1252.299818,-9548.656652,-518.144159,766.095498
1252.300139,-10584.944971,-1036.288319,2987.772442
1252.300459,-10214.842000,-1776.494261,3447.429741
1252.300780,-9770.718434,-1628.453072,1302.362347
1252.301101,-9030.512492,-1110.308913,153.219100
1252.301422,-9696.697840,148.041188,689.485948
1252.301743,-9992.780217,814.226536,2298.286494
1252.302064,-9178.553681,444.123565,995.924147
1252.302384,-8660.409521,-592.164754,0.000000
1252.302705,-8068.244768,-888.247130,0.000000
1252.303026,-9696.697840,-1628.453072,1838.629195
1252.303347,-10881.027347,-1998.556043,3983.696590
1252.303668,-10807.006753,-2664.741391,3447.429741
1252.303989,-8882.471304,-2368.659014,536.266849
1252.304309,-8660.409521,-814.226536,-612.876398
1252.304630,-9548.656652,1332.370696,612.876398
1252.304951,-9474.636058,1850.514855,2757.943793
1252.305272,-10140.821405,0.000000,1608.800546
1252.305593,-8808.450710,-296.082377,-383.047749
1252.305914,-9918.759623,-962.267725,76.609550
1252.306235,-11325.150913,-888.247130,1685.410096
1252.306555,-10436.903782,-1406.391290,3524.039291
1252.306876,-10288.862594,-2294.638420,2298.286494
1252.307197,-8512.368333,-1924.535449,-842.705048
1252.307518,-8068.244768,666.185348,-1378.971896
1252.307839,-10510.924376,1036.288319,153.219100
1252.308160,-9474.636058,2146.597232,1302.362347
1252.308480,-9992.780217,1036.288319,0.000000
1252.308801,-9474.636058,888.247130,-995.924147
1252.309122,-9326.594869,0.000000,-536.266849
1252.309443,-10881.027347,-444.123565,1685.410096
1252.309764,-11103.089130,-888.247130,3140.991542
1252.310085,-9548.656652,-2368.659014,1149.143247
1252.310405,-8216.285956,-2146.597232,153.219100
1252.310726,-9030.512492,-666.185348,-919.314598
1252.311047,-9622.677246,1110.308913,306.438199
1252.311368,-9918.759623,1850.514855,1455.581446
1252.311689,-9548.656652,1554.432478,612.876398
1252.312010,-8956.491898,592.164754,76.609550
1252.312330,-10658.965565,148.041188,1762.019645
1252.312651,-11325.150913,-1036.288319,4443.353888
1252.312972,-10955.047942,-2516.700203,4213.525239
1252.313293,-10066.800811,-2516.700203,1991.848295
1252.313614,-8364.327145,-1184.329507,-383.047749
1252.313935,-8364.327145,592.164754,0.000000
1252.314256,-9178.553681,2220.617826,1685.410096
1252.314576,-9252.574275,1554.432478,1072.533697
1252.314897,-8512.368333,1702.473667,0.000000
1252.315218,-8512.368333,148.041188,-536.266849
1252.315539,-9474.636058,-518.144159,1302.362347
1252.315860,-11251.130318,-1480.411884,3830.477490
1252.316181,-10214.842000,-2516.700203,4673.182538
1252.316501,-9104.533087,-2886.803174,1455.581446
1252.316822,-8438.347739,-1850.514855,306.438199
1252.317143,-9622.677246,0.000000,1149.143247
1252.317464,-10288.862594,1184.329507,2374.896044
1252.317785,-9844.739029,962.267725,1532.190996
1252.318106,-8808.450710,444.123565,-689.485948
1252.318426,-8438.347739,74.020594,-1532.190996
1252.318747,-10214.842000,444.123565,0.000000
1252.319068,-11029.068536,-592.164754,3294.210641
1252.319389,-10140.821405,-2072.576638,2374.896044
1252.319710,-9474.636058,-2368.659014,229.828649
1252.320031,-8882.471304,-888.247130,-766.095498
1252.320351,-10066.800811,888.247130,842.705048
1252.320672,-10807.006753,2294.638420,2298.286494
1252.320993,-9770.718434,1628.453072,1225.752797
1252.321314,-8956.491898,74.020594,-1149.143247
1252.321635,-9030.512492,-888.247130,-612.876398
1252.321956,-10288.862594,-1332.370696,1455.581446
1252.322276,-10955.047942,-1924.535449,3294.210641
1252.322597,-10066.800811,-2590.720797,1915.238745
1252.322918,-8438.347739,-1850.514855,-306.438199
1252.323239,-9178.553681,-444.123565,-383.047749
1252.323560,-10288.862594,1406.391290,766.095498
1252.323881,-10066.800811,2072.576638,1532.190996
1252.324202,-9474.636058,740.205942,-229.828649
1252.324522,-8512.368333,0.000000,-1302.362347
1252.324843,-9252.574275,148.041188,-1378.971896
1252.325164,-10436.903782,-148.041188,1991.848295
1252.325485,-10288.862594,-962.267725,2681.334243
1252.325806,-9474.636058,-2442.679609,1072.533697
1252.326127,-8512.368333,-2368.659014,-689.485948
1252.326447,-8660.409521,-962.267725,-229.828649
1252.326768,-9622.677246,814.226536,1915.238745
1252.327089,-10436.903782,148.041188,2528.115143
1252.327410,-8808.450710,740.205942,1225.752797
1252.327731,-8586.388927,-666.185348,153.219100
1252.328052,-9326.594869,-222.061783,1149.143247
1252.328372,-10214.842000,-740.205942,3370.820191
1252.328693,-10362.883188,-2072.576638,3600.648841
1252.329014,-8216.285956,-2220.617826,995.924147
1252.329335,-8438.347739,-1628.453072,-1225.752797
1252.329656,-9696.697840,740.205942,1149.143247
1252.329977,-10214.842000,1332.370696,2068.457845
1252.330297,-10436.903782,1554.432478,1838.629195
1252.330618,-10140.821405,740.205942,229.828649
1252.330939,-9178.553681,222.061783,-306.438199
1252.331260,-10288.862594,-444.123565,1149.143247
1252.331581,-11029.068536,-740.205942,4749.792088
1252.331902,-8956.491898,-962.267725,2911.162892
1252.332223,-9252.574275,-3034.844362,-229.828649
1252.332543,-6957.935855,-1258.350101,-919.314598
1252.332864,-8734.430116,-370.102971,229.828649
1252.333185,-9474.636058,1924.535449,1838.629195
1252.333506,-10362.883188,1554.432478,1762.019645
1252.333827,-9104.533087,1776.494261,0.000000
1252.334148,-9474.636058,370.102971,995.924147
1252.334468,-10658.965565,-592.164754,2987.772442
1252.334789,-11473.192101,-1776.494261,5056.230287
1252.335110,-10955.047942,-3404.947333,3983.696590
1252.335431,-9252.574275,-2960.823768,1225.752797
1252.335752,-8660.409521,-814.226536,-306.438199
1252.336073,-10140.821405,740.205942,2145.067394
1252.336393,-9474.636058,1776.494261,2451.505594
1252.336714,-9252.574275,888.247130,1225.752797
1252.337035,-8660.409521,148.041188,-1225.752797
1252.337356,-8956.491898,592.164754,-459.657299
1252.337677,-10732.986159,0.000000,2068.457845
1252.337998,-10584.944971,-962.267725,3524.039291
1252.338318,-9474.636058,-1850.514855,1838.629195
1252.338639,-8142.265362,-2220.617826,-919.314598
1252.338960,-8734.430116,-1406.391290,-1072.533697
1252.339281,-9992.780217,666.185348,766.095498
1252.339602,-10140.821405,1554.432478,1838.629195
1252.339923,-8512.368333,2294.638420,2145.067394
1252.340244,-8660.409521,148.041188,-612.876398
1252.340564,-8586.388927,-1184.329507,-229.828649
1252.340885,-9992.780217,-2442.679609,1532.190996
1252.341206,-10362.883188,-2220.617826,3217.601092
1252.341527,-9400.615463,-2812.782580,1608.800546
1252.341848,-8216.285956,-2220.617826,-153.219100
1252.342169,-9252.574275,0.000000,0.000000
1252.342489,-9992.780217,1554.432478,1455.581446
1252.342810,-9770.718434,1924.535449,2374.896044
1252.343131,-9326.594869,1628.453072,76.609550
1252.343452,-9548.656652,1258.350101,-689.485948
1252.343773,-10066.800811,740.205942,383.047749
1252.344094,-10881.027347,370.102971,612.876398
1252.344414,-10584.944971,-962.267725,2604.724693
1252.344735,-9400.615463,-2072.576638,229.828649
1252.345056,-8364.327145,-962.267725,-1225.752797
1252.345377,-9770.718434,592.164754,0.000000
1252.345698,-10214.842000,2368.659014,1991.848295
1252.346019,-10214.842000,1702.473667,2298.286494
1252.346339,-9474.636058,814.226536,536.266849
1252.346660,-9622.677246,-444.123565,0.000000
1252.346981,-9918.759623,-592.164754,842.705048
1252.347302,-11029.068536,-1776.494261,4060.306139
1252.347623,-9992.780217,-2590.720797,3064.381992
1252.347944,-8438.347739,-2368.659014,536.266849
1252.348264,-8438.347739,-518.144159,-1991.848295
1252.348585,-9030.512492,1036.288319,919.314598
1252.348906,-9918.759623,1332.370696,2145.067394
1252.349227,-9622.677246,1184.329507,1149.143247
1252.349548,-8956.491898,148.041188,-689.485948
1252.349869,-9252.574275,74.020594,-229.828649
1252.350190,-10584.944971,74.020594,2374.896044
1252.350510,-10732.986159,-1110.308913,3370.820191
1252.350831,-9622.677246,-2368.659014,2987.772442
1252.351152,-9400.615463,-2516.700203,0.000000
1252.351473,-8586.388927,-1480.411884,-459.657299
1252.351794,-9622.677246,-222.061783,842.705048
1252.352115,-9696.697840,1184.329507,2068.457845
1252.352435,-9252.574275,1036.288319,1838.629195
1252.352756,-9030.512492,0.000000,0.000000
1252.353077,-9474.636058,-814.226536,229.828649
1252.353398,-9992.780217,-1702.473667,2221.676944
1252.353719,-10288.862594,-2220.617826,3370.820191
1252.354040,-9474.636058,-3034.844362,2145.067394
1252.354360,-8512.368333,-1702.473667,-153.219100
1252.354681,-8808.450710,74.020594,-536.266849
1252.355002,-9474.636058,1702.473667,766.095498
1252.355323,-10362.883188,1850.514855,842.705048
1252.355644,-9770.718434,962.267725,306.438199
1252.355965,-9474.636058,518.144159,-689.485948
1252.356286,-10362.883188,518.144159,153.219100
1252.356606,-11325.150913,74.020594,2834.553343
1252.356927,-10807.006753,-1258.350101,2911.162892
1252.357248,-9992.780217,-2516.700203,842.705048
1252.357569,-8586.388927,-2220.617826,-1532.190996
1252.357890,-8734.430116,-666.185348,-919.314598
1252.358211,-9548.656652,1184.329507,919.314598
1252.358532,-10140.821405,1850.514855,1455.581446
1252.358852,-9548.656652,1258.350101,536.266849
1252.359173,-9252.574275,74.020594,153.219100
1252.359494,-10362.883188,-222.061783,1302.362347
1252.359815,-11103.089130,-1258.350101,3524.039291
1252.360136,-10658.965565,-2368.659014,3677.258390
1252.360457,-9400.615463,-2664.741391,995.924147
1252.360777,-8216.285956,-1406.391290,-536.266849
1252.361098,-8068.244768,1110.308913,0.000000
1252.361419,-10066.800811,1258.350101,1838.629195
1252.361740,-9104.533087,1110.308913,1455.581446
1252.362061,-8808.450710,0.000000,-306.438199
1252.362382,-8586.388927,-518.144159,-612.876398
1252.362703,-9992.780217,0.000000,1762.019645
1252.363023,-11177.109724,-888.247130,4213.525239
1252.363344,-10362.883188,-1776.494261,3217.601092
1252.363665,-9400.615463,-2146.597232,459.657299
1252.363986,-8586.388927,-814.226536,-612.876398
1252.364307,-9474.636058,888.247130,459.657299
1252.364628,-10066.800811,2072.576638,2145.067394
1252.364948,-9474.636058,1702.473667,1225.752797
1252.365269,-8290.306550,444.123565,0.000000
1252.365590,-8734.430116,-740.205942,-306.438199
1252.365911,-10214.842000,-962.267725,2374.896044
1252.366232,-10955.047942,-1702.473667,4136.915689
1252.366553,-9992.780217,-2960.823768,2911.162892
1252.366874,-8882.471304,-2442.679609,536.266849
1252.367194,-8216.285956,-1258.350101,-459.657299
1252.367515,-9770.718434,592.164754,1225.752797
1252.367836,-10140.821405,1480.411884,3830.477490
1252.368157,-9252.574275,296.082377,919.314598
1252.368478,-8882.471304,-296.082377,-766.095498
1252.368799,-9622.677246,-148.041188,0.000000
1252.369120,-11029.068536,-222.061783,2451.505594
1252.369440,-11103.089130,-1110.308913,3753.867940
1252.369761,-9844.739029,-1850.514855,1455.581446
1252.370082,-8734.430116,-1702.473667,-1072.533697
1252.370403,-9474.636058,-148.041188,-842.705048
1252.370724,-10436.903782,1628.453072,1225.752797
1252.371045,-10066.800811,2146.597232,1762.019645
1252.371365,-9474.636058,1406.391290,536.266849
1252.371686,-8660.409521,444.123565,-842.705048
1252.372007,-9844.739029,0.000000,0.000000
1252.372328,-10658.965565,-1110.308913,3294.210641
1252.372649,-10436.903782,-1480.411884,3983.696590
1252.372970,-9770.718434,-2738.761985,1838.629195
1252.373291,-8956.491898,-1924.535449,306.438199
1252.373611,-9030.512492,0.000000,76.609550
1252.373932,-9770.718434,1110.308913,1225.752797
1252.374253,-9622.677246,2516.700203,2145.067394
1252.374574,-9474.636058,1110.308913,306.438199
1252.374895,-9696.697840,666.185348,0.000000
1252.375216,-10362.883188,-592.164754,842.705048
1252.375536,-10584.944971,-888.247130,2451.505594
1252.375857,-10288.862594,-1406.391290,2681.334243
1252.376178,-9326.594869,-1628.453072,3294.210641
1252.376499,-8216.285956,-518.144159,-995.924147
1252.376820,-8734.430116,296.082377,-766.095498
1252.377141,-9104.533087,2220.617826,1302.362347
1252.377462,-10436.903782,1110.308913,1532.190996
1252.377782,-9104.533087,0.000000,536.266849
1252.378103,-8956.491898,-1258.350101,0.000000
1252.378424,-9770.718434,-1554.432478,1608.800546
1252.378745,-10288.862594,-1702.473667,3370.820191
1252.379066,-10140.821405,-1702.473667,3907.087040
1252.379387,-8660.409521,-1776.494261,1225.752797
1252.379708,-8290.306550,-740.205942,-689.485948
1252.380028,-9252.574275,296.082377,306.438199
1252.380349,-9548.656652,444.123565,2757.943793
1252.380670,-9918.759623,370.102971,842.705048
1252.380991,-9104.533087,740.205942,-306.438199
1252.381312,-9252.574275,962.267725,0.000000
1252.381633,-10881.027347,1110.308913,2145.067394
1252.381953,-11029.068536,0.000000,4290.134789
1252.382274,-10881.027347,-1702.473667,3677.258390
1252.382595,-9548.656652,-2368.659014,536.266849
1252.382916,-9400.615463,-1480.411884,-306.438199
1252.383237,-9696.697840,296.082377,459.657299
1252.383558,-9770.718434,1406.391290,1685.410096
1252.383879,-9400.615463,1110.308913,1072.533697
1252.384199,-8068.244768,222.061783,-1072.533697
1252.384520,-8808.450710,-592.164754,-919.314598
1252.384841,-10214.842000,-1480.411884,1685.410096
1252.385162,-10436.903782,-1998.556043,3600.648841
1252.385483,-10362.883188,-2738.761985,2451.505594
1252.385804,-8734.430116,-2294.638420,229.828649
1252.386124,-8586.388927,-666.185348,-306.438199
1252.386445,-10362.883188,962.267725,1915.238745
1252.386766,-9918.759623,1110.308913,1838.629195
1252.387087,-9696.697840,592.164754,383.047749
1252.387408,-9474.636058,74.020594,-1225.752797
1252.387729,-8808.450710,1850.514855,-229.828649
1252.388050,-10881.027347,222.061783,2221.676944
1252.388370,-10436.903782,-518.144159,2374.896044
1252.388691,-9252.574275,-1184.329507,229.828649
1252.389012,-9104.533087,-1036.288319,-1302.362347
1252.389333,-9326.594869,148.041188,-536.266849
1252.389654,-10288.862594,1480.411884,1532.190996
1252.389975,-10584.944971,1332.370696,2528.115143
1252.390295,-9474.636058,1110.308913,766.095498
1252.390616,-9030.512492,0.000000,76.609550
1252.390937,-9696.697840,-1036.288319,919.314598
1252.391258,-10658.965565,-1776.494261,3217.601092
1252.391579,-10066.800811,-3330.926739,2374.896044
1252.391900,-7476.080014,-2590.720797,612.876398
1252.392221,-9696.697840,-1184.329507,-229.828649
1252.392541,-8364.327145,444.123565,766.095498
1252.392862,-9918.759623,740.205942,1762.019645
1252.393183,-9474.636058,1332.370696,2374.896044
1252.393504,-8364.327145,-148.041188,-612.876398
1252.393825,-9548.656652,74.020594,766.095498
1252.394146,-9252.574275,-518.144159,1608.800546
1252.394467,-10436.903782,-1998.556043,2298.286494
1252.394787,-9030.512492,-1776.494261,2374.896044
1252.395108,-9474.636058,-2442.679609,153.219100
1252.395429,-9326.594869,-1036.288319,-536.266849
1252.395750,-9918.759623,74.020594,1225.752797
1252.396071,-9918.759623,740.205942,1455.581446
1252.396392,-9770.718434,2072.576638,1455.581446
1252.396712,-10436.903782,148.041188,1225.752797
1252.397033,-8956.491898,148.041188,766.095498
1252.397354,-10732.986159,-888.247130,2681.334243
1252.397675,-10881.027347,-2072.576638,3677.258390
1252.397996,-9474.636058,-2368.659014,2374.896044
1252.398317,-9178.553681,-2368.659014,0.000000
1252.398638,-8142.265362,-296.082377,-459.657299
1252.398958,-9918.759623,1332.370696,1225.752797
1252.399279,-10658.965565,1554.432478,2145.067394
1252.399600,-10288.862594,1702.473667,1302.362347
1252.399921,-10214.842000,518.144159,0.000000
1252.400242,-9178.553681,296.082377,1378.971896
1252.400563,-11029.068536,-370.102971,2068.457845
1252.400883,-10732.986159,-1258.350101,2834.553343
1252.401204,-9696.697840,-2516.700203,842.705048
1252.401525,-7476.080014,-2146.597232,-1685.410096
1252.401846,-8216.285956,-740.205942,-2145.067394
1252.402167,-9252.574275,1110.308913,-383.047749
1252.402488,-9622.677246,2072.576638,1149.143247
1252.402809,-8956.491898,1110.308913,229.828649
1252.403129,-8734.430116,-296.082377,-383.047749
1252.403450,-9104.533087,-962.267725,612.876398
1252.403771,-11029.068536,-1628.453072,3140.991542
1252.404092,-10955.047942,-1924.535449,4596.572988
1252.404413,-9770.718434,-3330.926739,3140.991542
1252.404734,-8438.347739,-2590.720797,459.657299
1252.405055,-8660.409521,-518.144159,459.657299
1252.405375,-10066.800811,1406.391290,2298.286494
1252.405696,-9622.677246,1628.453072,2298.286494
1252.406017,-8586.388927,222.061783,612.876398
1252.406338,-8290.306550,-370.102971,-766.095498
1252.406659,-9918.759623,-1110.308913,459.657299
1252.406980,-10732.986159,-1110.308913,2528.115143
1252.407300,-9844.739029,-1036.288319,3064.381992
1252.407621,-9548.656652,-1036.288319,1149.143247
1252.407942,-8882.471304,222.061783,-306.438199
1252.408263,-9770.718434,1554.432478,689.485948
1252.408584,-10362.883188,2146.597232,2221.676944
1252.408905,-10066.800811,1406.391290,1762.019645
1252.409226,-9992.780217,-296.082377,612.876398
1252.409546,-9030.512492,-888.247130,-153.219100
1252.409867,-10214.842000,-518.144159,1762.019645
1252.410188,-10732.986159,-518.144159,3830.477490
1252.410509,-10140.821405,-1406.391290,3140.991542
1252.410830,-9178.553681,-2146.597232,689.485948
1252.411151,-8808.450710,-1258.350101,76.609550
1252.411471,-9326.594869,370.102971,229.828649
1252.411792,-10066.800811,1480.411884,2451.505594
1252.412113,-9844.739029,962.267725,1762.019645
1252.412434,-9474.636058,666.185348,-153.219100
1252.412755,-9474.636058,592.164754,1072.533697
1252.413076,-10436.903782,370.102971,1685.410096
1252.413397,-11177.109724,-222.061783,2987.772442
1252.413717,-10140.821405,-1850.514855,2298.286494
1252.414038,-8734.430116,-2368.659014,-306.438199
1252.414359,-8068.244768,-1110.308913,-1378.971896
1252.414680,-9326.594869,518.144159,0.000000
1252.415001,-9770.718434,1554.432478,1685.410096
1252.415322,-9474.636058,1184.329507,536.266849
1252.415643,-8956.491898,148.041188,-995.924147
1252.415963,-9030.512492,-1036.288319,-306.438199
1252.416284,-10140.821405,-1554.432478,1838.629195
1252.416605,-10732.986159,-2294.638420,2987.772442
1252.416926,-9992.780217,-2442.679609,1378.971896
1252.417247,-8438.347739,-2812.782580,-612.876398
1252.417568,-8734.430116,-518.144159,-612.876398
1252.417888,-9918.759623,888.247130,919.314598
1252.418209,-9770.718434,1480.411884,1838.629195
1252.418530,-9400.615463,592.164754,0.000000
1252.418851,-9030.512492,296.082377,-995.924147
1252.419172,-9622.677246,296.082377,0.000000
1252.419493,-10584.944971,-740.205942,1838.629195
1252.419814,-10362.883188,-1776.494261,2604.724693
1252.420134,-9770.718434,-2516.700203,689.485948
1252.420455,-8956.491898,-2072.576638,-766.095498
1252.420776,-9030.512492,148.041188,0.000000
1252.421097,-10140.821405,1924.535449,1762.019645
1252.421418,-10584.944971,2664.741391,2221.676944
1252.421739,-9844.739029,1332.370696,1149.143247
1252.422059,-9400.615463,0.000000,306.438199
1252.422380,-9770.718434,-1406.391290,1685.410096
1252.422701,-10955.047942,-1702.473667,3830.477490
1252.423022,-10362.883188,-2146.597232,3983.696590
1252.423343,-9474.636058,-3108.864956,1608.800546
1252.423664,-7698.141797,-1702.473667,0.000000
1252.423985,-8364.327145,222.061783,229.828649
1252.424305,-9622.677246,1406.391290,1915.238745
1252.424626,-9918.759623,1406.391290,1991.848295
1252.424947,-9474.636058,222.061783,459.657299
1252.425268,-8586.388927,-814.226536,-1532.190996
1252.425589,-10066.800811,0.000000,1455.581446
1252.425910,-11103.089130,-740.205942,4060.306139
1252.426230,-10214.842000,-1850.514855,3447.429741
1252.426551,-9474.636058,-1998.556043,689.485948
1252.426872,-8586.388927,-592.164754,0.000000
1252.427193,-8956.491898,888.247130,229.828649
1252.427514,-10066.800811,1554.432478,1991.848295
1252.427835,-9252.574275,1554.432478,1685.410096
1252.428156,-8364.327145,518.144159,612.876398
1252.428476,-8956.491898,-592.164754,306.438199
1252.428797,-9326.594869,-1850.514855,2145.067394
1252.429118,-10362.883188,-3182.885551,2987.772442
1252.429439,-9326.594869,-2294.638420,2221.676944
1252.429760,-8734.430116,-1998.556043,229.828649
1252.430081,-8808.450710,-518.144159,0.000000
1252.430402,-9548.656652,1184.329507,919.314598
1252.430722,-9844.739029,1406.391290,1378.971896
1252.431043,-9770.718434,222.061783,229.828649
1252.431364,-8956.491898,-148.041188,-1915.238745
1252.431685,-9474.636058,0.000000,-229.828649
1252.432006,-10658.965565,-962.267725,1608.800546
1252.432327,-10288.862594,-1184.329507,2911.162892
1252.432647,-9844.739029,-2664.741391,1072.533697
1252.432968,-9178.553681,-1776.494261,-766.095498
1252.433289,-9030.512492,370.102971,-383.047749
1252.433610,-10362.883188,2368.659014,0.000000
1252.433931,-10214.842000,2738.761985,1532.190996
1252.434252,-10066.800811,1628.453072,995.924147
1252.434573,-9178.553681,148.041188,-689.485948
1252.434893,-10066.800811,-814.226536,612.876398
1252.435214,-10658.965565,-1110.308913,1915.238745
1252.435535,-10732.986159,-1480.411884,3064.381992
1252.435856,-9622.677246,-1406.391290,995.924147
1252.436177,-8364.327145,-592.164754,-306.438199
1252.436498,-8438.347739,1406.391290,-689.485948
1252.436818,-10436.903782,2368.659014,1838.629195
1252.437139,-9918.759623,1998.556043,2298.286494
1252.437460,-9918.759623,222.061783,766.095498
1252.437781,-9030.512492,-518.144159,-919.314598
1252.438102,-9622.677246,-444.123565,1072.533697
1252.438423,-10658.965565,-1480.411884,3217.601092
1252.438744,-9770.718434,-1702.473667,3064.381992
1252.439064,-9474.636058,-1850.514855,1149.143247
1252.439385,-8216.285956,-666.185348,-153.219100
1252.439706,-9178.553681,666.185348,459.657299
1252.440027,-10066.800811,1258.350101,2221.676944
1252.440348,-9474.636058,962.267725,2298.286494
1252.440669,-8808.450710,296.082377,995.924147
1252.440990,-9252.574275,-1258.350101,995.924147
1252.441310,-9178.553681,-2294.638420,1915.238745
1252.441631,-10510.924376,-2516.700203,3294.210641
1252.441952,-9474.636058,-2442.679609,3524.039291
1252.442273,-8882.471304,-1480.411884,1149.143247
1252.442594,-8216.285956,-444.123565,76.609550
1252.442915,-9104.533087,518.144159,536.266849
1252.443235,-9622.677246,1110.308913,1532.190996
1252.443556,-9992.780217,518.144159,1532.190996
1252.443877,-9252.574275,-296.082377,306.438199
1252.444198,-9104.533087,0.000000,229.828649
1252.444519,-10436.903782,0.000000,2298.286494
1252.444840,-9992.780217,-1110.308913,3064.381992
1252.445161,-9992.780217,-1998.556043,2145.067394
1252.445481,-8882.471304,-2294.638420,-383.047749
1252.445802,-8660.409521,-518.144159,-1302.362347
1252.446123,-9770.718434,1258.350101,306.438199
1252.446444,-10584.944971,1480.411884,1685.410096
1252.446765,-9030.512492,1258.350101,919.314598
1252.447086,-9770.718434,-740.205942,-689.485948
1252.447406,-9474.636058,-1406.391290,0.000000
1252.447727,-10584.944971,-1998.556043,1991.848295
1252.448048,-11103.089130,-2368.659014,2987.772442
1252.448369,-9474.636058,-2294.638420,1378.971896
1252.448690,-8512.368333,-1406.391290,-1072.533697
1252.449011,-8808.450710,74.020594,-1302.362347
1252.449332,-9770.718434,1850.514855,229.828649
1252.449652,-10881.027347,1480.411884,1532.190996
1252.449973,-9474.636058,296.082377,-153.219100
1252.450294,-9178.553681,-370.102971,-2681.334243
1252.450615,-10066.800811,296.082377,153.219100
1252.450936,-10658.965565,444.123565,2681.334243
1252.451257,-10807.006753,0.000000,3753.867940
1252.451578,-10140.821405,-1406.391290,1532.190996
1252.451898,-8364.327145,-1110.308913,-536.266849
1252.452219,-9178.553681,518.144159,153.219100
1252.452540,-10066.800811,1258.350101,1608.800546
1252.452861,-9992.780217,1554.432478,2145.067394
1252.453182,-8734.430116,814.226536,766.095498
1252.453503,-8734.430116,-666.185348,-306.438199
1252.453823,-9178.553681,-1258.350101,919.314598
1252.454144,-9992.780217,-1332.370696,2757.943793
1252.454465,-9548.656652,-1110.308913,4903.011187
1252.454786,-8586.388927,-1776.494261,306.438199
1252.455107,-7846.182985,-740.205942,-919.314598
1252.455428,-9104.533087,518.144159,383.047749
1252.455749,-9622.677246,1110.308913,2145.067394
1252.456070,-9918.759623,296.082377,1915.238745
1252.456390,-9474.636058,-1036.288319,536.266849
1252.456711,-9030.512492,222.061783,536.266849
1252.457032,-10658.965565,148.041188,2681.334243
1252.457353,-10658.965565,148.041188,4443.353888
1252.457674,-9548.656652,-2146.597232,2528.115143
1252.457995,-9104.533087,-2368.659014,306.438199
1252.458316,-8142.265362,-962.267725,-842.705048
1252.458637,-9326.594869,962.267725,1072.533697
1252.458958,-10362.883188,1184.329507,2528.115143
1252.459278,-9844.739029,1110.308913,1225.752797
1252.459599,-9918.759623,370.102971,1302.362347
1252.459920,-10658.965565,-888.247130,1302.362347
1252.460241,-10436.903782,-666.185348,3524.039291
1252.460562,-11473.192101,-2368.659014,4213.525239
1252.460883,-9770.718434,-2072.576638,2221.676944
1252.461204,-8956.491898,-2516.700203,0.000000
1252.461525,-7105.977043,-1332.370696,-842.705048
1252.461846,-9400.615463,1480.411884,76.609550
1252.462166,-9696.697840,1776.494261,612.876398
1252.462487,-9548.656652,1110.308913,229.828649
1252.462808,-9474.636058,-370.102971,-766.095498
1252.463129,-9474.636058,-444.123565,-383.047749
1252.463450,-11621.233289,-814.226536,2298.286494
1252.463771,-11103.089130,-1480.411884,3600.648841
1252.464092,-9770.718434,-1998.556043,1225.752797
1252.464413,-8734.430116,-1776.494261,153.219100
1252.464734,-8068.244768,0.000000,-1532.190996
1252.465054,-9326.594869,1184.329507,-536.266849
1252.465375,-9844.739029,1702.473667,536.266849
1252.465696,-8956.491898,1036.288319,0.000000
1252.466017,-8956.491898,-740.205942,-229.828649
1252.466338,-9252.574275,-1850.514855,612.876398
1252.466659,-10288.862594,-2294.638420,2451.505594
1252.466980,-10732.986159,-2960.823768,3294.210641
1252.467301,-9252.574275,-2516.700203,1685.410096
1252.467622,-8364.327145,-888.247130,-536.266849
1252.467943,-8882.471304,518.144159,0.000000
1252.468263,-9844.739029,1924.535449,1532.190996
1252.468584,-9992.780217,1480.411884,1532.190996
1252.468905,-9696.697840,444.123565,383.047749
1252.469226,-9400.615463,0.000000,-383.047749
1252.469547,-10140.821405,-148.041188,1302.362347
1252.469868,-10362.883188,-2294.638420,4826.401637
1252.470189,-9918.759623,-2072.576638,2987.772442
1252.470510,-8956.491898,-2368.659014,536.266849
1252.470831,-7920.203579,-1184.329507,-842.705048
1252.471151,-8586.388927,1036.288319,-229.828649
1252.471472,-10066.800811,2516.700203,2221.676944
1252.471793,-9918.759623,2294.638420,2451.505594
1252.472114,-9178.553681,1110.308913,1225.752797
1252.472435,-9474.636058,-666.185348,919.314598
1252.472756,-10807.006753,-222.061783,3217.601092
1252.473077,-11769.274478,-1406.391290,5056.230287
1252.473398,-10955.047942,-1258.350101,4290.134789
1252.473719,-9474.636058,-1110.308913,1915.238745
1252.474039,-8068.244768,740.205942,0.000000
1252.474360,-8882.471304,1480.411884,842.705048
1252.474681,-9622.677246,1702.473667,2145.067394
1252.475002,-9400.615463,444.123565,1225.752797
1252.475323,-8808.450710,-592.164754,-919.314598
1252.475644,-9104.533087,-740.205942,-306.438199
1252.475965,-10732.986159,-888.247130,2068.457845
1252.476286,-10807.006753,-1258.350101,3907.087040
1252.476607,-10066.800811,-2368.659014,2298.286494
1252.476927,-8734.430116,-2220.617826,-612.876398
1252.477248,-8586.388927,-1110.308913,-1225.752797
1252.477569,-9474.636058,296.082377,0.000000
1252.477890,-9474.636058,1480.411884,1455.581446
1252.478211,-9992.780217,1776.494261,689.485948
1252.478532,-8512.368333,-222.061783,-536.266849
1252.478853,-8956.491898,-1702.473667,-229.828649
1252.479174,-10214.842000,-2590.720797,1991.848295
1252.479495,-10807.006753,-2960.823768,2834.553343
1252.479816,-9696.697840,-2664.741391,995.924147
1252.480136,-8512.368333,-1924.535449,-919.314598
1252.480457,-8216.285956,0.000000,-1225.752797
1252.480778,-9918.759623,1702.473667,766.095498
1252.481099,-9992.780217,1924.535449,995.924147
1252.481420,-9400.615463,1332.370696,-536.266849
1252.481741,-9400.615463,1110.308913,-1532.190996
1252.482062,-10214.842000,888.247130,153.219100
1252.482383,-11769.274478,74.020594,2298.286494
1252.482704,-10807.006753,-814.226536,3524.039291
1252.483024,-9992.780217,-2516.700203,919.314598
1252.483345,-8808.450710,-1998.556043,-1378.971896
1252.483666,-9178.553681,296.082377,-536.266849
1252.483987,-9770.718434,1998.556043,1072.533697
1252.484308,-10288.862594,2516.700203,2145.067394
1252.484629,-9548.656652,444.123565,766.095498
1252.484950,-8882.471304,-666.185348,0.000000
1252.485271,-9400.615463,-2294.638420,1149.143247
1252.485592,-10807.006753,-2146.597232,3830.477490
1252.485912,-10658.965565,-2664.741391,3830.477490
1252.486233,-9030.512492,-1554.432478,2068.457845
1252.486554,-8660.409521,-1184.329507,-766.095498
1252.486875,-8364.327145,1406.391290,153.219100
1252.487196,-9918.759623,1998.556043,1302.362347
1252.487517,-9474.636058,1258.350101,1302.362347
1252.487838,-8438.347739,296.082377,-842.705048
1252.488159,-8734.430116,-222.061783,-919.314598
1252.488480,-9622.677246,-592.164754,995.924147
1252.488801,-10807.006753,-1406.391290,3907.087040
1252.489121,-10510.924376,-2146.597232,4443.353888
1252.489442,-9770.718434,-3552.988522,1608.800546
1252.489763,-9104.533087,-1480.411884,766.095498
1252.490084,-9770.718434,444.123565,1915.238745
1252.490405,-9918.759623,1406.391290,3140.991542
1252.490726,-9622.677246,1036.288319,2987.772442
1252.491047,-8586.388927,-148.041188,919.314598
1252.491368,-8364.327145,-1554.432478,0.000000
1252.491689,-9770.718434,-1850.514855,1838.629195
1252.492009,-10510.924376,-1998.556043,5439.278036
1252.492330,-9770.718434,-2146.597232,2911.162892
1252.492651,-9030.512492,-1554.432478,919.314598
1252.492972,-8808.450710,0.000000,0.000000
1252.493293,-9622.677246,1110.308913,919.314598
1252.493614,-10436.903782,1110.308913,1762.019645
1252.493935,-10066.800811,296.082377,459.657299
1252.494256,-9178.553681,0.000000,-842.705048
1252.494577,-9474.636058,-222.061783,0.000000
1252.494897,-11029.068536,-296.082377,1608.800546
1252.495218,-10807.006753,-1332.370696,2681.334243
1252.495539,-10288.862594,-2368.659014,1608.800546
1252.495860,-9326.594869,-1850.514855,-536.266849
1252.496181,-9400.615463,-740.205942,-689.485948
1252.496502,-9770.718434,740.205942,536.266849
1252.496823,-9992.780217,1924.535449,1455.581446
1252.497144,-10140.821405,666.185348,153.219100
1252.497465,-9104.533087,370.102971,-153.219100
1252.497785,-10140.821405,-1110.308913,306.438199
1252.498106,-10288.862594,-1036.288319,2221.676944
1252.498427,-11177.109724,-1998.556043,3370.820191
1252.498748,-9474.636058,-2072.576638,919.314598
1252.499069,-9400.615463,0.000000,-1072.533697
1252.499390,-9178.553681,1036.288319,-306.438199
1252.499711,-9622.677246,2146.597232,1762.019645
1252.500032,-9844.739029,444.123565,995.924147
1252.500353,-9104.533087,0.000000,-1915.238745
1252.500674,-9178.553681,222.061783,-1378.971896
1252.500994,-10066.800811,962.267725,995.924147
1252.501315,-10955.047942,74.020594,3524.039291
1252.501636,-10510.924376,-740.205942,3140.991542
1252.501957,-9104.533087,-1776.494261,536.266849
1252.502278,-8290.306550,-1184.329507,-919.314598
1252.502599,-9252.574275,444.123565,459.657299
1252.502920,-10066.800811,1998.556043,1991.848295
1252.503241,-9918.759623,1258.350101,1991.848295
1252.503562,-8364.327145,518.144159,689.485948
1252.503882,-8364.327145,-962.267725,76.609550
1252.504203,-9474.636058,-1998.556043,1915.238745
1252.504524,-10436.903782,-2220.617826,3677.258390
1252.504845,-10066.800811,-2368.659014,2834.553343
1252.505166,-8586.388927,-1554.432478,612.876398
1252.505487,-8216.285956,296.082377,0.000000
1252.505808,-9474.636058,1850.514855,1302.362347
1252.506129,-9474.636058,2516.700203,2834.553343
1252.506450,-10288.862594,666.185348,2068.457845
1252.506770,-9548.656652,-444.123565,0.000000
1252.507091,-9400.615463,-1036.288319,0.000000
1252.507412,-10436.903782,-296.082377,2681.334243
1252.507733,-10362.883188,-962.267725,4136.915689
1252.508054,-9770.718434,-1924.535449,2221.676944
1252.508375,-8586.388927,-1776.494261,0.000000
1252.508696,-8586.388927,-666.185348,-842.705048
1252.509017,-9770.718434,1110.308913,1149.143247
1252.509338,-10288.862594,1480.411884,2145.067394
1252.509658,-9770.718434,1332.370696,1685.410096
1252.509979,-9178.553681,0.000000,76.609550
1252.510300,-9474.636058,-814.226536,612.876398
1252.510621,-10881.027347,-1776.494261,2374.896044
1252.510942,-10955.047942,-2442.679609,2757.943793
1252.511263,-10066.800811,-2960.823768,1532.190996
1252.511584,-8364.327145,-3627.009116,0.000000
1252.511905,-8216.285956,0.000000,-1378.971896
1252.512226,-9696.697840,1406.391290,153.219100
1252.512547,-9474.636058,1776.494261,536.266849
1252.512867,-9622.677246,370.102971,-459.657299
1252.513188,-9474.636058,-296.082377,-995.924147
1252.513509,-9622.677246,-370.102971,0.000000
1252.513830,-10658.965565,-740.205942,2145.067394
1252.514151,-10510.924376,-1480.411884,2451.505594
1252.514472,-9548.656652,-1702.473667,766.095498
1252.514793,-8512.368333,-1110.308913,-1378.971896
1252.515114,-8882.471304,814.226536,-1072.533697
1252.515435,-10214.842000,2072.576638,995.924147
1252.515755,-10881.027347,3182.885551,995.924147
1252.516076,-9548.656652,1110.308913,919.314598
1252.516397,-8660.409521,-296.082377,383.047749
1252.516718,-9622.677246,-1702.473667,1072.533697
1252.517039,-10807.006753,-2442.679609,2911.162892
1252.517360,-9474.636058,-2368.659014,2757.943793
1252.517681,-9474.636058,-2368.659014,1072.533697
1252.518002,-7698.141797,-666.185348,-153.219100
1252.518323,-8808.450710,814.226536,153.219100
1252.518643,-10362.883188,1332.370696,2374.896044
1252.518964,-9770.718434,888.247130,1762.019645
1252.519285,-9474.636058,-296.082377,536.266849
1252.519606,-9622.677246,-296.082377,766.095498
1252.519927,-9770.718434,-1776.494261,3140.991542
1252.520248,-10807.006753,-1036.288319,3907.087040
1252.520569,-10436.903782,-1702.473667,2987.772442
1252.520890,-8068.244768,-1036.288319,0.000000
1252.521211,-9030.512492,-518.144159,-766.095498
1252.521531,-8882.471304,2072.576638,766.095498
1252.521852,-10066.800811,2368.659014,2987.772442
1252.522173,-10362.883188,518.144159,2911.162892
1252.522494,-9400.615463,-814.226536,2145.067394
1252.522815,-10214.842000,-2072.576638,2145.067394
1252.523136,-10436.903782,-1998.556043,3370.820191
1252.523457,-11029.068536,-1924.535449,4903.011187
1252.523778,-9548.656652,-1924.535449,3370.820191
1252.524099,-9030.512492,-518.144159,1838.629195
1252.524420,-8364.327145,-296.082377,-995.924147
1252.524740,-8290.306550,962.267725,-306.438199
1252.525061,-9696.697840,888.247130,1225.752797
1252.525382,-9326.594869,592.164754,153.219100
1252.525703,-8956.491898,0.000000,-383.047749
1252.526024,-9918.759623,-370.102971,229.828649
1252.526345,-9992.780217,-518.144159,2068.457845
1252.526666,-11251.130318,-1036.288319,2987.772442
1252.526987,-10214.842000,-1480.411884,1915.238745
1252.527308,-8734.430116,-962.267725,-1072.533697
1252.527628,-9030.512492,444.123565,-1378.971896
1252.527949,-9696.697840,1628.453072,0.000000
1252.528270,-9474.636058,2294.638420,689.485948
1252.528591,-10066.800811,370.102971,0.000000
1252.528912,-8956.491898,-666.185348,-612.876398
1252.529233,-9770.718434,-1924.535449,76.609550
1252.529554,-10584.944971,-1554.432478,2528.115143
1252.529875,-11251.130318,-2516.700203,3524.039291
1252.530196,-9474.636058,-2072.576638,1685.410096
1252.530516,-8734.430116,-740.205942,-459.657299
1252.530837,-8808.450710,666.185348,-459.657299
1252.531158,-9252.574275,1332.370696,1149.143247
1252.531479,-9622.677246,296.082377,1072.533697
1252.531800,-8882.471304,-296.082377,-536.266849
1252.532121,-8364.327145,-444.123565,-1608.800546
1252.532442,-9622.677246,0.000000,842.705048
1252.532763,-10732.986159,-444.123565,2987.772442
1252.533084,-10214.842000,-74.020594,2298.286494
1252.533404,-9770.718434,-296.082377,919.314598
1252.533725,-8216.285956,148.041188,-459.657299
1252.534046,-8512.368333,1110.308913,383.047749
1252.534367,-10362.883188,1998.556043,2068.457845
1252.534688,-9770.718434,1332.370696,2298.286494
1252.535009,-8956.491898,0.000000,995.924147
1252.535330,-9696.697840,-1332.370696,766.095498
1252.535651,-9622.677246,-1480.411884,2604.724693
1252.535972,-10881.027347,-1480.411884,4673.182538
1252.536293,-10584.944971,-1776.494261,4213.525239
1252.536613,-7994.224174,-1924.535449,1378.971896
1252.536934,-8586.388927,-814.226536,-153.219100
1252.537255,-9326.594869,666.185348,1149.143247
1252.537576,-10140.821405,1036.288319,2451.505594
1252.537897,-10510.924376,74.020594,1762.019645
1252.538218,-9474.636058,-222.061783,383.047749
1252.538539,-9474.636058,0.000000,383.047749
1252.538860,-11177.109724,-296.082377,2451.505594
1252.539181,-11029.068536,-370.102971,3600.648841
1252.539501,-9992.780217,-1554.432478,2757.943793
1252.539822,-8290.306550,-1628.453072,-766.095498
1252.540143,-8068.244768,-740.205942,-1762.019645
1252.540464,-8808.450710,518.144159,-306.438199
1252.540785,-9622.677246,1110.308913,1838.629195
1252.541106,-9178.553681,296.082377,1302.362347
1252.541427,-9030.512492,-740.205942,229.828649
1252.541748,-9918.759623,-1628.453072,1378.971896
1252.542069,-10881.027347,-1406.391290,3677.258390
1252.542389,-11177.109724,-1702.473667,4749.792088
1252.542710,-9696.697840,-1924.535449,2451.505594
1252.543031,-8068.244768,-962.267725,0.000000
1252.543352,-8586.388927,370.102971,-766.095498
1252.543673,-9474.636058,1406.391290,0.000000
1252.543994,-9252.574275,1258.350101,383.047749
1252.544315,-8660.409521,370.102971,-1378.971896
1252.544636,-8882.471304,518.144159,-1455.581446
1252.544957,-10288.862594,0.000000,842.705048
1252.545278,-11251.130318,-296.082377,2757.943793
1252.545598,-10955.047942,-1036.288319,3064.381992
1252.545919,-10066.800811,-1702.473667,689.485948
1252.546240,-9030.512492,-1480.411884,-1302.362347
1252.546561,-9178.553681,-444.123565,-766.095498
1252.546882,-9474.636058,740.205942,306.438199
1252.547203,-9326.594869,1036.288319,459.657299
1252.547524,-9104.533087,148.041188,-153.219100
1252.547845,-8290.306550,-666.185348,-383.047749
1252.548166,-9844.739029,-814.226536,1072.533697
1252.548486,-10807.006753,-1110.308913,3064.381992
1252.548807,-10807.006753,-1850.514855,3677.258390
1252.549128,-8734.430116,-1850.514855,2681.334243
1252.549449,-8512.368333,-888.247130,-459.657299
1252.549770,-9252.574275,296.082377,536.266849
1252.550091,-9770.718434,1036.288319,1608.800546
1252.550412,-9622.677246,592.164754,1225.752797
1252.550733,-9104.533087,0.000000,0.000000
1252.551054,-9400.615463,0.000000,0.000000
1252.551374,-10584.944971,-296.082377,2374.896044
1252.551695,-11325.150913,-888.247130,4596.572988
1252.552016,-10214.842000,-2146.597232,3830.477490
1252.552337,-9178.553681,-1776.494261,842.705048
1252.552658,-8364.327145,0.000000,76.609550
1252.552979,-9770.718434,1036.288319,1302.362347
1252.553300,-9622.677246,1924.535449,1532.190996
1252.553621,-9474.636058,1110.308913,1378.971896
1252.553942,-8882.471304,296.082377,612.876398
1252.554262,-9474.636058,-962.267725,766.095498
1252.554583,-10362.883188,-1776.494261,3140.991542
1252.554904,-10658.965565,-3034.844362,4060.306139
1252.555225,-9696.697840,-2960.823768,2374.896044
1252.555545,-8512.368333,-2368.659014,459.657299
1252.555866,-7846.182985,-592.164754,-536.266849
1252.556187,-9474.636058,2220.617826,919.314598
1252.556507,-9474.636058,666.185348,689.485948
1252.556828,-8512.368333,74.020594,-1378.971896
1252.557149,-8142.265362,0.000000,-2528.115143
1252.557469,-9474.636058,444.123565,-689.485948
1252.557790,-11325.150913,0.000000,2451.505594
1252.558111,-11473.192101,-1332.370696,3983.696590
1252.558431,-10436.903782,-2960.823768,1991.848295
1252.558752,-9622.677246,-2368.659014,-383.047749
1252.559073,-10140.821405,-1036.288319,536.266849
1252.559393,-10288.862594,814.226536,1762.019645
1252.559714,-9696.697840,1406.391290,1762.019645
1252.560035,-8734.430116,962.267725,0.000000
1252.560355,-8364.327145,74.020594,-842.705048
1252.560676,-9252.574275,-518.144159,-306.438199
1252.560997,-10807.006753,-962.267725,2451.505594
1252.561317,-10658.965565,-1406.391290,2911.162892
1252.561638,-9474.636058,-1480.411884,1762.019645
1252.561959,-9474.636058,-1184.329507,76.609550
1252.562279,-9474.636058,888.247130,459.657299
1252.562600,-10436.903782,2812.782580,2221.676944
1252.562921,-10288.862594,2072.576638,1685.410096
1252.563241,-9030.512492,1258.350101,842.705048
1252.563562,-9104.533087,296.082377,-536.266849
1252.563883,-9992.780217,-518.144159,229.828649
1252.564203,-10732.986159,-888.247130,3140.991542
1252.564524,-10288.862594,-2146.597232,2221.676944
1252.564845,-8882.471304,-1702.473667,229.828649
1252.565165,-9474.636058,-592.164754,-689.485948
1252.565486,-9400.615463,1850.514855,1225.752797
1252.565807,-10658.965565,2146.597232,2451.505594
1252.566127,-10066.800811,888.247130,1072.533697
1252.566448,-9178.553681,148.041188,0.000000
1252.566769,-8882.471304,-888.247130,0.000000
1252.567089,-9474.636058,-1406.391290,2068.457845
1252.567410,-10214.842000,-1702.473667,4136.915689
1252.567731,-9548.656652,-2220.617826,2681.334243
1252.568051,-8290.306550,-1924.535449,153.219100
1252.568372,-8438.347739,0.000000,76.609550
1252.568693,-9474.636058,1036.288319,1378.971896
1252.569013,-10140.821405,1184.329507,1915.238745
1252.569334,-9474.636058,0.000000,689.485948
1252.569655,-8882.471304,-518.144159,-306.438199
1252.569975,-9104.533087,-444.123565,0.000000
1252.570296,-10807.006753,0.000000,2145.067394
1252.570617,-10510.924376,-740.205942,3140.991542
1252.570937,-9548.656652,-1850.514855,1378.971896
1252.571258,-8734.430116,-1776.494261,-689.485948
1252.571579,-9252.574275,-444.123565,-995.924147
1252.571899,-9844.739029,1184.329507,766.095498
1252.572220,-10658.965565,2146.597232,1991.848295
1252.572541,-9992.780217,1406.391290,1302.362347
1252.572861,-9178.553681,0.000000,-306.438199
1252.573182,-9474.636058,-1628.453072,0.000000
1252.573503,-10140.821405,-2294.638420,1915.238745
1252.573823,-10584.944971,-2960.823768,2757.943793
1252.574144,-9548.656652,-3034.844362,1072.533697
1252.574465,-9030.512492,-1480.411884,-306.438199
1252.574785,-9104.533087,296.082377,-229.828649
1252.575106,-10066.800811,1776.494261,1455.581446
1252.575427,-10584.944971,1480.411884,1915.238745
1252.575747,-9992.780217,518.144159,459.657299
1252.576068,-9622.677246,-444.123565,-766.095498
1252.576389,-10066.800811,-444.123565,689.485948
1252.576709,-10881.027347,-740.205942,2681.334243
1252.577030,-10362.883188,-1554.432478,2374.896044
1252.577351,-9252.574275,-1554.432478,306.438199
1252.577671,-8586.388927,-222.061783,-1225.752797
1252.577992,-9400.615463,1258.350101,-229.828649
1252.578313,-10140.821405,2072.576638,1532.190996
1252.578633,-11177.109724,2294.638420,1532.190996
1252.578954,-9770.718434,814.226536,766.095498
1252.579275,-8660.409521,-444.123565,612.876398
1252.579595,-9844.739029,-1184.329507,2374.896044
1252.579916,-10510.924376,-2072.576638,4366.744339
1252.580237,-9844.739029,-2886.803174,3370.820191
1252.580557,-8586.388927,-2590.720797,1378.971896
1252.580878,-7476.080014,-888.247130,-689.485948
1252.581199,-8956.491898,962.267725,459.657299
1252.581519,-9622.677246,1924.535449,2681.334243
1252.581840,-9400.615463,518.144159,1608.800546
1252.582161,-8882.471304,-666.185348,153.219100
1252.582481,-9104.533087,-888.247130,306.438199
1252.582802,-9548.656652,-1924.535449,4443.353888
1252.583123,-10584.944971,-2072.576638,4366.744339
1252.583443,-9622.677246,-2368.659014,2374.896044
1252.583764,-8734.430116,-1184.329507,-306.438199
1252.584085,-7550.100608,1332.370696,-766.095498
1252.584405,-10510.924376,1998.556043,689.485948
1252.584726,-9326.594869,3256.906145,2068.457845
1252.585047,-9918.759623,1110.308913,995.924147
1252.585367,-8956.491898,-740.205942,-229.828649
1252.585688,-9474.636058,-1480.411884,76.609550
1252.586009,-11029.068536,-1628.453072,2757.943793
1252.586329,-10362.883188,-1850.514855,3600.648841
1252.586650,-9918.759623,-2442.679609,1532.190996
1252.586971,-6957.935855,-518.144159,612.876398
1252.587291,-9252.574275,-296.082377,-612.876398
1252.587612,-9474.636058,1184.329507,919.314598
1252.587932,-9992.780217,1184.329507,1608.800546
1252.588253,-10214.842000,370.102971,1455.581446
1252.588574,-9178.553681,222.061783,-766.095498
1252.588894,-10066.800811,-370.102971,153.219100
1252.589215,-11325.150913,-518.144159,2911.162892
1252.589536,-10140.821405,-962.267725,2451.505594
1252.589856,-10362.883188,-1702.473667,459.657299
1252.590177,-7772.162391,-888.247130,-2068.457845
1252.590498,-8956.491898,370.102971,-1532.190996
1252.590818,-9844.739029,1924.535449,842.705048
1252.591139,-10140.821405,1258.350101,2451.505594
1252.591460,-9770.718434,0.000000,1149.143247
1252.591780,-9992.780217,-1036.288319,1072.533697
1252.592101,-10658.965565,-1628.453072,2528.115143
1252.592422,-11325.150913,-1850.514855,4903.011187
1252.592742,-10584.944971,-2516.700203,4519.963438
1252.593063,-9178.553681,-2368.659014,1915.238745
1252.593384,-7402.059420,-1480.411884,0.000000
1252.593704,-8290.306550,222.061783,-612.876398
1252.594025,-8734.430116,1554.432478,306.438199
1252.594346,-8808.450710,1184.329507,0.000000
1252.594666,-8290.306550,888.247130,-1149.143247
1252.594987,-8956.491898,148.041188,-1225.752797
1252.595308,-9474.636058,-444.123565,2681.334243
1252.595628,-10955.047942,-592.164754,3600.648841
1252.595949,-10807.006753,-1480.411884,3294.210641
1252.596270,-9622.677246,-1628.453072,1149.143247
1252.596590,-9252.574275,-370.102971,229.828649
1252.596911,-9548.656652,1036.288319,612.876398
1252.597232,-9844.739029,1924.535449,1072.533697
1252.597552,-9474.636058,1998.556043,1532.190996
1252.597873,-8882.471304,0.000000,0.000000
1252.598194,-8734.430116,-666.185348,-306.438199
1252.598514,-10214.842000,-1332.370696,1915.238745
1252.598835,-10732.986159,-1480.411884,3830.477490
1252.599156,-10510.924376,-1628.453072,2911.162892
1252.599476,-9030.512492,-1924.535449,1685.410096
1252.599797,-8882.471304,222.061783,0.000000
1252.600118,-9918.759623,1184.329507,459.657299
1252.600438,-10436.903782,1406.391290,2451.505594
1252.600759,-10214.842000,666.185348,1608.800546
1252.601080,-9474.636058,-666.185348,76.609550
1252.601400,-9474.636058,-666.185348,842.705048
1252.601721,-10658.965565,-666.185348,2681.334243
1252.602042,-10584.944971,-1554.432478,3753.867940
1252.602362,-9622.677246,-2368.659014,1838.629195
1252.602683,-7994.224174,-2220.617826,-919.314598
1252.603004,-8512.368333,-592.164754,-1455.581446
1252.603324,-9326.594869,1184.329507,689.485948
1252.603645,-9326.594869,2072.576638,1915.238745
1252.603966,-9252.574275,444.123565,995.924147
1252.604286,-9104.533087,-518.144159,-383.047749
1252.604607,-10066.800811,-740.205942,459.657299
1252.604928,-10807.006753,-1036.288319,2757.943793
1252.605248,-10807.006753,-1776.494261,2987.772442
1252.605569,-9252.574275,-1924.535449,1225.752797
1252.605890,-7994.224174,-1480.411884,-1762.019645
1252.606210,-8068.244768,666.185348,-1608.800546
1252.606531,-9844.739029,1036.288319,0.000000
1252.606852,-9104.533087,1776.494261,689.485948
1252.607172,-10288.862594,-740.205942,0.000000
1252.607493,-9474.636058,-148.041188,-689.485948
1252.607814,-11177.109724,-1258.350101,383.047749
1252.608134,-11843.295072,-1036.288319,3600.648841
1252.608455,-11251.130318,-1924.535449,2757.943793
1252.608776,-10066.800811,-2220.617826,1149.143247
1252.609096,-8216.285956,-888.247130,-1072.533697
1252.609417,-7994.224174,518.144159,-2221.676944
1252.609738,-9400.615463,2368.659014,0.000000
1252.610058,-9252.574275,1998.556043,229.828649
1252.610379,-8660.409521,1258.350101,-459.657299
1252.610700,-9326.594869,-592.164754,689.485948
1252.611020,-9918.759623,-740.205942,2298.286494
1252.611341,-11473.192101,-1776.494261,4519.963438
1252.611662,-11621.233289,-2442.679609,4290.134789
1252.611982,-9326.594869,-2146.597232,1608.800546
1252.612303,-8512.368333,-444.123565,-306.438199
1252.612624,-9104.533087,1554.432478,689.485948
1252.612944,-9548.656652,2516.700203,1838.629195
1252.613265,-9622.677246,1036.288319,1302.362347
1252.613586,-8808.450710,-518.144159,0.000000
1252.613906,-8734.430116,-740.205942,0.000000
1252.614227,-10140.821405,-1406.391290,2451.505594
1252.614548,-10807.006753,-1924.535449,4826.401637
1252.614868,-9992.780217,-2368.659014,3064.381992
1252.615189,-8882.471304,-1702.473667,766.095498
1252.615510,-8290.306550,148.041188,-153.219100
1252.615830,-9252.574275,2072.576638,1225.752797
1252.616151,-9252.574275,1258.350101,3830.477490
1252.616472,-9030.512492,666.185348,995.924147
1252.616792,-8142.265362,-370.102971,-612.876398
1252.617113,-9178.553681,-1480.411884,306.438199
1252.617434,-9696.697840,-1850.514855,2221.676944
1252.617754,-10881.027347,-2590.720797,3907.087040
1252.618075,-9918.759623,-2516.700203,2451.505594
1252.618396,-8586.388927,-1702.473667,76.609550
1252.618716,-8882.471304,0.000000,-306.438199
1252.619037,-9770.718434,1406.391290,842.705048
1252.619358,-10288.862594,1184.329507,1991.848295
1252.619678,-9474.636058,222.061783,229.828649
1252.619999,-8660.409521,-740.205942,-1225.752797
1252.620320,-9400.615463,-1036.288319,0.000000
1252.620640,-10658.965565,-1332.370696,2298.286494
1252.620961,-10955.047942,-1776.494261,2987.772442
1252.621282,-10066.800811,-2294.638420,1302.362347
1252.621602,-8956.491898,-1702.473667,-612.876398
1252.621923,-9474.636058,0.000000,-689.485948
1252.622244,-10066.800811,1258.350101,995.924147
1252.622564,-9918.759623,1628.453072,1072.533697
1252.622885,-9326.594869,1110.308913,229.828649
1252.623206,-9178.553681,-518.144159,-995.924147
1252.623526,-9474.636058,-814.226536,459.657299
1252.623847,-11177.109724,-1702.473667,2987.772442
1252.624168,-11325.150913,-2442.679609,3064.381992
1252.624488,-8142.265362,-1554.432478,1991.848295
1252.624809,-8512.368333,-814.226536,-919.314598
1252.625130,-8808.450710,1702.473667,-612.876398
1252.625450,-9918.759623,3108.864956,1838.629195
1252.625771,-10362.883188,1184.329507,1302.362347
1252.626092,-8734.430116,-148.041188,-995.924147
1252.626412,-9178.553681,-222.061783,-689.485948
1252.626733,-10658.965565,-296.082377,1302.362347
1252.627054,-10955.047942,0.000000,3907.087040
1252.627374,-10288.862594,-1036.288319,3600.648841
1252.627695,-8438.347739,-1110.308913,229.828649
1252.628016,-8956.491898,-888.247130,-1378.971896
1252.628336,-9474.636058,1184.329507,229.828649
1252.628657,-10140.821405,2146.597232,1685.410096
1252.628978,-9104.533087,592.164754,2145.067394
1252.629298,-8734.430116,222.061783,842.705048
1252.629619,-9326.594869,-888.247130,842.705048
1252.629940,-9918.759623,-1924.535449,2374.896044
1252.630260,-10658.965565,-1628.453072,4290.134789
1252.630581,-9992.780217,-1628.453072,3140.991542
1252.630902,-8586.388927,-1850.514855,76.609550
1252.631222,-8142.265362,444.123565,-306.438199
1252.631543,-9400.615463,1406.391290,919.314598
1252.631864,-9696.697840,1332.370696,2145.067394
1252.632184,-9474.636058,222.061783,536.266849
1252.632505,-8660.409521,-592.164754,-1378.971896
1252.632826,-8808.450710,0.000000,-536.266849
1252.633146,-10881.027347,148.041188,2681.334243
1252.633467,-10807.006753,-666.185348,4136.915689
1252.633788,-10214.842000,-1998.556043,2757.943793
1252.634108,-9474.636058,-1850.514855,0.000000
1252.634429,-9474.636058,0.000000,-1685.410096
1252.634750,-10436.903782,592.164754,1915.238745
1252.635070,-10288.862594,1480.411884,2604.724693
1252.635391,-9104.533087,222.061783,919.314598
1252.635712,-8216.285956,-814.226536,-459.657299
1252.636032,-8956.491898,-1702.473667,-153.219100
1252.636353,-10140.821405,-1850.514855,1532.190996
1252.636674,-10362.883188,-2146.597232,2834.553343
1252.636994,-9474.636058,-2442.679609,766.095498
1252.637315,-8364.327145,-1258.350101,919.314598
1252.637636,-9622.677246,444.123565,153.219100
1252.637956,-10140.821405,1998.556043,1991.848295
1252.638277,-11029.068536,1110.308913,1685.410096
1252.638598,-10066.800811,0.000000,0.000000
1252.638918,-8956.491898,-592.164754,-842.705048
1252.639239,-10066.800811,-888.247130,76.609550
1252.639560,-10658.965565,-1036.288319,2221.676944
1252.639880,-10140.821405,-1110.308913,2145.067394
1252.640201,-9770.718434,-1184.329507,0.000000
1252.640521,-8290.306550,-740.205942,-1455.581446
1252.640842,-9326.594869,1258.350101,-306.438199
1252.641163,-10732.986159,1924.535449,1532.190996
1252.641483,-10807.006753,1776.494261,2604.724693
1252.641804,-9474.636058,0.000000,842.705048
1252.642125,-8808.450710,-1480.411884,0.000000
1252.642445,-9770.718434,-1924.535449,1685.410096
1252.642766,-10510.924376,-1702.473667,3447.429741
1252.643087,-9918.759623,-2072.576638,2451.505594
1252.643407,-8586.388927,-1110.308913,383.047749
1252.643728,-7550.100608,148.041188,-1225.752797
1252.644049,-9030.512492,1554.432478,0.000000
1252.644369,-9992.780217,2146.597232,2757.943793
1252.644690,-9918.759623,74.020594,1915.238745
1252.645011,-8808.450710,-962.267725,383.047749
1252.645331,-8882.471304,-1628.453072,383.047749
1252.645652,-9696.697840,-1184.329507,995.924147
1252.645973,-11029.068536,-1036.288319,3983.696590
1252.646293,-9622.677246,-1110.308913,2528.115143
1252.646614,-8660.409521,-1258.350101,229.828649
1252.646935,-8068.244768,-592.164754,-766.095498
1252.647255,-9030.512492,518.144159,842.705048
1252.647576,-10140.821405,1110.308913,2528.115143
1252.647897,-9770.718434,1036.288319,1455.581446
1252.648217,-8586.388927,222.061783,919.314598
1252.648538,-9918.759623,-1110.308913,1072.533697
1252.648859,-9400.615463,-1110.308913,2604.724693
1252.649179,-11473.192101,-1924.535449,3907.087040
1252.649500,-9770.718434,-1480.411884,2604.724693
1252.649821,-9030.512492,-1480.411884,612.876398
1252.650141,-8660.409521,222.061783,0.000000
1252.650462,-9548.656652,1924.535449,1225.752797
1252.650783,-10214.842000,1036.288319,1685.410096
1252.651103,-9252.574275,296.082377,306.438199
1252.651424,-9252.574275,-666.185348,-1608.800546
1252.651745,-9770.718434,-444.123565,-229.828649
1252.652065,-11325.150913,-296.082377,2451.505594
1252.652386,-11399.171507,-592.164754,2834.553343
1252.652707,-9918.759623,-1110.308913,1838.629195
1252.653027,-8882.471304,-518.144159,-1455.581446
1252.653348,-9178.553681,814.226536,-1378.971896
1252.653669,-10510.924376,2072.576638,689.485948
1252.653989,-10658.965565,1110.308913,76.609550
1252.654310,-8956.491898,444.123565,383.047749
1252.654631,-8956.491898,-814.226536,-306.438199
1252.654951,-9844.739029,-2146.597232,1072.533697
1252.655272,-10732.986159,-2516.700203,2681.334243
1252.655593,-10140.821405,-2590.720797,2681.334243
1252.655913,-8882.471304,-2220.617826,383.047749
1252.656234,-7550.100608,-740.205942,-1149.143247
1252.656555,-8956.491898,814.226536,-383.047749
1252.656875,-9252.574275,1628.453072,2068.457845
1252.657196,-10066.800811,1332.370696,842.705048
1252.657517,-9474.636058,296.082377,-229.828649
1252.657838,-9178.553681,0.000000,-766.095498
1252.658158,-10658.965565,0.000000,1915.238745
1252.658479,-11399.171507,-1036.288319,3907.087040
1252.658800,-9548.656652,-2294.638420,2987.772442
1252.659120,-8956.491898,-2738.761985,0.000000
1252.659441,-8364.327145,-814.226536,-842.705048
1252.659762,-8290.306550,740.205942,229.828649
1252.660082,-10288.862594,2368.659014,2834.553343
1252.660403,-9326.594869,1332.370696,2604.724693
1252.660723,-8956.491898,-814.226536,0.000000
1252.661044,-9104.533087,-296.082377,-842.705048
1252.661365,-10436.903782,-1702.473667,2374.896044
1252.661685,-11103.089130,-1924.535449,4749.792088
1252.662006,-9992.780217,-2220.617826,3370.820191
1252.662327,-9104.533087,-814.226536,1149.143247
1252.662647,-9030.512492,222.061783,0.000000
1252.662968,-8660.409521,2294.638420,2451.505594
1252.663288,-11103.089130,2072.576638,3524.039291
1252.663609,-10658.965565,592.164754,1608.800546
1252.663930,-9252.574275,-1628.453072,-229.828649
1252.664250,-9474.636058,-1628.453072,459.657299
1252.664571,-10584.944971,-1332.370696,2298.286494
1252.664891,-10658.965565,-1406.391290,3524.039291
1252.665212,-9548.656652,-2590.720797,229.828649
1252.665533,-7846.182985,-962.267725,-1378.971896
1252.665853,-8586.388927,-222.061783,-1685.410096
1252.666174,-9178.553681,1702.473667,459.657299
1252.666495,-10510.924376,1258.350101,2145.067394
1252.666815,-9770.718434,74.020594,1302.362347
1252.667136,-9030.512492,-1480.411884,-459.657299
1252.667456,-9992.780217,-2368.659014,919.314598
1252.667777,-10584.944971,-1850.514855,3064.381992
1252.668098,-10584.944971,-2220.617826,3064.381992
1252.668418,-9252.574275,-1702.473667,842.705048
1252.668739,-7772.162391,-444.123565,-2298.286494
1252.669060,-8586.388927,1036.288319,-2145.067394
1252.669380,-9326.594869,2146.597232,536.266849
1252.669701,-9104.533087,1776.494261,76.609550
1252.670021,-9918.759623,0.000000,-919.314598
1252.670342,-9326.594869,-296.082377,-1149.143247
1252.670663,-10658.965565,-592.164754,1149.143247
1252.670983,-11325.150913,-1184.329507,2911.162892
1252.671304,-10807.006753,-1258.350101,2681.334243
1252.671625,-9474.636058,-962.267725,383.047749
1252.671945,-8142.265362,0.000000,-919.314598
1252.672266,-8364.327145,1110.308913,-919.314598
1252.672586,-9622.677246,1998.556043,1072.533697
1252.672907,-9400.615463,1110.308913,1225.752797
1252.673228,-8956.491898,0.000000,383.047749
1252.673548,-8512.368333,-2146.597232,995.924147
1252.673869,-9992.780217,-1998.556043,1991.848295
1252.674189,-11177.109724,-1850.514855,4443.353888
1252.674510,-10658.965565,-1924.535449,4136.915689
1252.674831,-9474.636058,-1480.411884,2145.067394
1252.675151,-8512.368333,0.000000,689.485948
1252.675472,-9622.677246,1036.288319,1838.629195
1252.675793,-9770.718434,1258.350101,2757.943793
1252.676113,-9400.615463,0.000000,1532.190996
1252.676434,-8364.327145,-1332.370696,-536.266849
1252.676754,-8660.409521,-518.144159,-766.095498
1252.677075,-10510.924376,-518.144159,2298.286494
1252.677396,-11177.109724,-962.267725,4366.744339
1252.677716,-10732.986159,-1554.432478,2298.286494
1252.678037,-9548.656652,-1998.556043,0.000000
1252.678358,-8512.368333,0.000000,-1302.362347
1252.678678,-9326.594869,1554.432478,306.438199
1252.678999,-9548.656652,2220.617826,2221.676944
1252.679319,-8882.471304,962.267725,1149.143247
1252.679640,-8290.306550,-518.144159,-153.219100
1252.679961,-9178.553681,-1924.535449,306.438199
1252.680281,-10510.924376,-1850.514855,2604.724693
1252.680602,-11177.109724,-1850.514855,4213.525239
1252.680923,-10510.924376,-2146.597232,2834.553343
1252.681243,-8586.388927,-1110.308913,153.219100
1252.681564,-8364.327145,74.020594,-536.266849
1252.681884,-8734.430116,1776.494261,2604.724693
1252.682205,-9770.718434,1258.350101,1991.848295
1252.682526,-9770.718434,0.000000,229.828649
1252.682846,-8808.450710,-296.082377,-1072.533697
1252.683167,-9696.697840,-148.041188,-306.438199
1252.683487,-11103.089130,148.041188,2221.676944
1252.683808,-10955.047942,-1036.288319,3140.991542
1252.684129,-9918.759623,-1998.556043,1149.143247
1252.684449,-8734.430116,-962.267725,-766.095498
1252.684770,-9696.697840,-518.144159,0.000000
1252.685091,-9844.739029,444.123565,995.924147
1252.685411,-9918.759623,814.226536,1762.019645
1252.685732,-8882.471304,0.000000,76.609550
1252.686052,-8142.265362,-740.205942,2145.067394
1252.686373,-9844.739029,-1850.514855,1378.971896
1252.686694,-10584.944971,-2220.617826,2987.772442
1252.687014,-10955.047942,-2146.597232,3294.210641
1252.687335,-9474.636058,-1332.370696,1762.019645
1252.687656,-8364.327145,370.102971,-383.047749
1252.687976,-9474.636058,1628.453072,0.000000
1252.688297,-9770.718434,2368.659014,1762.019645
1252.688617,-9696.697840,1036.288319,1302.362347
1252.688938,-9030.512492,-296.082377,-1455.581446
1252.689259,-8956.491898,-740.205942,-995.924147
1252.689579,-9992.780217,0.000000,1455.581446
1252.689900,-11029.068536,-370.102971,4060.306139
1252.690220,-10807.006753,-888.247130,2681.334243
1252.690541,-9252.574275,-370.102971,536.266849
1252.690862,-8734.430116,888.247130,-842.705048
1252.691182,-9992.780217,2442.679609,766.095498
1252.691503,-10362.883188,2960.823768,2528.115143
1252.691824,-10140.821405,1924.535449,1838.629195
1252.692144,-8660.409521,370.102971,76.609550
1252.692465,-8956.491898,-888.247130,76.609550
1252.692785,-10140.821405,-1406.391290,1838.629195
1252.693106,-10658.965565,-888.247130,3907.087040
1252.693427,-9696.697840,-1406.391290,2911.162892
1252.693747,-8660.409521,-962.267725,689.485948
1252.694068,-8586.388927,0.000000,-229.828649
1252.694389,-9548.656652,1480.411884,2604.724693
1252.694709,-10066.800811,962.267725,2068.457845
1252.695030,-9474.636058,-222.061783,1378.971896
1252.695350,-8956.491898,-1406.391290,-842.705048
1252.695671,-9030.512492,-1184.329507,-766.095498
1252.695992,-10807.006753,-222.061783,1838.629195
1252.696312,-10807.006753,-370.102971,2987.772442
1252.696633,-9918.759623,-1258.350101,1608.800546
1252.696954,-8956.491898,-1480.411884,-1072.533697
1252.697274,-8660.409521,-444.123565,-536.266849
1252.697595,-9474.636058,296.082377,919.314598
1252.697915,-9918.759623,370.102971,2451.505594
1252.698236,-9474.636058,-814.226536,1225.752797
1252.698557,-8660.409521,-2146.597232,-1302.362347
1252.698877,-9030.512492,-2146.597232,612.876398
1252.699198,-10510.924376,-2442.679609,2911.162892
1252.699518,-10584.944971,-1998.556043,3907.087040
1252.699839,-9770.718434,-2664.741391,2068.457845
1252.700160,-8216.285956,-2220.617826,306.438199
1252.700480,-8438.347739,-888.247130,-459.657299
1252.700801,-9696.697840,-148.041188,1072.533697
1252.701122,-10066.800811,0.000000,1762.019645
1252.701442,-8808.450710,-1110.308913,459.657299
1252.701763,-8734.430116,-888.247130,-1762.019645
1252.702083,-9622.677246,-222.061783,-766.095498
1252.702404,-10807.006753,222.061783,2298.286494
1252.702725,-11029.068536,-518.144159,2834.553343
1252.703045,-9770.718434,-1480.411884,689.485948
1252.703366,-9104.533087,-1628.453072,-995.924147
1252.703687,-9400.615463,-518.144159,153.219100
1252.704007,-11029.068536,148.041188,1838.629195
1252.704328,-10658.965565,888.247130,2374.896044
1252.704648,-9696.697840,962.267725,842.705048
1252.704969,-9252.574275,0.000000,153.219100
1252.705290,-9696.697840,-592.164754,1455.581446
1252.705610,-10881.027347,-1406.391290,3064.381992
1252.705931,-10362.883188,-1924.535449,2681.334243
1252.706251,-8142.265362,-2146.597232,0.000000
1252.706572,-7328.038826,-962.267725,-1149.143247
1252.706893,-8882.471304,962.267725,76.609550
1252.707213,-10214.842000,2072.576638,2145.067394
1252.707534,-10362.883188,2072.576638,2298.286494
1252.707855,-9178.553681,592.164754,229.828649
1252.708175,-9474.636058,-148.041188,306.438199
1252.708496,-9548.656652,-740.205942,3370.820191
1252.708816,-10510.924376,-1628.453072,3447.429741
1252.709137,-9548.656652,-2146.597232,2987.772442
1252.709458,-8364.327145,-2072.576638,0.000000
1252.709778,-8142.265362,0.000000,689.485948
1252.710099,-9548.656652,888.247130,1072.533697
1252.710420,-9622.677246,2590.720797,2681.334243
1252.710740,-10066.800811,1110.308913,2528.115143
1252.711061,-8290.306550,0.000000,766.095498
1252.711381,-9252.574275,-962.267725,2145.067394
1252.711702,-10584.944971,-1332.370696,3370.820191
1252.712023,-10510.924376,-1258.350101,4060.306139
1252.712343,-9696.697840,-1406.391290,2757.943793
1252.712664,-8290.306550,-1776.494261,229.828649
1252.712985,-8068.244768,0.000000,-1149.143247
1252.713305,-9770.718434,1406.391290,383.047749
1252.713626,-9030.512492,2738.761985,919.314598
1252.713946,-10288.862594,1258.350101,1072.533697
1252.714267,-9104.533087,370.102971,-995.924147
1252.714588,-10214.842000,0.000000,842.705048
1252.714908,-11103.089130,-1184.329507,2451.505594
1252.715229,-10658.965565,-1628.453072,2757.943793
1252.715549,-10510.924376,-1924.535449,842.705048
1252.715870,-9030.512492,-1110.308913,-1072.533697
1252.716191,-8512.368333,518.144159,-1532.190996
1252.716511,-10066.800811,2072.576638,383.047749
1252.716832,-10066.800811,1406.391290,-383.047749
1252.717153,-10140.821405,1184.329507,229.828649
1252.717473,-9400.615463,-518.144159,-459.657299
1252.717794,-9770.718434,-666.185348,383.047749
1252.718114,-10955.047942,-1258.350101,2681.334243
1252.718435,-10510.924376,-2072.576638,2757.943793
1252.718756,-9326.594869,-1998.556043,1072.533697
1252.719076,-8734.430116,-1480.411884,-383.047749
1252.719397,-8734.430116,222.061783,0.000000
1252.719718,-9992.780217,1406.391290,1378.971896
1252.720038,-9622.677246,814.226536,1378.971896
1252.720359,-8734.430116,666.185348,-306.438199
1252.720679,-9326.594869,444.123565,-306.438199
1252.721000,-9252.574275,0.000000,2145.067394
1252.721321,-10955.047942,-1184.329507,3294.210641
1252.721641,-10436.903782,-2294.638420,2451.505594
1252.721962,-9030.512492,-2442.679609,0.000000
1252.722283,-8586.388927,-814.226536,153.219100
1252.722603,-9030.512492,962.267725,459.657299
1252.722924,-10066.800811,1850.514855,2068.457845
1252.723244,-9696.697840,1036.288319,1915.238745
1252.723565,-9104.533087,-148.041188,383.047749
1252.723886,-9474.636058,-1258.350101,459.657299
1252.724206,-10066.800811,-1702.473667,2451.505594
1252.724527,-10732.986159,-2072.576638,4290.134789
1252.724847,-9770.718434,-2960.823768,3447.429741
1252.725168,-8216.285956,-2664.741391,919.314598
1252.725489,-7920.203579,-962.267725,-153.219100
1252.725809,-9474.636058,1036.288319,1532.190996
1252.726130,-10288.862594,2146.597232,2604.724693
1252.726451,-9918.759623,1554.432478,3217.601092
1252.726771,-9178.553681,222.061783,536.266849
1252.727092,-9400.615463,222.061783,842.705048
1252.727412,-11251.130318,-888.247130,3294.210641
1252.727733,-10881.027347,-1406.391290,4213.525239
1252.728054,-9622.677246,-2442.679609,2298.286494
1252.728374,-8364.327145,-2146.597232,-536.266849
1252.728695,-8438.347739,-814.226536,-1685.410096
1252.729016,-9252.574275,1258.350101,689.485948
1252.729336,-10436.903782,1850.514855,2298.286494
1252.729657,-9178.553681,666.185348,1149.143247
1252.729977,-9178.553681,-1258.350101,-229.828649
1252.730298,-9548.656652,-2146.597232,459.657299
1252.730619,-10436.903782,-2886.803174,1991.848295
1252.730939,-10955.047942,-2516.700203,3370.820191
1252.731260,-9474.636058,-1850.514855,1072.533697
1252.731580,-8364.327145,-1036.288319,-1072.533697
1252.731901,-8512.368333,444.123565,-1302.362347
1252.732222,-9030.512492,1480.411884,153.219100
1252.732542,-10140.821405,962.267725,459.657299
1252.732863,-9622.677246,148.041188,-536.266849
1252.733184,-8808.450710,-222.061783,-1225.752797
1252.733504,-10807.006753,592.164754,0.000000
1252.733825,-11547.212695,0.000000,3294.210641
1252.734145,-10807.006753,-1184.329507,3677.258390
1252.734466,-9696.697840,-1850.514855,536.266849
1252.734787,-8808.450710,-814.226536,-2298.286494
1252.735107,-8808.450710,1036.288319,-766.095498
1252.735428,-9844.739029,2072.576638,383.047749
1252.735749,-9030.512492,2294.638420,383.047749
1252.736069,-8512.368333,1184.329507,-842.705048
1252.736390,-9104.533087,0.000000,-2068.457845
1252.736710,-9622.677246,-1110.308913,612.876398
1252.737031,-11399.171507,-1628.453072,2987.772442
1252.737352,-10955.047942,-2294.638420,3064.381992
1252.737672,-7550.100608,-1406.391290,1915.238745
1252.737993,-8734.430116,-296.082377,0.000000
1252.738314,-9474.636058,2072.576638,1149.143247
1252.738634,-10288.862594,2442.679609,1991.848295
1252.738955,-9696.697840,1850.514855,3370.820191
1252.739275,-9030.512492,74.020594,-459.657299
1252.739596,-9104.533087,-296.082377,-383.047749
1252.739917,-10436.903782,-1258.350101,2374.896044
1252.740237,-10658.965565,-1702.473667,3983.696590
1252.740558,-9844.739029,-2664.741391,2757.943793
1252.740878,-8956.491898,-1998.556043,459.657299
1252.741199,-8734.430116,-296.082377,0.000000
1252.741520,-9252.574275,1110.308913,1225.752797
1252.741840,-9252.574275,2072.576638,2911.162892
1252.742161,-9770.718434,740.205942,1838.629195
1252.742482,-8734.430116,-740.205942,536.266849
1252.742802,-9400.615463,-1776.494261,1378.971896
1252.743123,-10362.883188,-1702.473667,3064.381992
1252.743443,-10658.965565,-1702.473667,4519.963438
1252.743764,-9844.739029,-2146.597232,3064.381992
1252.744085,-7772.162391,-1628.453072,153.219100
1252.744405,-8068.244768,148.041188,-306.438199
1252.744726,-9622.677246,1776.494261,919.314598
1252.745047,-9696.697840,1998.556043,1838.629195
1252.745367,-9548.656652,370.102971,766.095498
1252.745688,-9326.594869,-592.164754,-153.219100
1252.746008,-9992.780217,-962.267725,536.266849
1252.746329,-11547.212695,-1702.473667,2681.334243
1252.746650,-11399.171507,-1924.535449,2834.553343
1252.746970,-9770.718434,-1850.514855,612.876398
1252.747291,-8586.388927,-518.144159,-1685.410096
1252.747612,-9104.533087,1036.288319,-842.705048
1252.747932,-9622.677246,1998.556043,383.047749
1252.748253,-9770.718434,1184.329507,919.314598
1252.748573,-8586.388927,-370.102971,-689.485948
1252.748894,-8216.285956,-1702.473667,-995.924147
1252.749215,-9400.615463,-2072.576638,459.657299
1252.749535,-10732.986159,-1998.556043,3294.210641
1252.749856,-10436.903782,-2590.720797,2987.772442
1252.750176,-9474.636058,-2294.638420,2604.724693
1252.750497,-8734.430116,-1036.288319,-229.828649
1252.750818,-9400.615463,962.267725,0.000000
1252.751138,-10214.842000,2368.659014,1915.238745
1252.751459,-9474.636058,2146.597232,1378.971896
1252.751780,-9474.636058,-222.061783,-612.876398
1252.752100,-8808.450710,-962.267725,-766.095498
1252.752421,-10288.862594,-962.267725,1532.190996
1252.752741,-10955.047942,-1702.473667,3064.381992
1252.753062,-9992.780217,-1554.432478,3370.820191
1252.753383,-9178.553681,-962.267725,229.828649
1252.753703,-9252.574275,-296.082377,-1762.019645
1252.754024,-8586.388927,2738.761985,612.876398
1252.754345,-11917.315666,962.267725,1072.533697
1252.754665,-8808.450710,888.247130,2145.067394
1252.754986,-9770.718434,-1480.411884,-306.438199
1252.755306,-8956.491898,-444.123565,766.095498
1252.755627,-10658.965565,-1110.308913,1762.019645
1252.755948,-11547.212695,296.082377,5056.230287
1252.756268,-9548.656652,-296.082377,3064.381992
1252.756589,-9030.512492,-1480.411884,306.438199
1252.756910,-8586.388927,518.144159,383.047749
1252.757230,-9696.697840,296.082377,919.314598
1252.757551,-9992.780217,1184.329507,1838.629195
1252.757872,-9844.739029,814.226536,1455.581446
1252.758193,-8142.265362,0.000000,-766.095498
1252.758513,-9252.574275,-222.061783,0.000000
1252.758834,-10436.903782,-222.061783,2987.772442
1252.759155,-11177.109724,-1184.329507,4443.353888
1252.759475,-10066.800811,-2442.679609,2145.067394
1252.759796,-8660.409521,-1702.473667,-536.266849
1252.760117,-8734.430116,296.082377,-689.485948
1252.760438,-9918.759623,2146.597232,1149.143247
1252.760758,-9770.718434,1702.473667,2911.162892
1252.761079,-9474.636058,-370.102971,995.924147
1252.761400,-8586.388927,-1406.391290,-306.438199
1252.761721,-9474.636058,-1850.514855,383.047749
1252.762041,-10584.944971,-1702.473667,2681.334243
1252.762362,-11103.089130,-1332.370696,3217.601092
1252.762683,-9326.594869,-148.041188,1685.410096
1252.763003,-8438.347739,-592.164754,-1608.800546
1252.763324,-8586.388927,592.164754,-1072.533697
1252.763645,-10214.842000,888.247130,383.047749
1252.763966,-10436.903782,296.082377,1072.533697
1252.764286,-9474.636058,0.000000,-919.314598
1252.764607,-9252.574275,-518.144159,-1991.848295
1252.764928,-9918.759623,-518.144159,383.047749
1252.765249,-11177.109724,-1110.308913,2604.724693
1252.765569,-10955.047942,-1554.432478,2068.457845
1252.765890,-9326.594869,-2294.638420,0.000000
1252.766211,-9030.512492,-1406.391290,-1302.362347
1252.766532,-9548.656652,592.164754,-383.047749
1252.766852,-9992.780217,1702.473667,2681.334243
1252.767173,-9770.718434,1406.391290,1685.410096
1252.767494,-9252.574275,0.000000,0.000000
1252.767814,-8882.471304,-1110.308913,-306.438199
1252.768135,-10214.842000,-1258.350101,1608.800546
1252.768456,-11547.212695,-518.144159,3830.477490
1252.768777,-10510.924376,-962.267725,3677.258390
1252.769097,-9178.553681,-1184.329507,1378.971896
1252.769418,-8216.285956,-148.041188,0.000000
1252.769739,-9992.780217,962.267725,-153.219100
1252.770060,-9548.656652,444.123565,2374.896044
1252.770380,-9326.594869,0.000000,1608.800546
1252.770701,-8734.430116,-962.267725,-153.219100
1252.771022,-8586.388927,-666.185348,-459.657299
1252.771342,-10362.883188,-814.226536,2451.505594
1252.771663,-10658.965565,-962.267725,3983.696590
1252.771984,-10214.842000,-1628.453072,2757.943793
1252.772305,-8956.491898,-1628.453072,459.657299
1252.772625,-8438.347739,-444.123565,306.438199
1252.772946,-10066.800811,148.041188,2068.457845
1252.773267,-9770.718434,888.247130,3447.429741
1252.773588,-9622.677246,74.020594,2221.676944
1252.773908,-7846.182985,-740.205942,995.924147
1252.774229,-8956.491898,-740.205942,919.314598
1252.774550,-10955.047942,-1480.411884,3524.039291
1252.774871,-10955.047942,-2664.741391,4060.306139
1252.775191,-8882.471304,-2738.761985,1302.362347
1252.775512,-8068.244768,-2738.761985,-1072.533697
1252.775833,-8142.265362,888.247130,-612.876398
1252.776153,-10584.944971,2072.576638,1608.800546
1252.776474,-9770.718434,2146.597232,2145.067394
1252.776795,-9844.739029,962.267725,-153.219100
1252.777116,-9326.594869,-370.102971,-459.657299
1252.777436,-10288.862594,-444.123565,459.657299
1252.777757,-11621.233289,-1110.308913,2987.772442
1252.778078,-9770.718434,-1036.288319,2681.334243
1252.778399,-9252.574275,-1776.494261,229.828649
1252.778719,-8364.327145,-1110.308913,-2221.676944
1252.779040,-8882.471304,962.267725,-995.924147
1252.779361,-10288.862594,3108.864956,2145.067394
1252.779682,-9770.718434,2368.659014,1455.581446
1252.780002,-9474.636058,888.247130,-153.219100
1252.780323,-9326.594869,-296.082377,-459.657299
1252.780644,-10066.800811,-1480.411884,919.314598
1252.780964,-10881.027347,-1628.453072,3140.991542
1252.781285,-10955.047942,-2516.700203,2757.943793
1252.781606,-8586.388927,-1702.473667,-842.705048
1252.781927,-8660.409521,74.020594,-1455.581446
1252.782247,-8808.450710,2368.659014,-229.828649
1252.782568,-9918.759623,3330.926739,1225.752797
1252.782889,-9844.739029,1554.432478,536.266849
1252.783210,-8882.471304,222.061783,-1072.533697
1252.783530,-9104.533087,-518.144159,-1378.971896
1252.783851,-10881.027347,-1110.308913,2221.676944
1252.784172,-10881.027347,-962.267725,4290.134789
1252.784492,-10362.883188,-1776.494261,2834.553343
1252.784813,-8808.450710,-1776.494261,0.000000
1252.785134,-8364.327145,296.082377,-995.924147
1252.785455,-9030.512492,1110.308913,383.047749
1252.785775,-9844.739029,2072.576638,2221.676944
1252.786096,-9474.636058,1332.370696,1608.800546
1252.786417,-8734.430116,0.000000,612.876398
1252.786738,-9400.615463,-1184.329507,1455.581446
1252.787058,-10732.986159,-1258.350101,3524.039291
1252.787379,-11029.068536,-1480.411884,4673.182538
1252.787700,-9992.780217,-1850.514855,3217.601092
1252.788021,-8364.327145,-1702.473667,766.095498
1252.788341,-8290.306550,-592.164754,153.219100
1252.788662,-9178.553681,814.226536,1225.752797
1252.788983,-9622.677246,1406.391290,2528.115143
1252.789303,-9548.656652,444.123565,1762.019645
1252.789624,-9030.512492,-814.226536,383.047749
1252.789945,-9400.615463,-1258.350101,689.485948
1252.790266,-11103.089130,-1554.432478,3447.429741
1252.790586,-10732.986159,-1332.370696,3753.867940
1252.790907,-9844.739029,-2368.659014,2145.067394
1252.791228,-8586.388927,-1776.494261,-306.438199
1252.791549,-8438.347739,-444.123565,-1072.533697
1252.791869,-9770.718434,1554.432478,995.924147
1252.792190,-10140.821405,1702.473667,1915.238745
1252.792511,-9474.636058,370.102971,536.266849
1252.792831,-9178.553681,-962.267725,-689.485948
1252.793152,-9548.656652,-1258.350101,383.047749
1252.793473,-10362.883188,-1776.494261,2604.724693
1252.793794,-10658.965565,-2146.597232,2681.334243
1252.794114,-9400.615463,-2516.700203,766.095498
1252.794435,-8142.265362,-1702.473667,-1225.752797
1252.794756,-9178.553681,148.041188,-689.485948
1252.795077,-9770.718434,1406.391290,459.657299
1252.795397,-10214.842000,1406.391290,536.266849
1252.795718,-9770.718434,444.123565,-306.438199
1252.796039,-9326.594869,-148.041188,-766.095498
1252.796360,-10362.883188,0.000000,306.438199
1252.796680,-11695.253884,-296.082377,2911.162892
1252.797001,-10584.944971,-888.247130,2068.457845
1252.797322,-9252.574275,-1036.288319,0.000000
1252.797642,-8956.491898,-370.102971,-1685.410096
1252.797963,-9104.533087,1036.288319,-995.924147
1252.798284,-10066.800811,1850.514855,1149.143247
1252.798605,-9992.780217,1258.350101,1455.581446
1252.798925,-8734.430116,0.000000,1149.143247
1252.799246,-9622.677246,-1998.556043,-383.047749
1252.799567,-9474.636058,-1110.308913,1685.410096
1252.799888,-11251.130318,-2146.597232,3677.258390
1252.800208,-9622.677246,-2220.617826,2604.724693
1252.800529,-8808.450710,-1924.535449,536.266849
1252.800850,-8216.285956,-222.061783,-612.876398
1252.801170,-8808.450710,2146.597232,459.657299
1252.801491,-10362.883188,3182.885551,2451.505594
1252.801812,-9844.739029,1702.473667,2298.286494
1252.802133,-8734.430116,0.000000,-306.438199
1252.802453,-9474.636058,-592.164754,153.219100
1252.802774,-10214.842000,-1554.432478,2681.334243
1252.803095,-10362.883188,-1998.556043,4136.915689
1252.803416,-10066.800811,-1998.556043,2834.553343
1252.803736,-7920.203579,-740.205942,0.000000
1252.804057,-8290.306550,666.185348,-229.828649
1252.804378,-9844.739029,1924.535449,2374.896044
1252.804699,-10288.862594,1850.514855,3294.210641
1252.805019,-10214.842000,74.020594,3370.820191
1252.805340,-9326.594869,-2072.576638,2068.457845
1252.805661,-9770.718434,-2960.823768,2374.896044
1252.805981,-10658.965565,-2294.638420,4366.744339
1252.806302,-10658.965565,-1406.391290,4749.792088
1252.806623,-9400.615463,-962.267725,2145.067394
1252.806944,-7624.121203,-592.164754,-995.924147
1252.807264,-7698.141797,1332.370696,-2298.286494
1252.807585,-9030.512492,2220.617826,0.000000
1252.807906,-9400.615463,1702.473667,306.438199
1252.808227,-9474.636058,74.020594,-306.438199
1252.808547,-8734.430116,-296.082377,-1378.971896
1252.808868,-10066.800811,-296.082377,0.000000
1252.809189,-12139.377449,-666.185348,3294.210641
1252.809509,-11843.295072,-1332.370696,3753.867940
1252.809830,-10288.862594,-2738.761985,689.485948
1252.810151,-8586.388927,-1332.370696,-1838.629195
1252.810472,-8808.450710,-296.082377,-1991.848295
1252.810792,-9770.718434,1184.329507,-153.219100
1252.811113,-9474.636058,1480.411884,383.047749
1252.811434,-8586.388927,0.000000,-689.485948
1252.811755,-8586.388927,-1406.391290,-1225.752797
1252.812075,-10436.903782,-1998.556043,919.314598
1252.812396,-11399.171507,-2220.617826,3524.039291
1252.812717,-10807.006753,-2516.700203,4213.525239
1252.813038,-9696.697840,-1628.453072,1225.752797
1252.813358,-8216.285956,-222.061783,-842.705048
1252.813679,-8660.409521,1850.514855,-229.828649
1252.814000,-9918.759623,2146.597232,1225.752797
1252.814320,-9474.636058,888.247130,383.047749
1252.814641,-8438.347739,0.000000,-995.924147
1252.814962,-8882.471304,-740.205942,-842.705048
1252.815283,-9992.780217,-296.082377,1608.800546
1252.815603,-11917.315666,-444.123565,4213.525239
1252.815924,-10436.903782,-2220.617826,2987.772442
1252.816245,-8882.471304,-1628.453072,842.705048
1252.816566,-9474.636058,-1036.288319,-153.219100
1252.816886,-8734.430116,74.020594,-459.657299
1252.817207,-10066.800811,1258.350101,2451.505594
1252.817528,-9326.594869,1036.288319,2374.896044
1252.817849,-8586.388927,0.000000,919.314598
1252.818169,-9178.553681,-1184.329507,766.095498
1252.818490,-9474.636058,-1554.432478,2681.334243
1252.818811,-9918.759623,-1110.308913,3370.820191
1252.819131,-9844.739029,-1184.329507,2987.772442
1252.819452,-8734.430116,-962.267725,612.876398
1252.819773,-8512.368333,0.000000,1378.971896
1252.820094,-10288.862594,74.020594,1838.629195
1252.820414,-10288.862594,2072.576638,2757.943793
1252.820735,-10955.047942,962.267725,2374.896044
1252.821056,-9548.656652,518.144159,-383.047749
1252.821377,-9844.739029,74.020594,919.314598
1252.821697,-10510.924376,-888.247130,2987.772442
1252.822018,-10288.862594,-1776.494261,2757.943793
1252.822339,-9326.594869,-2664.741391,689.485948
1252.822659,-8364.327145,-1554.432478,-1378.971896
1252.822980,-8142.265362,592.164754,-1532.190996
1252.823301,-9992.780217,2294.638420,919.314598
1252.823622,-10658.965565,2220.617826,1685.410096
1252.823942,-8734.430116,666.185348,689.485948
1252.824263,-9474.636058,-1110.308913,76.609550
1252.824584,-10362.883188,-2072.576638,995.924147
1252.824905,-10881.027347,-2146.597232,2834.553343
1252.825225,-10214.842000,-2146.597232,2374.896044
1252.825546,-9178.553681,-1258.350101,536.266849
1252.825867,-7179.997637,-444.123565,-2298.286494
1252.826188,-8808.450710,1036.288319,-1149.143247
1252.826508,-8808.450710,1480.411884,-766.095498
1252.826829,-9548.656652,888.247130,459.657299
1252.827150,-9770.718434,-666.185348,-306.438199
1252.827470,-9104.533087,-666.185348,-1302.362347
1252.827791,-10881.027347,-888.247130,1149.143247
1252.828112,-10584.944971,-666.185348,4213.525239
1252.828433,-9844.739029,-1110.308913,2604.724693
1252.828753,-9770.718434,-1998.556043,76.609550
1252.829074,-8068.244768,-888.247130,-1685.410096
1252.829395,-8808.450710,814.226536,-1378.971896
1252.829716,-9992.780217,1628.453072,459.657299
1252.830036,-9770.718434,1776.494261,995.924147
1252.830357,-9252.574275,222.061783,383.047749
1252.830678,-9252.574275,-962.267725,229.828649
1252.830998,-10214.842000,-1776.494261,1991.848295
1252.831319,-11103.089130,-1702.473667,4213.525239
1252.831640,-10658.965565,-2368.659014,3447.429741
1252.831961,-8956.491898,-1406.391290,1685.410096
1252.832281,-8364.327145,296.082377,76.609550
1252.832602,-9178.553681,1628.453072,1149.143247
1252.832923,-9548.656652,1850.514855,2451.505594
1252.833244,-9918.759623,518.144159,1532.190996
1252.833564,-9326.594869,-666.185348,-383.047749
1252.833885,-9030.512492,-962.267725,383.047749
1252.834206,-10955.047942,-962.267725,2604.724693
1252.834527,-11177.109724,-1332.370696,4596.572988
1252.834847,-10066.800811,-1924.535449,2757.943793
1252.835168,-8660.409521,-2146.597232,919.314598
1252.835489,-8364.327145,-740.205942,-153.219100
1252.835809,-9104.533087,1036.288319,919.314598
1252.836130,-9992.780217,1850.514855,2528.115143
1252.836451,-8660.409521,74.020594,2068.457845
1252.836772,-8586.388927,-888.247130,1149.143247
1252.837092,-9474.636058,-2294.638420,1685.410096
1252.837413,-10436.903782,-2072.576638,3447.429741
1252.837734,-11251.130318,-3478.967927,3447.429741
1252.838055,-10288.862594,-3108.864956,2528.115143
1252.838375,-7698.141797,-592.164754,76.609550
1252.838696,-8290.306550,74.020594,-766.095498
1252.839017,-9252.574275,2590.720797,1072.533697
1252.839337,-10140.821405,1406.391290,1608.800546
1252.839658,-8956.491898,-74.020594,-689.485948
1252.839979,-8956.491898,-148.041188,-1072.533697
1252.840300,-10066.800811,-444.123565,153.219100
1252.840620,-10436.903782,-962.267725,2528.115143
1252.840941,-11177.109724,-1480.411884,2604.724693
1252.841262,-9252.574275,-1406.391290,229.828649
1252.841583,-8734.430116,-1258.350101,-1915.238745
1252.841903,-9178.553681,888.247130,-459.657299
1252.842224,-9770.718434,1110.308913,306.438199
1252.842545,-9992.780217,1628.453072,459.657299
1252.842866,-8734.430116,148.041188,-689.485948
1252.843186,-9104.533087,-666.185348,-919.314598
1252.843507,-10288.862594,-962.267725,842.705048
1252.843828,-11029.068536,-2072.576638,2757.943793
1252.844148,-10510.924376,-1628.453072,2451.505594
1252.844469,-9252.574275,-1924.535449,153.219100
1252.844790,-8586.388927,-444.123565,-1302.362347
1252.845111,-9400.615463,1702.473667,76.609550
1252.845431,-9844.739029,2146.597232,1378.971896
1252.845752,-9252.574275,1184.329507,995.924147
1252.846073,-9252.574275,74.020594,-995.924147
1252.846394,-9474.636058,-444.123565,-536.266849
1252.846714,-11029.068536,-148.041188,2221.676944
1252.847035,-11103.089130,0.000000,3907.087040
1252.847356,-10140.821405,-1628.453072,2911.162892
1252.847676,-9474.636058,-1406.391290,0.000000
1252.847997,-8956.491898,-518.144159,-612.876398
1252.848318,-9252.574275,888.247130,536.266849
1252.848639,-9622.677246,2220.617826,1685.410096
1252.848959,-8882.471304,518.144159,2298.286494
1252.849280,-8882.471304,-296.082377,306.438199
1252.849601,-8882.471304,-1184.329507,306.438199
1252.849922,-9696.697840,-1776.494261,1991.848295
1252.850242,-9918.759623,-296.082377,2374.896044
1252.850563,-9474.636058,-1406.391290,1915.238745
1252.850884,-8438.347739,-370.102971,612.876398
1252.851205,-8660.409521,814.226536,0.000000
1252.851525,-9918.759623,1480.411884,1991.848295
1252.851846,-10807.006753,962.267725,2757.943793
1252.852167,-10214.842000,-740.205942,1762.019645
1252.852487,-9918.759623,-666.185348,1149.143247
1252.852808,-10066.800811,-444.123565,1838.629195
1252.853129,-9696.697840,-518.144159,3907.087040
1252.853450,-10288.862594,-888.247130,4060.306139
1252.853770,-9400.615463,-1702.473667,2068.457845
1252.854091,-8586.388927,-1480.411884,0.000000
1252.854412,-8290.306550,-592.164754,-2221.676944
1252.854733,-8438.347739,592.164754,536.266849
1252.855053,-9252.574275,1702.473667,1378.971896
1252.855374,-9770.718434,666.185348,995.924147
1252.855695,-8808.450710,-148.041188,536.266849
1252.856016,-9622.677246,-1480.411884,1915.238745
1252.856336,-11103.089130,-2294.638420,3140.991542
1252.856657,-10955.047942,-2368.659014,3447.429741
1252.856978,-9770.718434,-2368.659014,1072.533697
1252.857298,-8586.388927,-740.205942,-536.266849
1252.857619,-8512.368333,740.205942,-459.657299
1252.857940,-9770.718434,1406.391290,459.657299
1252.858261,-10140.821405,814.226536,459.657299
1252.858581,-10066.800811,-740.205942,-1225.752797
1252.858902,-9104.533087,-518.144159,-1149.143247
1252.859223,-10288.862594,0.000000,842.705048
1252.859543,-11399.171507,0.000000,2757.943793
1252.859864,-11177.109724,-814.226536,2374.896044
1252.860185,-9622.677246,-1332.370696,-842.705048
1252.860506,-8364.327145,-1258.350101,-1915.238745
1252.860826,-9326.594869,222.061783,-1378.971896
1252.861147,-10288.862594,1480.411884,919.314598
1252.861468,-9252.574275,1628.453072,1838.629195
1252.861788,-9030.512492,444.123565,229.828649
1252.862109,-8660.409521,-592.164754,0.000000
1252.862430,-10140.821405,-1702.473667,1991.848295
1252.862751,-10955.047942,-2294.638420,3830.477490
1252.863071,-10140.821405,-2812.782580,3677.258390
1252.863392,-8660.409521,-2294.638420,919.314598
1252.863713,-7920.203579,-740.205942,-612.876398
1252.864034,-8808.450710,814.226536,459.657299
1252.864354,-9474.636058,2072.576638,1532.190996
1252.864675,-9474.636058,1184.329507,1149.143247
1252.864996,-9030.512492,444.123565,153.219100
1252.865316,-9622.677246,0.000000,459.657299
1252.865637,-10732.986159,-962.267725,2834.553343
1252.865958,-10807.006753,-1480.411884,4060.306139
1252.866279,-9474.636058,-2664.741391,2298.286494
1252.866599,-7994.224174,-2368.659014,-383.047749
1252.866920,-8216.285956,-666.185348,-842.705048
1252.867241,-9400.615463,1184.329507,1762.019645
1252.867561,-9992.780217,1776.494261,2528.115143
1252.867882,-9474.636058,962.267725,1915.238745
1252.868203,-9104.533087,-814.226536,995.924147
1252.868524,-9474.636058,-2072.576638,1915.238745
1252.868844,-10955.047942,-2442.679609,3830.477490
1252.869165,-10807.006753,-2590.720797,4673.182538
1252.869486,-9474.636058,-2294.638420,1685.410096
1252.869807,-8068.244768,-296.082377,1378.971896
1252.870127,-9178.553681,1850.514855,0.000000
1252.870448,-9770.718434,2664.741391,1455.581446
1252.870769,-9992.780217,1776.494261,1532.190996
1252.871089,-9696.697840,0.000000,0.000000
1252.871410,-9104.533087,-518.144159,-1225.752797
1252.871731,-10658.965565,-1406.391290,612.876398
1252.872052,-11399.171507,-740.205942,3830.477490
1252.872372,-10436.903782,-1258.350101,2757.943793
1252.872693,-9622.677246,-1850.514855,229.828649
1252.873014,-8586.388927,-518.144159,-1532.190996
1252.873334,-9474.636058,666.185348,-1378.971896
1252.873655,-9696.697840,2294.638420,612.876398
1252.873976,-10140.821405,962.267725,612.876398
1252.874297,-9030.512492,0.000000,0.000000
1252.874617,-9400.615463,-1702.473667,-153.219100
1252.874938,-9770.718434,-1332.370696,1302.362347
1252.875259,-11177.109724,-1702.473667,3983.696590
1252.875580,-10066.800811,-1554.432478,2834.553343
1252.875900,-9178.553681,-740.205942,229.828649
1252.876221,-7772.162391,222.061783,-1378.971896
1252.876542,-8808.450710,1480.411884,-689.485948
1252.876862,-9400.615463,2738.761985,1455.581446
1252.877183,-9844.739029,888.247130,383.047749
1252.877504,-8586.388927,296.082377,-153.219100
1252.877825,-9548.656652,-666.185348,-383.047749
1252.878145,-11251.130318,-222.061783,1378.971896
1252.878466,-10732.986159,-1258.350101,3524.039291
1252.878787,-10436.903782,-1258.350101,3140.991542
1252.879107,-9400.615463,-1036.288319,766.095498
1252.879428,-8068.244768,-740.205942,-919.314598
1252.879749,-9252.574275,962.267725,306.438199
1252.880070,-9548.656652,1776.494261,1225.752797
1252.880390,-9400.615463,740.205942,995.924147
1252.880711,-8882.471304,74.020594,689.485948
1252.881032,-8882.471304,-222.061783,1302.362347
1252.881353,-10807.006753,-1184.329507,3447.429741
1252.881673,-11843.295072,-1554.432478,5745.716235
1252.881994,-10807.006753,-2368.659014,4519.963438
1252.882315,-9030.512492,-2368.659014,3217.601092
1252.882635,-8734.430116,-592.164754,919.314598
1252.882956,-9326.594869,1110.308913,1685.410096
1252.883277,-9918.759623,1554.432478,2681.334243
1252.883598,-9326.594869,444.123565,1149.143247
1252.883918,-8438.347739,-296.082377,0.000000
1252.884239,-9252.574275,-1036.288319,-612.876398
1252.884560,-9844.739029,888.247130,2221.676944
1252.884880,-11103.089130,-814.226536,3600.648841
1252.885201,-8956.491898,-1480.411884,1532.190996
1252.885522,-9178.553681,-1554.432478,-459.657299
1252.885843,-8734.430116,-1850.514855,-1532.190996
1252.886163,-9474.636058,74.020594,0.000000
1252.886484,-11177.109724,1258.350101,1378.971896
1252.886805,-9844.739029,74.020594,842.705048
1252.887126,-9474.636058,-444.123565,-383.047749
1252.887446,-9400.615463,-592.164754,153.219100
1252.887767,-11029.068536,-2294.638420,995.924147
1252.888088,-10436.903782,-1924.535449,1991.848295
1252.888408,-9696.697840,-2516.700203,689.485948
1252.888729,-8142.265362,-1332.370696,-1685.410096
1252.889050,-8216.285956,148.041188,-1378.971896
1252.889371,-9918.759623,962.267725,0.000000
1252.889691,-9030.512492,1036.288319,995.924147
1252.890012,-9400.615463,-666.185348,-689.485948
1252.890333,-8808.450710,-518.144159,-766.095498
1252.890653,-9992.780217,-740.205942,459.657299
1252.890974,-11473.192101,-1628.453072,1455.581446
1252.891295,-10955.047942,-1184.329507,3217.601092
1252.891616,-9696.697840,-1924.535449,229.828649
1252.891936,-8882.471304,-518.144159,-919.314598
1252.892257,-9474.636058,1036.288319,-459.657299
1252.892578,-9770.718434,2220.617826,766.095498
1252.892899,-9918.759623,1406.391290,1455.581446
1252.893219,-8660.409521,296.082377,0.000000
1252.893540,-8586.388927,0.000000,76.609550
1252.893861,-10658.965565,-2072.576638,3294.210641
1252.894181,-11177.109724,-814.226536,4673.182538
1252.894502,-11325.150913,-1628.453072,3983.696590
1252.894823,-9400.615463,-592.164754,1991.848295
1252.895144,-8586.388927,444.123565,612.876398
1252.895464,-9252.574275,1776.494261,766.095498
1252.895785,-9770.718434,2146.597232,1915.238745
1252.896106,-8068.244768,814.226536,0.000000
1252.896426,-8216.285956,0.000000,-1149.143247
1252.896747,-8956.491898,-222.061783,-153.219100
1252.897068,-9918.759623,-296.082377,2298.286494
1252.897389,-11029.068536,-1036.288319,4136.915689
1252.897709,-10066.800811,-2146.597232,2987.772442
1252.898030,-9252.574275,-1036.288319,1838.629195
1252.898351,-10066.800811,-444.123565,842.705048
1252.898672,-9844.739029,1480.411884,2528.115143
1252.898992,-9992.780217,1258.350101,3294.210641
1252.899313,-9548.656652,0.000000,3677.258390
1252.899634,-8216.285956,-1554.432478,383.047749
1252.899954,-8956.491898,-1998.556043,306.438199
1252.900275,-10214.842000,-2146.597232,2987.772442
1252.900596,-9844.739029,-1924.535449,3370.820191
1252.900917,-9326.594869,-1924.535449,1532.190996
1252.901237,-7624.121203,-74.020594,-306.438199
1252.901558,-8586.388927,740.205942,-383.047749
1252.901879,-9030.512492,2368.659014,1915.238745
1252.902199,-9918.759623,814.226536,1838.629195
1252.902520,-9548.656652,0.000000,153.219100
1252.902841,-9696.697840,-1036.288319,-459.657299
1252.903162,-10066.800811,-1184.329507,153.219100
1252.903482,-10584.944971,-222.061783,1838.629195
1252.903803,-10955.047942,-962.267725,2528.115143
1252.904124,-9474.636058,-1406.391290,459.657299
1252.904445,-9252.574275,-1332.370696,-1455.581446
1252.904765,-9104.533087,-444.123565,-1302.362347
1252.905086,-9696.697840,1036.288319,919.314598
1252.905407,-10510.924376,1110.308913,1072.533697
1252.905727,-9696.697840,666.185348,76.609550
1252.906048,-9030.512492,-592.164754,-1072.533697
1252.906369,-9548.656652,-592.164754,306.438199
1252.906690,-10732.986159,-1480.411884,2451.505594
1252.907010,-10732.986159,-1406.391290,2757.943793
1252.907331,-9474.636058,-1628.453072,766.095498
1252.907652,-8586.388927,-222.061783,-995.924147
1252.907972,-8956.491898,814.226536,229.828649
1252.908293,-10066.800811,666.185348,1685.410096
1252.908614,-9992.780217,222.061783,1455.581446
1252.908935,-9178.553681,-888.247130,306.438199
1252.909255,-9030.512492,-814.226536,306.438199
1252.909576,-10362.883188,-222.061783,1991.848295
1252.909897,-10955.047942,-444.123565,3907.087040
1252.910218,-10066.800811,-1184.329507,2757.943793
1252.910538,-8512.368333,-1628.453072,766.095498
1252.910859,-8290.306550,-370.102971,-536.266849
1252.911180,-9326.594869,592.164754,919.314598
1252.911500,-9918.759623,1332.370696,2451.505594
1252.911821,-9770.718434,1628.453072,1838.629195
1252.912142,-8956.491898,-444.123565,612.876398
1252.912463,-8734.430116,-1332.370696,842.705048
1252.912783,-9844.739029,-1850.514855,2681.334243
1252.913104,-10288.862594,-1776.494261,3677.258390
1252.913425,-9696.697840,-1332.370696,2911.162892
1252.913745,-8660.409521,-740.205942,766.095498
1252.914066,-8586.388927,296.082377,0.000000
1252.914387,-9474.636058,1480.411884,1532.190996
1252.914708,-11251.130318,2516.700203,2221.676944
1252.915028,-9696.697840,666.185348,1378.971896
1252.915349,-9030.512492,-296.082377,459.657299
