#time,accel_x,accel_y,accel_z
1394.362077,-9474.636058,0.000000,1302.362347
1394.362398,-9474.636058,-518.144159,1225.752797
1394.362719,-9474.636058,-370.102971,919.314598
1394.363040,-9548.656652,-370.102971,1149.143247
1394.363360,-9474.636058,-444.123565,1149.143247
1394.363681,-9622.677246,-74.020594,1225.752797
1394.364002,-9622.677246,-296.082377,1378.971896
1394.364323,-9548.656652,-296.082377,1455.581446
1394.364644,-9474.636058,0.000000,1378.971896
1394.364965,-9548.656652,-296.082377,2757.943793
1394.365286,-9622.677246,-444.123565,1378.971896
1394.365606,-9548.656652,-148.041188,1072.533697
1394.365927,-9548.656652,-222.061783,995.924147
1394.366248,-9548.656652,-370.102971,1149.143247
1394.366569,-9548.656652,148.041188,1302.362347
1394.366890,-9844.739029,-370.102971,1302.362347
1394.367211,-9696.697840,-592.164754,1302.362347
1394.367532,-9548.656652,-962.267725,1149.143247
1394.367852,-9400.615463,0.000000,1762.019645
1394.368173,-9696.697840,-592.164754,1455.581446
1394.368494,-9548.656652,-740.205942,1302.362347
1394.368815,-9474.636058,-962.267725,919.314598
1394.369136,-9400.615463,-666.185348,612.876398
1394.369457,-9474.636058,-666.185348,766.095498
1394.369777,-9548.656652,-518.144159,1072.533697
1394.370098,-9770.718434,-222.061783,1072.533697
1394.370419,-9548.656652,-888.247130,766.095498
1394.370740,-9400.615463,-370.102971,459.657299
1394.371061,-9770.718434,-740.205942,612.876398
1394.371382,-9918.759623,-444.123565,1302.362347
1394.371703,-9844.739029,-962.267725,1532.190996
1394.372023,-9474.636058,-1702.473667,3217.601092
1394.372344,-9474.636058,-1406.391290,1608.800546
1394.372665,-9844.739029,-1480.411884,2145.067394
1394.372986,-9548.656652,-1406.391290,2145.067394
1394.373307,-9548.656652,-1258.350101,2221.676944
1394.373628,-9326.594869,-1184.329507,2068.457845
1394.373949,-9178.553681,-888.247130,1915.238745
1394.374269,-9474.636058,-1110.308913,1838.629195
1394.374590,-9548.656652,-962.267725,2374.896044
1394.374911,-9844.739029,-740.205942,2221.676944
1394.375232,-9622.677246,-888.247130,2145.067394
1394.375553,-9696.697840,-1036.288319,2681.334243
1394.375874,-10066.800811,-888.247130,3140.991542
1394.376195,-9696.697840,-296.082377,4749.792088
1394.376515,-9696.697840,-1184.329507,4290.134789
1394.376836,-9770.718434,-1480.411884,4519.963438
1394.377157,-9622.677246,-2220.617826,4826.401637
1394.377478,-9548.656652,-2590.720797,5132.839837
1394.377799,-9252.574275,-3478.967927,5362.668486
1394.378120,-9178.553681,-3627.009116,5209.449386
1394.378441,-8956.491898,-3701.029710,5209.449386
1394.378761,-9178.553681,-3478.967927,4979.620737
1394.379082,-9474.636058,-3627.009116,5439.278036
1394.379403,-9104.533087,-4071.132681,5362.668486
1394.379724,-9178.553681,-4145.153275,5209.449386
1394.380045,-9474.636058,-4737.318029,5439.278036
1394.380366,-9326.594869,-4071.132681,5515.887586
1394.380686,-9474.636058,-4811.338623,5132.839837
1394.381007,-9474.636058,-4441.235652,5056.230287
1394.381328,-9548.656652,-3923.091493,4826.401637
1394.381649,-9548.656652,-3923.091493,4903.011187
1394.381970,-9178.553681,-3997.112087,4826.401637
1394.382291,-9252.574275,-4071.132681,4596.572988
1394.382612,-9474.636058,-4515.256246,4366.744339
1394.382932,-9104.533087,-4811.338623,4673.182538
1394.383253,-9326.594869,-5033.400406,4903.011187
1394.383574,-9326.594869,-5181.441594,4519.963438
1394.383895,-9326.594869,-5403.503377,3983.696590
1394.384216,-9326.594869,-5921.647536,3524.039291
1394.384537,-9104.533087,-5107.421000,3983.696590
1394.384858,-9474.636058,-4145.153275,1608.800546
1394.385178,-9474.636058,-2812.782580,1149.143247
1394.385499,-9548.656652,-1702.473667,842.705048
1394.385820,-9696.697840,-740.205942,306.438199
1394.386141,-10214.842000,0.000000,766.095498
1394.386462,-10584.944971,0.000000,1302.362347
1394.386783,-10807.006753,-1480.411884,1991.848295
1394.387104,-10584.944971,-2516.700203,2451.505594
1394.387424,-10214.842000,-4885.359217,3524.039291
1394.387745,-9622.677246,-5329.482782,2528.115143
1394.388066,-9326.594869,-5625.565159,2221.676944
1394.388387,-9030.512492,-4811.338623,2451.505594
1394.388708,-8364.327145,-3627.009116,3907.087040
1394.389029,-9178.553681,-4367.215058,2681.334243
1394.389350,-8956.491898,-4367.215058,1762.019645
1394.389670,-9104.533087,-4145.153275,919.314598
1394.389991,-9326.594869,-3182.885551,0.000000
1394.390312,-9252.574275,-888.247130,306.438199
1394.390633,-10510.924376,1480.411884,459.657299
1394.390954,-10214.842000,2442.679609,1378.971896
1394.391275,-10140.821405,2368.659014,1302.362347
1394.391596,-10510.924376,1480.411884,2221.676944
1394.391916,-10436.903782,-592.164754,2757.943793
1394.392237,-10732.986159,-2220.617826,4213.525239
1394.392558,-9252.574275,-3997.112087,4519.963438
1394.392879,-8808.450710,-4515.256246,3907.087040
1394.393200,-8660.409521,-5255.462188,5822.325785
1394.393521,-8734.430116,-5403.503377,6281.983084
1394.393841,-8438.347739,-5625.565159,6052.154434
1394.394162,-8290.306550,-6217.729913,4443.353888
1394.394483,-6809.894666,-3108.864956,2757.943793
1394.394804,-9178.553681,-1406.391290,2528.115143
1394.395125,-8734.430116,1924.535449,3370.820191
1394.395446,-9770.718434,3034.844362,3447.429741
1394.395767,-10510.924376,3256.906145,3600.648841
1394.396087,-11177.109724,1702.473667,3447.429741
1394.396408,-11473.192101,222.061783,4596.572988
1394.396729,-11621.233289,-518.144159,5515.887586
1394.397050,-10955.047942,74.020594,5286.058936
1394.397371,-10066.800811,-2294.638420,6205.373534
1394.397692,-9326.594869,-4441.235652,5669.106685
1394.398013,-8068.244768,-6069.688724,4519.963438
1394.398333,-7920.203579,-6217.729913,3294.210641
1394.398654,-8290.306550,-4441.235652,3064.381992
1394.398975,-8512.368333,-814.226536,3907.087040
1394.399296,-10066.800811,-888.247130,3907.087040
1394.399617,-9178.553681,-222.061783,3677.258390
1394.399938,-9696.697840,-962.267725,3064.381992
1394.400259,-10362.883188,74.020594,3294.210641
1394.400579,-11695.253884,-1184.329507,3830.477490
1394.400900,-10584.944971,-1628.453072,3294.210641
1394.401221,-9696.697840,-3923.091493,995.924147
1394.401542,-8438.347739,-2886.803174,-153.219100
1394.401863,-8734.430116,-1184.329507,76.609550
1394.402184,-9696.697840,-1110.308913,1762.019645
1394.402505,-9474.636058,-2072.576638,2374.896044
1394.402825,-9030.512492,-4071.132681,2451.505594
1394.403146,-8808.450710,-4737.318029,2145.067394
1394.403467,-9622.677246,-4589.276840,3677.258390
1394.403788,-10436.903782,-5477.523971,4749.792088
1394.404109,-8660.409521,-5921.647536,3524.039291
1394.404430,-7550.100608,-5403.503377,1532.190996
1394.404751,-8068.244768,-3034.844362,612.876398
1394.405071,-9696.697840,-740.205942,2451.505594
1394.405392,-10140.821405,74.020594,3217.601092
1394.405713,-9178.553681,-1110.308913,2068.457845
1394.406034,-9474.636058,-1184.329507,1378.971896
1394.406355,-10214.842000,-1776.494261,2834.553343
1394.406676,-10881.027347,-3552.988522,4366.744339
1394.406996,-9992.780217,-5255.462188,3294.210641
1394.407317,-8660.409521,-4737.318029,1838.629195
1394.407638,-8956.491898,-2812.782580,2681.334243
1394.407959,-9770.718434,-1776.494261,4673.182538
1394.408280,-9696.697840,-3108.864956,5745.716235
1394.408601,-8882.471304,-4367.215058,4366.744339
1394.408922,-8660.409521,-4885.359217,2987.772442
1394.409242,-9474.636058,-5107.421000,2987.772442
1394.409563,-9696.697840,-3849.070898,2528.115143
1394.409884,-9622.677246,-2368.659014,4443.353888
1394.410205,-9770.718434,-962.267725,4060.306139
1394.410526,-9548.656652,-1184.329507,3753.867940
1394.410847,-9844.739029,-962.267725,3447.429741
1394.411168,-10807.006753,-592.164754,4213.525239
1394.411488,-11325.150913,-1184.329507,4519.963438
1394.411809,-10288.862594,-2812.782580,4290.134789
1394.412130,-8438.347739,-3478.967927,2834.553343
1394.412451,-8882.471304,-2812.782580,2911.162892
1394.412772,-10066.800811,-2738.761985,4903.011187
1394.413093,-9326.594869,-3478.967927,5975.544884
1394.413414,-8882.471304,-4589.276840,4903.011187
1394.413734,-9474.636058,-4367.215058,3140.991542
1394.414055,-8438.347739,-3478.967927,2911.162892
1394.414376,-8956.491898,-2738.761985,3370.820191
1394.414697,-9474.636058,-2442.679609,3524.039291
1394.415018,-8734.430116,-2146.597232,2681.334243
1394.415339,-9178.553681,-888.247130,2374.896044
1394.415660,-10510.924376,-740.205942,2604.724693
1394.415981,-10807.006753,-2220.617826,2451.505594
1394.416302,-9030.512492,-1332.370696,1608.800546
1394.416622,-8956.491898,740.205942,1149.143247
1394.416943,-10584.944971,1850.514855,2298.286494
1394.417264,-9918.759623,444.123565,3217.601092
1394.417585,-8660.409521,-2146.597232,3370.820191
1394.417906,-9918.759623,-4367.215058,1455.581446
1394.418227,-8882.471304,-5551.544565,612.876398
1394.418548,-8586.388927,-4145.153275,2604.724693
1394.418869,-9104.533087,-3330.926739,2757.943793
1394.419190,-8512.368333,-2442.679609,3217.601092
1394.419511,-9178.553681,-2516.700203,3294.210641
1394.419831,-9178.553681,-3330.926739,1608.800546
1394.420152,-9474.636058,-1998.556043,689.485948
1394.420473,-9844.739029,74.020594,1991.848295
1394.420794,-9844.739029,518.144159,2145.067394
1394.421115,-10436.903782,518.144159,1991.848295
1394.421436,-9918.759623,296.082377,2528.115143
1394.421757,-10066.800811,-1628.453072,1838.629195
1394.422078,-9400.615463,-3182.885551,4290.134789
1394.422399,-10807.006753,-2738.761985,3830.477490
1394.422720,-10288.862594,-1998.556043,5056.230287
1394.423041,-9696.697840,-2146.597232,4826.401637
1394.423361,-9474.636058,-2368.659014,4903.011187
1394.423682,-8512.368333,-4219.173869,3064.381992
1394.424003,-7179.997637,-5773.606348,1608.800546
1394.424324,-9326.594869,-2590.720797,3294.210641
1394.424645,-9400.615463,-1776.494261,4136.915689
1394.424966,-9474.636058,-1110.308913,4060.306139
1394.425287,-10658.965565,-2812.782580,4903.011187
1394.425608,-10214.842000,-2664.741391,3983.696590
1394.425929,-11843.295072,-1406.391290,4903.011187
1394.426250,-13323.706956,148.041188,6588.421283
1394.426570,-9178.553681,-1480.411884,4596.572988
1394.426891,-10658.965565,-3627.009116,2757.943793
1394.427212,-9030.512492,-3997.112087,1455.581446
1394.427533,-7550.100608,-3182.885551,459.657299
1394.427854,-9104.533087,-1406.391290,2451.505594
1394.428175,-9992.780217,-1998.556043,3677.258390
1394.428496,-9252.574275,-2442.679609,3370.820191
1394.428817,-10584.944971,-4885.359217,2604.724693
1394.429138,-9104.533087,-4071.132681,2451.505594
1394.429459,-9622.677246,-2590.720797,2757.943793
1394.429779,-11177.109724,-2368.659014,4749.792088
1394.430100,-10732.986159,-1332.370696,5056.230287
1394.430421,-9696.697840,-3256.906145,2451.505594
1394.430742,-9474.636058,-4145.153275,1991.848295
1394.431063,-9252.574275,-2516.700203,2145.067394
1394.431384,-11547.212695,-3627.009116,1915.238745
1394.431705,-8216.285956,-2146.597232,459.657299
1394.432026,-7920.203579,-1406.391290,-612.876398
1394.432347,-5847.626942,1110.308913,-1149.143247
1394.432668,-11621.233289,-444.123565,2145.067394
1394.432989,-10288.862594,-222.061783,3140.991542
1394.433309,-9030.512492,-1924.535449,995.924147
1394.433630,-10140.821405,-2664.741391,306.438199
1394.433951,-8142.265362,-296.082377,842.705048
1394.434272,-11325.150913,296.082377,2451.505594
1394.434593,-11103.089130,1406.391290,2145.067394
1394.434914,-7772.162391,-1850.514855,229.828649
1394.435235,-8216.285956,-2368.659014,-1915.238745
1394.435556,-9548.656652,-666.185348,-766.095498
1394.435877,-11029.068536,1406.391290,1378.971896
1394.436198,-9548.656652,1628.453072,3524.039291
1394.436518,-8586.388927,-2368.659014,995.924147
1394.436839,-8956.491898,-2220.617826,-2068.457845
1394.437160,-9770.718434,-296.082377,-612.876398
1394.437481,-11843.295072,1702.473667,1455.581446
1394.437802,-9992.780217,2368.659014,3600.648841
1394.438123,-9992.780217,-592.164754,0.000000
1394.438444,-8364.327145,296.082377,-1685.410096
1394.438765,-9252.574275,1184.329507,-995.924147
1394.439086,-11103.089130,1184.329507,2298.286494
1394.439407,-9622.677246,814.226536,3370.820191
1394.439727,-10214.842000,-3108.864956,995.924147
1394.440048,-9696.697840,-2294.638420,-2374.896044
1394.440369,-8956.491898,2220.617826,4290.134789
1394.440690,-14137.933492,518.144159,5132.839837
1394.441011,-8882.471304,0.000000,6511.811733
1394.441332,-9622.677246,-3256.906145,-2145.067394
1394.441653,-7846.182985,814.226536,76.609550
1394.441974,-6661.853478,-740.205942,-3064.381992
1394.442295,-10955.047942,3330.926739,5362.668486
1394.442616,-9696.697840,0.000000,2681.334243
1394.442937,-8068.244768,0.000000,-2068.457845
1394.443257,-10362.883188,2812.782580,766.095498
1394.443578,-11325.150913,1924.535449,2068.457845
1394.443899,-11399.171507,1628.453072,4979.620737
1394.444220,-12731.542202,-2146.597232,3983.696590
1394.444541,-5551.544565,-666.185348,-1149.143247
1394.444862,-9474.636058,-370.102971,-1455.581446
1394.445183,-9992.780217,740.205942,2451.505594
1394.445504,-8660.409521,814.226536,2834.553343
1394.445825,-9178.553681,0.000000,1302.362347
1394.446146,-7994.224174,-814.226536,-1838.629195
1394.446466,-7624.121203,370.102971,-1072.533697
1394.446787,-11029.068536,518.144159,2528.115143
1394.447108,-10288.862594,-444.123565,3524.039291
1394.447429,-10140.821405,-1258.350101,1762.019645
1394.447750,-9474.636058,-2368.659014,-1455.581446
1394.448071,-9400.615463,-962.267725,-306.438199
1394.448392,-9992.780217,-148.041188,689.485948
1394.448713,-9992.780217,-148.041188,2451.505594
1394.449034,-9474.636058,0.000000,306.438199
1394.449355,-7846.182985,-592.164754,-3140.991542
1394.449675,-9178.553681,0.000000,-306.438199
1394.449996,-10658.965565,-518.144159,1608.800546
1394.450317,-9992.780217,-1702.473667,2451.505594
1394.450638,-10955.047942,-3701.029710,536.266849
1394.450959,-7031.956449,-666.185348,-919.314598
1394.451280,-9474.636058,-814.226536,-689.485948
1394.451601,-9918.759623,-518.144159,1685.410096
1394.451922,-7994.224174,-2812.782580,0.000000
1394.452243,-8290.306550,-1258.350101,-2451.505594
1394.452564,-9326.594869,592.164754,-689.485948
1394.452885,-11103.089130,1776.494261,3677.258390
1394.453205,-12879.583391,-666.185348,6052.154434
1394.453526,-11843.295072,-2960.823768,3447.429741
1394.453847,-9696.697840,-592.164754,1378.971896
1394.454168,-9178.553681,-1036.288319,383.047749
1394.454489,-9696.697840,1036.288319,3140.991542
1394.454810,-8808.450710,-518.144159,3064.381992
1394.455131,-8068.244768,-2590.720797,76.609550
1394.455452,-6809.894666,-1998.556043,-2145.067394
1394.455773,-7994.224174,-592.164754,-689.485948
1394.456094,-10140.821405,-666.185348,2604.724693
1394.456414,-10436.903782,-370.102971,3907.087040
1394.456735,-10807.006753,-814.226536,2911.162892
1394.457056,-9326.594869,0.000000,383.047749
1394.457377,-10807.006753,1554.432478,2834.553343
1394.457698,-12287.418637,222.061783,4673.182538
1394.458019,-9474.636058,-1480.411884,3370.820191
1394.458340,-8734.430116,-3256.906145,-1532.190996
1394.458661,-7105.977043,-1184.329507,-1149.143247
1394.458982,-9400.615463,-592.164754,-76.609550
1394.459303,-10510.924376,518.144159,3753.867940
1394.459623,-10140.821405,-1850.514855,3370.820191
1394.459944,-8216.285956,-296.082377,0.000000
1394.460265,-9474.636058,1258.350101,766.095498
1394.460586,-11029.068536,740.205942,2221.676944
1394.460907,-10584.944971,-814.226536,3294.210641
1394.461228,-9104.533087,-666.185348,1378.971896
1394.461549,-8216.285956,-740.205942,-2068.457845
1394.461870,-7994.224174,1702.473667,-1225.752797
1394.462191,-10140.821405,3108.864956,1838.629195
1394.462512,-10807.006753,1332.370696,2987.772442
1394.462833,-9178.553681,-370.102971,229.828649
1394.463153,-9474.636058,-296.082377,-383.047749
1394.463474,-9992.780217,1480.411884,-689.485948
1394.463795,-11325.150913,1258.350101,2374.896044
1394.464116,-10066.800811,-518.144159,2221.676944
1394.464437,-8586.388927,-592.164754,-383.047749
1394.464758,-8660.409521,-148.041188,-2681.334243
1394.465079,-9400.615463,1776.494261,0.000000
1394.465400,-10066.800811,1628.453072,2451.505594
1394.465721,-11029.068536,-666.185348,1685.410096
1394.466042,-8290.306550,-592.164754,-1915.238745
1394.466362,-9104.533087,1628.453072,-612.876398
1394.466683,-9696.697840,2072.576638,2757.943793
1394.467004,-11547.212695,888.247130,5132.839837
1394.467325,-11029.068536,-2960.823768,3217.601092
1394.467646,-9178.553681,-2886.803174,-2451.505594
1394.467967,-6957.935855,1110.308913,-2834.553343
1394.468288,-9548.656652,2812.782580,-229.828649
1394.468609,-8438.347739,2590.720797,1762.019645
1394.468930,-9474.636058,-296.082377,76.609550
1394.469251,-7772.162391,-740.205942,-1149.143247
1394.469571,-9178.553681,-2368.659014,-1762.019645
1394.469892,-11029.068536,-1480.411884,2681.334243
1394.470213,-12213.398043,-2960.823768,5132.839837
1394.470534,-9474.636058,-2664.741391,1685.410096
1394.470855,-8290.306550,-222.061783,-995.924147
1394.471176,-8068.244768,2220.617826,0.000000
1394.471497,-11621.233289,1480.411884,2681.334243
1394.471818,-9326.594869,-296.082377,3677.258390
1394.472139,-8438.347739,-2072.576638,306.438199
1394.472460,-9030.512492,-518.144159,-689.485948
1394.472781,-9622.677246,-592.164754,1915.238745
1394.473101,-10881.027347,0.000000,5745.716235
1394.473422,-10807.006753,-1776.494261,5669.106685
1394.473743,-9474.636058,-2960.823768,842.705048
1394.474064,-8956.491898,148.041188,536.266849
1394.474385,-11325.150913,74.020594,2451.505594
1394.474706,-9548.656652,3034.844362,3753.867940
1394.475027,-14137.933492,-444.123565,2834.553343
1394.475348,-4737.318029,2590.720797,229.828649
1394.475669,-10955.047942,-4663.297435,-1378.971896
1394.475990,-8290.306550,-370.102971,2528.115143
1394.476310,-10436.903782,-4515.256246,1762.019645
1394.476631,-10214.842000,-3775.050304,2451.505594
1394.476952,-7846.182985,-1628.453072,-2834.553343
1394.477273,-8290.306550,2368.659014,153.219100
1394.477594,-12509.480420,3034.844362,5056.230287
1394.477915,-8956.491898,-1702.473667,3907.087040
1394.478236,-12139.377449,-2664.741391,2068.457845
1394.478557,-7698.141797,-3923.091493,-995.924147
1394.478878,-9400.615463,-1406.391290,-1378.971896
1394.479199,-12361.439231,-1184.329507,3907.087040
1394.479519,-7846.182985,-1628.453072,2221.676944
1394.479840,-8364.327145,-1776.494261,-1072.533697
1394.480161,-8438.347739,0.000000,-2834.553343
1394.480482,-8734.430116,1554.432478,-229.828649
1394.480803,-11399.171507,1184.329507,536.266849
1394.481124,-11621.233289,-1628.453072,1685.410096
1394.481445,-8734.430116,296.082377,-459.657299
1394.481766,-9474.636058,-370.102971,-76.609550
1394.482087,-9178.553681,-148.041188,1378.971896
1394.482408,-11399.171507,-1480.411884,3370.820191
1394.482729,-8438.347739,-1776.494261,766.095498
1394.483049,-8734.430116,-814.226536,-2528.115143
1394.483370,-8438.347739,1776.494261,-1225.752797
1394.483691,-9844.739029,2072.576638,0.000000
1394.484012,-10214.842000,1258.350101,2451.505594
1394.484333,-9770.718434,-444.123565,0.000000
1394.484654,-9030.512492,-740.205942,-995.924147
1394.484975,-10362.883188,148.041188,1302.362347
1394.485296,-10214.842000,-518.144159,2374.896044
1394.485617,-10288.862594,-2664.741391,2451.505594
1394.485938,-8216.285956,-1480.411884,-995.924147
1394.486258,-7179.997637,814.226536,-2298.286494
1394.486579,-9696.697840,1850.514855,459.657299
1394.486900,-10436.903782,1480.411884,4596.572988
1394.487221,-11251.130318,-2220.617826,4826.401637
1394.487542,-10510.924376,-3404.947333,1378.971896
1394.487863,-9030.512492,-1480.411884,229.828649
1394.488184,-10066.800811,888.247130,1838.629195
1394.488505,-10955.047942,2590.720797,4290.134789
1394.488826,-9030.512492,2368.659014,2451.505594
1394.489147,-8660.409521,518.144159,-766.095498
1394.489467,-7698.141797,1036.288319,-2604.724693
1394.489788,-9844.739029,1406.391290,995.924147
1394.490109,-10807.006753,296.082377,3830.477490
1394.490430,-10140.821405,-1258.350101,2604.724693
1394.490751,-9622.677246,370.102971,306.438199
1394.491072,-9770.718434,1258.350101,842.705048
1394.491393,-10436.903782,2146.597232,3370.820191
1394.491714,-11473.192101,-1332.370696,4519.963438
1394.492035,-9548.656652,-3552.988522,1149.143247
1394.492356,-7179.997637,-1406.391290,-2451.505594
1394.492677,-7920.203579,222.061783,-1378.971896
1394.492997,-9326.594869,1110.308913,2145.067394
1394.493318,-10288.862594,-814.226536,2757.943793
1394.493639,-9030.512492,-2072.576638,-153.219100
1394.493960,-8364.327145,740.205942,-1225.752797
1394.494281,-11029.068536,1554.432478,1072.533697
1394.494602,-11843.295072,148.041188,4443.353888
1394.494923,-10658.965565,-1998.556043,2145.067394
1394.495244,-8364.327145,-1480.411884,-1685.410096
1394.495565,-7624.121203,814.226536,-2374.896044
1394.495886,-9474.636058,1184.329507,153.219100
1394.496206,-10288.862594,-814.226536,2451.505594
1394.496527,-9178.553681,-1850.514855,1072.533697
1394.496848,-8586.388927,-1628.453072,-1915.238745
1394.497169,-9252.574275,814.226536,-689.485948
1394.497490,-10807.006753,1924.535449,3830.477490
1394.497811,-10584.944971,-370.102971,3753.867940
1394.498132,-10066.800811,-2886.803174,842.705048
1394.498453,-7402.059420,-666.185348,-1762.019645
1394.498774,-9622.677246,-444.123565,-1378.971896
1394.499095,-10658.965565,1850.514855,2221.676944
1394.499415,-10288.862594,-296.082377,2757.943793
1394.499736,-9474.636058,-2516.700203,-76.609550
1394.500057,-8068.244768,-962.267725,-1991.848295
1394.500378,-8882.471304,888.247130,383.047749
1394.500699,-12213.398043,0.000000,5056.230287
1394.501020,-10955.047942,-2738.761985,5745.716235
1394.501341,-10732.986159,-4737.318029,2681.334243
1394.501662,-8216.285956,-3849.070898,0.000000
1394.501983,-9770.718434,-2442.679609,-919.314598
1394.502304,-9844.739029,888.247130,3294.210641
1394.502625,-8512.368333,-1332.370696,766.095498
1394.502945,-6291.750507,888.247130,-459.657299
1394.503266,-8660.409521,1110.308913,-689.485948
1394.503587,-10658.965565,-592.164754,1685.410096
1394.503908,-10955.047942,-1998.556043,3753.867940
1394.504229,-10955.047942,-2960.823768,3677.258390
1394.504550,-9474.636058,-1184.329507,1302.362347
1394.504871,-9844.739029,2220.617826,1762.019645
1394.505192,-12657.521608,2294.638420,4596.572988
1394.505513,-9474.636058,592.164754,3907.087040
1394.505834,-8660.409521,-2442.679609,0.000000
1394.506154,-8364.327145,-2072.576638,-2145.067394
1394.506475,-7179.997637,222.061783,-1072.533697
1394.506796,-10066.800811,592.164754,2451.505594
1394.507117,-9474.636058,-222.061783,4060.306139
1394.507438,-8142.265362,-814.226536,-383.047749
1394.507759,-10436.903782,-296.082377,-842.705048
1394.508080,-10066.800811,3034.844362,2068.457845
1394.508401,-12287.418637,0.000000,4443.353888
1394.508722,-12213.398043,-148.041188,4903.011187
1394.509043,-11251.130318,-2812.782580,1455.581446
1394.509363,-8142.265362,-1258.350101,-2145.067394
1394.509684,-9474.636058,888.247130,-536.266849
1394.510005,-9548.656652,-222.061783,689.485948
1394.510326,-6809.894666,-1036.288319,-2221.676944
1394.510647,-7402.059420,-518.144159,-4903.011187
1394.510968,-7254.018232,2960.823768,-3677.258390
1394.511289,-11029.068536,2442.679609,842.705048
1394.511610,-12731.542202,1258.350101,5286.058936
1394.511931,-11473.192101,-3256.906145,2757.943793
1394.512252,-9252.574275,-2368.659014,-612.876398
1394.512573,-11251.130318,-296.082377,1149.143247
1394.512893,-9474.636058,1184.329507,3370.820191
1394.513214,-9844.739029,1258.350101,2145.067394
1394.513535,-7994.224174,444.123565,-1455.581446
1394.513856,-5921.647536,2516.700203,-4519.963438
1394.514177,-8512.368333,2664.741391,-1762.019645
1394.514498,-10658.965565,1628.453072,2834.553343
1394.514819,-9844.739029,-1110.308913,2987.772442
1394.515140,-10658.965565,-2442.679609,1149.143247
1394.515461,-9326.594869,-888.247130,229.828649
1394.515782,-10140.821405,296.082377,3064.381992
1394.516102,-11029.068536,-296.082377,4673.182538
1394.516423,-9844.739029,-1332.370696,3140.991542
1394.516744,-8290.306550,-1850.514855,-919.314598
1394.517065,-7328.038826,-666.185348,-2145.067394
1394.517386,-9104.533087,2220.617826,1532.190996
1394.517707,-10362.883188,1258.350101,3753.867940
1394.518027,-9770.718434,-1702.473667,2911.162892
1394.518348,-9178.553681,-2516.700203,536.266849
1394.518669,-9844.739029,-1554.432478,153.219100
1394.518989,-11251.130318,1036.288319,2987.772442
1394.519310,-11991.336260,296.082377,6052.154434
1394.519631,-10362.883188,-1332.370696,1225.752797
1394.519952,-7328.038826,-370.102971,-2374.896044
1394.520272,-6291.750507,1332.370696,-3064.381992
1394.520593,-10214.842000,1628.453072,1915.238745
1394.520914,-11399.171507,0.000000,5286.058936
1394.521234,-11547.212695,-1702.473667,4290.134789
1394.521555,-9770.718434,-2368.659014,1149.143247
1394.521876,-10066.800811,-1702.473667,1838.629195
1394.522196,-11621.233289,-222.061783,5439.278036
1394.522517,-10510.924376,-666.185348,4596.572988
1394.522838,-8512.368333,-962.267725,229.828649
1394.523159,-5255.462188,1036.288319,-3064.381992
1394.523479,-8364.327145,-444.123565,-1838.629195
1394.523800,-10510.924376,-444.123565,1455.581446
1394.524121,-10214.842000,-1554.432478,2681.334243
1394.524441,-9178.553681,-3701.029710,-459.657299
1394.524762,-8290.306550,-296.082377,-842.705048
1394.525083,-11621.233289,-740.205942,2221.676944
1394.525403,-9474.636058,-962.267725,2451.505594
1394.525724,-11325.150913,-2146.597232,1838.629195
1394.526045,-9178.553681,-1554.432478,-2068.457845
1394.526366,-6661.853478,814.226536,-3370.820191
1394.526686,-9622.677246,1036.288319,-842.705048
1394.527007,-9326.594869,370.102971,2528.115143
1394.527328,-10140.821405,-1258.350101,1149.143247
1394.527648,-9918.759623,-2368.659014,-1225.752797
1394.527969,-7254.018232,296.082377,-1302.362347
1394.528290,-12213.398043,-666.185348,2374.896044
1394.528611,-10362.883188,296.082377,4290.134789
1394.528931,-10881.027347,-1110.308913,995.924147
1394.529252,-8808.450710,0.000000,-2451.505594
1394.529573,-7624.121203,1924.535449,-2145.067394
1394.529893,-10955.047942,2294.638420,766.095498
1394.530214,-10807.006753,666.185348,3064.381992
1394.530535,-9474.636058,-888.247130,995.924147
1394.530855,-9474.636058,74.020594,612.876398
1394.531176,-9770.718434,-1850.514855,1149.143247
1394.531497,-10732.986159,-1554.432478,3524.039291
1394.531818,-10807.006753,-2590.720797,3907.087040
1394.532138,-9104.533087,-1406.391290,0.000000
1394.532459,-7994.224174,1184.329507,-689.485948
1394.532780,-8364.327145,962.267725,76.609550
1394.533100,-9326.594869,74.020594,2374.896044
1394.533421,-10510.924376,-1184.329507,2604.724693
1394.533742,-9548.656652,-1036.288319,995.924147
1394.534063,-9104.533087,-444.123565,1072.533697
1394.534383,-10732.986159,-444.123565,2834.553343
1394.534704,-9770.718434,-1332.370696,3830.477490
1394.535025,-9770.718434,-296.082377,3370.820191
1394.535345,-9696.697840,-222.061783,2145.067394
1394.535666,-8734.430116,1554.432478,2528.115143
1394.535987,-10955.047942,-666.185348,3983.696590
1394.536307,-9178.553681,-1702.473667,2145.067394
1394.536628,-8660.409521,-2738.761985,-842.705048
1394.536949,-5921.647536,592.164754,-1608.800546
1394.537270,-7846.182985,1702.473667,76.609550
1394.537590,-9622.677246,1036.288319,2221.676944
1394.537911,-9696.697840,-1332.370696,3140.991542
1394.538232,-10140.821405,-2368.659014,153.219100
1394.538552,-9400.615463,0.000000,-919.314598
1394.538873,-11473.192101,2368.659014,2145.067394
1394.539194,-11843.295072,2886.803174,4519.963438
1394.539515,-9474.636058,0.000000,2911.162892
1394.539835,-9104.533087,-1850.514855,-1149.143247
1394.540156,-7550.100608,-1480.411884,-1762.019645
1394.540477,-9770.718434,-888.247130,-842.705048
1394.540797,-9844.739029,-888.247130,1302.362347
1394.541118,-8438.347739,-666.185348,0.000000
1394.541439,-8586.388927,-518.144159,-2681.334243
1394.541759,-8364.327145,1998.556043,-1762.019645
1394.542080,-12583.501014,2590.720797,3524.039291
1394.542401,-13915.871710,0.000000,3983.696590
1394.542722,-11177.109724,-1998.556043,1532.190996
1394.543042,-11251.130318,-666.185348,-306.438199
1394.543363,-10214.842000,296.082377,153.219100
1394.543684,-9474.636058,148.041188,1149.143247
1394.544004,-9400.615463,-1184.329507,383.047749
1394.544325,-6217.729913,-814.226536,-4519.963438
1394.544646,-6587.832884,1110.308913,-5132.839837
1394.544967,-8882.471304,3108.864956,-306.438199
1394.545287,-9992.780217,740.205942,2681.334243
1394.545608,-11103.089130,-2368.659014,3830.477490
1394.545929,-10732.986159,-3182.885551,1915.238745
1394.546249,-10362.883188,-814.226536,2145.067394
1394.546570,-11843.295072,370.102971,4443.353888
1394.546891,-10584.944971,962.267725,5362.668486
1394.547211,-8808.450710,-1554.432478,1378.971896
1394.547532,-6957.935855,-222.061783,-3140.991542
1394.547853,-5995.668130,2442.679609,-2298.286494
1394.548174,-9104.533087,1184.329507,1225.752797
1394.548494,-9252.574275,-222.061783,3677.258390
1394.548815,-9696.697840,-3478.967927,2604.724693
1394.549136,-9326.594869,-3849.070898,229.828649
1394.549456,-9474.636058,-2442.679609,1532.190996
1394.549777,-12139.377449,-592.164754,5209.449386
1394.550098,-10881.027347,-1628.453072,5056.230287
1394.550418,-9400.615463,-1184.329507,2298.286494
1394.550739,-7994.224174,1776.494261,-612.876398
1394.551060,-8512.368333,2886.803174,306.438199
1394.551381,-10955.047942,1406.391290,3600.648841
1394.551701,-9326.594869,-1702.473667,3677.258390
1394.552022,-8512.368333,-3182.885551,0.000000
1394.552343,-8956.491898,-1702.473667,-459.657299
1394.552663,-10140.821405,74.020594,2068.457845
1394.552984,-11769.274478,0.000000,4903.011187
1394.553305,-10510.924376,-1776.494261,4519.963438
1394.553626,-8882.471304,-1110.308913,0.000000
1394.553946,-8290.306550,-296.082377,-2374.896044
1394.554267,-9548.656652,740.205942,383.047749
1394.554588,-9474.636058,0.000000,1608.800546
1394.554908,-8956.491898,296.082377,3064.381992
1394.555229,-11325.150913,-3256.906145,-306.438199
1394.555550,-7698.141797,370.102971,0.000000
1394.555870,-11695.253884,-518.144159,1685.410096
1394.556191,-10955.047942,888.247130,2987.772442
1394.556512,-9992.780217,-370.102971,1762.019645
1394.556833,-8438.347739,-222.061783,-2834.553343
1394.557153,-7179.997637,3330.926739,-2757.943793
1394.557474,-9622.677246,1184.329507,-536.266849
1394.557795,-7698.141797,-740.205942,766.095498
1394.558115,-9992.780217,-2886.803174,-306.438199
1394.558436,-7994.224174,-1258.350101,-2145.067394
1394.558757,-9770.718434,962.267725,229.828649
1394.559078,-11695.253884,814.226536,4290.134789
1394.559398,-10510.924376,-814.226536,3294.210641
1394.559719,-10288.862594,-1850.514855,459.657299
1394.560040,-7476.080014,-370.102971,-2911.162892
1394.560360,-8438.347739,962.267725,-1455.581446
1394.560681,-11991.336260,1332.370696,1685.410096
1394.561002,-9178.553681,0.000000,1838.629195
1394.561322,-9400.615463,-962.267725,-689.485948
1394.561643,-9030.512492,814.226536,-536.266849
1394.561964,-9918.759623,1480.411884,2068.457845
1394.562285,-11695.253884,-1184.329507,4519.963438
1394.562605,-8586.388927,-2220.617826,2298.286494
1394.562926,-8956.491898,-1480.411884,-919.314598
1394.563247,-9474.636058,592.164754,-612.876398
1394.563567,-9844.739029,1110.308913,1685.410096
1394.563888,-10584.944971,-1554.432478,3753.867940
1394.564209,-8438.347739,-1850.514855,1532.190996
1394.564530,-9696.697840,-1036.288319,0.000000
1394.564850,-9252.574275,1702.473667,612.876398
1394.565171,-10510.924376,1998.556043,4903.011187
1394.565492,-10955.047942,-1184.329507,4903.011187
1394.565812,-9326.594869,-962.267725,2221.676944
1394.566133,-9252.574275,-1110.308913,-842.705048
1394.566454,-8142.265362,1036.288319,1532.190996
1394.566774,-10658.965565,-518.144159,3217.601092
1394.567095,-9326.594869,-740.205942,4596.572988
1394.567416,-10436.903782,-2220.617826,1149.143247
1394.567737,-7772.162391,2368.659014,1149.143247
1394.568057,-9696.697840,-296.082377,2528.115143
1394.568378,-10214.842000,-1480.411884,3524.039291
1394.568699,-9918.759623,-2516.700203,4060.306139
1394.569019,-10066.800811,-2294.638420,689.485948
1394.569340,-8956.491898,1406.391290,2987.772442
1394.569661,-10881.027347,74.020594,3753.867940
1394.569981,-11399.171507,-148.041188,4519.963438
1394.570302,-10140.821405,-2368.659014,229.828649
1394.570623,-7254.018232,-1702.473667,-1991.848295
1394.570944,-7179.997637,370.102971,-3217.601092
1394.571264,-7994.224174,1332.370696,-919.314598
1394.571585,-9474.636058,-1036.288319,689.485948
1394.571906,-9400.615463,-2516.700203,-766.095498
1394.572226,-8438.347739,-2960.823768,-3064.381992
1394.572547,-9622.677246,-148.041188,-995.924147
1394.572868,-11991.336260,1332.370696,2374.896044
1394.573189,-11769.274478,444.123565,4443.353888
1394.573509,-10584.944971,-814.226536,1608.800546
1394.573830,-8068.244768,-2368.659014,-2145.067394
1394.574151,-9252.574275,-3108.864956,-2528.115143
1394.574471,-8882.471304,-888.247130,306.438199
1394.574792,-8882.471304,-2516.700203,153.219100
1394.575113,-7328.038826,444.123565,-2221.676944
1394.575433,-8364.327145,2590.720797,-3217.601092
1394.575754,-9326.594869,4293.194464,229.828649
1394.576075,-12435.459826,2516.700203,4060.306139
1394.576396,-13101.645173,-1184.329507,5745.716235
1394.576716,-11325.150913,-2368.659014,2374.896044
1394.577037,-11843.295072,-1628.453072,1302.362347
1394.577358,-10066.800811,-148.041188,2757.943793
1394.577678,-9548.656652,-962.267725,1838.629195
1394.577999,-7402.059420,-592.164754,0.000000
1394.578320,-6217.729913,-592.164754,-4290.134789
1394.578641,-5107.421000,1998.556043,-3983.696590
1394.578961,-8808.450710,1776.494261,1608.800546
1394.579282,-10658.965565,296.082377,3830.477490
1394.579603,-12139.377449,-2146.597232,3677.258390
1394.579923,-10658.965565,-2146.597232,2451.505594
1394.580244,-10510.924376,0.000000,3140.991542
1394.580565,-12731.542202,-370.102971,4749.792088
1394.580885,-10362.883188,-740.205942,3830.477490
1394.581206,-8882.471304,0.000000,-306.438199
1394.581527,-7698.141797,2220.617826,-2145.067394
1394.581848,-6957.935855,3627.009116,0.000000
1394.582168,-10881.027347,1110.308913,2987.772442
1394.582489,-9400.615463,-1702.473667,2757.943793
1394.582810,-8512.368333,-2516.700203,842.705048
1394.583130,-8882.471304,-1036.288319,2604.724693
1394.583451,-9844.739029,-518.144159,3524.039291
1394.583772,-11769.274478,-1258.350101,5669.106685
1394.584093,-10584.944971,-1554.432478,3524.039291
1394.584413,-8808.450710,0.000000,-153.219100
1394.584734,-7994.224174,2738.761985,0.000000
1394.585055,-9770.718434,2368.659014,1455.581446
1394.585375,-9622.677246,962.267725,2834.553343
1394.585696,-9474.636058,-1776.494261,536.266849
1394.586017,-8660.409521,-1702.473667,-842.705048
1394.586337,-9030.512492,666.185348,-1072.533697
1394.586658,-12065.356855,1924.535449,3677.258390
1394.586979,-10732.986159,592.164754,3447.429741
1394.587300,-9992.780217,222.061783,153.219100
1394.587620,-8290.306550,-1850.514855,-3983.696590
1394.587941,-7105.977043,740.205942,-4443.353888
1394.588262,-9474.636058,1480.411884,-995.924147
1394.588582,-8734.430116,1332.370696,2068.457845
1394.588903,-9992.780217,-148.041188,1225.752797
1394.589224,-10510.924376,-2368.659014,153.219100
1394.589545,-10732.986159,-1628.453072,1455.581446
1394.589865,-12657.521608,-2442.679609,2604.724693
1394.590186,-10362.883188,-1406.391290,3370.820191
1394.590507,-9548.656652,-1036.288319,-459.657299
1394.590827,-6217.729913,2442.679609,-3600.648841
1394.591148,-7476.080014,1110.308913,-1838.629195
1394.591469,-9622.677246,2886.803174,2451.505594
1394.591789,-10807.006753,-2960.823768,2068.457845
1394.592110,-8660.409521,-3552.988522,-1225.752797
1394.592431,-9770.718434,-814.226536,1302.362347
1394.592752,-9178.553681,-814.226536,2374.896044
1394.593072,-9770.718434,-666.185348,5362.668486
1394.593393,-8956.491898,-1628.453072,2987.772442
1394.593714,-9178.553681,-1184.329507,-689.485948
1394.594034,-7031.956449,0.000000,-1762.019645
1394.594355,-9622.677246,1924.535449,1762.019645
1394.594676,-9770.718434,-1480.411884,3294.210641
1394.594996,-9548.656652,-2590.720797,919.314598
1394.595317,-7179.997637,-888.247130,76.609550
1394.595638,-9030.512492,-148.041188,2298.286494
1394.595959,-10510.924376,-74.020594,5056.230287
1394.596279,-10881.027347,-2590.720797,5592.497135
1394.596600,-10214.842000,-2220.617826,2451.505594
1394.596921,-8290.306550,0.000000,-229.828649
1394.597241,-8956.491898,1110.308913,1838.629195
1394.597562,-10066.800811,222.061783,3217.601092
1394.597883,-9770.718434,-1332.370696,3140.991542
1394.598204,-8882.471304,-1480.411884,689.485948
1394.598524,-7698.141797,-666.185348,459.657299
1394.598845,-10214.842000,444.123565,2528.115143
1394.599166,-10881.027347,0.000000,4826.401637
1394.599486,-10288.862594,-1554.432478,2911.162892
1394.599807,-8068.244768,-1480.411884,-536.266849
1394.600128,-8364.327145,1332.370696,-1149.143247
1394.600448,-10955.047942,962.267725,1685.410096
1394.600769,-10955.047942,74.020594,3140.991542
1394.601090,-11547.212695,-1036.288319,1608.800546
1394.601411,-8142.265362,-888.247130,-1225.752797
1394.601731,-8734.430116,-1036.288319,-1225.752797
1394.602052,-9770.718434,0.000000,1532.190996
1394.602373,-10881.027347,-1332.370696,3294.210641
1394.602693,-9992.780217,-2442.679609,-459.657299
1394.603014,-8660.409521,-666.185348,-2298.286494
1394.603335,-8956.491898,1850.514855,-2068.457845
1394.603656,-11177.109724,3404.947333,2221.676944
1394.603976,-9696.697840,2368.659014,4060.306139
1394.604297,-10214.842000,-1480.411884,689.485948
1394.604618,-8734.430116,-2442.679609,-2451.505594
1394.604938,-8142.265362,148.041188,-2604.724693
1394.605259,-10955.047942,-1628.453072,1302.362347
1394.605580,-8364.327145,148.041188,459.657299
1394.605900,-8586.388927,1776.494261,-2451.505594
1394.606221,-8068.244768,2960.823768,-2681.334243
1394.606542,-8364.327145,5181.441594,76.609550
1394.606863,-12213.398043,1110.308913,3524.039291
1394.607183,-10732.986159,-2812.782580,2374.896044
1394.607504,-9474.636058,-1628.453072,-919.314598
1394.607825,-9474.636058,0.000000,1915.238745
1394.608145,-10362.883188,-814.226536,2681.334243
1394.608466,-9770.718434,-518.144159,4136.915689
1394.608787,-9474.636058,-2960.823768,-536.266849
1394.609108,-5995.668130,1110.308913,-2604.724693
1394.609428,-8808.450710,2886.803174,-1149.143247
1394.609749,-10881.027347,3256.906145,4136.915689
1394.610070,-11325.150913,518.144159,5056.230287
1394.610390,-9992.780217,-3330.926739,2528.115143
1394.610711,-10510.924376,-4737.318029,76.609550
1394.611032,-9918.759623,-666.185348,2681.334243
1394.611352,-12435.459826,-1406.391290,5132.839837
1394.611673,-10732.986159,-962.267725,4903.011187
1394.611994,-8808.450710,-1258.350101,459.657299
1394.612315,-7402.059420,962.267725,-3753.867940
1394.612635,-8734.430116,3034.844362,-1302.362347
1394.612956,-9622.677246,2368.659014,2451.505594
1394.613277,-9992.780217,74.020594,3217.601092
1394.613597,-9178.553681,-2072.576638,1302.362347
1394.613918,-8882.471304,-2738.761985,229.828649
1394.614239,-12065.356855,-1332.370696,4290.134789
1394.614560,-11991.336260,-1702.473667,6052.154434
1394.614880,-10807.006753,-2146.597232,4596.572988
1394.615201,-8364.327145,-814.226536,153.219100
1394.615522,-7698.141797,518.144159,-919.314598
1394.615842,-7846.182985,2442.679609,0.000000
1394.616163,-10658.965565,-888.247130,3140.991542
1394.616484,-7254.018232,-2220.617826,1302.362347
1394.616804,-8068.244768,-2368.659014,-689.485948
1394.617125,-9474.636058,-2664.741391,-536.266849
1394.617446,-10584.944971,-148.041188,3064.381992
1394.617766,-10955.047942,-1924.535449,4596.572988
1394.618087,-8808.450710,-2220.617826,-459.657299
1394.618408,-7772.162391,1110.308913,-2681.334243
1394.618728,-10066.800811,1924.535449,-1302.362347
1394.619049,-8808.450710,1258.350101,1225.752797
1394.619370,-9400.615463,-1332.370696,153.219100
1394.619690,-8216.285956,-3330.926739,-2221.676944
1394.620011,-7920.203579,0.000000,-2757.943793
1394.620332,-11399.171507,592.164754,842.705048
1394.620652,-11251.130318,0.000000,3753.867940
1394.620973,-10066.800811,-2368.659014,2221.676944
1394.621294,-9252.574275,-3034.844362,-2068.457845
1394.621614,-8882.471304,1036.288319,-2221.676944
1394.621935,-10362.883188,2812.782580,1685.410096
1394.622256,-10362.883188,370.102971,3677.258390
1394.622576,-9622.677246,-1628.453072,2221.676944
1394.622897,-9474.636058,-2960.823768,-766.095498
1394.623218,-10214.842000,0.000000,459.657299
1394.623538,-13027.624579,1776.494261,4213.525239
1394.623859,-10288.862594,-666.185348,4826.401637
1394.624180,-9178.553681,-1850.514855,612.876398
1394.624500,-7179.997637,370.102971,-2987.772442
1394.624821,-8586.388927,2960.823768,-995.924147
1394.625142,-11325.150913,2294.638420,3370.820191
1394.625462,-8586.388927,-1258.350101,2911.162892
1394.625783,-10066.800811,-4071.132681,153.219100
1394.626104,-9252.574275,-592.164754,76.609550
1394.626424,-9326.594869,222.061783,2911.162892
1394.626745,-11991.336260,-74.020594,6511.811733
1394.627066,-9030.512492,-1332.370696,4060.306139
1394.627386,-8956.491898,-1850.514855,0.000000
1394.627707,-8142.265362,0.000000,-1455.581446
1394.628028,-8882.471304,1702.473667,1378.971896
1394.628348,-11103.089130,0.000000,3447.429741
1394.628669,-8364.327145,-814.226536,1838.629195
1394.628990,-8734.430116,-1184.329507,-1991.848295
1394.629310,-8882.471304,2146.597232,689.485948
1394.629631,-11029.068536,1406.391290,3447.429741
1394.629952,-10362.883188,-666.185348,4749.792088
1394.630272,-9992.780217,-2738.761985,2681.334243
1394.630593,-9252.574275,-1924.535449,-1225.752797
1394.630914,-8882.471304,1258.350101,-229.828649
1394.631234,-9918.759623,1702.473667,1991.848295
1394.631555,-9918.759623,222.061783,2757.943793
1394.631876,-10066.800811,-370.102971,-612.876398
1394.632196,-8734.430116,-370.102971,-1532.190996
1394.632517,-9622.677246,222.061783,689.485948
1394.632838,-11251.130318,-1184.329507,2681.334243
1394.633158,-10140.821405,-1776.494261,3140.991542
1394.633479,-9918.759623,-3330.926739,-1532.190996
1394.633800,-8364.327145,296.082377,-2757.943793
1394.634120,-9474.636058,3182.885551,-612.876398
1394.634441,-10362.883188,2220.617826,1455.581446
1394.634762,-9178.553681,0.000000,-306.438199
1394.635082,-9918.759623,-962.267725,-1838.629195
1394.635403,-9400.615463,-666.185348,-2451.505594
1394.635724,-9474.636058,666.185348,229.828649
1394.636044,-9548.656652,-1110.308913,-153.219100
1394.636365,-9178.553681,-2146.597232,-153.219100
1394.636686,-9104.533087,0.000000,-2528.115143
1394.637006,-9326.594869,1850.514855,-153.219100
1394.637327,-9992.780217,2590.720797,3140.991542
1394.637648,-12509.480420,0.000000,6128.763984
1394.637968,-11621.233289,-2886.803174,4596.572988
1394.638289,-10807.006753,-2812.782580,2834.553343
1394.638610,-9844.739029,-2220.617826,2221.676944
1394.638930,-9474.636058,-740.205942,2911.162892
1394.639251,-8586.388927,-888.247130,1685.410096
1394.639572,-7550.100608,-296.082377,-995.924147
1394.639892,-5699.585753,888.247130,-3983.696590
1394.640213,-7772.162391,2516.700203,-689.485948
1394.640534,-10066.800811,444.123565,1991.848295
1394.640854,-10140.821405,0.000000,3140.991542
1394.641175,-11547.212695,-2146.597232,1838.629195
1394.641496,-10658.965565,-814.226536,2298.286494
1394.641816,-10362.883188,370.102971,4749.792088
1394.642137,-13323.706956,-2960.823768,5822.325785
1394.642457,-8512.368333,-2368.659014,2834.553343
1394.642778,-9992.780217,-1406.391290,-689.485948
1394.643099,-7698.141797,2294.638420,-306.438199
1394.643419,-8956.491898,3701.029710,383.047749
1394.643740,-9696.697840,888.247130,3140.991542
1394.644061,-9030.512492,-2368.659014,1532.190996
1394.644381,-8956.491898,-2960.823768,-766.095498
1394.644702,-10807.006753,-1406.391290,1685.410096
1394.645023,-11473.192101,296.082377,3983.696590
1394.645343,-11695.253884,370.102971,5745.716235
1394.645664,-8438.347739,-1924.535449,2298.286494
1394.645985,-7624.121203,740.205942,-2298.286494
1394.646305,-6439.791695,2072.576638,-2987.772442
1394.646626,-10881.027347,2146.597232,-383.047749
1394.646947,-7254.018232,2738.761985,1608.800546
1394.647267,-9844.739029,-2738.761985,-2834.553343
1394.647588,-5921.647536,-148.041188,-1838.629195
1394.647909,-10955.047942,-1036.288319,0.000000
1394.648229,-12509.480420,-666.185348,4903.011187
1394.648550,-12139.377449,-518.144159,5132.839837
1394.648871,-11029.068536,-1628.453072,1762.019645
1394.649191,-7328.038826,814.226536,-1685.410096
1394.649512,-9548.656652,2072.576638,-459.657299
1394.649833,-9992.780217,296.082377,1762.019645
1394.650153,-7994.224174,-1628.453072,2068.457845
1394.650474,-8068.244768,-3256.906145,-3140.991542
1394.650795,-7328.038826,0.000000,-3064.381992
1394.651115,-10732.986159,444.123565,536.266849
1394.651436,-11029.068536,444.123565,4060.306139
1394.651757,-10732.986159,-1702.473667,1991.848295
1394.652077,-9178.553681,-2146.597232,-2451.505594
1394.652398,-7846.182985,518.144159,-1685.410096
1394.652719,-10807.006753,1258.350101,2145.067394
1394.653039,-10510.924376,222.061783,3370.820191
1394.653360,-9104.533087,0.000000,1455.581446
1394.653681,-9030.512492,-666.185348,-536.266849
1394.654001,-8882.471304,370.102971,-229.828649
1394.654322,-11103.089130,-666.185348,3064.381992
1394.654643,-10214.842000,-1406.391290,3983.696590
1394.654963,-9696.697840,-2442.679609,995.924147
1394.655284,-8586.388927,-148.041188,153.219100
1394.655605,-8956.491898,1776.494261,459.657299
1394.655925,-10510.924376,-148.041188,2451.505594
1394.656246,-9030.512492,-592.164754,2451.505594
1394.656567,-7846.182985,-1924.535449,76.609550
1394.656887,-8216.285956,-148.041188,-766.095498
1394.657208,-9844.739029,1110.308913,2528.115143
1394.657529,-11917.315666,518.144159,5286.058936
1394.657849,-11177.109724,-222.061783,4979.620737
1394.658170,-10140.821405,-2368.659014,229.828649
1394.658491,-7994.224174,1110.308913,1685.410096
1394.658811,-11325.150913,666.185348,2298.286494
1394.659132,-9474.636058,-666.185348,3753.867940
1394.659453,-8512.368333,-1998.556043,536.266849
1394.659773,-9178.553681,-1184.329507,-2451.505594
1394.660094,-7476.080014,370.102971,-689.485948
1394.660415,-10066.800811,888.247130,3140.991542
1394.660735,-10510.924376,-740.205942,3830.477490
1394.661056,-9622.677246,-2072.576638,2145.067394
1394.661377,-9104.533087,-1924.535449,-612.876398
1394.661697,-9474.636058,-148.041188,459.657299
1394.662018,-11177.109724,666.185348,2528.115143
1394.662339,-9770.718434,0.000000,2604.724693
1394.662659,-8586.388927,-1406.391290,-306.438199
1394.662980,-8364.327145,-444.123565,-2451.505594
1394.663301,-9474.636058,666.185348,-689.485948
1394.663621,-11177.109724,-1480.411884,2145.067394
1394.663942,-9030.512492,-2442.679609,1915.238745
1394.664263,-9548.656652,-2960.823768,-1455.581446
1394.664583,-8882.471304,-296.082377,-1608.800546
1394.664904,-10436.903782,2146.597232,1302.362347
1394.665225,-11695.253884,148.041188,3907.087040
1394.665545,-9474.636058,-1480.411884,1225.752797
1394.665866,-9252.574275,-2146.597232,-2068.457845
1394.666187,-8882.471304,-592.164754,-1455.581446
1394.666507,-10955.047942,-444.123565,1225.752797
1394.666828,-10140.821405,-296.082377,2911.162892
1394.667149,-9252.574275,-2072.576638,0.000000
1394.667469,-8956.491898,222.061783,-2145.067394
1394.667790,-9548.656652,2146.597232,0.000000
1394.668111,-10732.986159,2812.782580,2374.896044
1394.668431,-11103.089130,0.000000,4213.525239
1394.668752,-9252.574275,-2220.617826,536.266849
1394.669073,-8808.450710,-1924.535449,-1455.581446
1394.669393,-9252.574275,0.000000,459.657299
1394.669714,-10732.986159,-666.185348,3524.039291
1394.670035,-8808.450710,-1924.535449,2911.162892
1394.670355,-7698.141797,-1258.350101,-1455.581446
1394.670676,-8068.244768,-1184.329507,-3447.429741
1394.670997,-7254.018232,3330.926739,612.876398
1394.671317,-11251.130318,1628.453072,5209.449386
1394.671638,-11473.192101,-1406.391290,5209.449386
1394.671959,-11029.068536,-2664.741391,2834.553343
1394.672279,-9992.780217,-3330.926739,1762.019645
1394.672600,-10584.944971,-1036.288319,2911.162892
1394.672921,-11177.109724,-1480.411884,5669.106685
1394.673241,-10881.027347,-1924.535449,4443.353888
1394.673562,-7402.059420,-1702.473667,-1685.410096
1394.673883,-7476.080014,2294.638420,-3753.867940
1394.674203,-8956.491898,4145.153275,0.000000
1394.674524,-9400.615463,3256.906145,2528.115143
1394.674845,-10140.821405,444.123565,1072.533697
1394.675165,-8586.388927,-666.185348,-1072.533697
1394.675486,-7772.162391,-296.082377,-306.438199
1394.675807,-11325.150913,-1258.350101,2757.943793
1394.676127,-13027.624579,-1480.411884,5362.668486
1394.676448,-10584.944971,-592.164754,2528.115143
1394.676769,-9104.533087,2146.597232,-995.924147
1394.677089,-8956.491898,3182.885551,383.047749
1394.677410,-10066.800811,592.164754,1225.752797
1394.677731,-10362.883188,-1702.473667,1991.848295
1394.678051,-8734.430116,-2812.782580,-1991.848295
1394.678372,-6957.935855,0.000000,-2068.457845
1394.678692,-10807.006753,0.000000,229.828649
1394.679013,-10510.924376,962.267725,3907.087040
1394.679334,-11621.233289,-1702.473667,2451.505594
1394.679654,-11029.068536,-1924.535449,-612.876398
1394.679975,-7624.121203,1850.514855,-1532.190996
1394.680296,-11399.171507,444.123565,-229.828649
1394.680616,-8438.347739,1628.453072,2374.896044
1394.680937,-8808.450710,-1258.350101,-612.876398
1394.681258,-7179.997637,-1332.370696,-3907.087040
1394.681578,-6661.853478,1036.288319,-3447.429741
1394.681899,-9918.759623,962.267725,383.047749
1394.682220,-11103.089130,-444.123565,3447.429741
1394.682540,-10362.883188,-1998.556043,1378.971896
1394.682861,-9474.636058,-2368.659014,76.609550
1394.683182,-9030.512492,-1998.556043,229.828649
1394.683502,-11103.089130,-444.123565,3524.039291
1394.683823,-10288.862594,-370.102971,4903.011187
1394.684144,-10436.903782,-222.061783,1991.848295
1394.684464,-7624.121203,1184.329507,-459.657299
1394.684785,-8512.368333,1036.288319,2298.286494
1394.685106,-9622.677246,-518.144159,1685.410096
1394.685426,-8438.347739,-2368.659014,1225.752797
1394.685747,-9326.594869,-2220.617826,383.047749
1394.686068,-8364.327145,0.000000,-689.485948
1394.686388,-9696.697840,1776.494261,1685.410096
1394.686709,-11917.315666,1184.329507,5362.668486
1394.687030,-10066.800811,-1332.370696,3907.087040
1394.687350,-9622.677246,-3182.885551,995.924147
1394.687671,-8142.265362,-1850.514855,689.485948
1394.687992,-9474.636058,-888.247130,2221.676944
1394.688312,-10732.986159,-1554.432478,4519.963438
1394.688633,-9104.533087,-740.205942,3064.381992
1394.688954,-8438.347739,-1332.370696,0.000000
1394.689274,-7920.203579,666.185348,0.000000
1394.689595,-11325.150913,0.000000,3217.601092
1394.689916,-11177.109724,-2442.679609,3600.648841
1394.690236,-9474.636058,-1702.473667,76.609550
1394.690557,-8956.491898,-518.144159,-766.095498
1394.690878,-8586.388927,2516.700203,536.266849
1394.691198,-10436.903782,1406.391290,4443.353888
1394.691519,-10584.944971,-1776.494261,4826.401637
1394.691840,-10881.027347,-2442.679609,-306.438199
1394.692160,-8586.388927,-1702.473667,-2298.286494
1394.692481,-10214.842000,2516.700203,1608.800546
1394.692802,-11769.274478,962.267725,4826.401637
1394.693122,-7772.162391,-1258.350101,4136.915689
1394.693443,-9770.718434,-2072.576638,-306.438199
1394.693764,-7846.182985,-962.267725,-2451.505594
1394.694084,-8882.471304,0.000000,-1532.190996
1394.694405,-11991.336260,0.000000,4136.915689
1394.694726,-7624.121203,0.000000,995.924147
1394.695046,-9474.636058,-1258.350101,-2145.067394
1394.695367,-7846.182985,666.185348,-2451.505594
1394.695688,-9400.615463,1924.535449,-766.095498
1394.696008,-11917.315666,1406.391290,2451.505594
1394.696329,-10214.842000,1036.288319,995.924147
1394.696650,-8142.265362,0.000000,-3217.601092
1394.696970,-9104.533087,518.144159,-2451.505594
1394.697291,-9178.553681,0.000000,-689.485948
1394.697612,-10362.883188,-1850.514855,1838.629195
1394.697932,-9104.533087,-2368.659014,459.657299
1394.698253,-8512.368333,-1628.453072,-1532.190996
1394.698574,-8734.430116,592.164754,-76.609550
1394.698894,-11621.233289,1258.350101,3983.696590
1394.699215,-10214.842000,0.000000,4826.401637
1394.699536,-9548.656652,-2072.576638,536.266849
1394.699856,-8512.368333,-666.185348,-995.924147
1394.700177,-9252.574275,518.144159,919.314598
1394.700498,-11103.089130,-2442.679609,2451.505594
1394.700818,-9326.594869,-814.226536,2987.772442
1394.701139,-9252.574275,-740.205942,0.000000
1394.701460,-7105.977043,1776.494261,-536.266849
1394.701780,-10658.965565,3701.029710,2298.286494
1394.702101,-11325.150913,518.144159,5745.716235
1394.702422,-9622.677246,-2294.638420,2451.505594
1394.702742,-9918.759623,-1332.370696,1378.971896
1394.703063,-9474.636058,222.061783,1072.533697
1394.703384,-10955.047942,-370.102971,3677.258390
1394.703704,-11399.171507,-2368.659014,5362.668486
1394.704025,-9178.553681,-2368.659014,2681.334243
1394.704346,-8216.285956,-3701.029710,-2298.286494
1394.704666,-8216.285956,1110.308913,-2298.286494
1394.704987,-9400.615463,2886.803174,919.314598
1394.705308,-9400.615463,3256.906145,2451.505594
1394.705628,-11103.089130,2664.741391,3217.601092
1394.705949,-10510.924376,962.267725,2451.505594
1394.706270,-10732.986159,-1184.329507,2145.067394
1394.706590,-12139.377449,-3182.885551,4366.744339
1394.706911,-10510.924376,-3404.947333,3370.820191
1394.707232,-9474.636058,-1480.411884,1762.019645
1394.707552,-8586.388927,888.247130,1225.752797
1394.707873,-8438.347739,1924.535449,1532.190996
1394.708194,-9104.533087,-1406.391290,1838.629195
1394.708514,-8512.368333,-1924.535449,153.219100
1394.708835,-7772.162391,-1480.411884,-1685.410096
1394.709156,-9326.594869,-1702.473667,-1685.410096
1394.709476,-6957.935855,2146.597232,1532.190996
1394.709797,-10584.944971,-1110.308913,1455.581446
1394.710118,-8808.450710,-2294.638420,536.266849
1394.710438,-10214.842000,-1406.391290,383.047749
1394.710759,-9992.780217,0.000000,-689.485948
1394.711080,-10066.800811,1258.350101,1378.971896
1394.711400,-11473.192101,-370.102971,1608.800546
1394.711721,-7698.141797,-962.267725,-1455.581446
1394.712042,-9030.512492,-1924.535449,-3294.210641
1394.712362,-8290.306550,74.020594,-1378.971896
1394.712683,-8956.491898,-888.247130,306.438199
1394.713004,-11029.068536,-1332.370696,995.924147
1394.713324,-9992.780217,-592.164754,-229.828649
1394.713645,-10362.883188,-888.247130,-842.705048
1394.713965,-9844.739029,1628.453072,766.095498
1394.714286,-11843.295072,518.144159,1991.848295
1394.714607,-10658.965565,814.226536,2451.505594
1394.714927,-9104.533087,-222.061783,-459.657299
1394.715248,-9030.512492,666.185348,-689.485948
1394.715569,-9400.615463,1924.535449,-306.438199
1394.715889,-9104.533087,-592.164754,153.219100
1394.716210,-8438.347739,-666.185348,689.485948
1394.716531,-8808.450710,-1406.391290,-1532.190996
1394.716851,-8882.471304,444.123565,-2068.457845
1394.717172,-11769.274478,444.123565,3524.039291
1394.717493,-11251.130318,-370.102971,4749.792088
1394.717813,-11547.212695,-740.205942,4673.182538
1394.718134,-11103.089130,-1850.514855,3753.867940
1394.718455,-8364.327145,-222.061783,1455.581446
1394.718775,-9844.739029,222.061783,2604.724693
1394.719096,-9252.574275,-1258.350101,2987.772442
1394.719418,-7994.224174,-1332.370696,689.485948
1394.719739,-8586.388927,-1554.432478,0.000000
1394.720060,-7624.121203,1110.308913,459.657299
1394.720381,-10584.944971,370.102971,3370.820191
1394.720701,-10288.862594,-666.185348,4673.182538
1394.721022,-10066.800811,-1924.535449,3140.991542
1394.721343,-8734.430116,-1480.411884,306.438199
1394.721663,-8882.471304,0.000000,1302.362347
1394.721984,-10362.883188,-296.082377,3600.648841
1394.722305,-9474.636058,-1554.432478,2681.334243
1394.722626,-8734.430116,-2072.576638,612.876398
1394.722946,-7698.141797,-444.123565,-459.657299
1394.723267,-8734.430116,444.123565,-842.705048
1394.723588,-10584.944971,666.185348,2298.286494
1394.723909,-10066.800811,592.164754,1991.848295
1394.724229,-9400.615463,-592.164754,-306.438199
1394.724550,-9622.677246,222.061783,0.000000
1394.724871,-10362.883188,0.000000,1302.362347
1394.725192,-9474.636058,-962.267725,2145.067394
1394.725512,-10658.965565,-2072.576638,1608.800546
1394.725833,-9992.780217,-1776.494261,-229.828649
1394.726154,-8956.491898,-814.226536,-1455.581446
1394.726474,-10436.903782,1554.432478,2145.067394
1394.726795,-10807.006753,1406.391290,1915.238745
1394.727116,-10732.986159,0.000000,0.000000
1394.727437,-8290.306550,666.185348,-1685.410096
1394.727757,-9400.615463,-888.247130,-2757.943793
1394.728078,-10140.821405,-222.061783,0.000000
1394.728399,-10510.924376,-1554.432478,689.485948
1394.728720,-10214.842000,-1924.535449,-306.438199
1394.729040,-8734.430116,2072.576638,-2451.505594
1394.729361,-10807.006753,2368.659014,-229.828649
1394.729682,-9992.780217,2886.803174,1762.019645
1394.730002,-11695.253884,-148.041188,2987.772442
1394.730323,-8438.347739,-2146.597232,-842.705048
1394.730644,-9030.512492,-592.164754,-842.705048
1394.730965,-9474.636058,518.144159,153.219100
1394.731285,-10140.821405,-1924.535449,2834.553343
1394.731606,-8068.244768,-1554.432478,1149.143247
1394.731927,-9030.512492,-1184.329507,-612.876398
1394.732248,-8586.388927,1036.288319,-1072.533697
1394.732568,-10140.821405,3034.844362,2681.334243
1394.732889,-10807.006753,592.164754,4903.011187
1394.733210,-9696.697840,-1184.329507,2911.162892
1394.733531,-9326.594869,-1776.494261,1838.629195
1394.733851,-7846.182985,0.000000,383.047749
1394.734172,-10584.944971,148.041188,3294.210641
1394.734493,-9770.718434,-1776.494261,3907.087040
1394.734813,-8438.347739,-1110.308913,1455.581446
1394.735134,-9548.656652,-74.020594,-306.438199
1394.735455,-8734.430116,3034.844362,1149.143247
1394.735776,-11399.171507,2516.700203,4519.963438
1394.736096,-10436.903782,74.020594,5056.230287
1394.736417,-9474.636058,-2220.617826,1532.190996
1394.736738,-9474.636058,-2294.638420,766.095498
1394.737059,-8438.347739,-592.164754,1685.410096
1394.737379,-11547.212695,-1480.411884,3983.696590
1394.737700,-9400.615463,-1702.473667,3983.696590
1394.738021,-9770.718434,-2516.700203,612.876398
1394.738341,-6809.894666,296.082377,-995.924147
1394.738662,-9474.636058,1036.288319,153.219100
1394.738983,-9992.780217,444.123565,2298.286494
1394.739304,-8882.471304,0.000000,1072.533697
1394.739624,-9770.718434,-962.267725,-919.314598
1394.739945,-7402.059420,2146.597232,1072.533697
1394.740266,-12657.521608,-1258.350101,2834.553343
1394.740587,-9918.759623,74.020594,5439.278036
1394.740907,-11769.274478,-2146.597232,1991.848295
1394.741228,-9918.759623,-1850.514855,-766.095498
1394.741549,-6439.791695,740.205942,-1915.238745
1394.741870,-10066.800811,2072.576638,1455.581446
1394.742190,-8512.368333,1258.350101,1378.971896
1394.742511,-9992.780217,-1406.391290,383.047749
1394.742832,-8660.409521,-2960.823768,-1378.971896
1394.743152,-9474.636058,-1702.473667,-1225.752797
1394.743473,-10436.903782,-518.144159,1762.019645
1394.743794,-10288.862594,-148.041188,1915.238745
1394.744115,-9474.636058,-592.164754,-1072.533697
1394.744435,-8290.306550,1258.350101,-2681.334243
1394.744756,-8512.368333,1850.514855,-1455.581446
1394.745077,-10732.986159,-814.226536,995.924147
1394.745398,-10436.903782,-1924.535449,1532.190996
1394.745718,-9770.718434,-1850.514855,-766.095498
1394.746039,-8734.430116,-296.082377,-1608.800546
1394.746360,-9770.718434,1776.494261,1991.848295
1394.746680,-11621.233289,-888.247130,4519.963438
1394.747001,-9696.697840,-2738.761985,842.705048
1394.747322,-8660.409521,-2294.638420,-2145.067394
1394.747643,-8734.430116,444.123565,-1608.800546
1394.747963,-9844.739029,2294.638420,1762.019645
1394.748284,-11547.212695,814.226536,4749.792088
1394.748605,-9844.739029,-1332.370696,2451.505594
1394.748926,-9326.594869,-2368.659014,-306.438199
1394.749246,-9178.553681,-1776.494261,306.438199
1394.749567,-10807.006753,-1776.494261,2987.772442
1394.749888,-10510.924376,-666.185348,4136.915689
1394.750209,-9178.553681,814.226536,2145.067394
1394.750529,-8438.347739,1850.514855,-842.705048
1394.750850,-7328.038826,3478.967927,-612.876398
1394.751171,-9622.677246,1850.514855,2451.505594
1394.751491,-10066.800811,-814.226536,3753.867940
1394.751812,-9400.615463,-1776.494261,1838.629195
1394.752133,-9548.656652,-2072.576638,1302.362347
1394.752454,-9622.677246,296.082377,2221.676944
1394.752774,-11251.130318,222.061783,4903.011187
1394.753095,-10510.924376,888.247130,4443.353888
1394.753416,-9696.697840,962.267725,2451.505594
1394.753737,-8142.265362,74.020594,-153.219100
1394.754057,-8512.368333,0.000000,1072.533697
1394.754378,-9474.636058,-1998.556043,1072.533697
1394.754699,-9474.636058,-1776.494261,1225.752797
1394.755020,-9548.656652,-592.164754,383.047749
1394.755340,-8290.306550,666.185348,306.438199
1394.755661,-9770.718434,-74.020594,0.000000
1394.755982,-11029.068536,-1776.494261,2834.553343
1394.756302,-9696.697840,-2664.741391,459.657299
1394.756623,-9770.718434,-1184.329507,-1991.848295
1394.756944,-8068.244768,1332.370696,-1838.629195
1394.757265,-9918.759623,1554.432478,689.485948
1394.757585,-9622.677246,-1258.350101,919.314598
1394.757906,-8586.388927,-2072.576638,-1762.019645
1394.758227,-8364.327145,-3330.926739,-3217.601092
1394.758548,-8068.244768,296.082377,0.000000
1394.758868,-11325.150913,0.000000,2528.115143
1394.759189,-10584.944971,-1554.432478,1378.971896
1394.759510,-9474.636058,-1184.329507,0.000000
1394.759830,-9104.533087,148.041188,-1608.800546
1394.760151,-10436.903782,666.185348,1608.800546
1394.760472,-10955.047942,-1110.308913,3677.258390
1394.760793,-10658.965565,-74.020594,3370.820191
1394.761113,-9474.636058,-2072.576638,-1072.533697
1394.761434,-7624.121203,370.102971,-1225.752797
1394.761755,-9178.553681,1480.411884,1225.752797
1394.762076,-11103.089130,-814.226536,3064.381992
1394.762396,-9178.553681,-1480.411884,1149.143247
1394.762717,-7994.224174,0.000000,-842.705048
1394.763038,-9178.553681,1998.556043,-76.609550
1394.763359,-11251.130318,1998.556043,3140.991542
1394.763679,-11473.192101,666.185348,5592.497135
1394.764000,-10436.903782,-2590.720797,4519.963438
1394.764321,-8438.347739,-296.082377,-306.438199
1394.764641,-10732.986159,-814.226536,1149.143247
1394.764962,-10066.800811,-148.041188,2374.896044
1394.765283,-10288.862594,296.082377,3140.991542
1394.765604,-8068.244768,-370.102971,536.266849
1394.765924,-8216.285956,0.000000,-1455.581446
1394.766245,-8882.471304,148.041188,383.047749
1394.766566,-12139.377449,-1332.370696,4060.306139
1394.766887,-8956.491898,-1258.350101,2451.505594
1394.767207,-10066.800811,-370.102971,1532.190996
1394.767528,-9770.718434,222.061783,1378.971896
1394.767849,-10140.821405,1406.391290,2757.943793
1394.768169,-11103.089130,-222.061783,5439.278036
1394.768490,-7624.121203,-1850.514855,1762.019645
1394.768811,-8660.409521,-3330.926739,-689.485948
1394.769132,-7772.162391,-740.205942,-1838.629195
1394.769452,-8956.491898,1702.473667,842.705048
1394.769773,-9548.656652,1332.370696,1762.019645
1394.770094,-9030.512492,1628.453072,2145.067394
1394.770415,-9104.533087,296.082377,459.657299
1394.770735,-9474.636058,296.082377,-229.828649
1394.771056,-10510.924376,888.247130,2145.067394
1394.771377,-11843.295072,-2886.803174,2451.505594
1394.771698,-6957.935855,-1036.288319,306.438199
1394.772018,-8438.347739,-1110.308913,-1991.848295
1394.772339,-7476.080014,3997.112087,-1532.190996
1394.772660,-11251.130318,2442.679609,2374.896044
1394.772980,-9992.780217,1036.288319,229.828649
1394.773301,-7772.162391,518.144159,-1455.581446
1394.773622,-9326.594869,-1332.370696,-3370.820191
1394.773943,-9548.656652,2072.576638,76.609550
1394.774263,-12435.459826,-1554.432478,3524.039291
1394.774584,-10436.903782,-2960.823768,4290.134789
1394.774905,-10584.944971,-3256.906145,1838.629195
1394.775226,-10436.903782,-296.082377,3447.429741
1394.775546,-10288.862594,962.267725,919.314598
1394.775867,-10214.842000,814.226536,2451.505594
1394.776188,-8438.347739,740.205942,536.266849
1394.776508,-8586.388927,-592.164754,-1378.971896
1394.776829,-8364.327145,740.205942,-919.314598
1394.777150,-10732.986159,-740.205942,2298.286494
1394.777471,-10881.027347,-2368.659014,4290.134789
1394.777791,-11695.253884,-4737.318029,1608.800546
1394.778112,-5847.626942,2442.679609,-1072.533697
1394.778433,-11843.295072,1332.370696,689.485948
1394.778754,-7105.977043,3849.070898,4366.744339
1394.779074,-9474.636058,-1924.535449,1608.800546
1394.779395,-9474.636058,-3034.844362,-459.657299
1394.779716,-7105.977043,-2294.638420,-2604.724693
1394.780037,-8364.327145,370.102971,306.438199
1394.780357,-13471.748144,74.020594,6665.030833
1394.780678,-7105.977043,-2516.700203,2451.505594
1394.780999,-11621.233289,-1332.370696,1685.410096
1394.781319,-7402.059420,-1776.494261,536.266849
1394.781640,-8808.450710,1332.370696,0.000000
1394.781961,-12583.501014,1480.411884,4903.011187
1394.782282,-8290.306550,962.267725,1915.238745
1394.782602,-8216.285956,222.061783,-153.219100
1394.782923,-9918.759623,-1110.308913,383.047749
1394.783244,-7994.224174,-222.061783,1838.629195
1394.783565,-10881.027347,-1332.370696,4443.353888
1394.783885,-10362.883188,-2146.597232,2528.115143
1394.784206,-9474.636058,-148.041188,689.485948
1394.784527,-10658.965565,1554.432478,1532.190996
1394.784847,-10066.800811,1628.453072,3294.210641
1394.785168,-11029.068536,-1184.329507,3830.477490
1394.785489,-9178.553681,-3182.885551,1225.752797
1394.785810,-8438.347739,-4219.173869,-2374.896044
1394.786130,-8364.327145,-222.061783,-2374.896044
1394.786451,-9474.636058,740.205942,-612.876398
1394.786772,-9474.636058,888.247130,1685.410096
1394.787093,-8734.430116,74.020594,-459.657299
1394.787413,-8956.491898,-1110.308913,-2068.457845
1394.787734,-8660.409521,0.000000,1455.581446
1394.788055,-12657.521608,-2146.597232,3140.991542
1394.788376,-11029.068536,-2442.679609,2834.553343
1394.788696,-10066.800811,-2220.617826,306.438199
1394.789017,-8142.265362,-370.102971,-1149.143247
1394.789338,-9844.739029,296.082377,-306.438199
1394.789658,-8660.409521,444.123565,2298.286494
1394.789979,-8586.388927,-1184.329507,536.266849
1394.790300,-8882.471304,-1850.514855,-2451.505594
1394.790621,-8808.450710,74.020594,-1915.238745
1394.790941,-9622.677246,2960.823768,919.314598
1394.791262,-10955.047942,666.185348,4290.134789
1394.791583,-10066.800811,148.041188,2911.162892
1394.791904,-9400.615463,-1776.494261,-1149.143247
1394.792224,-8068.244768,-222.061783,-1532.190996
1394.792545,-10658.965565,1480.411884,2298.286494
1394.792866,-10732.986159,-444.123565,4443.353888
1394.793186,-8438.347739,-1776.494261,842.705048
1394.793507,-8364.327145,-148.041188,-1455.581446
1394.793828,-7846.182985,1554.432478,-536.266849
1394.794149,-10955.047942,222.061783,2451.505594
1394.794469,-10807.006753,222.061783,4366.744339
1394.794790,-10362.883188,-814.226536,1762.019645
1394.795111,-9622.677246,-1702.473667,459.657299
1394.795432,-9548.656652,-296.082377,2298.286494
1394.795752,-10584.944971,-1258.350101,3830.477490
1394.796073,-10807.006753,-3552.988522,4443.353888
1394.796394,-8956.491898,-1702.473667,689.485948
1394.796715,-9178.553681,0.000000,229.828649
1394.797035,-8512.368333,74.020594,459.657299
1394.797356,-11769.274478,-148.041188,4136.915689
1394.797677,-9918.759623,-296.082377,2757.943793
1394.797997,-10732.986159,-296.082377,306.438199
1394.798318,-9622.677246,1702.473667,459.657299
1394.798639,-9696.697840,1924.535449,2145.067394
1394.798960,-11251.130318,-1110.308913,3294.210641
1394.799280,-9400.615463,-1110.308913,2145.067394
1394.799601,-8290.306550,-2072.576638,-766.095498
1394.799922,-8216.285956,148.041188,-536.266849
1394.800243,-9400.615463,1184.329507,2451.505594
1394.800563,-11177.109724,370.102971,2987.772442
1394.800884,-9548.656652,222.061783,2145.067394
1394.801205,-8068.244768,-666.185348,-995.924147
1394.801525,-9030.512492,0.000000,-306.438199
1394.801846,-10362.883188,-296.082377,306.438199
1394.802167,-10510.924376,-518.144159,1685.410096
1394.802488,-9844.739029,-1184.329507,-306.438199
1394.802808,-7698.141797,666.185348,-2451.505594
1394.803129,-8808.450710,1554.432478,-1225.752797
1394.803450,-9918.759623,296.082377,1455.581446
1394.803771,-10807.006753,-1850.514855,1762.019645
1394.804091,-9252.574275,-2442.679609,0.000000
1394.804412,-7254.018232,-666.185348,-1149.143247
1394.804733,-9992.780217,-370.102971,383.047749
1394.805054,-9992.780217,-1184.329507,2528.115143
1394.805374,-8956.491898,-2146.597232,1149.143247
1394.805695,-8586.388927,-2960.823768,-1838.629195
1394.806016,-8438.347739,148.041188,-1608.800546
1394.806336,-10140.821405,814.226536,1072.533697
1394.806657,-10955.047942,-518.144159,2451.505594
1394.806978,-9474.636058,-740.205942,919.314598
1394.807299,-10066.800811,0.000000,229.828649
1394.807619,-9030.512492,74.020594,-536.266849
1394.807940,-11251.130318,1332.370696,3600.648841
1394.808261,-11547.212695,-1406.391290,4060.306139
1394.808582,-9104.533087,-814.226536,536.266849
1394.808902,-8956.491898,222.061783,-689.485948
1394.809223,-8290.306550,1924.535449,76.609550
1394.809544,-9400.615463,1776.494261,2298.286494
1394.809864,-9770.718434,-74.020594,2451.505594
1394.810185,-8438.347739,-444.123565,-1072.533697
1394.810506,-8142.265362,-2368.659014,-995.924147
1394.810827,-9622.677246,888.247130,2757.943793
1394.811147,-13989.892304,222.061783,6665.030833
1394.811468,-11399.171507,-148.041188,5745.716235
1394.811789,-10362.883188,-1628.453072,2987.772442
1394.812110,-8734.430116,-222.061783,306.438199
1394.812430,-8290.306550,1776.494261,1072.533697
1394.812751,-10955.047942,1184.329507,4443.353888
1394.813072,-8660.409521,814.226536,3753.867940
1394.813393,-9400.615463,-2886.803174,306.438199
1394.813713,-8438.347739,-2220.617826,153.219100
1394.814034,-10807.006753,-2294.638420,1608.800546
1394.814355,-9696.697840,-1776.494261,1072.533697
1394.814675,-9918.759623,1480.411884,1991.848295
1394.814996,-8216.285956,1628.453072,-536.266849
1394.815317,-7254.018232,2812.782580,-2145.067394
1394.815638,-10658.965565,1110.308913,689.485948
1394.815958,-9474.636058,-2590.720797,995.924147
1394.816279,-8956.491898,-4737.318029,-383.047749
1394.816600,-9770.718434,-4071.132681,-459.657299
1394.816921,-8364.327145,0.000000,-306.438199
1394.817241,-11991.336260,518.144159,2681.334243
1394.817562,-10362.883188,296.082377,2911.162892
1394.817883,-9474.636058,-370.102971,-1455.581446
1394.818203,-8956.491898,0.000000,-2451.505594
1394.818524,-8512.368333,1628.453072,-153.219100
1394.818845,-9548.656652,-296.082377,919.314598
1394.819166,-10510.924376,-1110.308913,306.438199
1394.819487,-9326.594869,-370.102971,-995.924147
1394.819807,-8808.450710,-222.061783,-1762.019645
1394.820128,-9622.677246,0.000000,0.000000
1394.820449,-11103.089130,-1258.350101,1302.362347
1394.820770,-9770.718434,370.102971,1302.362347
1394.821091,-11251.130318,-222.061783,459.657299
1394.821411,-9844.739029,1406.391290,995.924147
1394.821732,-9918.759623,1036.288319,1915.238745
1394.822053,-10807.006753,-814.226536,2451.505594
1394.822374,-8808.450710,-1702.473667,536.266849
1394.822695,-7328.038826,-3034.844362,-2604.724693
1394.823015,-7846.182985,74.020594,-3753.867940
1394.823336,-7328.038826,1258.350101,-1685.410096
1394.823657,-8882.471304,1776.494261,2451.505594
1394.823978,-9918.759623,518.144159,3753.867940
1394.824299,-11547.212695,-1480.411884,3600.648841
1394.824619,-11843.295072,-888.247130,5822.325785
1394.824940,-14137.933492,-3108.864956,6358.592633
1394.825261,-11177.109724,-2220.617826,5898.935335
1394.825582,-10732.986159,-1554.432478,3370.820191
1394.825903,-7698.141797,1110.308913,383.047749
1394.826223,-6217.729913,2590.720797,-919.314598
1394.826544,-7920.203579,222.061783,612.876398
1394.826865,-7476.080014,-1184.329507,0.000000
1394.827186,-8956.491898,-2368.659014,-2374.896044
1394.827507,-9918.759623,-962.267725,1072.533697
1394.827827,-9992.780217,1406.391290,4366.744339
1394.828148,-13101.645173,-1998.556043,6588.421283
1394.828469,-11103.089130,-1998.556043,5898.935335
1394.828790,-11103.089130,-2220.617826,2374.896044
1394.829111,-9178.553681,592.164754,229.828649
1394.829431,-9770.718434,2812.782580,2451.505594
1394.829752,-8956.491898,814.226536,1762.019645
1394.830073,-8512.368333,-666.185348,-459.657299
1394.830394,-7402.059420,-1554.432478,-3753.867940
1394.830715,-7105.977043,1110.308913,-2987.772442
1394.831035,-11029.068536,666.185348,1378.971896
1394.831356,-11399.171507,0.000000,3830.477490
1394.831677,-11325.150913,-740.205942,1838.629195
1394.831998,-10066.800811,-296.082377,-229.828649
1394.832319,-9548.656652,1998.556043,0.000000
1394.832639,-11547.212695,-888.247130,1378.971896
1394.832960,-7994.224174,-444.123565,306.438199
1394.833281,-9474.636058,-962.267725,-1685.410096
1394.833602,-8956.491898,-962.267725,-3064.381992
1394.833923,-7476.080014,2516.700203,-1225.752797
1394.834243,-11769.274478,-2664.741391,1532.190996
1394.834564,-8068.244768,0.000000,229.828649
1394.834885,-11103.089130,-1110.308913,-229.828649
1394.835206,-9178.553681,444.123565,-689.485948
1394.835527,-9474.636058,666.185348,766.095498
1394.835847,-11325.150913,-2146.597232,1915.238745
1394.836168,-7402.059420,-370.102971,0.000000
1394.836489,-9844.739029,-1036.288319,-1991.848295
1394.836810,-7476.080014,2368.659014,-919.314598
1394.837131,-10214.842000,1110.308913,2145.067394
1394.837451,-9918.759623,-962.267725,2451.505594
1394.837772,-9030.512492,-2294.638420,995.924147
1394.838093,-9548.656652,-1258.350101,459.657299
1394.838414,-8882.471304,222.061783,1685.410096
1394.838735,-11251.130318,296.082377,3677.258390
1394.839055,-11103.089130,-888.247130,4290.134789
1394.839376,-8586.388927,-1924.535449,0.000000
1394.839697,-8364.327145,222.061783,1072.533697
1394.840018,-7994.224174,444.123565,689.485948
1394.840339,-9918.759623,1406.391290,3447.429741
1394.840659,-11547.212695,-296.082377,4903.011187
1394.840980,-8216.285956,-888.247130,1149.143247
1394.841301,-9622.677246,-1036.288319,459.657299
1394.841622,-10066.800811,518.144159,3140.991542
1394.841943,-11029.068536,-222.061783,4290.134789
1394.842263,-10066.800811,-2516.700203,3217.601092
1394.842584,-8438.347739,-1998.556043,306.438199
1394.842905,-7105.977043,-1110.308913,0.000000
1394.843226,-8882.471304,1258.350101,1991.848295
1394.843547,-10140.821405,666.185348,3217.601092
1394.843867,-9252.574275,370.102971,2911.162892
1394.844188,-8586.388927,-1184.329507,689.485948
1394.844509,-8956.491898,1406.391290,1838.629195
1394.844830,-12879.583391,-518.144159,4826.401637
1394.845151,-11325.150913,-3034.844362,6205.373534
1394.845471,-10955.047942,-2442.679609,2451.505594
1394.845792,-9696.697840,-1110.308913,-229.828649
1394.846113,-8068.244768,2146.597232,-229.828649
1394.846434,-10066.800811,1998.556043,2911.162892
1394.846755,-9622.677246,-1258.350101,1455.581446
1394.847075,-7624.121203,-2368.659014,-2374.896044
1394.847396,-9252.574275,-4219.173869,-2374.896044
1394.847717,-8068.244768,-962.267725,-1149.143247
1394.848038,-11991.336260,-1480.411884,4060.306139
1394.848359,-10214.842000,-444.123565,1685.410096
1394.848679,-9474.636058,-296.082377,-1225.752797
1394.849000,-9104.533087,666.185348,-2451.505594
1394.849321,-9770.718434,2590.720797,-306.438199
1394.849642,-12065.356855,-592.164754,2451.505594
1394.849963,-10436.903782,-2590.720797,919.314598
1394.850283,-9178.553681,-4367.215058,-2528.115143
1394.850604,-7031.956449,-444.123565,-3294.210641
1394.850925,-10066.800811,0.000000,-153.219100
1394.851246,-9770.718434,74.020594,1915.238745
1394.851567,-8512.368333,-444.123565,-995.924147
1394.851887,-8438.347739,-444.123565,-3294.210641
1394.852208,-7031.956449,2368.659014,-2145.067394
1394.852529,-12139.377449,592.164754,2068.457845
1394.852850,-12065.356855,-1332.370696,4519.963438
1394.853171,-9104.533087,-2516.700203,229.828649
1394.853491,-8290.306550,-962.267725,-1072.533697
1394.853812,-8660.409521,518.144159,153.219100
1394.854133,-11399.171507,1258.350101,3830.477490
1394.854454,-10732.986159,0.000000,3677.258390
1394.854775,-9548.656652,-518.144159,459.657299
1394.855095,-9326.594869,-444.123565,-229.828649
1394.855416,-9474.636058,2442.679609,1225.752797
1394.855737,-12213.398043,1628.453072,5209.449386
1394.856058,-9474.636058,-222.061783,4136.915689
1394.856379,-8586.388927,-2738.761985,229.828649
1394.856699,-7031.956449,-3330.926739,-3064.381992
1394.857020,-7254.018232,962.267725,-2528.115143
1394.857341,-9770.718434,2442.679609,2451.505594
1394.857662,-9178.553681,3552.988522,3907.087040
1394.857983,-10066.800811,1184.329507,2911.162892
1394.858303,-10807.006753,-518.144159,3830.477490
1394.858624,-12657.521608,-2664.741391,5056.230287
1394.858945,-12583.501014,-4367.215058,6435.202183
1394.859266,-12213.398043,-1332.370696,3907.087040
1394.859587,-9474.636058,-444.123565,1455.581446
1394.859907,-6439.791695,2516.700203,153.219100
1394.860228,-8068.244768,1628.453072,766.095498
1394.860549,-7920.203579,-222.061783,1072.533697
1394.860870,-8512.368333,-1850.514855,-76.609550
1394.861191,-9474.636058,-1554.432478,-459.657299
1394.861511,-8586.388927,2368.659014,1225.752797
1394.861832,-12213.398043,518.144159,3677.258390
1394.862153,-10584.944971,-222.061783,4903.011187
1394.862474,-9770.718434,-740.205942,1225.752797
1394.862795,-9622.677246,148.041188,-1149.143247
1394.863115,-8956.491898,1406.391290,-2451.505594
1394.863436,-8142.265362,1110.308913,1302.362347
1394.863757,-11621.233289,-740.205942,0.000000
1394.864078,-6439.791695,-1406.391290,-1685.410096
1394.864399,-8808.450710,-3108.864956,-4519.963438
1394.864719,-9178.553681,1776.494261,459.657299
1394.865040,-9992.780217,-1776.494261,306.438199
1394.865361,-11621.233289,-222.061783,3600.648841
1394.865682,-9622.677246,-592.164754,0.000000
1394.866003,-9844.739029,-444.123565,-1072.533697
1394.866323,-9918.759623,-74.020594,1685.410096
1394.866644,-9474.636058,-2294.638420,919.314598
1394.866965,-9474.636058,-2664.741391,-612.876398
1394.867286,-8512.368333,-1184.329507,-1685.410096
1394.867607,-6809.894666,1702.473667,-2374.896044
1394.867927,-10807.006753,1406.391290,1149.143247
1394.868248,-10436.903782,-814.226536,2451.505594
1394.868569,-9770.718434,-1776.494261,1455.581446
1394.868890,-10658.965565,-1258.350101,383.047749
1394.869211,-9992.780217,222.061783,1378.971896
1394.869531,-10881.027347,-1776.494261,3753.867940
1394.869852,-10214.842000,-3256.906145,2757.943793
1394.870173,-8586.388927,-1850.514855,383.047749
1394.870494,-8290.306550,0.000000,-1838.629195
1394.870815,-8142.265362,3034.844362,612.876398
1394.871135,-11103.089130,1776.494261,3907.087040
1394.871456,-9326.594869,296.082377,2528.115143
1394.871777,-9622.677246,-1258.350101,2374.896044
1394.872098,-9400.615463,-148.041188,1762.019645
1394.872419,-10510.924376,-148.041188,2528.115143
1394.872739,-11473.192101,-888.247130,4826.401637
1394.873060,-10066.800811,-666.185348,3217.601092
1394.873381,-9326.594869,-1184.329507,229.828649
1394.873702,-7920.203579,888.247130,842.705048
1394.874023,-8512.368333,814.226536,1915.238745
1394.874343,-9992.780217,-592.164754,3370.820191
1394.874664,-10066.800811,-1776.494261,2528.115143
1394.874985,-9326.594869,-1332.370696,995.924147
1394.875306,-9030.512492,814.226536,1378.971896
1394.875627,-11325.150913,0.000000,3140.991542
1394.875947,-10214.842000,1332.370696,1838.629195
1394.876268,-11103.089130,-1850.514855,1302.362347
1394.876589,-7254.018232,0.000000,-842.705048
1394.876910,-9548.656652,888.247130,536.266849
1394.877231,-9252.574275,444.123565,1149.143247
1394.877551,-10658.965565,-1924.535449,2221.676944
1394.877872,-9104.533087,-1036.288319,383.047749
1394.878193,-8882.471304,370.102971,0.000000
1394.878514,-9474.636058,222.061783,306.438199
1394.878835,-10658.965565,592.164754,1225.752797
1394.879155,-9918.759623,-370.102971,689.485948
1394.879476,-9104.533087,-1406.391290,-2221.676944
1394.879797,-6587.832884,962.267725,-3370.820191
1394.880118,-9178.553681,1110.308913,-689.485948
1394.880439,-9770.718434,148.041188,1378.971896
1394.880759,-9548.656652,-1110.308913,0.000000
1394.881080,-9770.718434,-1258.350101,-1225.752797
1394.881401,-9104.533087,0.000000,-1532.190996
1394.881722,-10732.986159,222.061783,612.876398
1394.882043,-10584.944971,444.123565,1685.410096
1394.882363,-9104.533087,1480.411884,1072.533697
1394.882684,-9400.615463,-962.267725,-1532.190996
1394.883005,-8216.285956,2368.659014,-1685.410096
1394.883326,-11843.295072,-296.082377,1532.190996
1394.883647,-9622.677246,-2442.679609,229.828649
1394.883967,-9474.636058,-1036.288319,153.219100
1394.884288,-9844.739029,-74.020594,2451.505594
1394.884609,-7994.224174,1702.473667,1149.143247
1394.884930,-13027.624579,0.000000,6281.983084
1394.885251,-10436.903782,-2146.597232,4903.011187
1394.885571,-10140.821405,-3034.844362,919.314598
1394.885892,-8438.347739,-1628.453072,-1149.143247
1394.886213,-7624.121203,1554.432478,0.000000
1394.886534,-9844.739029,1258.350101,1532.190996
1394.886855,-8734.430116,1258.350101,1991.848295
1394.887175,-7402.059420,0.000000,-306.438199
1394.887496,-8364.327145,0.000000,306.438199
1394.887817,-11177.109724,-222.061783,3600.648841
1394.888138,-12805.562797,-666.185348,6741.640382
1394.888459,-10140.821405,-666.185348,3140.991542
1394.888779,-9992.780217,-2072.576638,1991.848295
1394.889100,-8068.244768,740.205942,612.876398
1394.889421,-9918.759623,0.000000,1532.190996
1394.889742,-9770.718434,0.000000,3217.601092
1394.890063,-8734.430116,-222.061783,1991.848295
1394.890383,-9178.553681,-1554.432478,-229.828649
1394.890704,-8808.450710,-1184.329507,689.485948
1394.891025,-9770.718434,-962.267725,2068.457845
1394.891346,-10362.883188,-1184.329507,3830.477490
1394.891667,-9770.718434,-1702.473667,2068.457845
1394.891987,-9474.636058,370.102971,995.924147
1394.892308,-11029.068536,1184.329507,2298.286494
1394.892629,-10436.903782,222.061783,3294.210641
1394.892950,-11177.109724,-1850.514855,3140.991542
1394.893271,-8142.265362,-1554.432478,-153.219100
1394.893591,-7105.977043,-2368.659014,-3217.601092
1394.893912,-7031.956449,1036.288319,-3064.381992
1394.894233,-8734.430116,0.000000,-919.314598
1394.894554,-7846.182985,222.061783,-1302.362347
1394.894875,-9030.512492,-148.041188,-1532.190996
1394.895195,-9400.615463,-222.061783,-689.485948
1394.895516,-12657.521608,0.000000,2911.162892
1394.895837,-13471.748144,-1702.473667,4596.572988
1394.896158,-11843.295072,-2442.679609,2298.286494
1394.896479,-9474.636058,-962.267725,0.000000
1394.896799,-8586.388927,370.102971,-689.485948
1394.897120,-9548.656652,962.267725,0.000000
1394.897441,-8956.491898,0.000000,-153.219100
1394.897762,-7624.121203,-518.144159,-2681.334243
1394.898083,-7920.203579,222.061783,-3064.381992
1394.898403,-8882.471304,1332.370696,-1838.629195
1394.898724,-11695.253884,1776.494261,2604.724693
1394.899045,-11177.109724,-1110.308913,3677.258390
1394.899366,-9696.697840,-1406.391290,2221.676944
1394.899687,-9770.718434,-2072.576638,-153.219100
1394.900007,-9918.759623,0.000000,1455.581446
1394.900328,-11621.233289,-296.082377,3524.039291
1394.900649,-8512.368333,296.082377,1685.410096
1394.900970,-7624.121203,-1184.329507,-1072.533697
1394.901291,-7402.059420,592.164754,-1149.143247
1394.901611,-9178.553681,1628.453072,1608.800546
1394.901932,-11473.192101,-1332.370696,3983.696590
1394.902253,-10436.903782,-1406.391290,4673.182538
1394.902574,-10436.903782,-2960.823768,2145.067394
1394.902895,-9474.636058,-2220.617826,1455.581446
1394.903215,-10510.924376,-888.247130,2987.772442
1394.903536,-10214.842000,-666.185348,4366.744339
1394.903857,-8660.409521,-518.144159,2374.896044
1394.904178,-8882.471304,-370.102971,0.000000
1394.904499,-7476.080014,1110.308913,-383.047749
1394.904819,-9770.718434,666.185348,2068.457845
1394.905140,-10288.862594,-370.102971,3677.258390
1394.905461,-10362.883188,-444.123565,3370.820191
1394.905782,-9326.594869,-1184.329507,1225.752797
1394.906103,-8956.491898,296.082377,1838.629195
1394.906423,-10436.903782,-1258.350101,3600.648841
1394.906744,-8882.471304,-2368.659014,3217.601092
1394.907065,-8142.265362,-3108.864956,-1149.143247
1394.907386,-6069.688724,-740.205942,-2911.162892
1394.907707,-7031.956449,2146.597232,-2451.505594
1394.908027,-10584.944971,3256.906145,2757.943793
1394.908348,-11769.274478,962.267725,3370.820191
1394.908669,-10658.965565,592.164754,1915.238745
1394.908990,-11991.336260,-2220.617826,1762.019645
1394.909311,-11621.233289,-814.226536,1762.019645
1394.909631,-11547.212695,-1332.370696,2681.334243
1394.909952,-9400.615463,-1480.411884,-995.924147
1394.910273,-6069.688724,2442.679609,-4136.915689
1394.910594,-8068.244768,2220.617826,-4903.011187
1394.910915,-7698.141797,3552.988522,-2757.943793
1394.911235,-11547.212695,74.020594,-1302.362347
1394.911556,-10140.821405,814.226536,-459.657299
1394.911877,-10658.965565,592.164754,-919.314598
1394.912198,-11325.150913,296.082377,-1225.752797
1394.912519,-10881.027347,814.226536,1378.971896
1394.912839,-9918.759623,0.000000,1608.800546
1394.913160,-9770.718434,-1776.494261,-1991.848295
1394.913481,-9474.636058,0.000000,-4979.620737
1394.913802,-8216.285956,2590.720797,-2757.943793
1394.914123,-9622.677246,2072.576638,-383.047749
1394.914443,-10140.821405,3256.906145,1915.238745
1394.914764,-9548.656652,222.061783,1455.581446
1394.915085,-9326.594869,-1036.288319,0.000000
1394.915406,-9252.574275,74.020594,306.438199
1394.915727,-9844.739029,0.000000,1685.410096
1394.916047,-9622.677246,2442.679609,2451.505594
1394.916368,-10214.842000,2220.617826,153.219100
1394.916689,-7846.182985,3552.988522,-2145.067394
1394.917010,-9104.533087,3997.112087,-2145.067394
1394.917331,-10066.800811,2368.659014,689.485948
1394.917651,-8216.285956,2072.576638,1532.190996
1394.917972,-11399.171507,-888.247130,1455.581446
1394.918293,-8586.388927,-592.164754,-153.219100
1394.918614,-9178.553681,1850.514855,842.705048
1394.918935,-11399.171507,2516.700203,4290.134789
1394.919255,-9548.656652,2886.803174,3907.087040
1394.919576,-11177.109724,888.247130,1838.629195
1394.919897,-8882.471304,-1110.308913,-2298.286494
1394.920218,-7179.997637,296.082377,-4290.134789
1394.920539,-10510.924376,2960.823768,-2068.457845
1394.920859,-8512.368333,4589.276840,-1072.533697
1394.921180,-9326.594869,4145.153275,-1225.752797
1394.921501,-8660.409521,2072.576638,-2451.505594
1394.921822,-8438.347739,740.205942,-3600.648841
1394.922143,-11769.274478,1258.350101,0.000000
1394.922463,-12805.562797,1702.473667,2145.067394
1394.922784,-10584.944971,3256.906145,1685.410096
1394.923105,-9696.697840,2072.576638,459.657299
1394.923426,-9326.594869,-518.144159,-1991.848295
1394.923747,-8438.347739,-222.061783,-2298.286494
1394.924068,-9770.718434,444.123565,-1608.800546
1394.924388,-9474.636058,2590.720797,-1608.800546
1394.924709,-9030.512492,2738.761985,-2068.457845
1394.925030,-9474.636058,296.082377,-1838.629195
1394.925351,-9326.594869,1036.288319,-2374.896044
1394.925672,-10140.821405,2368.659014,-1991.848295
1394.925993,-11695.253884,3330.926739,-842.705048
1394.926313,-9400.615463,4367.215058,-1991.848295
1394.926634,-10066.800811,1628.453072,-3294.210641
1394.926955,-9992.780217,1480.411884,-3677.258390
1394.927276,-9548.656652,1998.556043,-4060.306139
1394.927597,-9326.594869,3256.906145,-4290.134789
1394.927918,-10288.862594,4663.297435,-2987.772442
1394.928238,-10881.027347,3923.091493,-1532.190996
1394.928559,-10584.944971,2442.679609,-306.438199
1394.928880,-9844.739029,-296.082377,0.000000
1394.929201,-9622.677246,-1110.308913,-2604.724693
1394.929522,-8586.388927,74.020594,-2604.724693
1394.929843,-9770.718434,1406.391290,-612.876398
1394.930163,-8068.244768,2072.576638,-689.485948
1394.930484,-8142.265362,1628.453072,-1149.143247
1394.930805,-7698.141797,962.267725,-1685.410096
1394.931126,-8660.409521,0.000000,-2068.457845
1394.931447,-10362.883188,444.123565,-1072.533697
1394.931768,-10436.903782,2738.761985,1915.238745
1394.932088,-11695.253884,5107.421000,1378.971896
1394.932409,-11621.233289,4959.379811,1378.971896
1394.932730,-9178.553681,3775.050304,995.924147
1394.933051,-10510.924376,1554.432478,612.876398
1394.933372,-9178.553681,1628.453072,-76.609550
1394.933692,-9918.759623,74.020594,-689.485948
1394.934013,-8142.265362,1332.370696,-459.657299
1394.934334,-8512.368333,1036.288319,-612.876398
1394.934655,-9178.553681,1332.370696,689.485948
1394.934976,-9400.615463,1776.494261,1838.629195
1394.935297,-10436.903782,148.041188,1685.410096
1394.935617,-10214.842000,148.041188,995.924147
1394.935938,-9622.677246,-296.082377,229.828649
1394.936259,-9474.636058,740.205942,-1225.752797
1394.936580,-9844.739029,3849.070898,-919.314598
1394.936901,-10066.800811,5477.523971,-1072.533697
1394.937222,-9030.512492,4145.153275,-306.438199
1394.937542,-9770.718434,2368.659014,-1608.800546
1394.937863,-10584.944971,370.102971,-1378.971896
1394.938184,-10732.986159,-518.144159,-689.485948
1394.938505,-10362.883188,-888.247130,-459.657299
1394.938826,-8734.430116,-222.061783,-842.705048
1394.939147,-9622.677246,1480.411884,-536.266849
1394.939467,-9918.759623,1702.473667,-536.266849
1394.939788,-9474.636058,1776.494261,-1225.752797
1394.940109,-9696.697840,1702.473667,-1762.019645
1394.940430,-9696.697840,1628.453072,-2068.457845
1394.940751,-9696.697840,1628.453072,-2221.676944
1394.941072,-9548.656652,1036.288319,-2834.553343
1394.941392,-9326.594869,2294.638420,-4443.353888
1394.941713,-9030.512492,5403.503377,-3370.820191
1394.942034,-10214.842000,4885.359217,-1838.629195
1394.942355,-10658.965565,5033.400406,-1302.362347
1394.942676,-11399.171507,2886.803174,-1532.190996
1394.942997,-9622.677246,2812.782580,-1455.581446
1394.943317,-10584.944971,2146.597232,0.000000
1394.943638,-9622.677246,0.000000,229.828649
1394.943959,-8660.409521,-1924.535449,-919.314598
1394.944280,-8290.306550,-1110.308913,-1608.800546
1394.944601,-8068.244768,888.247130,-1225.752797
1394.944922,-8438.347739,1184.329507,-766.095498
1394.945242,-9326.594869,1924.535449,-383.047749
1394.945563,-9104.533087,2220.617826,-2145.067394
1394.945884,-9696.697840,3701.029710,-1225.752797
1394.946205,-10066.800811,3404.947333,0.000000
1394.946526,-10140.821405,1628.453072,229.828649
1394.946847,-10362.883188,-370.102971,-995.924147
1394.947167,-9178.553681,-222.061783,-2834.553343
1394.947488,-9474.636058,1924.535449,-2681.334243
1394.947809,-9844.739029,3404.947333,-1378.971896
1394.948130,-10362.883188,4737.318029,0.000000
1394.948451,-10881.027347,4663.297435,-306.438199
1394.948771,-10288.862594,1998.556043,0.000000
1394.949092,-9770.718434,370.102971,0.000000
1394.949413,-9992.780217,-888.247130,919.314598
1394.949734,-10066.800811,-962.267725,383.047749
1394.950055,-9400.615463,0.000000,842.705048
1394.950376,-8808.450710,222.061783,-383.047749
1394.950696,-7994.224174,1184.329507,-2374.896044
1394.951017,-8660.409521,3256.906145,-1838.629195
1394.951338,-9548.656652,4293.194464,-1149.143247
1394.951659,-10510.924376,4663.297435,0.000000
1394.951980,-10807.006753,3997.112087,-459.657299
1394.952301,-10955.047942,2886.803174,-689.485948
1394.952621,-10955.047942,2072.576638,-1149.143247
1394.952942,-11103.089130,1702.473667,-383.047749
1394.953263,-10732.986159,2368.659014,-383.047749
1394.953584,-9844.739029,2738.761985,-536.266849
1394.953905,-9030.512492,2590.720797,-1455.581446
1394.954226,-8808.450710,444.123565,-995.924147
1394.954546,-8586.388927,-1110.308913,-1838.629195
1394.954867,-8512.368333,-1110.308913,-2528.115143
1394.955188,-8660.409521,296.082377,-2987.772442
1394.955509,-9030.512492,2294.638420,-2757.943793
1394.955830,-9622.677246,3775.050304,-2221.676944
1394.956151,-9770.718434,4885.359217,-1608.800546
1394.956471,-10140.821405,4959.379811,-1762.019645
1394.956792,-9770.718434,3849.070898,-1532.190996
1394.957113,-10066.800811,2072.576638,-995.924147
1394.957434,-10214.842000,0.000000,-1149.143247
1394.957755,-9474.636058,-592.164754,-1149.143247
1394.958076,-8586.388927,-962.267725,-306.438199
1394.958396,-9252.574275,0.000000,0.000000
1394.958717,-9178.553681,0.000000,0.000000
1394.959038,-9252.574275,296.082377,0.000000
1394.959359,-9252.574275,592.164754,-536.266849
1394.959680,-8882.471304,814.226536,-919.314598
1394.960001,-9178.553681,1110.308913,-1685.410096
1394.960321,-8956.491898,2220.617826,-2298.286494
1394.960642,-9474.636058,3034.844362,-2757.943793
1394.960963,-9326.594869,3997.112087,-2451.505594
1394.961284,-10658.965565,4737.318029,-1991.848295
1394.961605,-11251.130318,4441.235652,-842.705048
1394.961926,-11399.171507,3404.947333,-229.828649
1394.962246,-11621.233289,2516.700203,153.219100
1394.962567,-10807.006753,1628.453072,1532.190996
1394.962888,-10362.883188,0.000000,1378.971896
1394.963209,-9178.553681,-1036.288319,1685.410096
1394.963530,-8882.471304,-2146.597232,766.095498
1394.963850,-8586.388927,-1776.494261,0.000000
1394.964171,-8512.368333,74.020594,0.000000
1394.964492,-8882.471304,1554.432478,76.609550
1394.964813,-9030.512492,2812.782580,-459.657299
1394.965134,-10140.821405,3775.050304,-459.657299
1394.965455,-9992.780217,3478.967927,-612.876398
1394.965775,-10436.903782,3256.906145,-1072.533697
1394.966096,-10807.006753,2886.803174,-842.705048
1394.966417,-9992.780217,3330.926739,306.438199
1394.966738,-10510.924376,2368.659014,-1149.143247
1394.967059,-10066.800811,2072.576638,-766.095498
1394.967380,-9622.677246,1554.432478,-766.095498
1394.967700,-9326.594869,444.123565,-1072.533697
1394.968021,-8956.491898,-148.041188,-689.485948
1394.968342,-9326.594869,-1110.308913,-995.924147
1394.968663,-9178.553681,-962.267725,-995.924147
1394.968984,-9252.574275,0.000000,-1608.800546
1394.969305,-9104.533087,1406.391290,-2068.457845
1394.969625,-9400.615463,3182.885551,-2757.943793
1394.969946,-9474.636058,4589.276840,-2757.943793
1394.970267,-9622.677246,5181.441594,-3294.210641
1394.970588,-9474.636058,5033.400406,-4519.963438
1394.970909,-10066.800811,4589.276840,-3294.210641
1394.971230,-9918.759623,3404.947333,-2681.334243
1394.971550,-10436.903782,2146.597232,-1838.629195
1394.971871,-10510.924376,1258.350101,-995.924147
1394.972192,-10140.821405,518.144159,-306.438199
1394.972513,-10140.821405,296.082377,306.438199
1394.972834,-9696.697840,0.000000,536.266849
1394.973155,-9326.594869,222.061783,383.047749
1394.973475,-8956.491898,1036.288319,1378.971896
1394.973796,-8956.491898,1036.288319,-229.828649
1394.974117,-8512.368333,1332.370696,-766.095498
1394.974438,-8808.450710,1998.556043,-995.924147
1394.974759,-9400.615463,2368.659014,306.438199
1394.975080,-10140.821405,2442.679609,995.924147
1394.975400,-10066.800811,1776.494261,1915.238745
1394.975721,-10436.903782,740.205942,1915.238745
1394.976042,-9992.780217,148.041188,1838.629195
1394.976363,-9844.739029,-296.082377,1991.848295
1394.976684,-9474.636058,-666.185348,1915.238745
1394.977005,-8734.430116,-814.226536,1455.581446
1394.977325,-8660.409521,-1110.308913,766.095498
1394.977646,-8734.430116,-370.102971,995.924147
1394.977967,-9474.636058,-222.061783,1455.581446
1394.978288,-9696.697840,370.102971,1838.629195
1394.978609,-9844.739029,1184.329507,1838.629195
1394.978930,-10140.821405,1406.391290,1915.238745
1394.979250,-9992.780217,2220.617826,1072.533697
1394.979571,-9844.739029,2220.617826,536.266849
1394.979892,-9696.697840,2590.720797,76.609550
1394.980213,-9770.718434,2368.659014,-459.657299
1394.980534,-9844.739029,2368.659014,-383.047749
1394.980854,-9844.739029,1850.514855,-536.266849
1394.981175,-10066.800811,1628.453072,-459.657299
1394.981496,-10066.800811,1332.370696,-229.828649
1394.981817,-10066.800811,814.226536,-459.657299
1394.982138,-10436.903782,1036.288319,-383.047749
1394.982459,-10214.842000,592.164754,-1225.752797
1394.982779,-9844.739029,814.226536,-2145.067394
1394.983100,-9104.533087,2146.597232,-3294.210641
1394.983421,-9474.636058,2146.597232,-3753.867940
1394.983742,-9474.636058,2812.782580,-4826.401637
1394.984063,-9400.615463,3256.906145,-5286.058936
1394.984384,-9474.636058,3552.988522,-5515.887586
1394.984704,-9696.697840,3256.906145,-5745.716235
1394.985025,-10288.862594,3256.906145,-5209.449386
1394.985346,-10436.903782,3182.885551,-5132.839837
1394.985667,-10510.924376,3182.885551,-4443.353888
1394.985988,-10584.944971,3552.988522,-4673.182538
1394.986309,-10288.862594,3108.864956,-4290.134789
1394.986629,-9918.759623,3034.844362,-4060.306139
1394.986950,-9696.697840,3034.844362,-3907.087040
1394.987271,-9400.615463,2590.720797,-3983.696590
1394.987592,-8956.491898,2442.679609,-3983.696590
1394.987913,-9178.553681,2368.659014,-3600.648841
1394.988234,-8808.450710,2664.741391,-3064.381992
1394.988554,-9030.512492,2664.741391,-2757.943793
1394.988875,-8734.430116,2960.823768,-2298.286494
1394.989196,-9178.553681,3108.864956,-1991.848295
1394.989517,-9474.636058,3552.988522,-1455.581446
1394.989838,-9696.697840,3775.050304,-995.924147
1394.990159,-10066.800811,4219.173869,-383.047749
1394.990479,-10955.047942,2812.782580,1072.533697
1394.990800,-9696.697840,2664.741391,2068.457845
1394.991121,-10732.986159,1628.453072,2834.553343
1394.991442,-10436.903782,1110.308913,3600.648841
1394.991763,-9548.656652,74.020594,3294.210641
1394.992084,-9400.615463,-296.082377,2911.162892
1394.992404,-8586.388927,0.000000,1838.629195
1394.992725,-8068.244768,444.123565,459.657299
1394.993046,-8956.491898,2368.659014,536.266849
1394.993367,-8438.347739,4145.153275,766.095498
1394.993688,-10140.821405,4663.297435,1072.533697
1394.994009,-9844.739029,3775.050304,1455.581446
1394.994329,-9474.636058,2590.720797,919.314598
1394.994650,-10436.903782,2886.803174,153.219100
1394.994971,-10881.027347,3404.947333,1072.533697
1394.995292,-10436.903782,2368.659014,1762.019645
1394.995613,-10362.883188,2442.679609,2451.505594
1394.995933,-10584.944971,888.247130,2451.505594
1394.996254,-9770.718434,-370.102971,2145.067394
1394.996575,-9548.656652,-2146.597232,1455.581446
1394.996896,-9474.636058,-2294.638420,1149.143247
1394.997217,-9030.512492,-1998.556043,229.828649
1394.997538,-7994.224174,-1628.453072,-1838.629195
1394.997858,-8512.368333,0.000000,-2681.334243
1394.998179,-8586.388927,1628.453072,-3830.477490
1394.998500,-10140.821405,3552.988522,-4519.963438
1394.998821,-10140.821405,4737.318029,-5209.449386
1394.999142,-10955.047942,5255.462188,-5745.716235
1394.999463,-11325.150913,5477.523971,-5056.230287
1394.999783,-11399.171507,5625.565159,-2528.115143
1395.000104,-11473.192101,3182.885551,-2145.067394
1395.000425,-11399.171507,0.000000,-1378.971896
1395.000746,-9844.739029,-2590.720797,-2068.457845
1395.001067,-9104.533087,-3701.029710,-2221.676944
1395.001388,-9548.656652,-3182.885551,-2681.334243
1395.001708,-8142.265362,-888.247130,-1762.019645
1395.002029,-8660.409521,-518.144159,-2298.286494
1395.002350,-7698.141797,370.102971,-3294.210641
1395.002671,-8660.409521,1036.288319,-3983.696590
1395.002992,-9326.594869,1628.453072,-4443.353888
1395.003313,-9844.739029,3627.009116,-3983.696590
1395.003633,-11251.130318,5255.462188,-2451.505594
1395.003954,-11103.089130,5329.482782,1608.800546
1395.004275,-11103.089130,3775.050304,-2068.457845
1395.004596,-10955.047942,2072.576638,-2068.457845
1395.004917,-10436.903782,1702.473667,-1532.190996
1395.005238,-10436.903782,1258.350101,-153.219100
1395.005558,-9474.636058,666.185348,766.095498
1395.005879,-8808.450710,-222.061783,-459.657299
1395.006200,-7254.018232,74.020594,-689.485948
1395.006521,-8586.388927,1702.473667,1302.362347
1395.006842,-8438.347739,1184.329507,2528.115143
1395.007163,-9474.636058,-592.164754,3830.477490
1395.007483,-9252.574275,-1850.514855,2451.505594
1395.007804,-8882.471304,-962.267725,995.924147
1395.008125,-8808.450710,1554.432478,2068.457845
1395.008446,-10140.821405,3849.070898,2681.334243
1395.008767,-9474.636058,4737.318029,919.314598
1395.009088,-9252.574275,4441.235652,-1378.971896
1395.009408,-8956.491898,5255.462188,-2221.676944
1395.009729,-10807.006753,4885.359217,-536.266849
1395.010050,-11325.150913,3182.885551,1762.019645
1395.010371,-10881.027347,1036.288319,1608.800546
1395.010692,-9474.636058,888.247130,459.657299
1395.011012,-9474.636058,1110.308913,306.438199
1395.011333,-10066.800811,814.226536,1378.971896
1395.011654,-9622.677246,814.226536,612.876398
1395.011975,-9104.533087,1998.556043,-689.485948
1395.012296,-9104.533087,3478.967927,1302.362347
1395.012617,-9548.656652,3182.885551,-842.705048
1395.012937,-9178.553681,1258.350101,-1762.019645
1395.013258,-9030.512492,1258.350101,-2987.772442
1395.013579,-9844.739029,2442.679609,-3447.429741
1395.013900,-10362.883188,3552.988522,-2834.553343
1395.014221,-10288.862594,3330.926739,-2987.772442
1395.014542,-9918.759623,3256.906145,-3447.429741
1395.014862,-10658.965565,4145.153275,-2451.505594
1395.015183,-10362.883188,2812.782580,-1991.848295
1395.015504,-10140.821405,1258.350101,-2451.505594
1395.015825,-9770.718434,370.102971,-3370.820191
1395.016146,-9844.739029,0.000000,-3294.210641
1395.016467,-9104.533087,1702.473667,-2451.505594
1395.016787,-8882.471304,1998.556043,-1915.238745
1395.017108,-8586.388927,2220.617826,-2145.067394
1395.017429,-9474.636058,1776.494261,-2604.724693
1395.017750,-9030.512492,1332.370696,-3370.820191
1395.018071,-9178.553681,2368.659014,-3447.429741
1395.018392,-10214.842000,2960.823768,-2068.457845
1395.018712,-9696.697840,2664.741391,-1225.752797
1395.019033,-9474.636058,3034.844362,-919.314598
1395.019354,-11843.295072,2072.576638,-612.876398
1395.019675,-11029.068536,1776.494261,-1225.752797
1395.019996,-9178.553681,2294.638420,-842.705048
1395.020317,-9844.739029,2072.576638,-1991.848295
1395.020637,-8438.347739,3775.050304,-689.485948
1395.020958,-8734.430116,3034.844362,-153.219100
1395.021279,-8438.347739,2368.659014,842.705048
1395.021600,-9696.697840,814.226536,1991.848295
1395.021921,-10436.903782,-2664.741391,1225.752797
1395.022242,-9252.574275,-1332.370696,536.266849
1395.022562,-11029.068536,1702.473667,1149.143247
1395.022883,-10955.047942,3627.009116,1991.848295
1395.023204,-9252.574275,4811.338623,2068.457845
1395.023525,-9770.718434,3256.906145,919.314598
1395.023846,-8660.409521,1554.432478,-1455.581446
1395.024166,-9844.739029,1258.350101,-1149.143247
1395.024487,-10584.944971,518.144159,-459.657299
1395.024808,-10510.924376,1332.370696,1378.971896
1395.025129,-10658.965565,3256.906145,1532.190996
1395.025450,-10807.006753,962.267725,2145.067394
1395.025771,-10066.800811,-888.247130,1225.752797
1395.026091,-10436.903782,-2812.782580,766.095498
1395.026412,-9030.512492,-2220.617826,-1072.533697
1395.026733,-8290.306550,1184.329507,-842.705048
1395.027054,-9400.615463,1702.473667,153.219100
1395.027375,-8586.388927,1998.556043,-995.924147
1395.027696,-8290.306550,2886.803174,-3140.991542
1395.028016,-8586.388927,2294.638420,-3217.601092
1395.028337,-9252.574275,2738.761985,-3600.648841
1395.028658,-10658.965565,4663.297435,-1838.629195
1395.028979,-11695.253884,4367.215058,76.609550
1395.029300,-10807.006753,2590.720797,-842.705048
1395.029621,-9326.594869,-370.102971,-2374.896044
1395.029941,-9918.759623,-3108.864956,-4136.915689
1395.030262,-8290.306550,-296.082377,-3217.601092
1395.030583,-10584.944971,1332.370696,-1915.238745
1395.030904,-10436.903782,2442.679609,0.000000
1395.031225,-8586.388927,2590.720797,-919.314598
1395.031545,-10658.965565,0.000000,-1378.971896
1395.031866,-9400.615463,-740.205942,-2604.724693
1395.032187,-9030.512492,518.144159,-1532.190996
1395.032508,-10658.965565,296.082377,-153.219100
1395.032829,-7550.100608,888.247130,-1608.800546
1395.033150,-8364.327145,296.082377,-2451.505594
1395.033470,-8882.471304,814.226536,-2604.724693
1395.033791,-8882.471304,1850.514855,-2145.067394
1395.034112,-11621.233289,2516.700203,306.438199
1395.034433,-10732.986159,1776.494261,689.485948
1395.034754,-8882.471304,1998.556043,-1072.533697
1395.035075,-11325.150913,1628.453072,0.000000
1395.035395,-9474.636058,2738.761985,536.266849
1395.035716,-11029.068536,3034.844362,1915.238745
1395.036037,-10510.924376,888.247130,3907.087040
1395.036358,-8660.409521,1110.308913,0.000000
1395.036679,-10288.862594,1184.329507,689.485948
1395.037000,-9474.636058,1776.494261,0.000000
1395.037320,-9252.574275,3627.009116,2374.896044
1395.037641,-9770.718434,592.164754,1991.848295
1395.037962,-7476.080014,148.041188,153.219100
1395.038283,-9844.739029,74.020594,919.314598
1395.038604,-8956.491898,592.164754,1608.800546
1395.038924,-10807.006753,2072.576638,3370.820191
1395.039245,-11473.192101,1036.288319,3907.087040
1395.039566,-9104.533087,518.144159,1378.971896
1395.039887,-10214.842000,666.185348,1532.190996
1395.040208,-8586.388927,2516.700203,1685.410096
1395.040529,-10732.986159,-148.041188,2451.505594
1395.040849,-9474.636058,-1406.391290,1915.238745
1395.041170,-8290.306550,-3108.864956,-1149.143247
1395.041491,-9474.636058,-2146.597232,-612.876398
1395.041812,-9326.594869,296.082377,2451.505594
1395.042133,-11473.192101,-888.247130,4826.401637
1395.042454,-9696.697840,-2738.761985,3600.648841
1395.042774,-8808.450710,-5329.482782,-995.924147
1395.043095,-7624.121203,-2072.576638,-1532.190996
1395.043416,-8364.327145,0.000000,-995.924147
1395.043737,-8660.409521,1850.514855,1149.143247
1395.044058,-8660.409521,370.102971,306.438199
1395.044379,-7698.141797,370.102971,-2604.724693
1395.044699,-9918.759623,74.020594,-995.924147
1395.045020,-11621.233289,592.164754,1915.238745
1395.045341,-13249.686362,0.000000,3370.820191
1395.045662,-11029.068536,-444.123565,2145.067394
1395.045983,-8808.450710,-666.185348,-2221.676944
1395.046303,-7920.203579,1110.308913,-919.314598
1395.046624,-9992.780217,-148.041188,1149.143247
1395.046945,-9696.697840,-2738.761985,995.924147
1395.047266,-8290.306550,-3627.009116,-2374.896044
1395.047587,-8882.471304,-2368.659014,-1532.190996
1395.047908,-9844.739029,74.020594,1685.410096
1395.048228,-12139.377449,-444.123565,4443.353888
1395.048549,-10584.944971,-1702.473667,4749.792088
1395.048870,-8808.450710,-1702.473667,153.219100
1395.049191,-9178.553681,-1480.411884,-1378.971896
1395.049512,-8734.430116,444.123565,459.657299
1395.049833,-11251.130318,-370.102971,1532.190996
1395.050153,-8956.491898,-222.061783,306.438199
1395.050474,-8068.244768,148.041188,-1762.019645
1395.050795,-8882.471304,1184.329507,-689.485948
1395.051116,-10658.965565,518.144159,2757.943793
1395.051437,-11621.233289,-296.082377,4366.744339
1395.051758,-9474.636058,-2368.659014,2681.334243
1395.052078,-8808.450710,-2294.638420,229.828649
1395.052399,-9400.615463,666.185348,2221.676944
1395.052720,-9474.636058,1184.329507,5822.325785
1395.053041,-10288.862594,-518.144159,4903.011187
1395.053362,-8512.368333,-2146.597232,1838.629195
1395.053682,-6883.915261,-2664.741391,-1762.019645
1395.054003,-7846.182985,-962.267725,-306.438199
1395.054324,-10807.006753,1332.370696,3217.601092
1395.054645,-11325.150913,1110.308913,4826.401637
1395.054966,-10214.842000,740.205942,2221.676944
1395.055287,-9104.533087,1628.453072,459.657299
1395.055607,-10288.862594,1258.350101,459.657299
1395.055928,-10510.924376,888.247130,2604.724693
1395.056249,-10362.883188,-1184.329507,1838.629195
1395.056570,-7254.018232,-740.205942,-1991.848295
1395.056891,-7179.997637,518.144159,-2911.162892
1395.057212,-8216.285956,2738.761985,0.000000
1395.057532,-11843.295072,1628.453072,3370.820191
1395.057853,-11103.089130,-962.267725,3830.477490
1395.058174,-10362.883188,-2146.597232,1225.752797
1395.058495,-10066.800811,-1628.453072,459.657299
1395.058816,-10584.944971,148.041188,1991.848295
1395.059137,-11991.336260,370.102971,3753.867940
1395.059457,-8808.450710,-370.102971,459.657299
1395.059778,-7550.100608,-222.061783,-3753.867940
1395.060099,-8364.327145,1258.350101,-3677.258390
1395.060420,-8734.430116,888.247130,-1225.752797
1395.060741,-12287.418637,296.082377,2757.943793
1395.061061,-11843.295072,-1406.391290,2987.772442
1395.061382,-9844.739029,-1554.432478,0.000000
1395.061703,-9474.636058,518.144159,2757.943793
1395.062024,-11621.233289,148.041188,1149.143247
1395.062345,-8068.244768,-888.247130,2528.115143
1395.062666,-6809.894666,-3404.947333,-2757.943793
1395.062986,-4589.276840,1406.391290,-2528.115143
1395.063307,-7105.977043,518.144159,-3294.210641
1395.063628,-9030.512492,1776.494261,2221.676944
1395.063949,-9030.512492,-2146.597232,0.000000
1395.064270,-9770.718434,-1110.308913,459.657299
1395.064591,-9918.759623,-1628.453072,842.705048
1395.064911,-10436.903782,-1332.370696,2681.334243
1395.065232,-12213.398043,-222.061783,5515.887586
1395.065553,-11991.336260,-592.164754,5439.278036
1395.065874,-9030.512492,-740.205942,536.266849
1395.066195,-10066.800811,1258.350101,1685.410096
1395.066516,-8808.450710,148.041188,383.047749
1395.066836,-9400.615463,0.000000,1762.019645
1395.067157,-9400.615463,-1850.514855,536.266849
1395.067478,-6661.853478,-1554.432478,-1378.971896
1395.067799,-9030.512492,-740.205942,0.000000
1395.068120,-8586.388927,1184.329507,3447.429741
1395.068440,-11251.130318,-1924.535449,4443.353888
1395.068761,-11251.130318,-1776.494261,2298.286494
1395.069082,-9844.739029,0.000000,2068.457845
1395.069403,-9622.677246,740.205942,1532.190996
1395.069724,-9844.739029,1184.329507,3753.867940
1395.070045,-10881.027347,-2220.617826,2298.286494
1395.070365,-6957.935855,-2220.617826,-766.095498
1395.070686,-9252.574275,-2368.659014,-1838.629195
1395.071007,-8734.430116,518.144159,1378.971896
1395.071328,-11325.150913,-740.205942,3217.601092
1395.071649,-10510.924376,-2072.576638,2451.505594
1395.071970,-8956.491898,-222.061783,-383.047749
1395.072290,-9326.594869,1036.288319,-919.314598
1395.072611,-10288.862594,518.144159,1762.019645
1395.072932,-10214.842000,-1776.494261,2528.115143
1395.073253,-9326.594869,-2960.823768,1072.533697
1395.073574,-7846.182985,-2442.679609,-2068.457845
1395.073895,-8290.306550,222.061783,-612.876398
1395.074215,-10362.883188,888.247130,1608.800546
1395.074536,-10140.821405,-296.082377,2298.286494
1395.074857,-9770.718434,-888.247130,153.219100
1395.075178,-8882.471304,-518.144159,-1225.752797
1395.075499,-9548.656652,-1406.391290,-1072.533697
1395.075819,-9252.574275,0.000000,1302.362347
1395.076140,-10955.047942,-2072.576638,1838.629195
1395.076461,-8512.368333,-1554.432478,-536.266849
1395.076782,-8586.388927,0.000000,-2068.457845
1395.077103,-9178.553681,518.144159,-1072.533697
1395.077424,-10066.800811,1258.350101,1762.019645
1395.077744,-11695.253884,-740.205942,2374.896044
1395.078065,-8734.430116,148.041188,536.266849
1395.078386,-9622.677246,592.164754,-1225.752797
1395.078707,-9400.615463,2812.782580,766.095498
1395.079028,-10362.883188,2294.638420,2604.724693
1395.079349,-10658.965565,-222.061783,1685.410096
1395.079669,-8068.244768,222.061783,-1378.971896
1395.079990,-7772.162391,0.000000,0.000000
1395.080311,-9400.615463,1480.411884,1302.362347
1395.080632,-10955.047942,666.185348,3064.381992
1395.080953,-10732.986159,-962.267725,2298.286494
1395.081274,-8882.471304,666.185348,229.828649
1395.081594,-10658.965565,888.247130,919.314598
1395.081915,-10436.903782,2442.679609,4136.915689
1395.082236,-12213.398043,-296.082377,4903.011187
1395.082557,-9474.636058,-1702.473667,2068.457845
1395.082878,-9030.512492,-1406.391290,-995.924147
1395.083198,-8216.285956,518.144159,0.000000
1395.083519,-8660.409521,1850.514855,2451.505594
1395.083840,-10510.924376,0.000000,4290.134789
1395.084161,-7402.059420,-1258.350101,536.266849
1395.084482,-8142.265362,-1258.350101,-1455.581446
1395.084803,-9400.615463,1332.370696,1532.190996
1395.085123,-10510.924376,888.247130,4749.792088
1395.085444,-11547.212695,-2294.638420,4519.963438
1395.085765,-7698.141797,-814.226536,919.314598
1395.086086,-8882.471304,-444.123565,0.000000
1395.086407,-8364.327145,0.000000,766.095498
1395.086728,-9918.759623,888.247130,3217.601092
1395.087048,-10436.903782,-2664.741391,1838.629195
1395.087369,-7402.059420,-1110.308913,-1915.238745
1395.087690,-9030.512492,148.041188,-919.314598
1395.088011,-8956.491898,1184.329507,1915.238745
1395.088332,-11843.295072,-962.267725,4290.134789
1395.088653,-9474.636058,-2368.659014,2528.115143
1395.088973,-8142.265362,-2220.617826,-1225.752797
1395.089294,-8956.491898,-1850.514855,-1838.629195
1395.089615,-8734.430116,666.185348,1302.362347
1395.089936,-11103.089130,-1332.370696,2911.162892
1395.090257,-8290.306550,-1554.432478,766.095498
1395.090577,-8142.265362,-518.144159,-2681.334243
1395.090898,-9326.594869,1258.350101,-766.095498
1395.091219,-11473.192101,1554.432478,2681.334243
1395.091540,-12287.418637,-1036.288319,3064.381992
1395.091861,-9770.718434,-2664.741391,0.000000
1395.092182,-10288.862594,-1702.473667,-1685.410096
1395.092502,-11029.068536,370.102971,1838.629195
1395.092823,-11473.192101,1184.329507,3600.648841
1395.093144,-11177.109724,-1036.288319,2911.162892
1395.093465,-7254.018232,-3108.864956,-3753.867940
1395.093786,-7031.956449,-1554.432478,-7354.516781
1395.094107,-6661.853478,1258.350101,-5132.839837
1395.094427,-8438.347739,2590.720797,-1302.362347
1395.094748,-11843.295072,1406.391290,3140.991542
1395.095069,-9400.615463,370.102971,919.314598
1395.095390,-12731.542202,-1850.514855,2298.286494
1395.095711,-13027.624579,-1702.473667,3907.087040
1395.096032,-12731.542202,-814.226536,6511.811733
1395.096352,-12583.501014,-1702.473667,4903.011187
1395.096673,-8068.244768,370.102971,2374.896044
1395.096994,-7476.080014,888.247130,-1302.362347
1395.097315,-6291.750507,1480.411884,-766.095498
1395.097636,-8216.285956,-1258.350101,0.000000
1395.097956,-8290.306550,-1554.432478,995.924147
1395.098277,-8586.388927,-1776.494261,612.876398
1395.098598,-10066.800811,-740.205942,1915.238745
1395.098919,-9548.656652,1036.288319,5822.325785
1395.099240,-12731.542202,-1554.432478,6358.592633
1395.099561,-8956.491898,-222.061783,2987.772442
1395.099881,-9104.533087,814.226536,612.876398
1395.100202,-7846.182985,1480.411884,1149.143247
1395.100523,-8364.327145,1850.514855,2911.162892
1395.100844,-12435.459826,-1480.411884,3447.429741
1395.101165,-7328.038826,-1184.329507,689.485948
1395.101486,-9844.739029,-666.185348,229.828649
1395.101806,-9474.636058,0.000000,2528.115143
1395.102127,-11473.192101,-1554.432478,4596.572988
1395.102448,-10362.883188,-2664.741391,3064.381992
1395.102769,-9400.615463,-296.082377,383.047749
1395.103090,-9548.656652,1110.308913,0.000000
1395.103411,-8660.409521,2442.679609,766.095498
1395.103731,-10288.862594,518.144159,1838.629195
1395.104052,-9178.553681,-2072.576638,0.000000
1395.104373,-8882.471304,-2146.597232,-1378.971896
1395.104694,-10288.862594,-2368.659014,-1072.533697
1395.105015,-9252.574275,222.061783,1532.190996
1395.105335,-12065.356855,-296.082377,2298.286494
1395.105656,-9992.780217,740.205942,536.266849
1395.105977,-9400.615463,740.205942,-1915.238745
1395.106298,-8808.450710,0.000000,-1685.410096
1395.106619,-9252.574275,0.000000,766.095498
1395.106940,-11843.295072,-2960.823768,2374.896044
1395.107260,-10140.821405,-2886.803174,1685.410096
1395.107581,-10881.027347,-1258.350101,536.266849
1395.107902,-10214.842000,222.061783,459.657299
1395.108223,-9474.636058,962.267725,1225.752797
1395.108544,-10140.821405,-814.226536,1149.143247
1395.108865,-6735.874072,-148.041188,-2757.943793
1395.109185,-7994.224174,1480.411884,-4673.182538
1395.109506,-8364.327145,1480.411884,-1915.238745
1395.109827,-9770.718434,444.123565,0.000000
1395.110148,-9696.697840,-1850.514855,459.657299
1395.110469,-9030.512492,-1628.453072,536.266849
1395.110790,-9548.656652,0.000000,612.876398
1395.111110,-10955.047942,814.226536,3217.601092
1395.111431,-11843.295072,0.000000,4979.620737
1395.111752,-10436.903782,-1406.391290,3600.648841
1395.112073,-8216.285956,-1628.453072,-383.047749
1395.112394,-8586.388927,-148.041188,-612.876398
1395.112714,-8586.388927,1332.370696,1302.362347
1395.113035,-9474.636058,-518.144159,2681.334243
1395.113356,-9178.553681,-1554.432478,2757.943793
1395.113677,-8142.265362,222.061783,76.609550
1395.113998,-10066.800811,-740.205942,2068.457845
1395.114319,-9474.636058,0.000000,3907.087040
1395.114639,-10288.862594,-1480.411884,7048.078582
1395.114960,-9030.512492,-1480.411884,3064.381992
1395.115281,-9178.553681,-296.082377,1378.971896
1395.115602,-9326.594869,1776.494261,3140.991542
1395.115923,-10955.047942,1184.329507,4826.401637
1395.116244,-9992.780217,-1480.411884,2834.553343
1395.116564,-8734.430116,-666.185348,842.705048
1395.116885,-8512.368333,-296.082377,-76.609550
1395.117206,-8660.409521,740.205942,1149.143247
1395.117527,-10510.924376,74.020594,4213.525239
1395.117848,-10955.047942,-1480.411884,3677.258390
1395.118169,-8734.430116,-1036.288319,0.000000
1395.118489,-9622.677246,370.102971,612.876398
1395.118810,-9844.739029,814.226536,2298.286494
1395.119131,-9918.759623,222.061783,1762.019645
1395.119452,-10881.027347,-1702.473667,1991.848295
1395.119773,-8734.430116,-1258.350101,-2145.067394
1395.120093,-8142.265362,-814.226536,-1302.362347
1395.120414,-9326.594869,-1110.308913,0.000000
1395.120735,-9770.718434,-1850.514855,842.705048
1395.121056,-8438.347739,-1776.494261,-383.047749
1395.121377,-9474.636058,-370.102971,-1532.190996
1395.121697,-9474.636058,2516.700203,0.000000
1395.122018,-11695.253884,1554.432478,1685.410096
1395.122339,-11769.274478,-1480.411884,1991.848295
1395.122660,-8660.409521,-1480.411884,-766.095498
1395.122980,-9548.656652,-1554.432478,-2528.115143
1395.123301,-8882.471304,740.205942,0.000000
1395.123622,-10807.006753,296.082377,1072.533697
1395.123943,-10584.944971,-148.041188,383.047749
1395.124263,-7846.182985,888.247130,-1532.190996
1395.124584,-8956.491898,1258.350101,-1991.848295
1395.124905,-10140.821405,2368.659014,1072.533697
1395.125226,-11843.295072,74.020594,3294.210641
1395.125546,-10881.027347,-3330.926739,2374.896044
1395.125867,-10066.800811,-3182.885551,-153.219100
1395.126188,-9844.739029,74.020594,1378.971896
1395.126509,-10807.006753,2072.576638,3677.258390
1395.126830,-11695.253884,0.000000,3983.696590
1395.127150,-7254.018232,-2590.720797,383.047749
1395.127471,-6217.729913,-666.185348,-6052.154434
1395.127792,-8364.327145,296.082377,-4213.525239
1395.128113,-7328.038826,4737.318029,0.000000
1395.128433,-11029.068536,592.164754,3753.867940
1395.128754,-8956.491898,-1258.350101,1378.971896
1395.129075,-9474.636058,-1184.329507,1838.629195
1395.129396,-11177.109724,-1184.329507,3677.258390
1395.129716,-12657.521608,814.226536,7201.297681
1395.130037,-13175.665768,-814.226536,7737.564530
1395.130358,-8364.327145,-962.267725,2528.115143
1395.130679,-7254.018232,740.205942,-919.314598
1395.131000,-7105.977043,2220.617826,919.314598
1395.131320,-8290.306550,296.082377,2681.334243
1395.131641,-9474.636058,-1924.535449,3217.601092
1395.131962,-7476.080014,-2294.638420,-229.828649
1395.132283,-8808.450710,-666.185348,-153.219100
1395.132603,-10214.842000,1036.288319,4366.744339
1395.132924,-11843.295072,-1184.329507,6511.811733
1395.133245,-9474.636058,-666.185348,3753.867940
1395.133566,-10214.842000,-1036.288319,76.609550
1395.133886,-9178.553681,2368.659014,536.266849
1395.134207,-10955.047942,1554.432478,3064.381992
1395.134528,-10510.924376,-1998.556043,2451.505594
1395.134849,-7179.997637,-2146.597232,-229.828649
1395.135169,-7920.203579,-2368.659014,-3140.991542
1395.135490,-8882.471304,-1036.288319,-1072.533697
1395.135811,-9918.759623,518.144159,1991.848295
1395.136132,-11843.295072,-1258.350101,4136.915689
1395.136453,-9400.615463,-2516.700203,306.438199
1395.136773,-9918.759623,-888.247130,-919.314598
1395.137094,-9548.656652,-1258.350101,-459.657299
1395.137415,-9770.718434,74.020594,842.705048
1395.137736,-9696.697840,-2220.617826,919.314598
1395.138056,-7476.080014,-2146.597232,-3217.601092
1395.138377,-8660.409521,0.000000,-3370.820191
1395.138698,-9474.636058,1332.370696,-153.219100
1395.139019,-12731.542202,814.226536,3907.087040
1395.139339,-12139.377449,-1406.391290,3370.820191
1395.139660,-9622.677246,-1406.391290,-766.095498
1395.139981,-10214.842000,0.000000,-1302.362347
1395.140302,-9992.780217,2368.659014,459.657299
1395.140622,-11473.192101,444.123565,2451.505594
1395.140943,-8660.409521,-370.102971,1149.143247
1395.141264,-8216.285956,-740.205942,-459.657299
1395.141585,-9326.594869,-1110.308913,-612.876398
1395.141906,-9252.574275,0.000000,1991.848295
1395.142226,-10658.965565,-2516.700203,2834.553343
1395.142547,-8586.388927,-1258.350101,153.219100
