#time,accel_x,accel_y,accel_z
1227.297321,-9400.615463,-2738.761985,2451.505594
1227.297642,-9474.636058,-2812.782580,2604.724693
1227.297963,-8660.409521,-2738.761985,2911.162892
1227.298284,-8734.430116,-3034.844362,1838.629195
1227.298605,-9178.553681,-2590.720797,1072.533697
1227.298926,-9178.553681,-1702.473667,919.314598
1227.299247,-9474.636058,-592.164754,842.705048
1227.299567,-9400.615463,222.061783,-153.219100
1227.299888,-9770.718434,592.164754,536.266849
1227.300209,-10140.821405,740.205942,0.000000
1227.300530,-10732.986159,1184.329507,995.924147
1227.300851,-10510.924376,370.102971,1225.752797
1227.301172,-10362.883188,-296.082377,1838.629195
1227.301493,-9474.636058,-1184.329507,1455.581446
1227.301813,-9622.677246,-1628.453072,1225.752797
1227.302134,-9400.615463,-2146.597232,1378.971896
1227.302455,-9252.574275,-2590.720797,1685.410096
1227.302776,-8586.388927,-2886.803174,1455.581446
1227.303097,-8956.491898,-2368.659014,1378.971896
1227.303418,-9474.636058,-1480.411884,1838.629195
1227.303739,-9400.615463,-666.185348,2451.505594
1227.304060,-9622.677246,0.000000,2604.724693
1227.304380,-9844.739029,444.123565,2757.943793
1227.304701,-9474.636058,814.226536,2834.553343
1227.305022,-9696.697840,740.205942,2681.334243
1227.305343,-9844.739029,222.061783,3140.991542
1227.305664,-9696.697840,0.000000,3753.867940
1227.305985,-9622.677246,-1406.391290,4136.915689
1227.306306,-9770.718434,-1406.391290,5286.058936
1227.306626,-9400.615463,-2960.823768,5209.449386
1227.306947,-9252.574275,-3849.070898,6128.763984
1227.307268,-9178.553681,-4293.194464,6741.640382
1227.307589,-8956.491898,-5107.421000,7124.688131
1227.307910,-9400.615463,-4885.359217,6894.859482
1227.308231,-8660.409521,-5551.544565,7890.783629
1227.308552,-8808.450710,-5403.503377,7354.516781
1227.308873,-9030.512492,-5107.421000,7354.516781
1227.309193,-8956.491898,-5033.400406,7277.907231
1227.309514,-9178.553681,-4737.318029,6741.640382
1227.309835,-9252.574275,-4589.276840,6435.202183
1227.310156,-9400.615463,-4737.318029,6358.592633
1227.310477,-9474.636058,-5181.441594,5975.544884
1227.310798,-9474.636058,-5033.400406,6052.154434
1227.311119,-9326.594869,-5033.400406,5822.325785
1227.311439,-9104.533087,-5699.585753,4903.011187
1227.311760,-9548.656652,-5329.482782,4596.572988
1227.312081,-9548.656652,-5255.462188,4290.134789
1227.312402,-9474.636058,-5181.441594,4136.915689
1227.312723,-9770.718434,-4885.359217,3677.258390
1227.313044,-9474.636058,-5699.585753,2681.334243
1227.313365,-9548.656652,-5921.647536,2298.286494
1227.313686,-9548.656652,-5255.462188,1532.190996
1227.314006,-9622.677246,-4811.338623,229.828649
1227.314327,-9770.718434,-3923.091493,536.266849
1227.314648,-9030.512492,-2220.617826,-689.485948
1227.314969,-10288.862594,-1480.411884,-229.828649
1227.315290,-10584.944971,-1110.308913,306.438199
1227.315611,-10436.903782,-2368.659014,689.485948
1227.315932,-10436.903782,-3330.926739,1915.238745
1227.316252,-10584.944971,-5033.400406,1302.362347
1227.316573,-10066.800811,-6143.709319,1608.800546
1227.316894,-9474.636058,-6513.812290,1302.362347
1227.317215,-8808.450710,-5551.544565,842.705048
1227.317536,-8808.450710,-4367.215058,1685.410096
1227.317857,-8882.471304,-3923.091493,1149.143247
1227.318178,-8882.471304,-3034.844362,919.314598
1227.318499,-9252.574275,-2664.741391,153.219100
1227.318819,-9474.636058,-2220.617826,-383.047749
1227.319140,-9474.636058,-1406.391290,-612.876398
1227.319461,-9474.636058,0.000000,-536.266849
1227.319782,-10214.842000,1850.514855,76.609550
1227.320103,-10362.883188,2664.741391,919.314598
1227.320424,-10288.862594,2590.720797,1685.410096
1227.320745,-10214.842000,1776.494261,2681.334243
1227.321065,-10510.924376,222.061783,3447.429741
1227.321386,-9770.718434,-592.164754,4290.134789
1227.321707,-9178.553681,-2368.659014,4290.134789
1227.322028,-9104.533087,-2738.761985,4826.401637
1227.322349,-7772.162391,-2664.741391,4979.620737
1227.322670,-8216.285956,-2738.761985,5209.449386
1227.322991,-8290.306550,-2516.700203,3830.477490
1227.323312,-8142.265362,-814.226536,2987.772442
1227.323632,-8808.450710,1258.350101,3830.477490
1227.323953,-8660.409521,3849.070898,3370.820191
1227.324274,-10510.924376,5107.421000,3064.381992
1227.324595,-10584.944971,5625.565159,3983.696590
1227.324916,-10955.047942,5033.400406,3753.867940
1227.325237,-11399.171507,3775.050304,5132.839837
1227.325558,-10510.924376,1406.391290,4749.792088
1227.325879,-10214.842000,-518.144159,4443.353888
1227.326200,-9770.718434,-1258.350101,4596.572988
1227.326521,-8956.491898,-2368.659014,4443.353888
1227.326842,-7846.182985,-3627.009116,3524.039291
1227.327163,-8216.285956,-4293.194464,2528.115143
1227.327484,-7846.182985,-3108.864956,766.095498
1227.327805,-8364.327145,-814.226536,0.000000
1227.328126,-8956.491898,2368.659014,0.000000
1227.328447,-9992.780217,5403.503377,-76.609550
1227.328768,-10288.862594,4811.338623,-383.047749
1227.329089,-10807.006753,5107.421000,-842.705048
1227.329410,-11917.315666,4071.132681,-1915.238745
1227.329731,-11399.171507,3108.864956,-1149.143247
1227.330052,-10066.800811,2442.679609,-383.047749
1227.330373,-9770.718434,592.164754,-612.876398
1227.330694,-9030.512492,-1110.308913,-306.438199
1227.331015,-8882.471304,-3478.967927,-995.924147
1227.331336,-7846.182985,-5107.421000,-1532.190996
1227.331657,-8438.347739,-5255.462188,-1915.238745
1227.331978,-8808.450710,-3478.967927,-842.705048
1227.332299,-9474.636058,-1110.308913,306.438199
1227.332620,-9622.677246,-370.102971,842.705048
1227.332941,-9548.656652,-296.082377,689.485948
1227.333262,-9844.739029,-296.082377,-995.924147
1227.333583,-10362.883188,0.000000,-842.705048
1227.333904,-10436.903782,1036.288319,0.000000
1227.334225,-10288.862594,814.226536,76.609550
1227.334546,-10066.800811,-222.061783,383.047749
1227.334867,-10066.800811,-2146.597232,536.266849
1227.335188,-9326.594869,-3923.091493,0.000000
1227.335509,-9252.574275,-4885.359217,0.000000
1227.335830,-9326.594869,-3627.009116,1149.143247
1227.336151,-9696.697840,-2368.659014,3370.820191
1227.336472,-9548.656652,-1776.494261,3064.381992
1227.336793,-9770.718434,-1998.556043,3677.258390
1227.337114,-9474.636058,-2960.823768,3217.601092
1227.337435,-9178.553681,-2738.761985,2451.505594
1227.337756,-9474.636058,-1332.370696,2221.676944
1227.338077,-9400.615463,-1332.370696,3370.820191
1227.338398,-9400.615463,-740.205942,3294.210641
1227.338719,-9400.615463,-2072.576638,1991.848295
1227.339040,-8364.327145,-2146.597232,766.095498
1227.339361,-9770.718434,-740.205942,383.047749
1227.339682,-9622.677246,444.123565,919.314598
1227.340003,-10584.944971,1332.370696,1685.410096
1227.340324,-9770.718434,1332.370696,2451.505594
1227.340645,-10214.842000,0.000000,2221.676944
1227.340966,-10436.903782,-148.041188,2451.505594
1227.341287,-10140.821405,-1924.535449,2604.724693
1227.341608,-10362.883188,-1332.370696,4136.915689
1227.341929,-9326.594869,-2294.638420,3217.601092
1227.342250,-8734.430116,-2960.823768,1838.629195
1227.342571,-8586.388927,-3478.967927,459.657299
1227.342892,-7624.121203,-3034.844362,-995.924147
1227.343213,-8586.388927,-814.226536,-1455.581446
1227.343534,-9030.512492,1776.494261,-919.314598
1227.343855,-9252.574275,3923.091493,-612.876398
1227.344176,-11325.150913,4885.359217,612.876398
1227.344497,-11547.212695,3552.988522,919.314598
1227.344818,-10807.006753,2146.597232,1378.971896
1227.345139,-11843.295072,888.247130,1762.019645
1227.345460,-11843.295072,592.164754,3600.648841
1227.345781,-9844.739029,-444.123565,1991.848295
1227.346102,-8808.450710,-1332.370696,1455.581446
1227.346423,-8216.285956,-1776.494261,-306.438199
1227.346744,-7402.059420,-1924.535449,-1608.800546
1227.347065,-7846.182985,370.102971,-2068.457845
1227.347386,-8586.388927,1924.535449,-1149.143247
1227.347707,-9326.594869,3108.864956,-383.047749
1227.348028,-9992.780217,3552.988522,229.828649
1227.348349,-10510.924376,3256.906145,459.657299
1227.348670,-10362.883188,2664.741391,2068.457845
1227.348991,-11325.150913,2664.741391,1608.800546
1227.349312,-10881.027347,2516.700203,2221.676944
1227.349633,-10584.944971,1480.411884,1838.629195
1227.349954,-9844.739029,148.041188,1685.410096
1227.350275,-8956.491898,-1258.350101,306.438199
1227.350596,-8438.347739,-2294.638420,-383.047749
1227.350917,-8364.327145,-1850.514855,-383.047749
1227.351238,-8142.265362,0.000000,0.000000
1227.351559,-9178.553681,1332.370696,995.924147
1227.351881,-9474.636058,1554.432478,2068.457845
1227.352202,-9474.636058,1110.308913,2451.505594
1227.352523,-10214.842000,0.000000,2528.115143
1227.352844,-10807.006753,0.000000,3370.820191
1227.353165,-10510.924376,0.000000,3677.258390
1227.353486,-9770.718434,-666.185348,3907.087040
1227.353807,-9622.677246,-1702.473667,3294.210641
1227.354128,-8882.471304,-2368.659014,1838.629195
1227.354449,-8808.450710,-2368.659014,689.485948
1227.354770,-9030.512492,-518.144159,1455.581446
1227.355091,-9030.512492,740.205942,1225.752797
1227.355412,-9474.636058,962.267725,1302.362347
1227.355733,-9918.759623,592.164754,1991.848295
1227.356054,-9992.780217,-222.061783,1455.581446
1227.356375,-9992.780217,-1110.308913,1302.362347
1227.356696,-10066.800811,-962.267725,2221.676944
1227.357017,-10140.821405,-1332.370696,2374.896044
1227.357338,-10288.862594,-1776.494261,2451.505594
1227.357659,-9548.656652,-1850.514855,2451.505594
1227.357980,-9326.594869,-2664.741391,1378.971896
1227.358301,-8660.409521,-3108.864956,-306.438199
1227.358622,-9030.512492,-2220.617826,-536.266849
1227.358943,-9178.553681,-592.164754,-995.924147
1227.359264,-9696.697840,1184.329507,-536.266849
1227.359585,-9770.718434,1332.370696,536.266849
1227.359906,-9992.780217,148.041188,459.657299
1227.360227,-10510.924376,-888.247130,612.876398
1227.360548,-10807.006753,-1924.535449,1532.190996
1227.360869,-10140.821405,-2664.741391,842.705048
1227.361190,-9770.718434,-3849.070898,2145.067394
1227.361511,-9400.615463,-4145.153275,2221.676944
1227.361832,-8660.409521,-4367.215058,459.657299
1227.362153,-8290.306550,-2886.803174,-229.828649
1227.362474,-8142.265362,-740.205942,-842.705048
1227.362795,-9104.533087,962.267725,-383.047749
1227.363116,-9474.636058,1554.432478,153.219100
1227.363437,-9474.636058,1406.391290,306.438199
1227.363758,-9178.553681,0.000000,-766.095498
1227.364079,-9844.739029,296.082377,383.047749
1227.364400,-10955.047942,-296.082377,1762.019645
1227.364721,-10362.883188,-370.102971,1532.190996
1227.365042,-10214.842000,-592.164754,2987.772442
1227.365363,-9770.718434,-1628.453072,1838.629195
1227.365684,-8882.471304,-2146.597232,459.657299
1227.366005,-8808.450710,-2294.638420,-459.657299
1227.366326,-8882.471304,-1184.329507,-459.657299
1227.366647,-8734.430116,1036.288319,919.314598
1227.366968,-9548.656652,1924.535449,995.924147
1227.367289,-9548.656652,1850.514855,1302.362347
1227.367610,-10288.862594,1036.288319,1302.362347
1227.367931,-10362.883188,666.185348,1532.190996
1227.368252,-10658.965565,740.205942,1915.238745
1227.368573,-10436.903782,444.123565,2911.162892
1227.368894,-9918.759623,222.061783,2681.334243
1227.369215,-9474.636058,-518.144159,2068.457845
1227.369536,-8808.450710,-1110.308913,306.438199
1227.369857,-8734.430116,-592.164754,306.438199
1227.370178,-9326.594869,962.267725,842.705048
1227.370499,-9622.677246,2294.638420,1302.362347
1227.370820,-10066.800811,2664.741391,1991.848295
1227.371141,-9104.533087,1776.494261,2221.676944
1227.371462,-9844.739029,740.205942,1838.629195
1227.371783,-10288.862594,148.041188,1608.800546
1227.372104,-9992.780217,444.123565,1915.238745
1227.372425,-9844.739029,0.000000,1838.629195
1227.372746,-9178.553681,-444.123565,1838.629195
1227.373067,-8734.430116,-1406.391290,459.657299
1227.373388,-8364.327145,-1554.432478,-1225.752797
1227.373709,-8512.368333,-888.247130,-1225.752797
1227.374030,-9474.636058,1332.370696,383.047749
1227.374351,-9770.718434,1850.514855,229.828649
1227.374672,-10066.800811,2368.659014,1762.019645
1227.374993,-10584.944971,814.226536,1378.971896
1227.375314,-10436.903782,-222.061783,689.485948
1227.375635,-10214.842000,-666.185348,1685.410096
1227.375956,-10288.862594,-592.164754,1915.238745
1227.376277,-9622.677246,-1184.329507,1762.019645
1227.376598,-8956.491898,-1554.432478,1455.581446
1227.376919,-8808.450710,-2590.720797,612.876398
1227.377240,-7994.224174,-3182.885551,-459.657299
1227.377561,-8290.306550,-2368.659014,-919.314598
1227.377882,-9400.615463,-296.082377,-229.828649
1227.378203,-9622.677246,1628.453072,689.485948
1227.378524,-9844.739029,1480.411884,1225.752797
1227.378845,-10510.924376,1480.411884,1608.800546
1227.379166,-10584.944971,-296.082377,612.876398
1227.379487,-10140.821405,-666.185348,1072.533697
1227.379808,-10436.903782,-888.247130,1532.190996
1227.380129,-10066.800811,-888.247130,1915.238745
1227.380450,-9622.677246,-1924.535449,2451.505594
1227.380771,-8882.471304,-3256.906145,1225.752797
1227.381092,-8438.347739,-3404.947333,76.609550
1227.381413,-8956.491898,-2590.720797,-842.705048
1227.381734,-9474.636058,-296.082377,459.657299
1227.382055,-9696.697840,962.267725,1378.971896
1227.382376,-9770.718434,1332.370696,1838.629195
1227.382697,-9696.697840,518.144159,1685.410096
1227.383018,-10436.903782,-962.267725,1991.848295
1227.383339,-10658.965565,-1332.370696,1608.800546
1227.383660,-9770.718434,-592.164754,2221.676944
1227.383981,-10362.883188,-1184.329507,2681.334243
1227.384302,-8586.388927,-1702.473667,2604.724693
1227.384623,-9474.636058,-2590.720797,1455.581446
1227.384944,-8290.306550,-2664.741391,536.266849
1227.385265,-8438.347739,-1776.494261,153.219100
1227.385586,-9326.594869,-148.041188,1608.800546
1227.385908,-9326.594869,592.164754,1685.410096
1227.386229,-9696.697840,888.247130,2068.457845
1227.386550,-10214.842000,0.000000,2068.457845
1227.386871,-9770.718434,-666.185348,1149.143247
1227.387192,-9474.636058,-518.144159,1149.143247
1227.387513,-9548.656652,-444.123565,1608.800546
1227.387834,-9622.677246,370.102971,1838.629195
1227.388155,-9474.636058,-148.041188,2298.286494
1227.388476,-8956.491898,-1850.514855,919.314598
1227.388797,-8512.368333,-1850.514855,-919.314598
1227.389118,-9622.677246,-1110.308913,0.000000
1227.389439,-9474.636058,888.247130,536.266849
1227.389760,-9844.739029,2664.741391,1532.190996
1227.390081,-10584.944971,2664.741391,2298.286494
1227.390402,-9770.718434,1924.535449,1455.581446
1227.390723,-10436.903782,0.000000,1838.629195
1227.391044,-10214.842000,-518.144159,1915.238745
1227.391365,-9918.759623,-888.247130,2145.067394
1227.391686,-9400.615463,-1184.329507,1762.019645
1227.392007,-9252.574275,-1110.308913,1302.362347
1227.392328,-8364.327145,-1850.514855,153.219100
1227.392649,-8586.388927,-1184.329507,-536.266849
1227.392970,-9030.512492,592.164754,-229.828649
1227.393291,-9326.594869,1036.288319,766.095498
1227.393612,-9548.656652,2294.638420,229.828649
1227.393933,-10807.006753,1628.453072,1072.533697
1227.394254,-9770.718434,296.082377,153.219100
1227.394575,-10066.800811,0.000000,0.000000
1227.394896,-11399.171507,0.000000,1302.362347
1227.395217,-10362.883188,74.020594,1838.629195
1227.395538,-10510.924376,-592.164754,1915.238745
1227.395859,-9474.636058,-1184.329507,1762.019645
1227.396180,-9030.512492,-2146.597232,306.438199
1227.396501,-8882.471304,-1850.514855,0.000000
1227.396822,-8882.471304,-666.185348,0.000000
1227.397143,-9030.512492,370.102971,0.000000
1227.397464,-9474.636058,1776.494261,766.095498
1227.397785,-10066.800811,1110.308913,919.314598
1227.398106,-10362.883188,1332.370696,1685.410096
1227.398427,-10658.965565,518.144159,1608.800546
1227.398748,-10436.903782,518.144159,1532.190996
1227.399069,-9992.780217,296.082377,1838.629195
1227.399390,-9252.574275,-296.082377,2221.676944
1227.399711,-9252.574275,-888.247130,1685.410096
1227.400032,-8808.450710,-1850.514855,229.828649
1227.400353,-8660.409521,-1850.514855,-459.657299
1227.400674,-8512.368333,-592.164754,1608.800546
1227.400995,-9326.594869,814.226536,689.485948
1227.401316,-10140.821405,1184.329507,1378.971896
1227.401637,-9918.759623,962.267725,1685.410096
1227.401958,-9844.739029,-148.041188,766.095498
1227.402279,-9326.594869,-740.205942,383.047749
1227.402600,-9992.780217,-1184.329507,1072.533697
1227.402921,-9918.759623,-1332.370696,1685.410096
1227.403242,-9400.615463,-888.247130,1838.629195
1227.403563,-9030.512492,-1628.453072,1608.800546
1227.403884,-8660.409521,-2220.617826,459.657299
1227.404205,-8808.450710,-2294.638420,76.609550
1227.404526,-8734.430116,-1332.370696,0.000000
1227.404847,-9400.615463,-148.041188,306.438199
1227.405168,-9104.533087,740.205942,1838.629195
1227.405489,-9770.718434,592.164754,1532.190996
1227.405810,-9992.780217,0.000000,1608.800546
1227.406131,-9918.759623,0.000000,1838.629195
1227.406452,-10140.821405,-592.164754,2221.676944
1227.406773,-10288.862594,-1036.288319,2374.896044
1227.407094,-9326.594869,-1258.350101,1762.019645
1227.407415,-9474.636058,-2368.659014,1838.629195
1227.407736,-8882.471304,-2294.638420,842.705048
1227.408057,-9030.512492,-1702.473667,229.828649
1227.408378,-8956.491898,-296.082377,229.828649
1227.408699,-9474.636058,1110.308913,536.266849
1227.409020,-10436.903782,2072.576638,1608.800546
1227.409341,-10436.903782,1480.411884,1685.410096
1227.409662,-10066.800811,962.267725,229.828649
1227.409983,-10288.862594,-222.061783,459.657299
1227.410304,-10140.821405,-444.123565,1302.362347
1227.410625,-10140.821405,-518.144159,1762.019645
1227.410946,-9770.718434,-814.226536,1991.848295
1227.411267,-9252.574275,-2146.597232,2145.067394
1227.411588,-9030.512492,-2294.638420,306.438199
1227.411909,-9474.636058,-1702.473667,229.828649
1227.412230,-9474.636058,-518.144159,459.657299
1227.412551,-9844.739029,444.123565,919.314598
1227.412872,-10140.821405,1036.288319,1455.581446
1227.413193,-10140.821405,814.226536,1532.190996
1227.413514,-10288.862594,74.020594,1302.362347
1227.413835,-10658.965565,0.000000,1608.800546
1227.414156,-9474.636058,74.020594,766.095498
1227.414477,-10214.842000,-148.041188,1838.629195
1227.414798,-9474.636058,-1036.288319,1685.410096
1227.415119,-8882.471304,-1924.535449,1225.752797
1227.415440,-8364.327145,-2590.720797,383.047749
1227.415761,-8882.471304,-1184.329507,-306.438199
1227.416082,-8734.430116,-296.082377,0.000000
1227.416403,-9326.594869,1332.370696,766.095498
1227.416724,-9548.656652,1924.535449,1455.581446
1227.417045,-10214.842000,1110.308913,2145.067394
1227.417366,-9992.780217,370.102971,689.485948
1227.417687,-9992.780217,0.000000,842.705048
1227.418008,-9992.780217,0.000000,1608.800546
1227.418329,-9918.759623,-148.041188,2145.067394
1227.418650,-9770.718434,-74.020594,2068.457845
1227.418971,-9030.512492,-1924.535449,1302.362347
1227.419292,-8660.409521,-2590.720797,76.609550
1227.419614,-8882.471304,-2072.576638,-612.876398
1227.419935,-9030.512492,0.000000,536.266849
1227.420256,-9474.636058,1776.494261,612.876398
1227.420577,-9548.656652,2368.659014,1455.581446
1227.420898,-10066.800811,1332.370696,1455.581446
1227.421219,-9992.780217,-148.041188,919.314598
1227.421540,-10214.842000,-296.082377,766.095498
1227.421861,-10807.006753,-888.247130,1915.238745
1227.422182,-9918.759623,-740.205942,2068.457845
1227.422503,-9548.656652,-962.267725,1455.581446
1227.422824,-9178.553681,-1406.391290,1149.143247
1227.423145,-8438.347739,-1036.288319,612.876398
1227.423466,-9326.594869,-1036.288319,383.047749
1227.423787,-9474.636058,-148.041188,612.876398
1227.424108,-9770.718434,444.123565,842.705048
1227.424429,-9992.780217,1184.329507,1149.143247
1227.424750,-10584.944971,1110.308913,536.266849
1227.425071,-9844.739029,592.164754,76.609550
1227.425392,-9474.636058,1554.432478,842.705048
1227.425713,-11103.089130,518.144159,1532.190996
1227.426034,-9548.656652,0.000000,3217.601092
1227.426355,-9844.739029,-1480.411884,1685.410096
1227.426676,-9474.636058,-2220.617826,995.924147
1227.426997,-8216.285956,-2664.741391,-459.657299
1227.427318,-9178.553681,-1332.370696,76.609550
1227.427639,-9104.533087,592.164754,76.609550
1227.427960,-9326.594869,1480.411884,229.828649
1227.428281,-9992.780217,1924.535449,1302.362347
1227.428601,-9918.759623,666.185348,919.314598
1227.428922,-10436.903782,222.061783,1072.533697
1227.429243,-10362.883188,-592.164754,1762.019645
1227.429564,-9252.574275,-592.164754,1685.410096
1227.429885,-9696.697840,-1258.350101,1991.848295
1227.430206,-9474.636058,-1776.494261,2068.457845
1227.430526,-8660.409521,-2368.659014,383.047749
1227.430847,-9178.553681,-2738.761985,306.438199
1227.431168,-8882.471304,-1184.329507,153.219100
1227.431489,-9400.615463,296.082377,383.047749
1227.431810,-9474.636058,1776.494261,1225.752797
1227.432130,-10066.800811,1924.535449,1838.629195
1227.432451,-10214.842000,888.247130,1455.581446
1227.432772,-9844.739029,-518.144159,612.876398
1227.433093,-10288.862594,-592.164754,1302.362347
1227.433414,-10140.821405,-74.020594,2528.115143
1227.433735,-9918.759623,-962.267725,2145.067394
1227.434055,-9622.677246,-1110.308913,2221.676944
1227.434376,-9252.574275,-2294.638420,842.705048
1227.434697,-9474.636058,-2294.638420,766.095498
1227.435018,-9622.677246,-1702.473667,842.705048
1227.435339,-9474.636058,-444.123565,383.047749
1227.435660,-9770.718434,962.267725,1149.143247
1227.435980,-9992.780217,1406.391290,1532.190996
1227.436301,-10214.842000,1332.370696,1991.848295
1227.436622,-9696.697840,1258.350101,1991.848295
1227.436943,-10658.965565,-370.102971,1225.752797
1227.437264,-9474.636058,-222.061783,1532.190996
1227.437584,-9770.718434,-1184.329507,1838.629195
1227.437905,-8808.450710,-888.247130,689.485948
1227.438226,-9252.574275,-2146.597232,842.705048
1227.438547,-8808.450710,-1776.494261,0.000000
1227.438868,-9104.533087,0.000000,229.828649
1227.439189,-9474.636058,296.082377,76.609550
1227.439509,-10066.800811,1850.514855,919.314598
1227.439830,-10732.986159,1406.391290,1072.533697
1227.440151,-9992.780217,296.082377,766.095498
1227.440472,-9918.759623,0.000000,919.314598
1227.440793,-9622.677246,0.000000,612.876398
1227.441113,-9622.677246,-740.205942,766.095498
1227.441434,-9770.718434,0.000000,1455.581446
1227.441755,-9474.636058,-740.205942,1455.581446
1227.442076,-9104.533087,-1628.453072,383.047749
1227.442397,-9104.533087,-1998.556043,153.219100
1227.442718,-8586.388927,-1554.432478,-1225.752797
1227.443038,-9030.512492,740.205942,-383.047749
1227.443359,-9770.718434,1332.370696,306.438199
1227.443680,-9770.718434,2072.576638,995.924147
1227.444001,-9992.780217,1036.288319,919.314598
1227.444322,-10214.842000,666.185348,1072.533697
1227.444643,-10288.862594,296.082377,1991.848295
1227.444963,-10362.883188,-370.102971,2911.162892
1227.445284,-9770.718434,-1480.411884,2911.162892
1227.445605,-9326.594869,-2516.700203,1991.848295
1227.445926,-8512.368333,-2738.761985,612.876398
1227.446247,-8660.409521,-2294.638420,0.000000
1227.446567,-8586.388927,-370.102971,383.047749
1227.446888,-8882.471304,1036.288319,995.924147
1227.447209,-9474.636058,2072.576638,1608.800546
1227.447530,-9844.739029,1998.556043,1532.190996
1227.447851,-10436.903782,962.267725,1302.362347
1227.448172,-10066.800811,74.020594,1608.800546
1227.448492,-9992.780217,-370.102971,1991.848295
1227.448813,-10288.862594,-518.144159,2451.505594
1227.449134,-9548.656652,-962.267725,2528.115143
1227.449455,-9326.594869,-1406.391290,2068.457845
1227.449776,-9474.636058,-1850.514855,1685.410096
1227.450097,-8808.450710,-1998.556043,612.876398
1227.450417,-9104.533087,-1110.308913,383.047749
1227.450738,-9326.594869,444.123565,459.657299
1227.451059,-9474.636058,1332.370696,1378.971896
1227.451380,-10140.821405,1406.391290,1302.362347
1227.451701,-10066.800811,444.123565,1608.800546
1227.452021,-10214.842000,0.000000,1685.410096
1227.452342,-10436.903782,-962.267725,2145.067394
1227.452663,-10066.800811,-1110.308913,2451.505594
1227.452984,-9770.718434,-1702.473667,2374.896044
1227.453305,-9178.553681,-2294.638420,1225.752797
1227.453626,-8586.388927,-2368.659014,306.438199
1227.453946,-8364.327145,-1924.535449,-306.438199
1227.454267,-8734.430116,148.041188,842.705048
1227.454588,-9400.615463,518.144159,766.095498
1227.454909,-9770.718434,962.267725,766.095498
1227.455230,-10362.883188,370.102971,842.705048
1227.455551,-9770.718434,-148.041188,383.047749
1227.455871,-10066.800811,-148.041188,919.314598
1227.456192,-10066.800811,0.000000,1378.971896
1227.456513,-10288.862594,-74.020594,1378.971896
1227.456834,-9770.718434,-592.164754,1455.581446
1227.457155,-9474.636058,-2220.617826,842.705048
1227.457475,-8882.471304,-2664.741391,-306.438199
1227.457796,-8438.347739,-1924.535449,-1072.533697
1227.458117,-9178.553681,-296.082377,-1072.533697
1227.458438,-8956.491898,1480.411884,-306.438199
1227.458759,-9326.594869,2220.617826,-229.828649
1227.459080,-9992.780217,1776.494261,536.266849
1227.459400,-9992.780217,296.082377,459.657299
1227.459721,-10436.903782,-370.102971,1302.362347
1227.460042,-10214.842000,-814.226536,1685.410096
1227.460363,-10584.944971,-296.082377,1532.190996
1227.460684,-9918.759623,-1184.329507,2604.724693
1227.461005,-9474.636058,-2146.597232,2298.286494
1227.461325,-9104.533087,-2738.761985,919.314598
1227.461646,-9178.553681,-1924.535449,229.828649
1227.461967,-9252.574275,518.144159,995.924147
1227.462288,-9696.697840,1406.391290,919.314598
1227.462609,-9622.677246,2590.720797,1378.971896
1227.462929,-10066.800811,1998.556043,1072.533697
1227.463250,-10140.821405,1036.288319,766.095498
1227.463571,-10658.965565,1258.350101,842.705048
1227.463892,-10658.965565,0.000000,1915.238745
1227.464213,-9844.739029,0.000000,2681.334243
1227.464534,-9844.739029,-1184.329507,2528.115143
1227.464854,-9252.574275,-1850.514855,2221.676944
1227.465175,-8660.409521,-2146.597232,612.876398
1227.465496,-8956.491898,-1406.391290,459.657299
1227.465817,-9104.533087,0.000000,842.705048
1227.466138,-9474.636058,1184.329507,766.095498
1227.466459,-9844.739029,2146.597232,1455.581446
1227.466779,-10066.800811,814.226536,2068.457845
1227.467100,-9844.739029,222.061783,1532.190996
1227.467421,-10362.883188,-444.123565,1838.629195
1227.467742,-9770.718434,0.000000,2221.676944
1227.468063,-8882.471304,-666.185348,3217.601092
1227.468383,-9474.636058,-1184.329507,2451.505594
1227.468704,-8882.471304,-1924.535449,1455.581446
1227.469025,-8734.430116,-2294.638420,306.438199
1227.469346,-8734.430116,-1332.370696,-536.266849
1227.469667,-8512.368333,962.267725,-306.438199
1227.469988,-10214.842000,1702.473667,842.705048
1227.470308,-9474.636058,2220.617826,1302.362347
1227.470629,-9844.739029,740.205942,766.095498
1227.470950,-9918.759623,74.020594,459.657299
1227.471271,-10140.821405,-148.041188,689.485948
1227.471592,-10362.883188,-740.205942,1685.410096
1227.471913,-9770.718434,-1036.288319,1991.848295
1227.472233,-9178.553681,-1702.473667,1149.143247
1227.472554,-9474.636058,-2368.659014,1225.752797
1227.472875,-8734.430116,-2516.700203,-459.657299
1227.473196,-8956.491898,-2072.576638,-536.266849
1227.473517,-9474.636058,-444.123565,-459.657299
1227.473837,-9326.594869,1554.432478,-153.219100
1227.474158,-10584.944971,3108.864956,1685.410096
1227.474479,-10584.944971,1480.411884,1532.190996
1227.474800,-10436.903782,740.205942,1149.143247
1227.475121,-10881.027347,222.061783,1608.800546
1227.475442,-10658.965565,-370.102971,2221.676944
1227.475762,-10362.883188,0.000000,536.266849
1227.476083,-9622.677246,-1702.473667,2451.505594
1227.476404,-9178.553681,-2664.741391,1225.752797
1227.476725,-8808.450710,-2516.700203,306.438199
1227.477046,-8734.430116,-1480.411884,76.609550
1227.477366,-9252.574275,814.226536,459.657299
1227.477687,-9770.718434,1924.535449,689.485948
1227.478008,-10214.842000,1998.556043,842.705048
1227.478329,-10066.800811,1776.494261,842.705048
1227.478650,-9474.636058,0.000000,-383.047749
1227.478971,-9548.656652,740.205942,842.705048
1227.479291,-10288.862594,-518.144159,1608.800546
1227.479612,-9622.677246,-1184.329507,2221.676944
1227.479933,-10066.800811,-2590.720797,1915.238745
1227.480254,-8808.450710,-2442.679609,1225.752797
1227.480575,-8882.471304,-2146.597232,766.095498
1227.480896,-9104.533087,-1110.308913,459.657299
1227.481216,-8882.471304,148.041188,459.657299
1227.481537,-8956.491898,1036.288319,536.266849
1227.481858,-9104.533087,0.000000,1838.629195
1227.482179,-9770.718434,-148.041188,459.657299
1227.482500,-9992.780217,-518.144159,1532.190996
1227.482820,-10140.821405,-740.205942,1915.238745
1227.483141,-10140.821405,-296.082377,2451.505594
1227.483462,-9992.780217,-592.164754,2681.334243
1227.483783,-9474.636058,-1406.391290,2068.457845
1227.484104,-9030.512492,-2368.659014,1225.752797
1227.484425,-8882.471304,-2072.576638,229.828649
1227.484745,-9030.512492,-740.205942,0.000000
1227.485066,-9104.533087,592.164754,842.705048
1227.485387,-9178.553681,1628.453072,612.876398
1227.485708,-10066.800811,1554.432478,1072.533697
1227.486029,-10066.800811,962.267725,536.266849
1227.486350,-10214.842000,222.061783,612.876398
1227.486670,-10658.965565,370.102971,1225.752797
1227.486991,-10436.903782,148.041188,1991.848295
1227.487312,-10140.821405,-740.205942,1991.848295
1227.487633,-9474.636058,-1036.288319,2068.457845
1227.487954,-9252.574275,-2294.638420,153.219100
1227.488274,-8512.368333,-1702.473667,76.609550
1227.488595,-9178.553681,-1184.329507,0.000000
1227.488916,-9400.615463,370.102971,0.000000
1227.489237,-9474.636058,1850.514855,612.876398
1227.489558,-10066.800811,1406.391290,2145.067394
1227.489879,-9992.780217,740.205942,1915.238745
1227.490199,-10362.883188,-592.164754,1685.410096
1227.490520,-10584.944971,-962.267725,1762.019645
1227.490841,-9918.759623,-1258.350101,2298.286494
1227.491162,-10140.821405,-962.267725,4290.134789
1227.491483,-9252.574275,-2590.720797,1915.238745
1227.491804,-8660.409521,-2442.679609,842.705048
1227.492124,-8660.409521,-2072.576638,153.219100
1227.492445,-8956.491898,-296.082377,306.438199
1227.492766,-9030.512492,962.267725,1455.581446
1227.493087,-9548.656652,1258.350101,1225.752797
1227.493408,-10140.821405,740.205942,1378.971896
1227.493728,-10066.800811,74.020594,689.485948
1227.494049,-9992.780217,-148.041188,689.485948
1227.494370,-10066.800811,0.000000,1302.362347
1227.494691,-9992.780217,148.041188,1838.629195
1227.495012,-9548.656652,-296.082377,1455.581446
1227.495333,-9474.636058,-1258.350101,1685.410096
1227.495653,-8956.491898,-2220.617826,536.266849
1227.495974,-9104.533087,-1776.494261,0.000000
1227.496295,-8956.491898,-1036.288319,76.609550
1227.496616,-9326.594869,592.164754,76.609550
1227.496937,-9918.759623,1702.473667,919.314598
1227.497258,-9992.780217,1776.494261,1225.752797
1227.497578,-10214.842000,666.185348,1378.971896
1227.497899,-10955.047942,0.000000,1685.410096
1227.498220,-10362.883188,-222.061783,1685.410096
1227.498541,-10140.821405,-518.144159,1762.019645
1227.498862,-9474.636058,-444.123565,1762.019645
1227.499182,-9030.512492,-888.247130,919.314598
1227.499503,-8438.347739,-2294.638420,-76.609550
1227.499824,-8512.368333,-1924.535449,-306.438199
1227.500145,-8734.430116,-592.164754,76.609550
1227.500466,-10436.903782,740.205942,995.924147
1227.500787,-10066.800811,1628.453072,1838.629195
1227.501107,-10584.944971,1184.329507,1915.238745
1227.501428,-10066.800811,296.082377,1302.362347
1227.501749,-10140.821405,0.000000,1302.362347
1227.502070,-10214.842000,0.000000,1608.800546
1227.502391,-9844.739029,0.000000,1991.848295
1227.502712,-9696.697840,0.000000,2068.457845
1227.503032,-9030.512492,-814.226536,1838.629195
1227.503353,-8660.409521,-1406.391290,1685.410096
1227.503674,-9104.533087,-1258.350101,766.095498
1227.503995,-9326.594869,-592.164754,306.438199
1227.504316,-9548.656652,444.123565,1225.752797
1227.504636,-9770.718434,1776.494261,1378.971896
1227.504957,-10140.821405,1776.494261,3294.210641
1227.505278,-9770.718434,444.123565,1608.800546
1227.505599,-9992.780217,0.000000,1455.581446
1227.505920,-9474.636058,-296.082377,1838.629195
1227.506241,-9474.636058,-962.267725,2068.457845
1227.506561,-9326.594869,-1480.411884,1762.019645
1227.506882,-8956.491898,-2516.700203,1685.410096
1227.507203,-8734.430116,-2886.803174,689.485948
1227.507524,-8956.491898,-1628.453072,229.828649
1227.507845,-9178.553681,296.082377,766.095498
1227.508166,-9918.759623,1628.453072,689.485948
1227.508486,-9770.718434,1554.432478,1455.581446
1227.508807,-10066.800811,666.185348,1608.800546
1227.509128,-10066.800811,-592.164754,995.924147
1227.509449,-9770.718434,-666.185348,1225.752797
1227.509770,-10066.800811,-592.164754,1072.533697
1227.510090,-9474.636058,-592.164754,1378.971896
1227.510411,-9474.636058,-444.123565,1455.581446
1227.510732,-8808.450710,-444.123565,612.876398
1227.511053,-9030.512492,-1258.350101,459.657299
1227.511374,-8586.388927,-814.226536,-612.876398
1227.511695,-9770.718434,-222.061783,-229.828649
1227.512015,-9474.636058,296.082377,229.828649
1227.512336,-9696.697840,1406.391290,919.314598
1227.512657,-11029.068536,888.247130,2068.457845
1227.512978,-9992.780217,222.061783,536.266849
1227.513299,-10510.924376,0.000000,842.705048
1227.513620,-9992.780217,444.123565,1455.581446
1227.513940,-10066.800811,0.000000,1991.848295
1227.514261,-10066.800811,-962.267725,2068.457845
1227.514582,-9178.553681,-2220.617826,766.095498
1227.514903,-8660.409521,-2738.761985,-459.657299
1227.515224,-8882.471304,-1998.556043,-383.047749
1227.515544,-9104.533087,0.000000,153.219100
1227.515865,-9622.677246,1480.411884,1072.533697
1227.516186,-9992.780217,1924.535449,995.924147
1227.516507,-10807.006753,1184.329507,1378.971896
1227.516828,-10362.883188,518.144159,919.314598
1227.517149,-10510.924376,74.020594,2145.067394
1227.517469,-10066.800811,370.102971,2298.286494
1227.517790,-9770.718434,-592.164754,1532.190996
1227.518111,-9326.594869,-1036.288319,1685.410096
1227.518432,-9178.553681,-1776.494261,1225.752797
1227.518753,-8734.430116,-2220.617826,-153.219100
1227.519073,-9178.553681,-1258.350101,0.000000
1227.519394,-9178.553681,148.041188,459.657299
1227.519715,-9548.656652,1702.473667,919.314598
1227.520036,-9844.739029,1628.453072,2221.676944
1227.520357,-9474.636058,740.205942,2681.334243
1227.520678,-9622.677246,-666.185348,1532.190996
1227.520998,-9770.718434,-1702.473667,1608.800546
1227.521319,-9548.656652,-1184.329507,2451.505594
1227.521640,-9622.677246,-1850.514855,2528.115143
1227.521961,-8882.471304,-1776.494261,2911.162892
1227.522282,-8956.491898,-1850.514855,1685.410096
1227.522603,-8586.388927,-1332.370696,459.657299
1227.522923,-9030.512492,-444.123565,689.485948
1227.523244,-9326.594869,740.205942,919.314598
1227.523565,-9252.574275,1702.473667,1685.410096
1227.523886,-9844.739029,740.205942,1762.019645
1227.524207,-9844.739029,-296.082377,1072.533697
1227.524527,-9918.759623,-814.226536,689.485948
1227.524848,-9844.739029,-740.205942,1072.533697
1227.525169,-9844.739029,0.000000,1608.800546
1227.525490,-9844.739029,0.000000,1762.019645
1227.525811,-9918.759623,-1258.350101,153.219100
1227.526132,-8364.327145,0.000000,459.657299
1227.526452,-10584.944971,-1850.514855,1149.143247
1227.526773,-8438.347739,0.000000,306.438199
1227.527094,-9992.780217,-444.123565,0.000000
1227.527415,-9918.759623,814.226536,689.485948
1227.527736,-9252.574275,740.205942,153.219100
1227.528056,-10584.944971,592.164754,1072.533697
1227.528377,-10214.842000,666.185348,1685.410096
1227.528698,-10066.800811,0.000000,459.657299
1227.529019,-10510.924376,74.020594,2298.286494
1227.529339,-9474.636058,-1332.370696,2374.896044
1227.529660,-10658.965565,-1480.411884,2451.505594
1227.529981,-9622.677246,-3701.029710,1838.629195
1227.530301,-7772.162391,-3552.988522,-536.266849
1227.530622,-8734.430116,-1776.494261,-306.438199
1227.530943,-9548.656652,222.061783,536.266849
1227.531264,-9474.636058,2220.617826,1225.752797
1227.531584,-10288.862594,1554.432478,1455.581446
1227.531905,-9844.739029,1110.308913,842.705048
1227.532226,-9918.759623,296.082377,766.095498
1227.532547,-10436.903782,0.000000,1838.629195
1227.532867,-9992.780217,-444.123565,2451.505594
1227.533188,-9548.656652,-1184.329507,2145.067394
1227.533509,-8956.491898,-2146.597232,1532.190996
1227.533829,-8956.491898,-2590.720797,459.657299
1227.534150,-8512.368333,-2146.597232,0.000000
1227.534471,-9326.594869,-518.144159,0.000000
1227.534792,-9252.574275,1702.473667,153.219100
1227.535112,-9696.697840,2738.761985,612.876398
1227.535433,-10510.924376,2442.679609,1455.581446
1227.535754,-9992.780217,962.267725,459.657299
1227.536075,-9992.780217,-592.164754,1072.533697
1227.536395,-10362.883188,-1332.370696,1225.752797
1227.536716,-9770.718434,-1332.370696,1762.019645
1227.537037,-9548.656652,-1036.288319,2221.676944
1227.537357,-9474.636058,-1332.370696,1762.019645
1227.537678,-8808.450710,-1036.288319,766.095498
1227.537999,-8956.491898,-814.226536,76.609550
1227.538320,-9252.574275,0.000000,306.438199
1227.538640,-9918.759623,296.082377,383.047749
1227.538961,-9844.739029,1702.473667,2681.334243
1227.539282,-10288.862594,518.144159,1378.971896
1227.539603,-9622.677246,222.061783,1072.533697
1227.539923,-10436.903782,0.000000,1225.752797
1227.540244,-10140.821405,518.144159,1455.581446
1227.540565,-9918.759623,666.185348,1915.238745
1227.540885,-9992.780217,-370.102971,2068.457845
1227.541206,-9622.677246,-1184.329507,1149.143247
1227.541527,-9400.615463,-2294.638420,536.266849
1227.541848,-8956.491898,-1998.556043,229.828649
1227.542168,-8438.347739,-1036.288319,0.000000
1227.542489,-9474.636058,666.185348,689.485948
1227.542810,-9474.636058,1850.514855,229.828649
1227.543131,-9770.718434,2146.597232,1225.752797
1227.543451,-9770.718434,1924.535449,459.657299
1227.543772,-9696.697840,592.164754,1302.362347
1227.544093,-10214.842000,148.041188,1302.362347
1227.544414,-9918.759623,-296.082377,1991.848295
1227.544734,-9622.677246,-1332.370696,2298.286494
1227.545055,-8882.471304,-2220.617826,3524.039291
1227.545376,-9030.512492,-3404.947333,1302.362347
1227.545696,-9104.533087,-2516.700203,612.876398
1227.546017,-9252.574275,-740.205942,766.095498
1227.546338,-9400.615463,814.226536,995.924147
1227.546659,-9918.759623,1110.308913,2911.162892
1227.546979,-9770.718434,740.205942,1302.362347
1227.547300,-9622.677246,-148.041188,842.705048
1227.547621,-9696.697840,-888.247130,536.266849
1227.547942,-9474.636058,-740.205942,1378.971896
1227.548262,-9770.718434,-962.267725,1685.410096
1227.548583,-9992.780217,-370.102971,2221.676944
1227.548904,-9548.656652,-1184.329507,1915.238745
1227.549224,-9104.533087,-2072.576638,842.705048
1227.549545,-9030.512492,-1998.556043,153.219100
1227.549866,-9252.574275,-370.102971,229.828649
1227.550187,-9622.677246,814.226536,153.219100
1227.550507,-9548.656652,2220.617826,459.657299
1227.550828,-9696.697840,1924.535449,536.266849
1227.551149,-10288.862594,592.164754,459.657299
1227.551470,-10436.903782,296.082377,919.314598
1227.551790,-10510.924376,-296.082377,1915.238745
1227.552111,-10658.965565,-518.144159,2068.457845
1227.552432,-9696.697840,-1332.370696,2451.505594
1227.552752,-9696.697840,-2516.700203,689.485948
1227.553073,-8808.450710,-3330.926739,0.000000
1227.553394,-8734.430116,-2146.597232,-153.219100
1227.553715,-9030.512492,-1406.391290,-153.219100
1227.554035,-8882.471304,814.226536,459.657299
1227.554356,-10140.821405,1850.514855,0.000000
1227.554677,-10140.821405,1184.329507,1072.533697
1227.554998,-9622.677246,370.102971,306.438199
1227.555318,-10214.842000,0.000000,919.314598
1227.555639,-9844.739029,0.000000,1225.752797
1227.555960,-9770.718434,-444.123565,1685.410096
1227.556280,-9992.780217,-666.185348,2451.505594
1227.556601,-9252.574275,-1776.494261,1072.533697
1227.556922,-8882.471304,-1332.370696,153.219100
1227.557243,-9104.533087,-1184.329507,459.657299
1227.557563,-8734.430116,740.205942,-536.266849
1227.557884,-10140.821405,1628.453072,1072.533697
1227.558205,-9770.718434,1998.556043,1225.752797
1227.558526,-9770.718434,1702.473667,842.705048
1227.558846,-10066.800811,740.205942,842.705048
1227.559167,-10214.842000,592.164754,3677.258390
1227.559488,-10288.862594,74.020594,2528.115143
1227.559808,-10362.883188,-296.082377,2987.772442
1227.560129,-9548.656652,-1480.411884,2528.115143
1227.560450,-9252.574275,-2812.782580,2145.067394
1227.560771,-8586.388927,-2886.803174,2068.457845
1227.561091,-9252.574275,-1480.411884,919.314598
1227.561412,-8956.491898,222.061783,1302.362347
1227.561733,-9918.759623,740.205942,1455.581446
1227.562054,-9770.718434,1036.288319,1991.848295
1227.562374,-9696.697840,592.164754,1302.362347
1227.562695,-10066.800811,-296.082377,919.314598
1227.563016,-9696.697840,-888.247130,842.705048
1227.563337,-9548.656652,-222.061783,995.924147
1227.563657,-9474.636058,0.000000,1455.581446
1227.563978,-8660.409521,-1036.288319,2987.772442
1227.564299,-9178.553681,-1554.432478,689.485948
1227.564619,-9104.533087,-2146.597232,153.219100
1227.564940,-9326.594869,-1850.514855,-306.438199
1227.565261,-9252.574275,-592.164754,0.000000
1227.565582,-9400.615463,740.205942,1532.190996
1227.565902,-9696.697840,1776.494261,1149.143247
1227.566223,-10214.842000,888.247130,1072.533697
1227.566544,-9992.780217,0.000000,1378.971896
1227.566865,-9992.780217,-1258.350101,1225.752797
1227.567185,-9622.677246,-1998.556043,1455.581446
1227.567506,-9622.677246,-1850.514855,1838.629195
1227.567827,-9400.615463,-1554.432478,1915.238745
1227.568147,-9030.512492,-2294.638420,1225.752797
1227.568468,-8660.409521,-2368.659014,1762.019645
1227.568789,-8734.430116,-1406.391290,229.828649
1227.569110,-9548.656652,-148.041188,459.657299
1227.569430,-9770.718434,888.247130,1072.533697
1227.569751,-10214.842000,814.226536,1455.581446
1227.570072,-9918.759623,518.144159,2068.457845
1227.570393,-9770.718434,0.000000,229.828649
1227.570713,-10362.883188,0.000000,1532.190996
1227.571034,-10140.821405,-518.144159,1608.800546
1227.571355,-9918.759623,-962.267725,1991.848295
1227.571675,-8734.430116,-1480.411884,1762.019645
1227.571996,-9178.553681,-2368.659014,766.095498
1227.572317,-8882.471304,-2294.638420,536.266849
1227.572638,-9030.512492,-1406.391290,229.828649
1227.572958,-9252.574275,518.144159,306.438199
1227.573279,-9918.759623,1332.370696,1378.971896
1227.573600,-9770.718434,1110.308913,1225.752797
1227.573921,-10140.821405,962.267725,1302.362347
1227.574241,-10140.821405,0.000000,995.924147
1227.574562,-10288.862594,148.041188,2911.162892
1227.574883,-10362.883188,0.000000,2221.676944
1227.575203,-9770.718434,-1110.308913,1838.629195
1227.575524,-9252.574275,-2146.597232,1838.629195
1227.575845,-8956.491898,-2960.823768,919.314598
1227.576166,-7550.100608,-3182.885551,-689.485948
1227.576486,-8808.450710,-1184.329507,229.828649
1227.576807,-9252.574275,1184.329507,1455.581446
1227.577128,-10066.800811,2072.576638,1762.019645
1227.577449,-10066.800811,1924.535449,536.266849
1227.577769,-10214.842000,1184.329507,766.095498
1227.578090,-9918.759623,518.144159,766.095498
1227.578411,-9918.759623,518.144159,1149.143247
1227.578731,-10362.883188,518.144159,1685.410096
1227.579052,-10066.800811,296.082377,1915.238745
1227.579373,-9696.697840,148.041188,1532.190996
1227.579694,-9474.636058,-148.041188,919.314598
1227.580014,-9030.512492,-148.041188,0.000000
1227.580335,-9252.574275,518.144159,0.000000
1227.580656,-9474.636058,1628.453072,536.266849
1227.580977,-9474.636058,1628.453072,689.485948
1227.581297,-10214.842000,1554.432478,842.705048
1227.581618,-10066.800811,814.226536,689.485948
1227.581939,-10140.821405,74.020594,1225.752797
1227.582259,-10288.862594,-222.061783,459.657299
1227.582580,-10288.862594,-666.185348,2374.896044
1227.582901,-9622.677246,-1554.432478,1991.848295
1227.583222,-9030.512492,-2516.700203,919.314598
1227.583542,-8882.471304,-3478.967927,-459.657299
1227.583863,-8068.244768,-2368.659014,-383.047749
1227.584184,-8438.347739,-592.164754,-766.095498
1227.584505,-8808.450710,1184.329507,229.828649
1227.584825,-9474.636058,1776.494261,689.485948
1227.585146,-9474.636058,888.247130,-1608.800546
1227.585467,-9622.677246,296.082377,995.924147
1227.585788,-9844.739029,-444.123565,995.924147
1227.586108,-9844.739029,-370.102971,1685.410096
1227.586429,-9918.759623,-370.102971,2528.115143
1227.586750,-9474.636058,74.020594,2681.334243
1227.587070,-9474.636058,-1702.473667,1991.848295
1227.587391,-8734.430116,-1998.556043,919.314598
1227.587712,-8660.409521,-1998.556043,229.828649
1227.588033,-8882.471304,-518.144159,306.438199
1227.588353,-9474.636058,1332.370696,383.047749
1227.588674,-9622.677246,2146.597232,1072.533697
1227.588995,-10362.883188,1850.514855,1762.019645
1227.589316,-10362.883188,1110.308913,1762.019645
1227.589636,-9992.780217,1332.370696,842.705048
1227.589957,-11103.089130,-518.144159,1532.190996
1227.590278,-9474.636058,-148.041188,1915.238745
1227.590598,-9844.739029,-1776.494261,2068.457845
1227.590919,-9178.553681,-2812.782580,1072.533697
1227.591240,-7624.121203,-3182.885551,153.219100
1227.591561,-9326.594869,-1924.535449,0.000000
1227.591881,-9326.594869,-222.061783,536.266849
1227.592202,-9918.759623,666.185348,766.095498
1227.592523,-10140.821405,666.185348,1302.362347
1227.592844,-9992.780217,148.041188,919.314598
1227.593164,-10362.883188,-740.205942,383.047749
1227.593485,-9770.718434,-740.205942,383.047749
1227.593806,-10288.862594,-962.267725,1302.362347
1227.594126,-10214.842000,-888.247130,2604.724693
1227.594447,-9474.636058,-1406.391290,1378.971896
1227.594768,-9178.553681,-1406.391290,995.924147
1227.595089,-8734.430116,-1628.453072,76.609550
1227.595409,-9474.636058,-1332.370696,0.000000
1227.595730,-8734.430116,-2072.576638,306.438199
1227.596051,-9474.636058,444.123565,383.047749
1227.596372,-9622.677246,1110.308913,1072.533697
1227.596692,-9770.718434,518.144159,1532.190996
1227.597013,-10140.821405,0.000000,1378.971896
1227.597334,-9918.759623,0.000000,1378.971896
1227.597654,-9844.739029,-296.082377,1685.410096
1227.597975,-9474.636058,-370.102971,2068.457845
1227.598296,-9252.574275,-962.267725,1838.629195
1227.598617,-9326.594869,-1702.473667,3217.601092
1227.598937,-8660.409521,-1776.494261,1072.533697
1227.599258,-8586.388927,-1110.308913,76.609550
1227.599579,-9178.553681,222.061783,536.266849
1227.599900,-9770.718434,1184.329507,689.485948
1227.600220,-9622.677246,2368.659014,919.314598
1227.600541,-10214.842000,962.267725,1149.143247
1227.600862,-9918.759623,370.102971,1072.533697
1227.601182,-9992.780217,0.000000,1225.752797
1227.601503,-10362.883188,-296.082377,1378.971896
1227.601824,-10214.842000,-1184.329507,2221.676944
1227.602145,-9474.636058,-1332.370696,1915.238745
1227.602465,-9622.677246,-2442.679609,995.924147
1227.602786,-9104.533087,-2590.720797,612.876398
1227.603107,-9400.615463,-2368.659014,459.657299
1227.603428,-9474.636058,0.000000,919.314598
1227.603748,-9474.636058,1332.370696,1149.143247
1227.604069,-10066.800811,2442.679609,1838.629195
1227.604390,-10510.924376,1702.473667,2145.067394
1227.604711,-9918.759623,222.061783,3294.210641
1227.605031,-10436.903782,-296.082377,1991.848295
1227.605352,-9918.759623,-592.164754,1991.848295
1227.605673,-9770.718434,-962.267725,2451.505594
1227.605993,-9474.636058,-2294.638420,2145.067394
1227.606314,-8512.368333,-2072.576638,2451.505594
1227.606635,-8660.409521,-2072.576638,306.438199
1227.606956,-8882.471304,-370.102971,76.609550
1227.607276,-9696.697840,1184.329507,842.705048
1227.607597,-9844.739029,1850.514855,1378.971896
1227.607918,-10066.800811,2220.617826,1149.143247
1227.608239,-10140.821405,666.185348,766.095498
1227.608559,-10066.800811,-222.061783,383.047749
1227.608880,-10066.800811,-1184.329507,1225.752797
1227.609201,-9622.677246,-518.144159,919.314598
1227.609521,-9696.697840,-1184.329507,1455.581446
1227.609842,-9474.636058,-1480.411884,995.924147
1227.610163,-8660.409521,-1776.494261,459.657299
1227.610484,-8512.368333,-1850.514855,-383.047749
1227.610804,-8808.450710,-1258.350101,153.219100
1227.611125,-8808.450710,0.000000,-612.876398
1227.611446,-9474.636058,962.267725,153.219100
1227.611767,-9474.636058,1184.329507,459.657299
1227.612087,-10066.800811,666.185348,919.314598
1227.612408,-8734.430116,0.000000,689.485948
1227.612729,-9770.718434,-370.102971,842.705048
1227.613049,-9770.718434,-518.144159,1225.752797
1227.613370,-9696.697840,-888.247130,1455.581446
1227.613691,-9474.636058,-1332.370696,2298.286494
1227.614012,-9030.512492,-1998.556043,1455.581446
1227.614332,-8438.347739,-1406.391290,76.609550
1227.614653,-9326.594869,-1110.308913,76.609550
1227.614974,-9622.677246,370.102971,919.314598
1227.615295,-10732.986159,1480.411884,919.314598
1227.615615,-10510.924376,1406.391290,1762.019645
1227.615936,-10362.883188,962.267725,1378.971896
1227.616257,-10436.903782,296.082377,1149.143247
1227.616577,-10362.883188,592.164754,1455.581446
1227.616898,-10510.924376,296.082377,3753.867940
1227.617219,-9622.677246,0.000000,2451.505594
1227.617540,-9326.594869,-1406.391290,1838.629195
1227.617860,-9178.553681,-1924.535449,919.314598
1227.618181,-8882.471304,-1998.556043,995.924147
1227.618502,-8956.491898,-962.267725,612.876398
1227.618823,-9622.677246,666.185348,1302.362347
1227.619143,-10066.800811,1628.453072,1915.238745
1227.619464,-10362.883188,1850.514855,2528.115143
1227.619785,-10214.842000,962.267725,1608.800546
1227.620105,-10214.842000,-518.144159,2145.067394
1227.620426,-9992.780217,-962.267725,1608.800546
1227.620747,-9770.718434,-740.205942,1915.238745
1227.621068,-9548.656652,-1258.350101,1915.238745
1227.621388,-9474.636058,-2220.617826,459.657299
1227.621709,-8586.388927,-2812.782580,1149.143247
1227.622030,-8660.409521,-2368.659014,229.828649
1227.622351,-9178.553681,-888.247130,766.095498
1227.622671,-9400.615463,592.164754,842.705048
1227.622992,-9104.533087,1924.535449,1225.752797
1227.623313,-9770.718434,1110.308913,995.924147
1227.623633,-9770.718434,740.205942,689.485948
1227.623954,-9918.759623,-222.061783,459.657299
1227.624275,-9548.656652,-296.082377,919.314598
1227.624596,-9992.780217,-518.144159,1838.629195
1227.624916,-9622.677246,-814.226536,1915.238745
1227.625237,-9474.636058,-1850.514855,1455.581446
1227.625558,-9178.553681,-2664.741391,459.657299
1227.625879,-9326.594869,-2220.617826,1608.800546
1227.626199,-9178.553681,-1480.411884,0.000000
1227.626520,-9474.636058,0.000000,612.876398
1227.626841,-9622.677246,1036.288319,842.705048
1227.627163,-9918.759623,1184.329507,1532.190996
1227.627484,-10214.842000,0.000000,1072.533697
1227.627805,-10362.883188,0.000000,1225.752797
1227.628125,-10214.842000,-444.123565,1455.581446
1227.628446,-10140.821405,-370.102971,1762.019645
1227.628767,-9622.677246,-888.247130,1762.019645
1227.629088,-9770.718434,-1776.494261,1378.971896
1227.629408,-8734.430116,-2220.617826,536.266849
1227.629729,-8956.491898,-1850.514855,-383.047749
1227.630050,-9104.533087,-222.061783,0.000000
1227.630370,-9474.636058,1406.391290,-689.485948
1227.630691,-10214.842000,1998.556043,689.485948
1227.631012,-10510.924376,1850.514855,995.924147
1227.631332,-10288.862594,888.247130,612.876398
1227.631653,-10288.862594,0.000000,919.314598
1227.631974,-9770.718434,-518.144159,-1608.800546
1227.632294,-9992.780217,-888.247130,1991.848295
1227.632615,-9622.677246,-1110.308913,1915.238745
1227.632936,-9474.636058,-1702.473667,1838.629195
1227.633257,-8808.450710,-2072.576638,536.266849
1227.633577,-8808.450710,-1702.473667,612.876398
1227.633898,-8956.491898,0.000000,-153.219100
1227.634219,-9474.636058,962.267725,306.438199
1227.634539,-9696.697840,1850.514855,1455.581446
1227.634860,-10214.842000,1628.453072,1608.800546
1227.635181,-9548.656652,740.205942,842.705048
1227.635501,-10732.986159,74.020594,1991.848295
1227.635822,-10066.800811,296.082377,2298.286494
1227.636143,-9844.739029,-222.061783,2911.162892
1227.636463,-9770.718434,-518.144159,2604.724693
1227.636784,-8956.491898,-2294.638420,1838.629195
1227.637105,-8586.388927,-2590.720797,459.657299
1227.637426,-8660.409521,-1628.453072,383.047749
1227.637746,-8808.450710,0.000000,536.266849
1227.638067,-9474.636058,1776.494261,-306.438199
1227.638388,-9696.697840,1406.391290,1072.533697
1227.638708,-10066.800811,1258.350101,1302.362347
1227.639029,-10214.842000,-148.041188,1149.143247
1227.639350,-10140.821405,-370.102971,842.705048
1227.639670,-10066.800811,296.082377,1838.629195
1227.639991,-10436.903782,-148.041188,1455.581446
1227.640312,-9770.718434,-148.041188,2068.457845
1227.640632,-9178.553681,-1702.473667,1149.143247
1227.640953,-8956.491898,-2368.659014,2451.505594
1227.641274,-8808.450710,-2368.659014,153.219100
1227.641595,-8808.450710,-1406.391290,-229.828649
1227.641915,-9030.512492,222.061783,-229.828649
1227.642236,-9178.553681,1258.350101,0.000000
1227.642557,-9474.636058,1036.288319,-153.219100
1227.642877,-9918.759623,370.102971,1072.533697
1227.643198,-10140.821405,-370.102971,1225.752797
1227.643519,-10732.986159,-962.267725,2068.457845
1227.643839,-10436.903782,-1110.308913,2757.943793
1227.644160,-9918.759623,-1628.453072,3524.039291
1227.644481,-10140.821405,-2146.597232,2221.676944
1227.644801,-8808.450710,-2072.576638,1532.190996
1227.645122,-8734.430116,-1406.391290,229.828649
1227.645443,-9252.574275,74.020594,153.219100
1227.645764,-9770.718434,888.247130,1149.143247
1227.646084,-9992.780217,1110.308913,1991.848295
1227.646405,-10288.862594,148.041188,1838.629195
1227.646726,-9918.759623,0.000000,1378.971896
1227.647046,-10288.862594,-888.247130,1149.143247
1227.647367,-9918.759623,-592.164754,1991.848295
1227.647688,-9844.739029,-222.061783,1915.238745
1227.648008,-9178.553681,-1036.288319,1838.629195
1227.648329,-8882.471304,-1332.370696,919.314598
1227.648650,-8808.450710,-2368.659014,1149.143247
1227.648970,-8808.450710,-1554.432478,-842.705048
1227.649291,-9030.512492,0.000000,-383.047749
1227.649612,-9400.615463,1480.411884,0.000000
1227.649933,-10214.842000,1628.453072,1302.362347
1227.650253,-10955.047942,666.185348,1455.581446
1227.650574,-10658.965565,-518.144159,1455.581446
1227.650895,-10436.903782,-888.247130,1378.971896
1227.651215,-10510.924376,-444.123565,1915.238745
1227.651536,-10362.883188,-296.082377,2374.896044
1227.651857,-9548.656652,-1184.329507,2068.457845
1227.652177,-8734.430116,-2146.597232,766.095498
1227.652498,-7994.224174,-2220.617826,-612.876398
1227.652819,-8734.430116,-1110.308913,-612.876398
1227.653139,-8364.327145,1036.288319,689.485948
1227.653460,-10066.800811,1924.535449,995.924147
1227.653781,-10214.842000,1850.514855,1455.581446
1227.654102,-10288.862594,1480.411884,612.876398
1227.654422,-10362.883188,518.144159,919.314598
1227.654743,-10807.006753,296.082377,995.924147
1227.655064,-10140.821405,0.000000,1455.581446
1227.655384,-9548.656652,148.041188,1838.629195
1227.655705,-9178.553681,-740.205942,1302.362347
1227.656026,-9474.636058,-1998.556043,-995.924147
1227.656346,-8364.327145,-1850.514855,0.000000
1227.656667,-9104.533087,-1258.350101,76.609550
1227.656988,-8808.450710,222.061783,0.000000
1227.657308,-9326.594869,1776.494261,536.266849
1227.657629,-9844.739029,2442.679609,2681.334243
1227.657950,-10066.800811,1776.494261,1915.238745
1227.658271,-10140.821405,296.082377,1455.581446
1227.658591,-10288.862594,74.020594,1455.581446
1227.658912,-10214.842000,-296.082377,1991.848295
1227.659233,-9770.718434,-740.205942,2451.505594
1227.659553,-9474.636058,-1554.432478,2604.724693
1227.659874,-8734.430116,-1924.535449,1685.410096
1227.660195,-8512.368333,-2072.576638,459.657299
1227.660515,-8438.347739,-1480.411884,766.095498
1227.660836,-9252.574275,222.061783,919.314598
1227.661157,-9622.677246,1036.288319,1455.581446
1227.661477,-9992.780217,814.226536,1762.019645
1227.661798,-10066.800811,-222.061783,1455.581446
1227.662119,-10140.821405,-518.144159,689.485948
1227.662440,-10140.821405,-962.267725,1149.143247
1227.662760,-10066.800811,-518.144159,2068.457845
1227.663081,-9844.739029,-444.123565,2298.286494
1227.663402,-9770.718434,-1258.350101,2221.676944
1227.663722,-8364.327145,-2368.659014,919.314598
1227.664043,-8734.430116,-2442.679609,153.219100
1227.664364,-9474.636058,-1406.391290,76.609550
1227.664684,-8734.430116,444.123565,536.266849
1227.665005,-9992.780217,888.247130,1225.752797
1227.665326,-9400.615463,1554.432478,1149.143247
1227.665646,-10214.842000,370.102971,1149.143247
1227.665967,-10362.883188,-592.164754,842.705048
1227.666288,-10288.862594,-222.061783,2068.457845
1227.666609,-10362.883188,-222.061783,2451.505594
1227.666929,-9770.718434,-1332.370696,1378.971896
1227.667250,-9400.615463,-2146.597232,995.924147
1227.667571,-8808.450710,-2368.659014,-229.828649
1227.667891,-9030.512492,-1554.432478,-536.266849
1227.668212,-8586.388927,-518.144159,-2145.067394
1227.668533,-8882.471304,1332.370696,-459.657299
1227.668853,-9622.677246,1406.391290,-306.438199
1227.669174,-9918.759623,1480.411884,612.876398
1227.669495,-9474.636058,444.123565,536.266849
1227.669815,-10288.862594,-518.144159,76.609550
1227.670136,-10066.800811,-222.061783,842.705048
1227.670457,-10362.883188,-370.102971,1225.752797
1227.670777,-9770.718434,-222.061783,1762.019645
1227.671098,-9326.594869,-740.205942,-1685.410096
1227.671419,-9030.512492,-1480.411884,919.314598
1227.671740,-8808.450710,-2220.617826,-153.219100
1227.672060,-9104.533087,-1776.494261,0.000000
1227.672381,-9326.594869,74.020594,306.438199
1227.672702,-9844.739029,1036.288319,1838.629195
1227.673022,-9992.780217,1480.411884,1838.629195
1227.673343,-9844.739029,444.123565,1838.629195
1227.673664,-10140.821405,-296.082377,1838.629195
1227.673984,-10288.862594,-740.205942,2834.553343
1227.674305,-9548.656652,-444.123565,2681.334243
1227.674626,-9474.636058,-1184.329507,2451.505594
1227.674946,-9030.512492,-1480.411884,2374.896044
1227.675267,-8586.388927,-1702.473667,1378.971896
1227.675588,-8660.409521,-1258.350101,3140.991542
1227.675909,-8956.491898,-148.041188,536.266849
1227.676229,-9474.636058,888.247130,1455.581446
1227.676550,-9770.718434,1628.453072,1608.800546
1227.676871,-10510.924376,1332.370696,2221.676944
1227.677191,-9548.656652,222.061783,919.314598
1227.677512,-9844.739029,0.000000,1302.362347
1227.677833,-9992.780217,-296.082377,1685.410096
1227.678153,-9844.739029,-296.082377,1838.629195
1227.678474,-9548.656652,-888.247130,2451.505594
1227.678795,-8956.491898,-1776.494261,919.314598
1227.679115,-8808.450710,-1998.556043,229.828649
1227.679436,-8882.471304,-1406.391290,0.000000
1227.679757,-9326.594869,222.061783,0.000000
1227.680078,-9918.759623,1702.473667,1532.190996
1227.680398,-10066.800811,1924.535449,1532.190996
1227.680719,-10066.800811,888.247130,1225.752797
1227.681040,-9770.718434,-370.102971,612.876398
1227.681360,-10510.924376,-1184.329507,766.095498
1227.681681,-9474.636058,-518.144159,1608.800546
1227.682002,-9918.759623,-1110.308913,1532.190996
1227.682322,-9326.594869,-1480.411884,1532.190996
1227.682643,-8882.471304,-2072.576638,459.657299
1227.682964,-8882.471304,-2072.576638,0.000000
1227.683284,-9326.594869,-222.061783,0.000000
1227.683605,-9030.512492,-296.082377,383.047749
1227.683926,-9696.697840,296.082377,842.705048
1227.684247,-9918.759623,666.185348,1378.971896
1227.684567,-10214.842000,370.102971,842.705048
1227.684888,-9326.594869,-1332.370696,1072.533697
1227.685209,-9770.718434,-148.041188,689.485948
1227.685529,-9844.739029,0.000000,1149.143247
1227.685850,-9770.718434,-518.144159,1149.143247
1227.686171,-9178.553681,-1110.308913,1149.143247
1227.686491,-9178.553681,-2072.576638,306.438199
1227.686812,-8734.430116,-2294.638420,229.828649
1227.687133,-9030.512492,-1480.411884,-153.219100
1227.687453,-9474.636058,148.041188,383.047749
1227.687774,-9474.636058,888.247130,1302.362347
1227.688095,-9696.697840,1184.329507,1762.019645
1227.688416,-10140.821405,222.061783,1838.629195
1227.688736,-9992.780217,-518.144159,1532.190996
1227.689057,-9918.759623,-962.267725,1762.019645
1227.689378,-9992.780217,-370.102971,2528.115143
1227.689698,-9474.636058,296.082377,2528.115143
1227.690019,-9400.615463,-962.267725,2298.286494
1227.690340,-9252.574275,-1332.370696,1608.800546
1227.690660,-8956.491898,-2220.617826,689.485948
1227.690981,-8734.430116,-814.226536,1838.629195
1227.691302,-9844.739029,296.082377,1302.362347
1227.691622,-10584.944971,1702.473667,1762.019645
1227.691943,-10066.800811,2072.576638,1762.019645
1227.692264,-10510.924376,1184.329507,1225.752797
1227.692585,-9918.759623,740.205942,459.657299
1227.692905,-10510.924376,0.000000,1149.143247
1227.693226,-9992.780217,0.000000,1608.800546
1227.693547,-9844.739029,-296.082377,1991.848295
1227.693867,-9770.718434,-444.123565,1838.629195
1227.694188,-9104.533087,-1406.391290,1608.800546
1227.694509,-9030.512492,-1998.556043,306.438199
1227.694829,-9178.553681,-1258.350101,153.219100
1227.695150,-8734.430116,74.020594,0.000000
1227.695471,-9474.636058,1554.432478,-536.266849
1227.695791,-9622.677246,1702.473667,1149.143247
1227.696112,-9770.718434,888.247130,995.924147
1227.696433,-9992.780217,0.000000,689.485948
1227.696754,-9992.780217,0.000000,689.485948
1227.697074,-9844.739029,222.061783,1762.019645
1227.697395,-9622.677246,0.000000,2374.896044
1227.697716,-9474.636058,-666.185348,2145.067394
1227.698036,-9104.533087,-1998.556043,842.705048
1227.698357,-8586.388927,-2294.638420,1302.362347
1227.698678,-8734.430116,-1110.308913,-842.705048
1227.698998,-9400.615463,222.061783,229.828649
1227.699319,-9696.697840,1628.453072,1532.190996
1227.699640,-10066.800811,1406.391290,1455.581446
1227.699960,-9992.780217,1702.473667,766.095498
1227.700281,-9844.739029,-370.102971,536.266849
1227.700602,-10140.821405,-592.164754,1072.533697
1227.700923,-10288.862594,-296.082377,1915.238745
1227.701243,-9696.697840,-666.185348,1838.629195
1227.701564,-8882.471304,-1036.288319,1149.143247
1227.701885,-8882.471304,-1850.514855,842.705048
1227.702205,-8956.491898,-2072.576638,306.438199
1227.702526,-8956.491898,-1554.432478,536.266849
1227.702847,-9326.594869,-296.082377,459.657299
1227.703167,-9918.759623,370.102971,919.314598
1227.703488,-10288.862594,888.247130,1072.533697
1227.703809,-9548.656652,2664.741391,2298.286494
1227.704129,-11473.192101,0.000000,2374.896044
1227.704450,-9770.718434,-814.226536,3064.381992
1227.704771,-10066.800811,-1702.473667,1915.238745
1227.705092,-10288.862594,-1628.453072,2298.286494
1227.705412,-9030.512492,-1998.556043,1762.019645
1227.705733,-9252.574275,-2442.679609,1072.533697
1227.706054,-8586.388927,-1110.308913,383.047749
1227.706374,-8142.265362,-1258.350101,-1149.143247
1227.706695,-9770.718434,740.205942,766.095498
1227.707016,-9622.677246,962.267725,1455.581446
1227.707336,-10140.821405,1036.288319,1532.190996
1227.707657,-10436.903782,-296.082377,2145.067394
1227.707978,-9326.594869,-592.164754,459.657299
1227.708298,-9844.739029,-962.267725,689.485948
1227.708619,-10066.800811,-592.164754,1608.800546
1227.708940,-9400.615463,-74.020594,1225.752797
1227.709261,-9326.594869,-1184.329507,1302.362347
1227.709581,-9104.533087,-1776.494261,306.438199
1227.709902,-8586.388927,-1554.432478,-153.219100
1227.710223,-9030.512492,-1110.308913,229.828649
1227.710543,-8956.491898,-370.102971,-2528.115143
1227.710864,-9622.677246,1554.432478,536.266849
1227.711185,-9844.739029,2072.576638,1455.581446
1227.711505,-10214.842000,1110.308913,1455.581446
1227.711826,-9992.780217,296.082377,1608.800546
1227.712147,-10288.862594,-962.267725,536.266849
1227.712467,-9770.718434,-444.123565,1685.410096
1227.712788,-9548.656652,-1184.329507,1915.238745
1227.713109,-9104.533087,-1036.288319,1608.800546
1227.713430,-9030.512492,-2516.700203,995.924147
1227.713750,-8660.409521,-1184.329507,-153.219100
1227.714071,-9474.636058,-370.102971,153.219100
1227.714392,-9474.636058,962.267725,766.095498
1227.714712,-10066.800811,2220.617826,1455.581446
1227.715033,-11029.068536,1702.473667,1378.971896
1227.715354,-9770.718434,740.205942,766.095498
1227.715674,-10140.821405,444.123565,383.047749
1227.715995,-10214.842000,74.020594,1302.362347
1227.716316,-9918.759623,0.000000,1455.581446
1227.716636,-9400.615463,-592.164754,1991.848295
1227.716957,-9474.636058,-1850.514855,1225.752797
1227.717278,-9104.533087,-1850.514855,383.047749
1227.717599,-9104.533087,-2368.659014,153.219100
1227.717919,-9104.533087,-444.123565,-306.438199
1227.718240,-8734.430116,592.164754,459.657299
1227.718561,-9548.656652,1480.411884,995.924147
1227.718881,-9918.759623,1406.391290,1685.410096
1227.719202,-9548.656652,370.102971,1072.533697
1227.719523,-10066.800811,592.164754,1225.752797
1227.719843,-10584.944971,-148.041188,1608.800546
1227.720164,-10066.800811,-370.102971,2834.553343
1227.720485,-10140.821405,-814.226536,3064.381992
1227.720805,-9030.512492,-2294.638420,2528.115143
1227.721126,-8364.327145,-2738.761985,842.705048
1227.721447,-8734.430116,-2516.700203,0.000000
1227.721768,-8216.285956,-962.267725,76.609550
1227.722088,-9400.615463,518.144159,612.876398
1227.722409,-9252.574275,1628.453072,995.924147
1227.722730,-9696.697840,666.185348,612.876398
1227.723050,-10288.862594,-518.144159,1225.752797
1227.723371,-10140.821405,-1258.350101,1302.362347
1227.723692,-10214.842000,-1480.411884,1225.752797
1227.724012,-10288.862594,-1258.350101,3217.601092
1227.724333,-9474.636058,-370.102971,2145.067394
1227.724654,-10066.800811,-1628.453072,1532.190996
1227.724974,-8512.368333,-1998.556043,-153.219100
1227.725295,-8734.430116,-1850.514855,-1378.971896
1227.725616,-9252.574275,0.000000,-2374.896044
1227.725937,-9474.636058,222.061783,-459.657299
1227.726257,-10140.821405,1332.370696,995.924147
1227.726578,-10510.924376,962.267725,1455.581446
1227.726899,-10066.800811,222.061783,612.876398
1227.727219,-10732.986159,-444.123565,1072.533697
1227.727540,-10362.883188,-888.247130,1991.848295
1227.727861,-10436.903782,-666.185348,2068.457845
1227.728181,-9622.677246,-1184.329507,2374.896044
1227.728502,-8734.430116,-1480.411884,1149.143247
1227.728823,-8734.430116,-2368.659014,-306.438199
1227.729143,-8512.368333,-1184.329507,-306.438199
1227.729464,-9252.574275,296.082377,766.095498
1227.729785,-10066.800811,1628.453072,1378.971896
1227.730106,-10436.903782,1110.308913,2298.286494
1227.730426,-10436.903782,740.205942,1838.629195
1227.730747,-10584.944971,0.000000,1991.848295
1227.731068,-10140.821405,0.000000,2145.067394
1227.731389,-10140.821405,222.061783,2298.286494
1227.731709,-9326.594869,-296.082377,2374.896044
1227.732030,-9548.656652,-740.205942,2145.067394
1227.732351,-9030.512492,-1406.391290,1149.143247
1227.732671,-8660.409521,-1554.432478,229.828649
1227.732992,-8290.306550,-962.267725,0.000000
1227.733313,-8956.491898,592.164754,-153.219100
1227.733634,-9030.512492,2294.638420,153.219100
1227.733954,-9622.677246,2738.761985,689.485948
1227.734275,-9844.739029,2368.659014,842.705048
1227.734596,-10214.842000,1406.391290,1455.581446
1227.734917,-10288.862594,222.061783,536.266849
1227.735237,-10214.842000,0.000000,2068.457845
1227.735558,-9918.759623,-740.205942,2451.505594
1227.735879,-9104.533087,-1850.514855,1762.019645
1227.736199,-7920.203579,-2664.741391,842.705048
1227.736520,-8438.347739,-2368.659014,-306.438199
1227.736841,-8290.306550,-1036.288319,-306.438199
1227.737162,-9104.533087,222.061783,0.000000
1227.737482,-9548.656652,1702.473667,1072.533697
1227.737803,-9770.718434,1110.308913,1149.143247
1227.738124,-10140.821405,222.061783,1225.752797
1227.738445,-10584.944971,-444.123565,1302.362347
1227.738765,-10732.986159,-814.226536,1685.410096
1227.739086,-10214.842000,-666.185348,2221.676944
1227.739407,-10214.842000,-370.102971,2145.067394
1227.739727,-9474.636058,-740.205942,2068.457845
1227.740048,-9252.574275,-1406.391290,1149.143247
1227.740369,-9030.512492,-1554.432478,0.000000
1227.740690,-8364.327145,-518.144159,383.047749
1227.741010,-8660.409521,814.226536,-306.438199
1227.741331,-9918.759623,962.267725,229.828649
1227.741652,-9030.512492,1924.535449,766.095498
1227.741973,-10362.883188,592.164754,1225.752797
1227.742293,-9770.718434,-1332.370696,1608.800546
1227.742614,-10436.903782,-1036.288319,1455.581446
1227.742935,-10658.965565,-1036.288319,1532.190996
1227.743256,-9622.677246,-592.164754,2145.067394
1227.743576,-9844.739029,-1184.329507,1991.848295
1227.743897,-9326.594869,-1628.453072,1532.190996
1227.744218,-8882.471304,-2220.617826,0.000000
1227.744538,-8956.491898,-1258.350101,0.000000
1227.744859,-9400.615463,222.061783,459.657299
1227.745180,-10584.944971,1110.308913,1072.533697
1227.745501,-10362.883188,962.267725,1838.629195
1227.745821,-10214.842000,74.020594,1378.971896
1227.746142,-9992.780217,-222.061783,1378.971896
1227.746463,-9844.739029,-370.102971,1378.971896
1227.746784,-9844.739029,-666.185348,1991.848295
1227.747104,-9474.636058,-592.164754,2068.457845
1227.747425,-9326.594869,-1406.391290,1685.410096
1227.747746,-8956.491898,-2146.597232,919.314598
1227.748066,-8660.409521,-2294.638420,0.000000
1227.748387,-9104.533087,-1258.350101,842.705048
1227.748708,-9400.615463,0.000000,766.095498
1227.749029,-9770.718434,1036.288319,1302.362347
1227.749349,-9844.739029,814.226536,1532.190996
1227.749670,-9992.780217,222.061783,3524.039291
1227.749991,-10214.842000,-888.247130,1532.190996
1227.750312,-10436.903782,-740.205942,1685.410096
1227.750632,-10214.842000,-592.164754,2068.457845
1227.750953,-9474.636058,-370.102971,1915.238745
1227.751274,-9178.553681,-1036.288319,2451.505594
1227.751594,-9030.512492,-1332.370696,306.438199
1227.751915,-8660.409521,-1258.350101,-229.828649
1227.752236,-8734.430116,-666.185348,-766.095498
1227.752557,-9030.512492,518.144159,0.000000
1227.752877,-9474.636058,1036.288319,153.219100
1227.753198,-9918.759623,888.247130,1149.143247
1227.753519,-9770.718434,296.082377,766.095498
1227.753840,-10140.821405,0.000000,919.314598
1227.754160,-10066.800811,666.185348,995.924147
1227.754481,-10214.842000,0.000000,1762.019645
1227.754802,-9770.718434,74.020594,1991.848295
1227.755123,-9474.636058,-666.185348,2145.067394
1227.755443,-9400.615463,-1332.370696,1302.362347
1227.755764,-8808.450710,-1036.288319,306.438199
1227.756085,-9104.533087,-814.226536,0.000000
1227.756405,-9548.656652,444.123565,766.095498
1227.756726,-9918.759623,1258.350101,1378.971896
1227.757047,-10140.821405,1110.308913,1685.410096
1227.757368,-9918.759623,1184.329507,995.924147
1227.757688,-9992.780217,222.061783,1302.362347
1227.758009,-10066.800811,148.041188,2068.457845
1227.758330,-9770.718434,-592.164754,1838.629195
1227.758651,-9178.553681,-888.247130,2221.676944
1227.758971,-9326.594869,-1850.514855,1915.238745
1227.759292,-8808.450710,-2220.617826,689.485948
1227.759613,-8808.450710,-2146.597232,153.219100
1227.759933,-8882.471304,-888.247130,459.657299
1227.760254,-10436.903782,296.082377,612.876398
1227.760575,-10066.800811,814.226536,2145.067394
1227.760896,-10436.903782,296.082377,2221.676944
1227.761216,-10362.883188,-296.082377,1302.362347
1227.761537,-9696.697840,-888.247130,919.314598
1227.761858,-9400.615463,-814.226536,0.000000
1227.762179,-9474.636058,-740.205942,1149.143247
1227.762499,-9104.533087,-1258.350101,1302.362347
1227.762820,-8882.471304,-1628.453072,1225.752797
1227.763141,-8956.491898,-2368.659014,1378.971896
1227.763461,-9030.512492,-2368.659014,0.000000
1227.763782,-9178.553681,-962.267725,0.000000
1227.764103,-9548.656652,444.123565,536.266849
1227.764424,-9918.759623,1554.432478,1302.362347
1227.764744,-9474.636058,222.061783,-383.047749
1227.765065,-9696.697840,518.144159,842.705048
1227.765386,-10362.883188,-222.061783,612.876398
1227.765707,-10214.842000,0.000000,689.485948
1227.766027,-9770.718434,222.061783,1302.362347
1227.766348,-9770.718434,-296.082377,1608.800546
1227.766669,-9252.574275,-592.164754,459.657299
1227.766990,-9178.553681,-1554.432478,459.657299
1227.767310,-9030.512492,-1702.473667,-153.219100
1227.767631,-9400.615463,-592.164754,0.000000
1227.767952,-9918.759623,296.082377,76.609550
1227.768272,-9918.759623,1628.453072,1302.362347
1227.768593,-10436.903782,1628.453072,1685.410096
1227.768914,-9992.780217,888.247130,919.314598
1227.769235,-9252.574275,74.020594,842.705048
1227.769555,-10436.903782,222.061783,1225.752797
1227.769876,-9992.780217,-222.061783,1532.190996
1227.770197,-9696.697840,-592.164754,1838.629195
1227.770518,-9400.615463,-1406.391290,1225.752797
1227.770838,-9992.780217,-1332.370696,306.438199
1227.771159,-9030.512492,-1924.535449,306.438199
1227.771480,-9474.636058,-444.123565,689.485948
1227.771800,-9474.636058,1184.329507,919.314598
1227.772121,-9844.739029,2220.617826,3370.820191
1227.772442,-9992.780217,888.247130,2145.067394
1227.772763,-9770.718434,148.041188,1302.362347
1227.773083,-10066.800811,-370.102971,1302.362347
1227.773404,-9770.718434,0.000000,1685.410096
1227.773725,-9400.615463,0.000000,4290.134789
1227.774046,-9548.656652,-148.041188,2374.896044
1227.774366,-9400.615463,-888.247130,2068.457845
1227.774687,-8956.491898,-1110.308913,612.876398
1227.775008,-8808.450710,-888.247130,306.438199
1227.775328,-9252.574275,0.000000,0.000000
1227.775649,-9252.574275,592.164754,1302.362347
1227.775970,-9548.656652,444.123565,1608.800546
1227.776291,-9548.656652,148.041188,1149.143247
1227.776611,-9548.656652,-370.102971,-689.485948
1227.776932,-9622.677246,-666.185348,766.095498
1227.777253,-10066.800811,-296.082377,2068.457845
1227.777574,-10066.800811,-518.144159,2068.457845
1227.777894,-9474.636058,-1480.411884,1838.629195
1227.778215,-8882.471304,-2664.741391,2451.505594
1227.778536,-9178.553681,-2664.741391,612.876398
1227.778857,-9252.574275,-2368.659014,-306.438199
1227.779177,-9030.512492,0.000000,-536.266849
1227.779498,-9474.636058,1554.432478,76.609550
1227.779819,-10066.800811,2294.638420,1455.581446
1227.780139,-10214.842000,1258.350101,995.924147
1227.780460,-9992.780217,370.102971,459.657299
1227.780781,-10288.862594,-370.102971,383.047749
1227.781102,-10362.883188,-370.102971,1225.752797
1227.781422,-10066.800811,-962.267725,1685.410096
1227.781743,-9696.697840,-1628.453072,1685.410096
1227.782064,-9104.533087,-2294.638420,919.314598
1227.782385,-8956.491898,-2442.679609,-306.438199
1227.782705,-9474.636058,-1554.432478,-1532.190996
1227.783026,-9178.553681,370.102971,-612.876398
1227.783347,-9918.759623,1480.411884,229.828649
1227.783667,-9474.636058,1776.494261,612.876398
1227.783988,-10140.821405,1184.329507,459.657299
1227.784309,-10732.986159,0.000000,1762.019645
1227.784630,-10214.842000,-666.185348,1072.533697
1227.784950,-10140.821405,-740.205942,1378.971896
1227.785271,-10140.821405,-740.205942,1762.019645
1227.785592,-9548.656652,-1110.308913,1762.019645
1227.785913,-9030.512492,-2442.679609,1149.143247
1227.786233,-8882.471304,-2146.597232,0.000000
1227.786554,-8956.491898,-1628.453072,-383.047749
1227.786875,-9104.533087,148.041188,306.438199
1227.787195,-10140.821405,1998.556043,689.485948
1227.787516,-9400.615463,2516.700203,1608.800546
1227.787837,-10510.924376,1258.350101,1378.971896
1227.788158,-9992.780217,444.123565,1838.629195
1227.788478,-9400.615463,-666.185348,1149.143247
1227.788799,-9992.780217,-296.082377,2911.162892
1227.789120,-9770.718434,-592.164754,2911.162892
1227.789441,-9474.636058,-1110.308913,2068.457845
1227.789761,-9474.636058,-1110.308913,1378.971896
1227.790082,-8882.471304,-1332.370696,2068.457845
1227.790403,-8290.306550,-222.061783,459.657299
1227.790724,-9548.656652,444.123565,612.876398
1227.791044,-9326.594869,1332.370696,995.924147
1227.791365,-9918.759623,888.247130,1762.019645
1227.791686,-9844.739029,0.000000,3524.039291
1227.792006,-9622.677246,-814.226536,1149.143247
1227.792327,-10140.821405,-1110.308913,1378.971896
1227.792648,-10066.800811,-592.164754,2221.676944
1227.792969,-10214.842000,-222.061783,2834.553343
1227.793289,-9844.739029,-1332.370696,2298.286494
1227.793610,-8956.491898,-2294.638420,1455.581446
1227.793931,-9030.512492,-2516.700203,0.000000
1227.794252,-9030.512492,-1702.473667,-229.828649
1227.794572,-9326.594869,222.061783,306.438199
1227.794893,-9474.636058,1184.329507,689.485948
1227.795214,-9696.697840,1406.391290,1225.752797
1227.795534,-10066.800811,296.082377,1225.752797
1227.795855,-9918.759623,-592.164754,1072.533697
1227.796176,-10510.924376,-592.164754,1302.362347
1227.796497,-10436.903782,-814.226536,2451.505594
1227.796817,-9474.636058,-1554.432478,2451.505594
1227.797138,-9696.697840,-2368.659014,2221.676944
1227.797459,-9030.512492,-3108.864956,1455.581446
1227.797780,-8882.471304,-3701.029710,612.876398
1227.798100,-8660.409521,-1258.350101,612.876398
1227.798421,-9178.553681,0.000000,689.485948
1227.798742,-9474.636058,1406.391290,1149.143247
1227.799063,-9622.677246,888.247130,1378.971896
1227.799383,-8882.471304,0.000000,1072.533697
1227.799704,-9770.718434,-1184.329507,459.657299
1227.800025,-9918.759623,-1554.432478,995.924147
1227.800345,-9770.718434,-1332.370696,1608.800546
1227.800666,-9548.656652,-666.185348,5439.278036
1227.800987,-9474.636058,-814.226536,2145.067394
1227.801308,-9400.615463,-1184.329507,1225.752797
1227.801628,-9252.574275,-1776.494261,612.876398
1227.801949,-9400.615463,-1110.308913,0.000000
1227.802270,-9104.533087,0.000000,153.219100
1227.802591,-9622.677246,148.041188,459.657299
1227.802911,-9770.718434,370.102971,995.924147
1227.803232,-10066.800811,148.041188,919.314598
1227.803553,-10066.800811,148.041188,1072.533697
1227.803873,-10362.883188,148.041188,1302.362347
1227.804194,-9992.780217,222.061783,1915.238745
1227.804515,-10140.821405,-74.020594,1991.848295
1227.804836,-9770.718434,-814.226536,2145.067394
1227.805156,-9400.615463,-1998.556043,-1149.143247
1227.805477,-8586.388927,-1998.556043,-536.266849
1227.805798,-9252.574275,-148.041188,-306.438199
1227.806119,-9622.677246,1332.370696,536.266849
1227.806439,-9992.780217,2368.659014,1149.143247
1227.806760,-10510.924376,2664.741391,766.095498
1227.807081,-10066.800811,1110.308913,919.314598
1227.807401,-10584.944971,518.144159,919.314598
1227.807722,-10510.924376,222.061783,1378.971896
1227.808043,-10140.821405,222.061783,2604.724693
1227.808364,-9474.636058,0.000000,3907.087040
1227.808684,-9474.636058,-592.164754,1915.238745
1227.809005,-8808.450710,-1036.288319,536.266849
1227.809326,-8586.388927,0.000000,459.657299
1227.809647,-9844.739029,962.267725,76.609550
1227.809967,-9622.677246,4071.132681,536.266849
1227.810288,-9696.697840,2812.782580,459.657299
1227.810609,-10214.842000,2516.700203,1378.971896
1227.810930,-9622.677246,888.247130,919.314598
1227.811250,-10584.944971,74.020594,1915.238745
1227.811571,-10881.027347,0.000000,1302.362347
1227.811892,-10066.800811,-740.205942,2374.896044
1227.812212,-9622.677246,-1184.329507,2681.334243
1227.812533,-8882.471304,-2442.679609,1532.190996
1227.812854,-7920.203579,-2146.597232,536.266849
1227.813175,-8512.368333,-1998.556043,0.000000
1227.813495,-8512.368333,0.000000,0.000000
1227.813816,-9030.512492,1184.329507,459.657299
1227.814137,-9844.739029,814.226536,1225.752797
1227.814458,-9548.656652,518.144159,1532.190996
1227.814778,-10140.821405,0.000000,1072.533697
1227.815099,-10510.924376,-370.102971,1838.629195
1227.815420,-10066.800811,-518.144159,2451.505594
1227.815740,-10362.883188,-962.267725,2681.334243
1227.816061,-9474.636058,-1184.329507,2451.505594
1227.816382,-8956.491898,-2220.617826,459.657299
1227.816703,-8734.430116,-3182.885551,0.000000
1227.817023,-8438.347739,-2146.597232,0.000000
1227.817344,-8882.471304,-1184.329507,-306.438199
1227.817665,-9252.574275,666.185348,229.828649
1227.817986,-10436.903782,2368.659014,995.924147
1227.818306,-9696.697840,1258.350101,1072.533697
1227.818627,-10288.862594,296.082377,842.705048
1227.818948,-10066.800811,-148.041188,689.485948
1227.819268,-10362.883188,-518.144159,1225.752797
1227.819589,-10214.842000,222.061783,1532.190996
1227.819910,-10140.821405,-1332.370696,1532.190996
1227.820231,-10140.821405,-2368.659014,842.705048
1227.820551,-8882.471304,-1776.494261,-306.438199
1227.820872,-9178.553681,-2368.659014,-1225.752797
1227.821193,-8586.388927,296.082377,-842.705048
1227.821514,-10436.903782,74.020594,229.828649
1227.821834,-9770.718434,1184.329507,383.047749
1227.822155,-10658.965565,518.144159,1149.143247
1227.822476,-10140.821405,-1776.494261,995.924147
1227.822797,-10955.047942,-1258.350101,1762.019645
1227.823117,-10807.006753,-1258.350101,1762.019645
1227.823438,-9992.780217,-814.226536,2068.457845
1227.823759,-9474.636058,-1332.370696,1991.848295
1227.824079,-9326.594869,-2368.659014,1685.410096
1227.824400,-8438.347739,-2368.659014,459.657299
1227.824721,-8660.409521,-1850.514855,-306.438199
1227.825042,-8438.347739,-592.164754,0.000000
1227.825362,-9252.574275,296.082377,0.000000
1227.825683,-9104.533087,1628.453072,1455.581446
1227.826004,-9474.636058,1036.288319,1149.143247
1227.826325,-9474.636058,740.205942,995.924147
1227.826645,-10140.821405,-518.144159,1378.971896
1227.826966,-9622.677246,-962.267725,1991.848295
1227.827287,-9844.739029,-1480.411884,2757.943793
1227.827607,-9770.718434,-2220.617826,2681.334243
1227.827928,-9178.553681,-2442.679609,1302.362347
1227.828249,-8586.388927,-2368.659014,383.047749
1227.828570,-8142.265362,-518.144159,-689.485948
1227.828890,-8660.409521,814.226536,459.657299
1227.829211,-9548.656652,2220.617826,1225.752797
1227.829532,-10066.800811,1924.535449,1762.019645
1227.829853,-10288.862594,1406.391290,1455.581446
1227.830173,-10510.924376,518.144159,1072.533697
1227.830494,-10732.986159,148.041188,1838.629195
1227.830815,-10584.944971,222.061783,2681.334243
1227.831135,-10066.800811,74.020594,2604.724693
1227.831456,-9622.677246,-444.123565,2374.896044
1227.831777,-9400.615463,-1480.411884,1302.362347
1227.832098,-8882.471304,-1924.535449,842.705048
1227.832418,-8956.491898,-1184.329507,153.219100
1227.832739,-9252.574275,518.144159,612.876398
1227.833060,-9474.636058,2146.597232,-1149.143247
1227.833381,-10066.800811,1998.556043,1991.848295
1227.833702,-10658.965565,666.185348,1838.629195
1227.834022,-10658.965565,-74.020594,2145.067394
1227.834343,-10732.986159,-962.267725,2145.067394
1227.834664,-10362.883188,-666.185348,3064.381992
1227.834985,-10066.800811,-1258.350101,2221.676944
1227.835306,-9622.677246,-1924.535449,1915.238745
1227.835627,-9030.512492,-2368.659014,459.657299
1227.835947,-8142.265362,-2294.638420,-1149.143247
1227.836268,-7920.203579,-888.247130,-1225.752797
1227.836589,-9030.512492,666.185348,-766.095498
1227.836910,-9474.636058,1628.453072,0.000000
1227.837231,-9622.677246,1480.411884,459.657299
1227.837551,-9770.718434,1406.391290,229.828649
1227.837872,-9918.759623,-888.247130,0.000000
1227.838193,-9844.739029,-1332.370696,536.266849
1227.838514,-9918.759623,-1184.329507,1302.362347
1227.838835,-9474.636058,-888.247130,1838.629195
1227.839155,-9770.718434,-1258.350101,2145.067394
1227.839476,-8882.471304,-1702.473667,383.047749
1227.839797,-8586.388927,-1850.514855,-383.047749
1227.840118,-8734.430116,-962.267725,-383.047749
1227.840439,-9030.512492,222.061783,0.000000
1227.840759,-9474.636058,1480.411884,919.314598
1227.841080,-10066.800811,1110.308913,1302.362347
1227.841401,-10140.821405,1184.329507,1149.143247
1227.841722,-10214.842000,444.123565,1608.800546
1227.842043,-10658.965565,0.000000,1991.848295
1227.842363,-10288.862594,74.020594,2681.334243
1227.842684,-9992.780217,-1480.411884,2757.943793
1227.843005,-9252.574275,-2294.638420,2068.457845
1227.843326,-9104.533087,-3108.864956,1532.190996
1227.843647,-8142.265362,-1998.556043,306.438199
1227.843967,-8586.388927,-148.041188,0.000000
1227.844288,-9474.636058,1406.391290,995.924147
1227.844609,-9770.718434,2220.617826,1685.410096
1227.844930,-10584.944971,1480.411884,1838.629195
1227.845251,-10807.006753,814.226536,1532.190996
1227.845571,-10584.944971,0.000000,1072.533697
1227.845892,-10881.027347,74.020594,1991.848295
1227.846213,-10066.800811,592.164754,2528.115143
1227.846534,-10066.800811,444.123565,2374.896044
1227.846855,-8956.491898,0.000000,1455.581446
1227.847175,-8956.491898,-1850.514855,766.095498
1227.847496,-8956.491898,-2294.638420,153.219100
1227.847817,-9030.512492,-814.226536,0.000000
1227.848138,-9400.615463,888.247130,766.095498
1227.848459,-9918.759623,1554.432478,1608.800546
1227.848779,-9770.718434,1554.432478,1915.238745
1227.849100,-9918.759623,518.144159,1685.410096
1227.849421,-10214.842000,-518.144159,1532.190996
1227.849742,-10140.821405,-592.164754,2528.115143
1227.850063,-9992.780217,-888.247130,2298.286494
1227.850383,-9252.574275,-1036.288319,1532.190996
1227.850704,-8808.450710,-1406.391290,1072.533697
1227.851025,-8586.388927,-2072.576638,612.876398
1227.851346,-8512.368333,-1332.370696,-1915.238745
1227.851667,-8956.491898,-814.226536,-536.266849
1227.851988,-9474.636058,518.144159,0.000000
1227.852308,-9770.718434,1036.288319,153.219100
1227.852629,-10066.800811,1406.391290,612.876398
1227.852950,-9844.739029,1184.329507,612.876398
1227.853271,-9770.718434,74.020594,612.876398
1227.853592,-10066.800811,0.000000,689.485948
1227.853912,-10140.821405,-370.102971,1685.410096
1227.854233,-9844.739029,-962.267725,2451.505594
1227.854554,-8956.491898,-1776.494261,1149.143247
1227.854875,-8882.471304,-1850.514855,0.000000
1227.855196,-8808.450710,-1406.391290,-612.876398
1227.855516,-9252.574275,-222.061783,0.000000
1227.855837,-8956.491898,592.164754,383.047749
1227.856158,-9770.718434,1036.288319,1149.143247
1227.856479,-10436.903782,592.164754,1455.581446
1227.856800,-10140.821405,0.000000,1302.362347
1227.857120,-10066.800811,-444.123565,1149.143247
1227.857441,-10066.800811,296.082377,1378.971896
1227.857762,-9992.780217,-222.061783,1991.848295
1227.858083,-9474.636058,-962.267725,1991.848295
1227.858404,-9474.636058,-1998.556043,1838.629195
1227.858724,-9030.512492,-2368.659014,153.219100
1227.859045,-9030.512492,-1258.350101,-306.438199
1227.859366,-8808.450710,0.000000,536.266849
1227.859687,-9770.718434,1110.308913,1072.533697
1227.860008,-9696.697840,1332.370696,1378.971896
1227.860328,-10510.924376,740.205942,1378.971896
1227.860649,-10436.903782,0.000000,919.314598
1227.860970,-10288.862594,-444.123565,1072.533697
1227.861291,-10140.821405,-148.041188,1685.410096
1227.861612,-9918.759623,0.000000,1991.848295
1227.861932,-9252.574275,-1480.411884,2221.676944
1227.862253,-9178.553681,-1924.535449,1378.971896
1227.862574,-8734.430116,-2812.782580,995.924147
1227.862895,-8956.491898,-2516.700203,229.828649
1227.863216,-8808.450710,-888.247130,383.047749
1227.863536,-8364.327145,148.041188,0.000000
1227.863857,-9474.636058,1850.514855,1149.143247
1227.864178,-10066.800811,1702.473667,1685.410096
1227.864499,-9844.739029,370.102971,1225.752797
1227.864820,-9622.677246,-370.102971,76.609550
1227.865140,-9992.780217,-370.102971,1455.581446
1227.865461,-9918.759623,-518.144159,2451.505594
1227.865782,-9400.615463,-1332.370696,1991.848295
1227.866103,-9252.574275,-1776.494261,1302.362347
1227.866424,-8586.388927,-1850.514855,1072.533697
1227.866744,-8586.388927,-518.144159,-459.657299
1227.867065,-9400.615463,370.102971,229.828649
1227.867386,-9474.636058,1776.494261,0.000000
1227.867707,-10362.883188,2220.617826,1302.362347
1227.868028,-10658.965565,962.267725,1915.238745
1227.868348,-10214.842000,370.102971,1225.752797
1227.868669,-10732.986159,-222.061783,1072.533697
1227.868990,-10362.883188,-74.020594,1302.362347
1227.869311,-10510.924376,148.041188,995.924147
1227.869632,-10066.800811,-370.102971,1762.019645
1227.869953,-8882.471304,-1036.288319,689.485948
1227.870273,-8882.471304,-1850.514855,0.000000
1227.870594,-9104.533087,-1628.453072,-229.828649
1227.870915,-9252.574275,-444.123565,1532.190996
1227.871236,-9844.739029,444.123565,919.314598
1227.871557,-10066.800811,666.185348,1838.629195
1227.871877,-10584.944971,518.144159,2298.286494
1227.872198,-10584.944971,-74.020594,1991.848295
1227.872519,-10214.842000,-296.082377,766.095498
1227.872840,-9770.718434,0.000000,1838.629195
1227.873161,-9252.574275,-518.144159,1838.629195
1227.873481,-9178.553681,-888.247130,2068.457845
1227.873802,-8586.388927,-2146.597232,1225.752797
1227.874123,-8290.306550,-2368.659014,766.095498
1227.874444,-8734.430116,-1480.411884,536.266849
1227.874765,-9030.512492,0.000000,612.876398
1227.875085,-9548.656652,814.226536,1455.581446
1227.875406,-9326.594869,888.247130,2451.505594
1227.875727,-9770.718434,222.061783,1532.190996
1227.876048,-9918.759623,-444.123565,766.095498
1227.876369,-9918.759623,-962.267725,1302.362347
1227.876689,-9992.780217,-1184.329507,995.924147
1227.877010,-9844.739029,-370.102971,2068.457845
1227.877331,-9770.718434,-962.267725,2145.067394
1227.877652,-9326.594869,-1924.535449,1762.019645
1227.877973,-9104.533087,-2368.659014,766.095498
1227.878293,-9400.615463,-2072.576638,383.047749
1227.878614,-9252.574275,-592.164754,995.924147
1227.878935,-9548.656652,888.247130,459.657299
1227.879256,-9622.677246,1850.514855,919.314598
1227.879577,-9918.759623,1258.350101,842.705048
1227.879897,-9992.780217,666.185348,842.705048
1227.880218,-10436.903782,-444.123565,1225.752797
1227.880539,-10140.821405,-1184.329507,1532.190996
1227.880860,-9992.780217,-962.267725,1991.848295
1227.881181,-10066.800811,-1184.329507,2068.457845
1227.881501,-8660.409521,-1850.514855,1915.238745
1227.881822,-9030.512492,-1776.494261,153.219100
1227.882143,-8586.388927,-740.205942,-76.609550
1227.882464,-9400.615463,814.226536,0.000000
1227.882785,-9992.780217,1628.453072,1225.752797
1227.883105,-10140.821405,814.226536,1762.019645
1227.883426,-9918.759623,74.020594,689.485948
1227.883747,-9844.739029,-444.123565,306.438199
1227.884068,-10140.821405,-592.164754,536.266849
1227.884389,-9992.780217,0.000000,2068.457845
1227.884709,-10362.883188,-962.267725,1915.238745
1227.885030,-9104.533087,-444.123565,1532.190996
1227.885351,-9400.615463,-1628.453072,689.485948
1227.885672,-8956.491898,-1776.494261,76.609550
1227.885993,-8734.430116,-1036.288319,-1532.190996
1227.886314,-9252.574275,592.164754,0.000000
1227.886634,-9474.636058,1776.494261,689.485948
1227.886955,-9844.739029,1924.535449,1608.800546
1227.887276,-10214.842000,444.123565,1302.362347
1227.887597,-9548.656652,-444.123565,76.609550
1227.887918,-10288.862594,-222.061783,995.924147
1227.888238,-9844.739029,0.000000,1685.410096
1227.888559,-9474.636058,444.123565,2298.286494
1227.888880,-9400.615463,-444.123565,2298.286494
1227.889201,-8734.430116,-2072.576638,1149.143247
1227.889522,-8438.347739,-1998.556043,919.314598
1227.889842,-8956.491898,-1184.329507,306.438199
1227.890163,-9400.615463,518.144159,1072.533697
1227.890484,-9770.718434,2368.659014,1991.848295
1227.890805,-9992.780217,1628.453072,1915.238745
1227.891126,-9918.759623,888.247130,1149.143247
1227.891446,-9696.697840,0.000000,842.705048
1227.891767,-9918.759623,-222.061783,1225.752797
1227.892088,-9696.697840,-296.082377,2451.505594
1227.892409,-9770.718434,-222.061783,1991.848295
1227.892730,-9548.656652,-1184.329507,1991.848295
1227.893050,-9178.553681,-2146.597232,1149.143247
1227.893371,-8956.491898,-2516.700203,76.609550
1227.893692,-8586.388927,-1628.453072,0.000000
1227.894013,-9400.615463,0.000000,229.828649
1227.894334,-9474.636058,1480.411884,919.314598
1227.894654,-9992.780217,1628.453072,1455.581446
1227.894975,-9474.636058,814.226536,842.705048
1227.895296,-9992.780217,0.000000,1378.971896
1227.895617,-9918.759623,-740.205942,1455.581446
1227.895938,-10066.800811,-962.267725,1915.238745
1227.896258,-9326.594869,-1110.308913,2374.896044
1227.896579,-9474.636058,-2812.782580,2451.505594
1227.896900,-9030.512492,-2442.679609,1685.410096
1227.897221,-9178.553681,-2590.720797,76.609550
1227.897542,-9030.512492,-370.102971,76.609550
1227.897862,-9326.594869,296.082377,153.219100
1227.898183,-9622.677246,1406.391290,1685.410096
1227.898504,-10955.047942,888.247130,1838.629195
1227.898825,-9474.636058,148.041188,229.828649
1227.899146,-10288.862594,-148.041188,383.047749
1227.899466,-8808.450710,-740.205942,76.609550
1227.899787,-9770.718434,74.020594,842.705048
1227.900108,-10214.842000,-666.185348,1302.362347
1227.900429,-8808.450710,-1036.288319,612.876398
1227.900750,-9030.512492,-1924.535449,76.609550
1227.901070,-8882.471304,-1406.391290,-689.485948
1227.901391,-9252.574275,-888.247130,229.828649
1227.901712,-9918.759623,740.205942,1608.800546
1227.902033,-10140.821405,1184.329507,2068.457845
1227.902354,-10288.862594,666.185348,1915.238745
1227.902674,-9770.718434,-518.144159,2911.162892
1227.902995,-9992.780217,-1110.308913,1532.190996
1227.903316,-9992.780217,-592.164754,1991.848295
1227.903637,-9918.759623,-296.082377,2451.505594
1227.903958,-9104.533087,0.000000,5286.058936
1227.904279,-9178.553681,-1850.514855,2145.067394
1227.904599,-8660.409521,-3330.926739,306.438199
1227.904920,-7920.203579,-2368.659014,-612.876398
1227.905241,-8660.409521,-888.247130,-1225.752797
1227.905562,-8586.388927,1258.350101,1072.533697
1227.905883,-9622.677246,1998.556043,689.485948
1227.906203,-9326.594869,1406.391290,842.705048
1227.906524,-10066.800811,222.061783,536.266849
1227.906845,-10436.903782,-814.226536,1302.362347
1227.907166,-11251.130318,-1110.308913,2298.286494
1227.907487,-11103.089130,-1036.288319,2757.943793
1227.907807,-9770.718434,-740.205942,2374.896044
1227.908128,-9770.718434,-1258.350101,2145.067394
1227.908449,-9030.512492,-1850.514855,995.924147
1227.908770,-8068.244768,-1924.535449,-536.266849
1227.909091,-8808.450710,-592.164754,-766.095498
1227.909411,-9400.615463,888.247130,76.609550
1227.909732,-9252.574275,1480.411884,459.657299
1227.910053,-9770.718434,2442.679609,1072.533697
1227.910374,-10214.842000,888.247130,919.314598
1227.910695,-10362.883188,0.000000,2145.067394
1227.911015,-10732.986159,-740.205942,2451.505594
1227.911336,-10288.862594,-888.247130,2834.553343
1227.911657,-9548.656652,-740.205942,3677.258390
1227.911978,-9474.636058,-1554.432478,2451.505594
1227.912299,-8734.430116,-1776.494261,1149.143247
1227.912619,-8290.306550,-1258.350101,0.000000
1227.912940,-9178.553681,-296.082377,306.438199
1227.913261,-9400.615463,814.226536,689.485948
1227.913582,-9622.677246,1554.432478,689.485948
1227.913903,-10214.842000,1332.370696,1302.362347
1227.914223,-9992.780217,444.123565,919.314598
1227.914544,-10288.862594,296.082377,1685.410096
1227.914865,-10288.862594,-148.041188,1915.238745
1227.915186,-10214.842000,-296.082377,2068.457845
1227.915507,-9918.759623,-1258.350101,2298.286494
1227.915827,-9474.636058,-2294.638420,1225.752797
1227.916148,-8734.430116,-2146.597232,-229.828649
1227.916469,-8660.409521,-1850.514855,-153.219100
1227.916790,-8660.409521,-814.226536,0.000000
1227.917111,-8882.471304,518.144159,306.438199
1227.917431,-9474.636058,1184.329507,536.266849
1227.917752,-9326.594869,1406.391290,76.609550
1227.918073,-9844.739029,592.164754,1455.581446
1227.918394,-10436.903782,-148.041188,1762.019645
1227.918715,-10140.821405,-370.102971,2374.896044
1227.919035,-10214.842000,-888.247130,2757.943793
1227.919356,-9918.759623,-1258.350101,2834.553343
1227.919677,-9622.677246,-1702.473667,1762.019645
1227.919998,-8808.450710,-2146.597232,229.828649
1227.920319,-8808.450710,-1110.308913,-306.438199
1227.920639,-8956.491898,370.102971,-76.609550
1227.920960,-9252.574275,2220.617826,0.000000
1227.921281,-9696.697840,1998.556043,612.876398
1227.921602,-9770.718434,666.185348,536.266849
1227.921923,-9548.656652,-370.102971,153.219100
1227.922244,-10658.965565,0.000000,919.314598
1227.922564,-10214.842000,-296.082377,1762.019645
1227.922885,-10140.821405,0.000000,2528.115143
1227.923206,-9696.697840,0.000000,2528.115143
1227.923527,-9548.656652,-592.164754,1378.971896
1227.923848,-9474.636058,-1258.350101,0.000000
1227.924168,-9104.533087,-1110.308913,0.000000
1227.924489,-9030.512492,0.000000,0.000000
1227.924810,-9548.656652,962.267725,612.876398
1227.925131,-9696.697840,1702.473667,2145.067394
1227.925452,-10214.842000,1110.308913,1455.581446
1227.925772,-10066.800811,148.041188,1225.752797
1227.926093,-10510.924376,-666.185348,1302.362347
1227.926414,-10066.800811,-740.205942,1838.629195
1227.926735,-9622.677246,-592.164754,2451.505594
1227.927056,-9548.656652,-1480.411884,1915.238745
1227.927376,-8882.471304,-2442.679609,1225.752797
1227.927697,-8586.388927,-3330.926739,-229.828649
1227.928018,-7920.203579,-370.102971,-153.219100
1227.928339,-10362.883188,740.205942,459.657299
1227.928660,-8808.450710,2294.638420,2298.286494
1227.928980,-10658.965565,666.185348,1685.410096
1227.929301,-10732.986159,962.267725,2298.286494
1227.929622,-9622.677246,-1110.308913,0.000000
1227.929943,-10066.800811,-518.144159,1149.143247
1227.930264,-10658.965565,-296.082377,2145.067394
1227.930584,-9104.533087,-888.247130,1991.848295
1227.930905,-9918.759623,-1480.411884,2757.943793
1227.931226,-7920.203579,-2664.741391,842.705048
1227.931547,-9474.636058,-2368.659014,689.485948
1227.931868,-9474.636058,-1924.535449,1532.190996
1227.932188,-8882.471304,-518.144159,153.219100
1227.932509,-9548.656652,888.247130,842.705048
1227.932830,-10288.862594,1036.288319,0.000000
1227.933151,-10066.800811,518.144159,1685.410096
1227.933471,-10362.883188,-888.247130,1378.971896
1227.933792,-10066.800811,-1184.329507,1072.533697
1227.934113,-10066.800811,-666.185348,1608.800546
1227.934434,-10584.944971,-1480.411884,2987.772442
1227.934755,-9474.636058,-1184.329507,1838.629195
1227.935075,-9252.574275,-1776.494261,536.266849
1227.935396,-8734.430116,-1702.473667,-306.438199
1227.935717,-9400.615463,-740.205942,-229.828649
1227.936038,-9474.636058,740.205942,766.095498
1227.936358,-9918.759623,1332.370696,689.485948
1227.936679,-10066.800811,1258.350101,536.266849
1227.937000,-9844.739029,74.020594,76.609550
1227.937321,-9918.759623,0.000000,383.047749
1227.937642,-10362.883188,370.102971,536.266849
1227.937962,-10066.800811,148.041188,1378.971896
1227.938283,-9918.759623,-666.185348,1455.581446
1227.938604,-9474.636058,-1332.370696,919.314598
1227.938925,-8586.388927,-1924.535449,0.000000
1227.939245,-8808.450710,-2146.597232,0.000000
1227.939566,-8808.450710,-962.267725,-383.047749
1227.939887,-9326.594869,1036.288319,0.000000
1227.940208,-9844.739029,1850.514855,536.266849
1227.940529,-10214.842000,2294.638420,2298.286494
1227.940849,-9992.780217,814.226536,1532.190996
1227.941170,-9992.780217,-740.205942,1455.581446
1227.941491,-9844.739029,-962.267725,1532.190996
1227.941812,-9844.739029,-1036.288319,1991.848295
1227.942132,-9474.636058,-444.123565,2757.943793
1227.942453,-8956.491898,-1776.494261,2068.457845
1227.942774,-8364.327145,-2368.659014,995.924147
1227.943095,-8290.306550,-1184.329507,0.000000
1227.943416,-9030.512492,444.123565,229.828649
1227.943736,-9622.677246,2516.700203,1072.533697
1227.944057,-9844.739029,2590.720797,2374.896044
1227.944378,-10288.862594,1036.288319,1532.190996
1227.944699,-9696.697840,740.205942,1072.533697
1227.945019,-10510.924376,0.000000,1072.533697
1227.945340,-9474.636058,222.061783,1378.971896
1227.945661,-10140.821405,370.102971,2451.505594
1227.945982,-9400.615463,222.061783,1991.848295
1227.946303,-9622.677246,-962.267725,1762.019645
1227.946623,-9474.636058,-2146.597232,995.924147
1227.946944,-9030.512492,-1702.473667,0.000000
1227.947265,-9252.574275,-1184.329507,153.219100
1227.947586,-9400.615463,740.205942,536.266849
1227.947906,-9992.780217,1628.453072,1149.143247
1227.948227,-10140.821405,1480.411884,3370.820191
1227.948548,-9992.780217,296.082377,1915.238745
1227.948869,-10362.883188,-1110.308913,1378.971896
1227.949190,-10214.842000,-1110.308913,1072.533697
1227.949510,-10066.800811,-888.247130,1991.848295
1227.949831,-9400.615463,-296.082377,2451.505594
1227.950152,-9400.615463,-2146.597232,2145.067394
1227.950473,-8660.409521,-2738.761985,842.705048
1227.950793,-8808.450710,-2368.659014,0.000000
1227.951114,-9104.533087,-962.267725,0.000000
1227.951435,-10214.842000,888.247130,1225.752797
1227.951756,-9918.759623,1036.288319,1685.410096
1227.952076,-10066.800811,666.185348,1225.752797
1227.952397,-9844.739029,-592.164754,842.705048
1227.952718,-9622.677246,-814.226536,383.047749
1227.953039,-9622.677246,-1036.288319,1072.533697
1227.953360,-9474.636058,-740.205942,1149.143247
1227.953680,-9548.656652,-370.102971,1915.238745
1227.954001,-9252.574275,-1184.329507,842.705048
1227.954322,-9030.512492,-1850.514855,1991.848295
1227.954643,-8956.491898,-2146.597232,-306.438199
1227.954963,-9252.574275,-740.205942,0.000000
1227.955284,-9474.636058,370.102971,229.828649
1227.955605,-9474.636058,962.267725,689.485948
1227.955926,-9252.574275,962.267725,842.705048
1227.956247,-9770.718434,0.000000,536.266849
1227.956567,-9918.759623,-666.185348,536.266849
1227.956888,-10362.883188,-592.164754,1378.971896
1227.957209,-9918.759623,-518.144159,2145.067394
1227.957530,-9770.718434,-444.123565,1685.410096
1227.957850,-9548.656652,-1924.535449,2221.676944
1227.958171,-8882.471304,-2516.700203,766.095498
1227.958492,-9178.553681,-1258.350101,459.657299
1227.958813,-9474.636058,296.082377,689.485948
1227.959134,-10066.800811,1924.535449,2068.457845
1227.959454,-9992.780217,1850.514855,2068.457845
1227.959775,-10362.883188,518.144159,1302.362347
1227.960096,-9622.677246,0.000000,689.485948
1227.960417,-10510.924376,-666.185348,-1225.752797
1227.960737,-9992.780217,-296.082377,1455.581446
1227.961058,-9992.780217,-222.061783,2374.896044
1227.961379,-9622.677246,-444.123565,2145.067394
1227.961700,-9252.574275,-962.267725,1072.533697
1227.962021,-9474.636058,-1110.308913,1991.848295
1227.962341,-9030.512492,-1110.308913,306.438199
1227.962662,-9474.636058,370.102971,229.828649
1227.962983,-9474.636058,1554.432478,536.266849
1227.963304,-9770.718434,1924.535449,1072.533697
1227.963624,-10066.800811,1036.288319,1991.848295
1227.963945,-9918.759623,518.144159,1225.752797
1227.964266,-10140.821405,-222.061783,1072.533697
1227.964587,-10066.800811,74.020594,1072.533697
1227.964908,-9474.636058,222.061783,1838.629195
1227.965228,-9252.574275,-1110.308913,1608.800546
1227.965549,-8882.471304,-1628.453072,1225.752797
1227.965870,-8142.265362,-2072.576638,-153.219100
1227.966191,-8586.388927,-1480.411884,0.000000
1227.966511,-9178.553681,592.164754,-1149.143247
1227.966832,-10214.842000,2146.597232,995.924147
1227.967153,-10066.800811,1776.494261,1455.581446
1227.967474,-10214.842000,1036.288319,1149.143247
1227.967795,-9770.718434,-222.061783,766.095498
1227.968115,-9474.636058,-814.226536,-306.438199
1227.968436,-9844.739029,-962.267725,1838.629195
1227.968757,-9696.697840,-814.226536,2374.896044
1227.969078,-9030.512492,-814.226536,2145.067394
1227.969398,-9474.636058,-2146.597232,1302.362347
1227.969719,-8660.409521,-3552.988522,383.047749
1227.970040,-9030.512492,-1998.556043,0.000000
1227.970361,-9252.574275,0.000000,76.609550
1227.970682,-9770.718434,1110.308913,919.314598
1227.971002,-10140.821405,1776.494261,1762.019645
1227.971323,-9696.697840,148.041188,1149.143247
1227.971644,-10066.800811,-666.185348,995.924147
1227.971965,-10214.842000,-518.144159,1302.362347
1227.972285,-10658.965565,-444.123565,1838.629195
1227.972606,-9326.594869,-962.267725,2451.505594
1227.972927,-9770.718434,-1480.411884,1762.019645
1227.973248,-8882.471304,-1628.453072,766.095498
1227.973568,-8734.430116,-1998.556043,76.609550
1227.973889,-9252.574275,-1036.288319,76.609550
1227.974210,-9400.615463,296.082377,3524.039291
1227.974531,-10362.883188,1406.391290,1455.581446
1227.974852,-10066.800811,1776.494261,1378.971896
1227.975172,-10732.986159,666.185348,1225.752797
1227.975493,-10066.800811,0.000000,842.705048
1227.975814,-10066.800811,444.123565,1302.362347
1227.976135,-10288.862594,0.000000,1762.019645
1227.976455,-9622.677246,0.000000,2068.457845
1227.976776,-9474.636058,-1258.350101,2145.067394
1227.977097,-9104.533087,-1998.556043,1149.143247
1227.977418,-8586.388927,-2812.782580,-689.485948
1227.977739,-8956.491898,-1850.514855,0.000000
1227.978059,-9030.512492,0.000000,0.000000
1227.978380,-9474.636058,1332.370696,689.485948
1227.978701,-9844.739029,1850.514855,1838.629195
1227.979022,-9696.697840,814.226536,1838.629195
1227.979342,-9844.739029,-148.041188,1072.533697
1227.979663,-10066.800811,-814.226536,1455.581446
1227.979984,-10140.821405,-740.205942,1608.800546
1227.980305,-9696.697840,-888.247130,1532.190996
1227.980626,-9030.512492,-1776.494261,1685.410096
1227.980946,-8586.388927,-2368.659014,459.657299
1227.981267,-8216.285956,-1924.535449,-153.219100
1227.981588,-9178.553681,-888.247130,-459.657299
1227.981909,-9030.512492,592.164754,1072.533697
1227.982229,-10066.800811,1628.453072,1302.362347
1227.982550,-9992.780217,1554.432478,1225.752797
1227.982871,-10066.800811,0.000000,919.314598
1227.983192,-10584.944971,-518.144159,766.095498
1227.983513,-10362.883188,-518.144159,1302.362347
1227.983833,-10066.800811,-296.082377,1991.848295
1227.984154,-9918.759623,-370.102971,2221.676944
1227.984475,-9474.636058,-1184.329507,1225.752797
1227.984796,-9326.594869,-1332.370696,612.876398
1227.985116,-9326.594869,-1628.453072,-306.438199
1227.985437,-9326.594869,-148.041188,-383.047749
1227.985758,-9770.718434,1036.288319,766.095498
1227.986079,-9548.656652,1554.432478,1455.581446
1227.986400,-9992.780217,666.185348,995.924147
1227.986720,-10066.800811,-444.123565,1685.410096
1227.987041,-10066.800811,-518.144159,1685.410096
1227.987362,-10362.883188,0.000000,1838.629195
1227.987683,-10584.944971,814.226536,3064.381992
1227.988003,-10288.862594,-666.185348,3370.820191
1227.988324,-9474.636058,-1332.370696,2987.772442
1227.988645,-8808.450710,-2590.720797,1149.143247
1227.988966,-8586.388927,-2368.659014,612.876398
1227.989287,-9030.512492,-1110.308913,1072.533697
1227.989607,-9770.718434,444.123565,536.266849
1227.989928,-9474.636058,518.144159,1378.971896
1227.990249,-9400.615463,148.041188,919.314598
1227.990570,-9474.636058,-592.164754,536.266849
1227.990890,-9548.656652,0.000000,383.047749
1227.991211,-9918.759623,-148.041188,1072.533697
1227.991532,-10066.800811,-222.061783,1915.238745
1227.991853,-9252.574275,-1036.288319,1685.410096
1227.992174,-9178.553681,-2368.659014,1072.533697
1227.992494,-8586.388927,-2442.679609,2298.286494
1227.992815,-8882.471304,-2294.638420,-229.828649
1227.993136,-8956.491898,-666.185348,-306.438199
1227.993457,-8956.491898,666.185348,-76.609550
1227.993777,-9622.677246,1776.494261,383.047749
1227.994098,-9622.677246,1184.329507,229.828649
1227.994419,-9918.759623,592.164754,459.657299
1227.994740,-10214.842000,-148.041188,995.924147
1227.995060,-10288.862594,-888.247130,1302.362347
1227.995381,-9992.780217,-740.205942,1072.533697
1227.995702,-10066.800811,-1554.432478,1455.581446
1227.996023,-9474.636058,-1554.432478,1302.362347
1227.996344,-9326.594869,-1480.411884,536.266849
1227.996664,-8808.450710,-740.205942,-153.219100
1227.996985,-8882.471304,962.267725,-306.438199
1227.997306,-9696.697840,2072.576638,306.438199
1227.997627,-9918.759623,1776.494261,459.657299
1227.997947,-9992.780217,1036.288319,459.657299
1227.998268,-10066.800811,74.020594,306.438199
1227.998589,-9696.697840,1258.350101,76.609550
1227.998910,-10584.944971,888.247130,1378.971896
1227.999231,-10436.903782,1036.288319,2068.457845
1227.999551,-9770.718434,148.041188,2145.067394
1227.999872,-9770.718434,-1184.329507,1991.848295
1228.000193,-9400.615463,-1776.494261,459.657299
1228.000514,-8956.491898,-1628.453072,76.609550
1228.000834,-8808.450710,-666.185348,-153.219100
1228.001155,-9178.553681,962.267725,459.657299
1228.001476,-9696.697840,1406.391290,0.000000
1228.001797,-9696.697840,1554.432478,1378.971896
1228.002118,-10436.903782,518.144159,1685.410096
1228.002438,-10214.842000,74.020594,2374.896044
1228.002759,-10436.903782,-296.082377,2834.553343
1228.003080,-9992.780217,-370.102971,4673.182538
1228.003401,-9178.553681,-1480.411884,2681.334243
1228.003721,-9030.512492,-2368.659014,2451.505594
1228.004042,-8512.368333,-2442.679609,1302.362347
1228.004363,-8734.430116,-1554.432478,1149.143247
1228.004684,-8956.491898,370.102971,1302.362347
1228.005005,-9474.636058,1702.473667,1532.190996
1228.005325,-9918.759623,2072.576638,2145.067394
1228.005646,-9992.780217,1850.514855,1915.238745
1228.005967,-10732.986159,1332.370696,1302.362347
1228.006288,-10362.883188,0.000000,919.314598
1228.006608,-9474.636058,-592.164754,1302.362347
1228.006929,-9474.636058,-1036.288319,1685.410096
1228.007250,-9252.574275,-1258.350101,1608.800546
1228.007571,-8734.430116,-1924.535449,-1838.629195
1228.007892,-8808.450710,-1850.514855,383.047749
1228.008212,-9400.615463,-1554.432478,383.047749
1228.008533,-9252.574275,-888.247130,459.657299
1228.008854,-9770.718434,0.000000,766.095498
1228.009175,-10066.800811,518.144159,459.657299
1228.009495,-10362.883188,74.020594,1838.629195
1228.009816,-9992.780217,-1184.329507,1149.143247
1228.010137,-10066.800811,-1850.514855,689.485948
1228.010458,-10288.862594,-1628.453072,229.828649
1228.010779,-9622.677246,-1184.329507,1532.190996
1228.011099,-9622.677246,-1480.411884,1225.752797
1228.011420,-9104.533087,-1850.514855,536.266849
1228.011741,-8956.491898,-1998.556043,-536.266849
1228.012062,-9474.636058,-296.082377,0.000000
1228.012382,-9178.553681,666.185348,-306.438199
1228.012703,-10288.862594,2072.576638,306.438199
1228.013024,-10288.862594,1850.514855,766.095498
1228.013345,-10362.883188,1184.329507,0.000000
1228.013666,-9770.718434,148.041188,-306.438199
1228.013986,-9918.759623,-148.041188,-383.047749
1228.014307,-9770.718434,222.061783,536.266849
1228.014628,-10140.821405,0.000000,1149.143247
1228.014949,-9326.594869,-592.164754,1608.800546
1228.015269,-9474.636058,-1776.494261,383.047749
1228.015590,-9326.594869,-2146.597232,306.438199
1228.015911,-9178.553681,-1332.370696,0.000000
1228.016232,-9474.636058,148.041188,459.657299
1228.016552,-9548.656652,1258.350101,2911.162892
1228.016873,-9548.656652,1924.535449,1685.410096
1228.017194,-9918.759623,444.123565,1532.190996
1228.017515,-9844.739029,-518.144159,1225.752797
1228.017836,-9770.718434,-740.205942,1225.752797
1228.018156,-9844.739029,-740.205942,1838.629195
1228.018477,-9474.636058,-592.164754,1991.848295
1228.018798,-9104.533087,-1332.370696,2604.724693
1228.019119,-9104.533087,-2590.720797,1685.410096
1228.019439,-8586.388927,-2664.741391,842.705048
1228.019760,-8586.388927,-1776.494261,919.314598
1228.020081,-9474.636058,74.020594,1225.752797
1228.020402,-9770.718434,1776.494261,1608.800546
1228.020723,-10288.862594,2146.597232,1915.238745
1228.021043,-9992.780217,814.226536,1915.238745
1228.021364,-9548.656652,370.102971,1225.752797
1228.021685,-10214.842000,-296.082377,1149.143247
1228.022006,-9696.697840,0.000000,2221.676944
1228.022326,-9844.739029,-740.205942,2528.115143
1228.022647,-9178.553681,-962.267725,689.485948
1228.022968,-9252.574275,-1776.494261,1455.581446
1228.023289,-9030.512492,-2146.597232,229.828649
1228.023610,-9252.574275,-1480.411884,0.000000
1228.023930,-9326.594869,0.000000,76.609550
1228.024251,-9178.553681,1258.350101,1838.629195
1228.024572,-10214.842000,1924.535449,1225.752797
1228.024893,-10066.800811,740.205942,1302.362347
1228.025213,-10510.924376,444.123565,1302.362347
1228.025534,-10955.047942,-296.082377,1608.800546
1228.025855,-10732.986159,-370.102971,2298.286494
1228.026176,-9992.780217,-1628.453072,2298.286494
1228.026497,-9474.636058,-3034.844362,1455.581446
1228.026817,-8586.388927,-2960.823768,612.876398
1228.027138,-8438.347739,-3182.885551,-383.047749
1228.027459,-8734.430116,-1628.453072,0.000000
1228.027780,-8956.491898,0.000000,0.000000
1228.028100,-9474.636058,370.102971,766.095498
1228.028421,-10140.821405,296.082377,842.705048
1228.028742,-9622.677246,-370.102971,306.438199
1228.029063,-10214.842000,-1554.432478,536.266849
1228.029384,-9770.718434,-1554.432478,919.314598
1228.029704,-9770.718434,-1332.370696,1378.971896
1228.030025,-9696.697840,-1110.308913,2068.457845
1228.030346,-8438.347739,-1850.514855,2298.286494
1228.030667,-8808.450710,-2738.761985,842.705048
1228.030987,-8734.430116,-2590.720797,76.609550
1228.031308,-8882.471304,-1776.494261,-306.438199
1228.031629,-9178.553681,0.000000,0.000000
1228.031950,-9474.636058,814.226536,1072.533697
1228.032270,-9696.697840,666.185348,1608.800546
1228.032591,-9918.759623,-148.041188,1302.362347
1228.032912,-9770.718434,-666.185348,1455.581446
1228.033233,-10140.821405,-814.226536,1532.190996
1228.033553,-9918.759623,-444.123565,2757.943793
1228.033874,-10066.800811,-1184.329507,2681.334243
1228.034195,-9474.636058,-1998.556043,2068.457845
1228.034515,-9326.594869,-2960.823768,995.924147
1228.034836,-8142.265362,-1332.370696,-689.485948
1228.035157,-9326.594869,-370.102971,459.657299
1228.035478,-10288.862594,1776.494261,1455.581446
1228.035798,-10510.924376,3108.864956,1455.581446
1228.036119,-10658.965565,2886.803174,1378.971896
1228.036440,-10732.986159,148.041188,1225.752797
1228.036761,-9992.780217,1036.288319,383.047749
1228.037081,-10955.047942,444.123565,1149.143247
1228.037402,-9696.697840,888.247130,1455.581446
1228.037723,-10066.800811,148.041188,2221.676944
1228.038043,-9474.636058,0.000000,1149.143247
1228.038364,-9400.615463,-444.123565,689.485948
1228.038685,-9548.656652,-370.102971,0.000000
1228.039006,-9548.656652,1036.288319,306.438199
1228.039326,-8808.450710,1702.473667,459.657299
1228.039647,-9474.636058,2294.638420,1072.533697
1228.039968,-9844.739029,1998.556043,1149.143247
1228.040289,-10140.821405,1480.411884,1455.581446
1228.040609,-9992.780217,666.185348,1378.971896
1228.040930,-9622.677246,592.164754,2757.943793
1228.041251,-9918.759623,370.102971,2145.067394
1228.041572,-9474.636058,-370.102971,2145.067394
1228.041892,-9030.512492,-1628.453072,1455.581446
1228.042213,-8290.306550,-2886.803174,0.000000
1228.042534,-7105.977043,-2294.638420,-919.314598
1228.042854,-7846.182985,-666.185348,-1685.410096
1228.043175,-8290.306550,1776.494261,-766.095498
1228.043496,-9326.594869,2516.700203,229.828649
1228.043817,-9548.656652,1924.535449,1225.752797
1228.044137,-9918.759623,444.123565,766.095498
1228.044458,-10362.883188,-962.267725,612.876398
1228.044779,-10881.027347,-740.205942,2221.676944
1228.045100,-10510.924376,-1036.288319,3294.210641
1228.045420,-9548.656652,-1554.432478,3524.039291
1228.045741,-8956.491898,-2220.617826,2145.067394
1228.046062,-8660.409521,-2294.638420,459.657299
1228.046382,-8512.368333,-1406.391290,0.000000
1228.046703,-8808.450710,-296.082377,-229.828649
1228.047024,-8882.471304,2146.597232,229.828649
1228.047345,-9622.677246,1628.453072,536.266849
1228.047665,-9992.780217,1406.391290,1225.752797
1228.047986,-10658.965565,888.247130,1991.848295
1228.048307,-11029.068536,74.020594,2451.505594
1228.048628,-9770.718434,444.123565,2298.286494
1228.048948,-11177.109724,-888.247130,2757.943793
1228.049269,-10510.924376,-1406.391290,2604.724693
1228.049590,-9992.780217,-2516.700203,1608.800546
1228.049910,-9622.677246,-2812.782580,1072.533697
1228.050231,-8882.471304,-2220.617826,-383.047749
1228.050552,-9474.636058,-1036.288319,0.000000
1228.050873,-9622.677246,666.185348,76.609550
1228.051193,-10510.924376,962.267725,995.924147
1228.051514,-10807.006753,148.041188,1838.629195
1228.051835,-10362.883188,-962.267725,919.314598
1228.052156,-10807.006753,-1110.308913,919.314598
1228.052476,-10658.965565,-592.164754,1838.629195
1228.052797,-10140.821405,-592.164754,2374.896044
1228.053118,-9548.656652,-1184.329507,2451.505594
1228.053439,-9030.512492,-2738.761985,459.657299
1228.053759,-8512.368333,-2960.823768,-536.266849
1228.054080,-8068.244768,-2516.700203,-689.485948
1228.054401,-8586.388927,-962.267725,-383.047749
1228.054721,-9030.512492,1258.350101,459.657299
1228.055042,-9622.677246,1480.411884,1072.533697
1228.055363,-9844.739029,1036.288319,2068.457845
1228.055684,-9992.780217,-222.061783,2145.067394
1228.056004,-10362.883188,-814.226536,1532.190996
1228.056325,-9992.780217,-1480.411884,2068.457845
1228.056646,-9474.636058,-1036.288319,2374.896044
1228.056967,-9178.553681,-1628.453072,2221.676944
1228.057287,-8586.388927,-1702.473667,1225.752797
1228.057608,-8068.244768,-1554.432478,229.828649
1228.057929,-8734.430116,-444.123565,-306.438199
1228.058249,-8956.491898,1036.288319,459.657299
1228.058570,-9474.636058,1850.514855,689.485948
1228.058891,-9696.697840,1406.391290,919.314598
1228.059212,-10436.903782,444.123565,766.095498
1228.059532,-9918.759623,-370.102971,306.438199
1228.059853,-10362.883188,74.020594,995.924147
1228.060174,-10881.027347,1110.308913,1762.019645
1228.060495,-10214.842000,1332.370696,4826.401637
1228.060815,-10066.800811,0.000000,2145.067394
1228.061136,-9770.718434,-1480.411884,1532.190996
1228.061457,-9326.594869,-1924.535449,383.047749
1228.061777,-9548.656652,-1850.514855,76.609550
1228.062098,-9252.574275,0.000000,-306.438199
1228.062419,-9770.718434,1332.370696,1072.533697
1228.062740,-10140.821405,2072.576638,1762.019645
1228.063060,-10214.842000,1628.453072,1991.848295
1228.063381,-10584.944971,888.247130,2221.676944
1228.063702,-10140.821405,518.144159,1915.238745
1228.064023,-10288.862594,-296.082377,2451.505594
1228.064343,-9844.739029,-518.144159,3217.601092
1228.064664,-9474.636058,-1702.473667,2604.724693
1228.064985,-8660.409521,-2220.617826,1762.019645
1228.065306,-8512.368333,-2294.638420,1762.019645
1228.065626,-8586.388927,-888.247130,459.657299
1228.065947,-9104.533087,296.082377,229.828649
1228.066268,-9400.615463,1258.350101,995.924147
1228.066588,-9622.677246,962.267725,1532.190996
1228.066909,-9622.677246,148.041188,1685.410096
1228.067230,-9918.759623,-814.226536,766.095498
1228.067551,-9548.656652,-518.144159,1378.971896
1228.067871,-10288.862594,-888.247130,1532.190996
1228.068192,-9326.594869,-740.205942,1685.410096
1228.068513,-9252.574275,-1036.288319,306.438199
1228.068834,-8882.471304,-1924.535449,-229.828649
1228.069154,-8068.244768,-1924.535449,-1149.143247
1228.069475,-8734.430116,-1036.288319,-919.314598
1228.069796,-8660.409521,370.102971,-612.876398
1228.070116,-9474.636058,1036.288319,-383.047749
1228.070437,-10066.800811,962.267725,689.485948
1228.070758,-9844.739029,296.082377,766.095498
1228.071079,-10584.944971,-740.205942,612.876398
1228.071399,-10881.027347,-296.082377,0.000000
1228.071720,-9696.697840,-444.123565,1455.581446
1228.072041,-9696.697840,-740.205942,1455.581446
1228.072362,-9178.553681,-1332.370696,1455.581446
1228.072682,-8808.450710,-2368.659014,612.876398
1228.073003,-9104.533087,-1406.391290,306.438199
1228.073324,-9178.553681,-592.164754,0.000000
1228.073644,-9844.739029,1036.288319,1149.143247
1228.073965,-10658.965565,1702.473667,2145.067394
1228.074286,-10362.883188,1480.411884,2757.943793
1228.074607,-10288.862594,0.000000,1762.019645
1228.074927,-10066.800811,-740.205942,1072.533697
1228.075248,-10066.800811,0.000000,1378.971896
1228.075569,-9918.759623,222.061783,1838.629195
1228.075890,-9622.677246,740.205942,1608.800546
1228.076210,-9400.615463,74.020594,1532.190996
1228.076531,-9326.594869,-1184.329507,306.438199
1228.076852,-8438.347739,-1036.288319,-229.828649
1228.077172,-9474.636058,-296.082377,0.000000
1228.077493,-9326.594869,1258.350101,766.095498
1228.077814,-10140.821405,1776.494261,1762.019645
1228.078135,-10140.821405,1554.432478,1915.238745
1228.078455,-9918.759623,-148.041188,1762.019645
1228.078776,-9844.739029,-2220.617826,919.314598
1228.079097,-9770.718434,-962.267725,2145.067394
1228.079418,-10362.883188,-1110.308913,2528.115143
1228.079738,-9548.656652,-1184.329507,2757.943793
1228.080059,-9030.512492,-2072.576638,2145.067394
1228.080380,-9030.512492,-2294.638420,1991.848295
1228.080701,-8956.491898,-2072.576638,842.705048
1228.081021,-9252.574275,-888.247130,459.657299
1228.081342,-9252.574275,1036.288319,1149.143247
1228.081663,-9696.697840,1110.308913,1455.581446
1228.081983,-9622.677246,1776.494261,1532.190996
1228.082304,-9918.759623,74.020594,612.876398
1228.082625,-10214.842000,0.000000,383.047749
1228.082946,-9696.697840,148.041188,536.266849
1228.083266,-10066.800811,740.205942,-229.828649
1228.083587,-9622.677246,-296.082377,1915.238745
1228.083908,-9548.656652,-1628.453072,1838.629195
1228.084229,-9326.594869,-3034.844362,612.876398
1228.084549,-8882.471304,-2886.803174,0.000000
1228.084870,-8142.265362,-888.247130,-229.828649
1228.085191,-9622.677246,1554.432478,459.657299
1228.085511,-10066.800811,2368.659014,1685.410096
1228.085832,-9770.718434,1258.350101,1302.362347
1228.086153,-9844.739029,-666.185348,459.657299
1228.086474,-9844.739029,-1554.432478,612.876398
