#time,accel_x,accel_y,accel_z
1311.570406,-9918.759623,-148.041188,1225.752797
1311.570727,-9696.697840,-148.041188,919.314598
1311.571048,-9622.677246,-296.082377,1302.362347
1311.571368,-9770.718434,-518.144159,1072.533697
1311.571689,-9474.636058,-518.144159,1532.190996
1311.572010,-9474.636058,-222.061783,919.314598
1311.572331,-9474.636058,-296.082377,1149.143247
1311.572652,-9622.677246,-296.082377,1072.533697
1311.572973,-9474.636058,-444.123565,766.095498
1311.573294,-9696.697840,-592.164754,1149.143247
1311.573615,-9622.677246,-296.082377,1072.533697
1311.573936,-9622.677246,-370.102971,1149.143247
1311.574257,-9696.697840,-222.061783,1149.143247
1311.574578,-9548.656652,0.000000,1378.971896
1311.574899,-9770.718434,-444.123565,1455.581446
1311.575220,-9770.718434,-1110.308913,1302.362347
1311.575541,-9104.533087,-518.144159,1225.752797
1311.575861,-9992.780217,-740.205942,2145.067394
1311.576182,-9474.636058,-740.205942,1455.581446
1311.576503,-9474.636058,-814.226536,1072.533697
1311.576824,-9400.615463,-1036.288319,842.705048
1311.577145,-9474.636058,-444.123565,995.924147
1311.577466,-9622.677246,-518.144159,1149.143247
1311.577787,-9918.759623,-592.164754,1378.971896
1311.578108,-9548.656652,-814.226536,612.876398
1311.578429,-9770.718434,-518.144159,766.095498
1311.578750,-9474.636058,-518.144159,383.047749
1311.579071,-9622.677246,-592.164754,1225.752797
1311.579392,-9622.677246,-1036.288319,1225.752797
1311.579713,-9474.636058,-1258.350101,1149.143247
1311.580034,-8956.491898,-1924.535449,919.314598
1311.580354,-9622.677246,-1332.370696,1378.971896
1311.580675,-9622.677246,-1776.494261,1915.238745
1311.580996,-9252.574275,-1554.432478,2298.286494
1311.581317,-9548.656652,-1406.391290,1838.629195
1311.581638,-9400.615463,-1406.391290,1762.019645
1311.581959,-9474.636058,-1258.350101,2068.457845
1311.582280,-9622.677246,-1406.391290,2145.067394
1311.582601,-9474.636058,-1036.288319,2604.724693
1311.582922,-9622.677246,-1702.473667,2221.676944
1311.583243,-9548.656652,-1702.473667,2604.724693
1311.583564,-9400.615463,-2220.617826,3217.601092
1311.583885,-9696.697840,-2146.597232,3677.258390
1311.584206,-9474.636058,-2960.823768,4060.306139
1311.584527,-9474.636058,-3330.926739,4290.134789
1311.584848,-9474.636058,-3627.009116,4903.011187
1311.585168,-9400.615463,-3775.050304,5209.449386
1311.585489,-9326.594869,-4071.132681,6205.373534
1311.585810,-9326.594869,-4145.153275,5669.106685
1311.586131,-9030.512492,-4219.173869,5745.716235
1311.586452,-8956.491898,-4293.194464,5515.887586
1311.586773,-9104.533087,-4663.297435,6052.154434
1311.587094,-9252.574275,-4515.256246,6281.983084
1311.587415,-9252.574275,-4367.215058,5975.544884
1311.587736,-9326.594869,-4737.318029,5669.106685
1311.588057,-9104.533087,-4367.215058,5592.497135
1311.588378,-8956.491898,-4737.318029,7201.297681
1311.588699,-9400.615463,-4441.235652,5056.230287
1311.589020,-9400.615463,-4071.132681,4673.182538
1311.589341,-9548.656652,-3775.050304,4366.744339
1311.589661,-9548.656652,-3330.926739,4136.915689
1311.589982,-9326.594869,-3552.988522,3753.867940
1311.590303,-9696.697840,-3034.844362,3677.258390
1311.590624,-9548.656652,-3256.906145,3907.087040
1311.590945,-9844.739029,-3552.988522,3753.867940
1311.591266,-9992.780217,-4071.132681,3294.210641
1311.591587,-9622.677246,-4515.256246,2987.772442
1311.591908,-9474.636058,-4589.276840,2145.067394
1311.592229,-9474.636058,-4441.235652,1302.362347
1311.592550,-9622.677246,-3627.009116,383.047749
1311.592871,-9696.697840,-2294.638420,153.219100
1311.593192,-9770.718434,-1110.308913,306.438199
1311.593513,-10214.842000,-666.185348,536.266849
1311.593834,-10362.883188,-148.041188,689.485948
1311.594154,-10584.944971,-444.123565,1302.362347
1311.594475,-10807.006753,-888.247130,1991.848295
1311.594796,-10436.903782,-1850.514855,2451.505594
1311.595117,-10214.842000,-3330.926739,2528.115143
1311.595438,-9104.533087,-3552.988522,2374.896044
1311.595759,-9030.512492,-4145.153275,2145.067394
1311.596080,-8808.450710,-3923.091493,2604.724693
1311.596401,-9104.533087,-4071.132681,3064.381992
1311.596722,-8956.491898,-3627.009116,2604.724693
1311.597043,-8808.450710,-3552.988522,2451.505594
1311.597364,-9178.553681,-3034.844362,2374.896044
1311.597685,-9252.574275,-2220.617826,1302.362347
1311.598006,-9252.574275,-962.267725,689.485948
1311.598327,-8882.471304,888.247130,1991.848295
1311.598647,-9918.759623,2368.659014,919.314598
1311.598968,-9844.739029,2664.741391,1991.848295
1311.599289,-10066.800811,1998.556043,2451.505594
1311.599610,-10214.842000,296.082377,3677.258390
1311.599931,-10214.842000,-1702.473667,4213.525239
1311.600252,-9622.677246,-3404.947333,4596.572988
1311.600573,-9400.615463,-4293.194464,5439.278036
1311.600894,-8808.450710,-4811.338623,5669.106685
1311.601215,-8586.388927,-5181.441594,8120.612279
1311.601536,-8364.327145,-5403.503377,6358.592633
1311.601857,-8068.244768,-5329.482782,5056.230287
1311.602178,-8216.285956,-4663.297435,3447.429741
1311.602499,-8290.306550,-2146.597232,1915.238745
1311.602820,-9030.512492,518.144159,2604.724693
1311.603140,-9992.780217,2294.638420,3677.258390
1311.603461,-10584.944971,2738.761985,4366.744339
1311.603782,-10955.047942,1554.432478,4136.915689
1311.604103,-11399.171507,370.102971,3830.477490
1311.604424,-11325.150913,-1110.308913,4596.572988
1311.604745,-10881.027347,-1850.514855,4979.620737
1311.605066,-10214.842000,-3034.844362,5745.716235
1311.605387,-9104.533087,-5107.421000,5822.325785
1311.605708,-8290.306550,-6883.915261,4366.744339
1311.606029,-8142.265362,-7476.080014,3140.991542
1311.606350,-8438.347739,-5847.626942,2834.553343
1311.606671,-9104.533087,-3997.112087,3447.429741
1311.606992,-8882.471304,-2368.659014,3370.820191
1311.607313,-8808.450710,-1776.494261,2911.162892
1311.607633,-10140.821405,-740.205942,2298.286494
1311.607954,-10436.903782,-518.144159,2528.115143
1311.608275,-11177.109724,-1036.288319,2911.162892
1311.608596,-10807.006753,-1406.391290,2528.115143
1311.608917,-9474.636058,-3627.009116,306.438199
1311.609238,-9400.615463,-3478.967927,153.219100
1311.609559,-9770.718434,-2442.679609,0.000000
1311.609880,-10066.800811,-1924.535449,1532.190996
1311.610201,-10214.842000,-2072.576638,2911.162892
1311.610522,-9992.780217,-3997.112087,2145.067394
1311.610843,-8290.306550,-4737.318029,1838.629195
1311.611164,-9474.636058,-5033.400406,3064.381992
1311.611485,-9252.574275,-4811.338623,3600.648841
1311.611806,-8956.491898,-5773.606348,3370.820191
1311.612126,-7698.141797,-5699.585753,1455.581446
1311.612447,-7179.997637,-3923.091493,153.219100
1311.612768,-8882.471304,-1850.514855,1302.362347
1311.613089,-9696.697840,-1258.350101,3370.820191
1311.613410,-9548.656652,-1702.473667,3370.820191
1311.613731,-10658.965565,-1480.411884,2451.505594
1311.614052,-10955.047942,-888.247130,4136.915689
1311.614373,-11621.233289,-2368.659014,5132.839837
1311.614694,-9918.759623,-4071.132681,4749.792088
1311.615015,-9030.512492,-4515.256246,1455.581446
1311.615336,-9178.553681,-2812.782580,2681.334243
1311.615657,-9474.636058,-1776.494261,4136.915689
1311.615978,-9696.697840,-2886.803174,5592.497135
1311.616299,-8808.450710,-4219.173869,4903.011187
1311.616620,-8956.491898,-4589.276840,3524.039291
1311.616940,-9992.780217,-5181.441594,3677.258390
1311.617261,-8660.409521,-3775.050304,3677.258390
1311.617582,-10140.821405,-2590.720797,3907.087040
1311.617903,-9770.718434,0.000000,3677.258390
1311.618224,-9474.636058,148.041188,2681.334243
1311.618545,-9474.636058,888.247130,2681.334243
1311.618866,-10214.842000,1036.288319,2757.943793
1311.619187,-10955.047942,740.205942,2221.676944
1311.619508,-10807.006753,-1628.453072,3140.991542
1311.619829,-9474.636058,-2442.679609,1991.848295
1311.620150,-9252.574275,-1850.514855,1838.629195
1311.620471,-10214.842000,-740.205942,3370.820191
1311.620792,-10066.800811,-962.267725,4519.963438
1311.621113,-9918.759623,-2516.700203,4213.525239
1311.621433,-9104.533087,-3182.885551,2451.505594
1311.621754,-8956.491898,-3701.029710,919.314598
1311.622075,-7179.997637,-1036.288319,1072.533697
1311.622396,-10066.800811,-740.205942,1455.581446
1311.622717,-8956.491898,1110.308913,1915.238745
1311.623038,-9326.594869,888.247130,1455.581446
1311.623359,-9696.697840,0.000000,306.438199
1311.623680,-11029.068536,1184.329507,1455.581446
1311.624001,-12287.418637,148.041188,1532.190996
1311.624322,-9474.636058,444.123565,536.266849
1311.624643,-8660.409521,1110.308913,-1072.533697
1311.624964,-9400.615463,1480.411884,0.000000
1311.625285,-9474.636058,0.000000,383.047749
1311.625606,-8660.409521,-1480.411884,766.095498
1311.625926,-9252.574275,-2886.803174,459.657299
1311.626247,-9622.677246,-2960.823768,-459.657299
1311.626568,-9030.512492,-1702.473667,766.095498
1311.626889,-9326.594869,-1406.391290,1608.800546
1311.627210,-8882.471304,-814.226536,1455.581446
1311.627531,-8068.244768,370.102971,1838.629195
1311.627852,-9770.718434,518.144159,0.000000
1311.628173,-9622.677246,666.185348,-459.657299
1311.628494,-9622.677246,888.247130,-995.924147
1311.628815,-9474.636058,1924.535449,-1072.533697
1311.629136,-10140.821405,3997.112087,-536.266849
1311.629457,-10362.883188,3256.906145,459.657299
1311.629778,-10066.800811,1184.329507,2068.457845
1311.630099,-10214.842000,-1258.350101,2298.286494
1311.630420,-11325.150913,-3404.947333,2068.457845
1311.630741,-9622.677246,-2960.823768,2068.457845
1311.631061,-8956.491898,-1998.556043,2604.724693
1311.631382,-9326.594869,-1036.288319,3370.820191
1311.631703,-9252.574275,-1480.411884,4136.915689
1311.632024,-8586.388927,-1110.308913,2681.334243
1311.632345,-9400.615463,-1332.370696,2451.505594
1311.632666,-10510.924376,-1406.391290,1608.800546
1311.632987,-8808.450710,0.000000,1302.362347
1311.633308,-9474.636058,1036.288319,1149.143247
1311.633629,-10510.924376,1924.535449,1915.238745
1311.633950,-9844.739029,740.205942,1685.410096
1311.634271,-9992.780217,-444.123565,2068.457845
1311.634592,-9770.718434,-3775.050304,1532.190996
1311.634913,-10288.862594,-2146.597232,1302.362347
1311.635234,-10140.821405,-2294.638420,1838.629195
1311.635555,-9030.512492,-1850.514855,1685.410096
1311.635876,-8956.491898,-1776.494261,1302.362347
1311.636196,-8660.409521,-2368.659014,1455.581446
1311.636517,-8808.450710,-2516.700203,1149.143247
1311.636838,-9696.697840,-3330.926739,842.705048
1311.637159,-9252.574275,-2294.638420,459.657299
1311.637480,-8956.491898,148.041188,-383.047749
1311.637801,-9992.780217,2220.617826,76.609550
1311.638122,-10066.800811,2220.617826,1072.533697
1311.638443,-8512.368333,1554.432478,689.485948
1311.638764,-10214.842000,-74.020594,0.000000
1311.639085,-11177.109724,-1776.494261,-459.657299
1311.639406,-9770.718434,-1110.308913,76.609550
1311.639727,-9918.759623,-370.102971,1149.143247
1311.640048,-10140.821405,148.041188,1991.848295
1311.640369,-8438.347739,0.000000,1149.143247
1311.640690,-8956.491898,-814.226536,1608.800546
1311.641011,-9252.574275,-1850.514855,842.705048
1311.641331,-9770.718434,-3182.885551,-153.219100
1311.641652,-8068.244768,-1924.535449,153.219100
1311.641973,-8808.450710,-1184.329507,0.000000
1311.642294,-9696.697840,370.102971,306.438199
1311.642615,-9326.594869,1036.288319,995.924147
1311.642936,-9696.697840,518.144159,1915.238745
1311.643257,-10732.986159,-222.061783,0.000000
1311.643578,-10436.903782,222.061783,76.609550
1311.643899,-10140.821405,1924.535449,1072.533697
1311.644220,-10955.047942,1332.370696,1302.362347
1311.644541,-9770.718434,1332.370696,1455.581446
1311.644862,-9030.512492,148.041188,766.095498
1311.645183,-9400.615463,-888.247130,919.314598
1311.645504,-10584.944971,-1184.329507,919.314598
1311.645825,-9400.615463,-1258.350101,1072.533697
1311.646146,-8290.306550,148.041188,1225.752797
1311.646466,-10955.047942,74.020594,1225.752797
1311.646787,-9178.553681,2220.617826,2298.286494
1311.647108,-9474.636058,296.082377,1838.629195
1311.647429,-9770.718434,0.000000,1608.800546
1311.647750,-9548.656652,-1480.411884,0.000000
1311.648071,-9178.553681,74.020594,919.314598
1311.648392,-10510.924376,1332.370696,1455.581446
1311.648713,-10510.924376,2368.659014,1838.629195
1311.649034,-10362.883188,2886.803174,2298.286494
1311.649355,-8512.368333,2220.617826,2451.505594
1311.649676,-11621.233289,-444.123565,2068.457845
1311.649997,-10510.924376,-888.247130,2911.162892
1311.650318,-9474.636058,-2516.700203,2298.286494
1311.650639,-9326.594869,-1850.514855,1455.581446
1311.650960,-9622.677246,-1184.329507,842.705048
1311.651280,-7254.018232,0.000000,919.314598
1311.651601,-6513.812290,1776.494261,-1838.629195
1311.651922,-8882.471304,1554.432478,-1532.190996
1311.652243,-8216.285956,740.205942,-612.876398
1311.652564,-9104.533087,-444.123565,1225.752797
1311.652885,-11843.295072,-2294.638420,2604.724693
1311.653206,-10955.047942,-3108.864956,3294.210641
1311.653527,-10881.027347,-2442.679609,3983.696590
1311.653848,-11399.171507,-2664.741391,2757.943793
1311.654169,-10732.986159,-814.226536,0.000000
1311.654490,-9178.553681,1628.453072,-306.438199
1311.654811,-8290.306550,2590.720797,-1378.971896
1311.655132,-9178.553681,2516.700203,-1225.752797
1311.655453,-9696.697840,-222.061783,1762.019645
1311.655774,-7994.224174,-1110.308913,0.000000
1311.656095,-10140.821405,-2664.741391,995.924147
1311.656415,-11695.253884,-4441.235652,1838.629195
1311.656736,-8660.409521,-1554.432478,3600.648841
1311.657057,-10955.047942,-1628.453072,2451.505594
1311.657378,-10140.821405,-888.247130,2374.896044
1311.657699,-8808.450710,962.267725,1225.752797
1311.658020,-9844.739029,74.020594,1302.362347
1311.658341,-9252.574275,-1406.391290,-842.705048
1311.658662,-8142.265362,-370.102971,-1378.971896
1311.658983,-9030.512492,444.123565,-842.705048
1311.659304,-10732.986159,1702.473667,536.266849
1311.659625,-11177.109724,1332.370696,1455.581446
1311.659946,-10881.027347,-740.205942,3294.210641
1311.660267,-11103.089130,-2294.638420,2451.505594
1311.660588,-11399.171507,-3182.885551,1302.362347
1311.660909,-9252.574275,-1184.329507,1225.752797
1311.661230,-8808.450710,-222.061783,1608.800546
1311.661550,-8216.285956,-370.102971,229.828649
1311.661871,-7698.141797,0.000000,0.000000
1311.662192,-7550.100608,-962.267725,383.047749
1311.662513,-9696.697840,-2368.659014,306.438199
1311.662834,-9992.780217,-2516.700203,995.924147
1311.663155,-9474.636058,-296.082377,1225.752797
1311.663476,-10288.862594,2294.638420,1532.190996
1311.663797,-11399.171507,3330.926739,3294.210641
1311.664118,-9696.697840,1924.535449,1915.238745
1311.664439,-9474.636058,-740.205942,842.705048
1311.664760,-9770.718434,-2886.803174,-153.219100
1311.665081,-8586.388927,-3034.844362,-76.609550
1311.665402,-9400.615463,-2886.803174,919.314598
1311.665723,-9474.636058,-2368.659014,1149.143247
1311.666044,-7772.162391,0.000000,1838.629195
1311.666365,-9548.656652,-370.102971,1915.238745
1311.666685,-10140.821405,148.041188,2221.676944
1311.667006,-10955.047942,-2146.597232,1225.752797
1311.667327,-9178.553681,-1850.514855,-306.438199
1311.667648,-9030.512492,0.000000,-689.485948
1311.667969,-9844.739029,3404.947333,306.438199
1311.668290,-9548.656652,3034.844362,1225.752797
1311.668611,-8438.347739,1776.494261,459.657299
1311.668932,-10140.821405,444.123565,0.000000
1311.669253,-10510.924376,0.000000,76.609550
1311.669574,-9992.780217,0.000000,766.095498
1311.669895,-10881.027347,962.267725,1991.848295
1311.670216,-10584.944971,518.144159,1915.238745
1311.670537,-8364.327145,888.247130,766.095498
1311.670858,-9622.677246,148.041188,1302.362347
1311.671179,-10510.924376,-1110.308913,766.095498
1311.671500,-8956.491898,-1332.370696,459.657299
1311.671820,-9030.512492,-592.164754,-383.047749
1311.672141,-10066.800811,1702.473667,689.485948
1311.672462,-10214.842000,2516.700203,1915.238745
1311.672783,-9844.739029,1332.370696,2451.505594
1311.673104,-9696.697840,-666.185348,1072.533697
1311.673425,-10214.842000,-1702.473667,0.000000
1311.673746,-9770.718434,-592.164754,612.876398
1311.674067,-9548.656652,592.164754,2221.676944
1311.674388,-10140.821405,0.000000,2145.067394
1311.674709,-9400.615463,-888.247130,1685.410096
1311.675030,-8512.368333,-3108.864956,229.828649
1311.675351,-9844.739029,-2738.761985,842.705048
1311.675672,-10214.842000,-2294.638420,1302.362347
1311.675993,-8808.450710,-1110.308913,1302.362347
1311.676314,-9326.594869,222.061783,0.000000
1311.676635,-9992.780217,814.226536,1302.362347
1311.676955,-8882.471304,666.185348,1762.019645
1311.677276,-9474.636058,-1036.288319,1608.800546
1311.677597,-9844.739029,-1776.494261,1072.533697
1311.677918,-9030.512492,-1850.514855,383.047749
1311.678239,-8882.471304,-1036.288319,689.485948
1311.678560,-9326.594869,296.082377,1838.629195
1311.678881,-9474.636058,0.000000,2298.286494
1311.679202,-9400.615463,-592.164754,2221.676944
1311.679523,-9696.697840,-1702.473667,1991.848295
1311.679844,-11177.109724,-2590.720797,766.095498
1311.680165,-9622.677246,-1332.370696,1072.533697
1311.680486,-9474.636058,1110.308913,536.266849
1311.680807,-10362.883188,1258.350101,1072.533697
1311.681128,-8734.430116,1406.391290,306.438199
1311.681449,-9178.553681,74.020594,689.485948
1311.681770,-9548.656652,-1998.556043,459.657299
1311.682090,-9474.636058,-2664.741391,459.657299
1311.682411,-9548.656652,-888.247130,1532.190996
1311.682732,-9770.718434,592.164754,2374.896044
1311.683053,-10214.842000,444.123565,2298.286494
1311.683374,-8586.388927,666.185348,2911.162892
1311.683695,-9252.574275,-2072.576638,766.095498
1311.684016,-9992.780217,-2072.576638,0.000000
1311.684337,-9474.636058,-1406.391290,-766.095498
1311.684658,-8882.471304,1480.411884,0.000000
1311.684979,-9770.718434,2738.761985,766.095498
1311.685300,-10362.883188,2590.720797,1991.848295
1311.685621,-8956.491898,1036.288319,1378.971896
1311.685942,-10732.986159,-1184.329507,995.924147
1311.686263,-10807.006753,-2146.597232,1762.019645
1311.686584,-9844.739029,-1776.494261,1072.533697
1311.686905,-9474.636058,-518.144159,1608.800546
1311.687225,-9770.718434,-148.041188,1225.752797
1311.687546,-7402.059420,0.000000,1455.581446
1311.687867,-9030.512492,-444.123565,1072.533697
1311.688188,-9622.677246,-1332.370696,995.924147
1311.688509,-9918.759623,-1554.432478,0.000000
1311.688830,-9030.512492,-296.082377,-1302.362347
1311.689151,-9252.574275,1702.473667,306.438199
1311.689472,-10436.903782,1702.473667,842.705048
1311.689793,-9474.636058,1406.391290,1455.581446
1311.690114,-9622.677246,592.164754,1455.581446
1311.690435,-10362.883188,592.164754,919.314598
1311.690756,-10732.986159,-814.226536,689.485948
1311.691077,-8512.368333,-296.082377,2451.505594
1311.691398,-9474.636058,-1554.432478,1149.143247
1311.691719,-8364.327145,148.041188,229.828649
1311.692040,-8882.471304,-740.205942,1838.629195
1311.692360,-8586.388927,-1110.308913,995.924147
1311.692681,-9992.780217,-1628.453072,995.924147
1311.693002,-8956.491898,-1110.308913,306.438199
1311.693323,-8512.368333,2072.576638,0.000000
1311.693644,-10881.027347,3552.988522,1378.971896
1311.693965,-9992.780217,3182.885551,2451.505594
1311.694286,-9992.780217,1258.350101,1915.238745
1311.694607,-10510.924376,-1332.370696,1225.752797
1311.694928,-10362.883188,-2812.782580,0.000000
1311.695249,-9474.636058,-2072.576638,919.314598
1311.695570,-9770.718434,-1184.329507,1685.410096
1311.695891,-9178.553681,-888.247130,2528.115143
1311.696212,-8364.327145,370.102971,919.314598
1311.696533,-8956.491898,-444.123565,612.876398
1311.696854,-10214.842000,-962.267725,995.924147
1311.697174,-9326.594869,-2294.638420,1685.410096
1311.697495,-9030.512492,-888.247130,0.000000
1311.697816,-10214.842000,518.144159,612.876398
1311.698137,-9696.697840,1332.370696,995.924147
1311.698458,-9770.718434,740.205942,1915.238745
1311.698779,-9400.615463,296.082377,1149.143247
1311.699100,-10288.862594,-1406.391290,0.000000
1311.699421,-9992.780217,-962.267725,459.657299
1311.699742,-8438.347739,444.123565,1149.143247
1311.700063,-9326.594869,-1184.329507,1762.019645
1311.700384,-9622.677246,0.000000,3370.820191
1311.700705,-9178.553681,-2368.659014,2911.162892
1311.701026,-9844.739029,-3478.967927,2451.505594
1311.701347,-10362.883188,-3997.112087,2145.067394
1311.701668,-9104.533087,-2368.659014,842.705048
1311.701989,-9474.636058,1406.391290,995.924147
1311.702309,-10658.965565,3034.844362,1685.410096
1311.702630,-7772.162391,3034.844362,1072.533697
1311.702951,-9770.718434,222.061783,1149.143247
1311.703272,-9918.759623,-2072.576638,153.219100
1311.703593,-9622.677246,-2812.782580,383.047749
1311.703914,-10288.862594,-740.205942,2298.286494
1311.704235,-9844.739029,-296.082377,2911.162892
1311.704556,-9474.636058,-592.164754,1915.238745
1311.704877,-8438.347739,-222.061783,1762.019645
1311.705198,-8586.388927,-888.247130,766.095498
1311.705519,-10881.027347,-1850.514855,1532.190996
1311.705840,-9030.512492,-1554.432478,1072.533697
1311.706161,-9252.574275,-740.205942,0.000000
1311.706482,-9696.697840,1554.432478,919.314598
1311.706803,-10140.821405,1258.350101,1378.971896
1311.707124,-8660.409521,1184.329507,2298.286494
1311.707444,-10066.800811,-1702.473667,306.438199
1311.707765,-9992.780217,-1776.494261,0.000000
1311.708086,-9770.718434,-222.061783,766.095498
1311.708407,-9918.759623,0.000000,76.609550
1311.708728,-10658.965565,1702.473667,1915.238745
1311.709049,-9400.615463,888.247130,1991.848295
1311.709370,-9178.553681,-148.041188,1838.629195
1311.709691,-11177.109724,-2368.659014,2068.457845
1311.710012,-9918.759623,-3775.050304,1149.143247
1311.710333,-9104.533087,-2886.803174,153.219100
1311.710654,-8882.471304,-296.082377,-995.924147
1311.710975,-8586.388927,2960.823768,0.000000
1311.711296,-8734.430116,2886.803174,229.828649
1311.711617,-7920.203579,1480.411884,-766.095498
1311.711938,-9992.780217,-592.164754,-1915.238745
1311.712259,-9844.739029,-1184.329507,-536.266849
1311.712579,-10066.800811,-888.247130,919.314598
1311.712900,-11843.295072,370.102971,2451.505594
1311.713221,-10436.903782,296.082377,1838.629195
1311.713542,-9178.553681,444.123565,1532.190996
1311.713863,-9918.759623,-296.082377,3064.381992
1311.714184,-10288.862594,-1776.494261,306.438199
1311.714505,-9178.553681,-1184.329507,153.219100
1311.714826,-8660.409521,148.041188,-536.266849
1311.715147,-9548.656652,1110.308913,-153.219100
1311.715468,-9474.636058,1110.308913,612.876398
1311.715789,-8438.347739,148.041188,1762.019645
1311.716110,-10140.821405,-2590.720797,1455.581446
1311.716431,-9918.759623,-1480.411884,1838.629195
1311.716752,-9326.594869,-1258.350101,2604.724693
1311.717073,-10881.027347,-444.123565,3370.820191
1311.717394,-10510.924376,666.185348,2528.115143
1311.717714,-9178.553681,962.267725,2145.067394
1311.718035,-9178.553681,592.164754,2221.676944
1311.718356,-9474.636058,-592.164754,459.657299
1311.718677,-9622.677246,-2146.597232,-153.219100
1311.718998,-7994.224174,-666.185348,-459.657299
1311.719319,-9696.697840,740.205942,383.047749
1311.719640,-9992.780217,888.247130,995.924147
1311.719961,-8364.327145,666.185348,1225.752797
1311.720282,-9992.780217,-518.144159,1378.971896
1311.720603,-9844.739029,-888.247130,1072.533697
1311.720924,-10732.986159,-1406.391290,3140.991542
1311.721245,-9622.677246,-1258.350101,2451.505594
1311.721566,-10214.842000,-1332.370696,2221.676944
1311.721887,-9030.512492,-740.205942,2451.505594
1311.722208,-9104.533087,-814.226536,3370.820191
1311.722529,-9770.718434,-1332.370696,1838.629195
1311.722849,-9770.718434,-1850.514855,689.485948
1311.723170,-8438.347739,-592.164754,0.000000
1311.723491,-8882.471304,888.247130,-612.876398
1311.723812,-10066.800811,1924.535449,612.876398
1311.724133,-9696.697840,1554.432478,1762.019645
1311.724454,-9104.533087,0.000000,1608.800546
1311.724775,-10732.986159,-1480.411884,536.266849
1311.725096,-9400.615463,-962.267725,1149.143247
1311.725416,-9622.677246,-740.205942,1072.533697
1311.725737,-10288.862594,0.000000,2068.457845
1311.726058,-9178.553681,0.000000,1762.019645
1311.726379,-8512.368333,-888.247130,-612.876398
1311.726700,-9326.594869,-1258.350101,306.438199
1311.727021,-10288.862594,-1776.494261,153.219100
1311.727342,-9474.636058,-740.205942,383.047749
1311.727663,-9622.677246,518.144159,766.095498
1311.727984,-9918.759623,2368.659014,1532.190996
1311.728305,-10881.027347,1110.308913,1915.238745
1311.728626,-9178.553681,666.185348,1455.581446
1311.728947,-10510.924376,-666.185348,306.438199
1311.729268,-9474.636058,-962.267725,689.485948
1311.729589,-9770.718434,0.000000,76.609550
1311.729910,-9326.594869,1036.288319,919.314598
1311.730231,-9400.615463,296.082377,0.000000
1311.730552,-8586.388927,-148.041188,1532.190996
1311.730873,-8586.388927,-518.144159,0.000000
1311.731194,-10732.986159,-2220.617826,842.705048
1311.731515,-9474.636058,-2220.617826,0.000000
1311.731836,-8882.471304,-666.185348,-229.828649
1311.732157,-9992.780217,1406.391290,1302.362347
1311.732478,-9326.594869,2220.617826,2298.286494
1311.732799,-10214.842000,-666.185348,1838.629195
1311.733120,-8660.409521,-962.267725,1149.143247
1311.733441,-9252.574275,-3182.885551,-1225.752797
1311.733762,-8734.430116,0.000000,229.828649
1311.734083,-10066.800811,0.000000,2221.676944
1311.734404,-9474.636058,740.205942,1991.848295
1311.734725,-9252.574275,296.082377,1915.238745
1311.735046,-9178.553681,-592.164754,1302.362347
1311.735367,-9326.594869,-592.164754,1455.581446
1311.735688,-11251.130318,-2294.638420,1225.752797
1311.736009,-8216.285956,-222.061783,229.828649
1311.736330,-9474.636058,2368.659014,689.485948
1311.736651,-10658.965565,1628.453072,1685.410096
1311.736972,-8956.491898,1258.350101,1838.629195
1311.737293,-9326.594869,-370.102971,1455.581446
1311.737614,-10658.965565,-1332.370696,1608.800546
1311.737935,-10140.821405,-1776.494261,1302.362347
1311.738256,-9992.780217,-1036.288319,1608.800546
1311.738577,-9918.759623,-148.041188,1838.629195
1311.738898,-9622.677246,1110.308913,2681.334243
1311.739219,-9104.533087,0.000000,2451.505594
1311.739540,-10140.821405,-2220.617826,2221.676944
1311.739861,-9770.718434,-3330.926739,1149.143247
1311.740182,-9400.615463,-3256.906145,-612.876398
1311.740503,-8586.388927,-222.061783,-459.657299
1311.740824,-10214.842000,2368.659014,995.924147
1311.741145,-10066.800811,2368.659014,2298.286494
1311.741466,-9030.512492,888.247130,1915.238745
1311.741787,-9696.697840,-1924.535449,383.047749
1311.742108,-10510.924376,-2960.823768,76.609550
1311.742429,-9992.780217,-962.267725,1149.143247
1311.742750,-9770.718434,518.144159,1991.848295
1311.743071,-9548.656652,666.185348,2681.334243
1311.743392,-7846.182985,888.247130,1378.971896
1311.743713,-8438.347739,-962.267725,459.657299
1311.744034,-10066.800811,-2664.741391,306.438199
1311.744355,-9030.512492,-2220.617826,0.000000
1311.744676,-9030.512492,-222.061783,689.485948
1311.744997,-9548.656652,2072.576638,1149.143247
1311.745318,-9918.759623,2146.597232,2145.067394
1311.745639,-9400.615463,370.102971,2604.724693
1311.745960,-8660.409521,-1332.370696,1991.848295
1311.746281,-10214.842000,-3330.926739,306.438199
1311.746602,-9104.533087,-2442.679609,0.000000
1311.746923,-7846.182985,-962.267725,-153.219100
1311.747244,-8734.430116,1332.370696,-229.828649
1311.747565,-8808.450710,2294.638420,1149.143247
1311.747885,-8660.409521,1406.391290,1532.190996
1311.748206,-11103.089130,-666.185348,2681.334243
1311.748527,-11695.253884,-3330.926739,2681.334243
1311.748848,-10510.924376,-3701.029710,3370.820191
1311.749169,-10214.842000,-1480.411884,1455.581446
1311.749490,-10436.903782,666.185348,1455.581446
1311.749811,-9178.553681,1850.514855,1608.800546
1311.750132,-7994.224174,1332.370696,766.095498
1311.750453,-9178.553681,-74.020594,0.000000
1311.750774,-9918.759623,-814.226536,-306.438199
1311.751095,-10066.800811,148.041188,1149.143247
1311.751416,-11177.109724,0.000000,1915.238745
1311.751737,-10214.842000,888.247130,1685.410096
1311.752058,-10140.821405,148.041188,2528.115143
1311.752379,-9844.739029,-962.267725,1302.362347
1311.752700,-10658.965565,-1850.514855,995.924147
1311.753021,-9548.656652,-2368.659014,-459.657299
1311.753342,-8882.471304,74.020594,-536.266849
1311.753663,-9548.656652,2442.679609,0.000000
1311.753984,-10214.842000,3034.844362,1378.971896
1311.754305,-9178.553681,1628.453072,1455.581446
1311.754626,-9548.656652,-1258.350101,842.705048
1311.754947,-10362.883188,-2368.659014,0.000000
1311.755268,-9844.739029,-1554.432478,1149.143247
1311.755589,-10066.800811,-814.226536,2068.457845
1311.755910,-10288.862594,74.020594,2681.334243
1311.756231,-7550.100608,666.185348,842.705048
1311.756552,-8956.491898,888.247130,229.828649
1311.756873,-9178.553681,740.205942,1991.848295
1311.757194,-9474.636058,-2072.576638,2757.943793
1311.757515,-8956.491898,-1554.432478,1072.533697
1311.757836,-9400.615463,-1036.288319,536.266849
1311.758157,-9030.512492,-444.123565,153.219100
1311.758478,-8956.491898,740.205942,1915.238745
1311.758799,-9252.574275,296.082377,2068.457845
1311.759120,-9104.533087,-518.144159,766.095498
1311.759441,-8364.327145,-1332.370696,-229.828649
1311.759762,-9326.594869,-1480.411884,306.438199
1311.760083,-10140.821405,-1036.288319,1302.362347
1311.760404,-9918.759623,-1628.453072,2298.286494
1311.760725,-8586.388927,-2072.576638,2145.067394
1311.761046,-9104.533087,-2368.659014,1149.143247
1311.761367,-10510.924376,-2368.659014,1991.848295
1311.761688,-9918.759623,0.000000,842.705048
1311.762009,-10288.862594,2146.597232,1302.362347
1311.762330,-10510.924376,2664.741391,1149.143247
1311.762651,-9696.697840,1258.350101,2221.676944
1311.762972,-9104.533087,-1332.370696,-229.828649
1311.763293,-9844.739029,-2516.700203,-383.047749
1311.763614,-9474.636058,-2590.720797,-536.266849
1311.763935,-9548.656652,-518.144159,1378.971896
1311.764256,-10881.027347,370.102971,2528.115143
1311.764577,-10584.944971,592.164754,2681.334243
1311.764898,-9844.739029,74.020594,2145.067394
1311.765219,-10584.944971,0.000000,2374.896044
1311.765540,-10658.965565,-2368.659014,766.095498
1311.765861,-9178.553681,-1480.411884,76.609550
1311.766182,-9326.594869,-74.020594,-76.609550
1311.766503,-9178.553681,1702.473667,0.000000
1311.766824,-9548.656652,1998.556043,536.266849
1311.767145,-9622.677246,1036.288319,2298.286494
1311.767466,-10436.903782,-592.164754,1991.848295
1311.767787,-10732.986159,-1776.494261,1378.971896
1311.768108,-10214.842000,-370.102971,2145.067394
1311.768429,-9326.594869,-518.144159,2451.505594
1311.768750,-9622.677246,-592.164754,2298.286494
1311.769071,-8290.306550,0.000000,1915.238745
1311.769392,-8734.430116,-1702.473667,459.657299
1311.769713,-9326.594869,-2368.659014,0.000000
1311.770034,-8882.471304,-1924.535449,-229.828649
1311.770355,-8808.450710,-666.185348,-383.047749
1311.770676,-9548.656652,1258.350101,383.047749
1311.770997,-9844.739029,2886.803174,1685.410096
1311.771318,-9622.677246,1184.329507,1762.019645
1311.771639,-10584.944971,-814.226536,1532.190996
1311.771960,-10732.986159,-1924.535449,995.924147
1311.772281,-10214.842000,-2072.576638,459.657299
1311.772602,-8660.409521,-222.061783,842.705048
1311.772923,-9326.594869,74.020594,612.876398
1311.773244,-8512.368333,444.123565,76.609550
1311.773565,-7994.224174,0.000000,-383.047749
1311.773886,-9104.533087,222.061783,-612.876398
1311.774207,-8956.491898,-2072.576638,-1225.752797
1311.774528,-8882.471304,-888.247130,-1149.143247
1311.774849,-9696.697840,1554.432478,0.000000
1311.775170,-11177.109724,2368.659014,306.438199
1311.775491,-11177.109724,2960.823768,3830.477490
1311.775812,-11325.150913,296.082377,2911.162892
1311.776133,-11103.089130,-1332.370696,2298.286494
1311.776454,-10288.862594,-2368.659014,1072.533697
1311.776775,-9400.615463,-888.247130,1225.752797
1311.777096,-8882.471304,0.000000,1378.971896
1311.777417,-9252.574275,-592.164754,-153.219100
1311.777738,-6069.688724,1554.432478,-536.266849
1311.778059,-8734.430116,148.041188,1378.971896
1311.778380,-9918.759623,222.061783,1838.629195
1311.778701,-10881.027347,-1702.473667,1838.629195
1311.779022,-9400.615463,-1036.288319,766.095498
1311.779343,-10214.842000,1406.391290,1608.800546
1311.779664,-10658.965565,814.226536,2145.067394
1311.779985,-8882.471304,222.061783,2604.724693
1311.780306,-9918.759623,-1110.308913,1072.533697
1311.780627,-9474.636058,-1702.473667,0.000000
1311.780948,-8808.450710,0.000000,459.657299
1311.781269,-10214.842000,222.061783,1838.629195
1311.781590,-9474.636058,222.061783,2757.943793
1311.781911,-9104.533087,-1998.556043,2145.067394
1311.782232,-7994.224174,-2960.823768,1455.581446
1311.782553,-9918.759623,-4293.194464,1225.752797
1311.782874,-10362.883188,-3997.112087,842.705048
1311.783195,-9178.553681,-1332.370696,1072.533697
1311.783516,-10362.883188,1332.370696,-153.219100
1311.783837,-10066.800811,3256.906145,842.705048
1311.784158,-9030.512492,2516.700203,842.705048
1311.784479,-9770.718434,592.164754,1685.410096
1311.784800,-10436.903782,-2220.617826,919.314598
1311.785121,-9548.656652,-2368.659014,612.876398
1311.785442,-9252.574275,-1776.494261,1378.971896
1311.785763,-10140.821405,-444.123565,1838.629195
1311.786084,-9770.718434,296.082377,2221.676944
1311.786405,-8586.388927,0.000000,2528.115143
1311.786726,-9030.512492,-370.102971,689.485948
1311.787047,-10288.862594,-962.267725,689.485948
1311.787368,-10066.800811,-740.205942,766.095498
1311.787689,-9104.533087,-370.102971,76.609550
1311.788009,-9548.656652,814.226536,536.266849
1311.788330,-9622.677246,1184.329507,1302.362347
1311.788651,-8808.450710,0.000000,1149.143247
1311.788972,-9992.780217,-1184.329507,919.314598
1311.789293,-10658.965565,-2072.576638,306.438199
1311.789614,-9548.656652,-296.082377,-536.266849
1311.789935,-9992.780217,-296.082377,1685.410096
1311.790256,-10436.903782,518.144159,1838.629195
1311.790577,-8734.430116,-148.041188,2374.896044
1311.790898,-9696.697840,-1776.494261,1532.190996
1311.791219,-9696.697840,-3034.844362,1302.362347
1311.791540,-9030.512492,-3997.112087,-766.095498
1311.791861,-8808.450710,-592.164754,-612.876398
1311.792182,-9474.636058,2664.741391,536.266849
1311.792503,-10214.842000,3404.947333,1685.410096
1311.792824,-8660.409521,2738.761985,1838.629195
1311.793145,-9548.656652,0.000000,383.047749
1311.793466,-10955.047942,-2738.761985,-229.828649
1311.793787,-9918.759623,-1776.494261,0.000000
1311.794108,-8438.347739,-370.102971,-153.219100
1311.794429,-9030.512492,1258.350101,0.000000
1311.794750,-8882.471304,2220.617826,1991.848295
1311.795071,-9178.553681,1258.350101,1532.190996
1311.795392,-10362.883188,888.247130,2911.162892
1311.795713,-11695.253884,-1480.411884,2681.334243
1311.796034,-10955.047942,-740.205942,1838.629195
1311.796355,-10732.986159,-1110.308913,1915.238745
1311.796676,-10140.821405,-444.123565,1455.581446
1311.796997,-8216.285956,518.144159,1149.143247
1311.797318,-8808.450710,0.000000,919.314598
1311.797639,-8808.450710,-444.123565,-383.047749
1311.797960,-9326.594869,-1184.329507,-536.266849
1311.798281,-9252.574275,222.061783,842.705048
1311.798602,-9918.759623,592.164754,1608.800546
1311.798923,-9918.759623,296.082377,1608.800546
1311.799244,-8956.491898,74.020594,1838.629195
1311.799565,-9622.677246,-740.205942,1991.848295
1311.799886,-10436.903782,-2738.761985,1225.752797
1311.800207,-8808.450710,-2812.782580,0.000000
1311.800528,-9252.574275,0.000000,-383.047749
1311.800849,-9992.780217,1702.473667,459.657299
1311.801170,-9474.636058,2442.679609,1378.971896
1311.801491,-9326.594869,814.226536,3753.867940
1311.801812,-9326.594869,-1258.350101,919.314598
1311.802133,-10510.924376,-2886.803174,1225.752797
1311.802454,-9770.718434,-1850.514855,1991.848295
1311.802775,-9400.615463,-1776.494261,2374.896044
1311.803096,-10288.862594,-1184.329507,2145.067394
1311.803417,-8808.450710,0.000000,1915.238745
1311.803738,-8290.306550,0.000000,153.219100
1311.804059,-10214.842000,0.000000,612.876398
1311.804380,-9178.553681,-740.205942,1838.629195
1311.804701,-9474.636058,-296.082377,919.314598
1311.805022,-10732.986159,370.102971,1915.238745
1311.805343,-10955.047942,0.000000,1608.800546
1311.805664,-9400.615463,-666.185348,383.047749
1311.805985,-9992.780217,-1036.288319,995.924147
1311.806306,-9400.615463,-888.247130,76.609550
1311.806627,-9030.512492,-814.226536,0.000000
1311.806948,-8512.368333,-518.144159,383.047749
1311.807269,-9622.677246,-1628.453072,306.438199
1311.807590,-9178.553681,-1924.535449,766.095498
1311.807911,-8586.388927,-2220.617826,1225.752797
1311.808232,-10214.842000,-2294.638420,2451.505594
1311.808553,-10510.924376,-2368.659014,2221.676944
1311.808874,-9252.574275,-1554.432478,1149.143247
1311.809195,-9548.656652,1258.350101,766.095498
1311.809516,-10584.944971,2590.720797,919.314598
1311.809837,-10066.800811,2590.720797,1378.971896
1311.810158,-9622.677246,962.267725,1302.362347
1311.810479,-9696.697840,-1110.308913,0.000000
1311.810800,-9622.677246,-2072.576638,-153.219100
1311.811121,-9104.533087,-1332.370696,919.314598
1311.811442,-9844.739029,-666.185348,2145.067394
1311.811763,-9992.780217,0.000000,3064.381992
1311.812084,-9178.553681,148.041188,2911.162892
1311.812405,-9474.636058,-370.102971,2451.505594
1311.812726,-9474.636058,-1332.370696,2374.896044
1311.813047,-9770.718434,-1480.411884,1225.752797
1311.813368,-8586.388927,0.000000,76.609550
1311.813689,-9400.615463,1036.288319,0.000000
1311.814010,-8660.409521,2072.576638,1685.410096
1311.814331,-8882.471304,518.144159,1072.533697
1311.814652,-10436.903782,-222.061783,1072.533697
1311.814973,-10732.986159,0.000000,1072.533697
1311.815294,-9918.759623,74.020594,612.876398
1311.815615,-10510.924376,1110.308913,1685.410096
1311.815936,-10732.986159,1110.308913,919.314598
1311.816257,-8808.450710,814.226536,689.485948
1311.816578,-8364.327145,-740.205942,229.828649
1311.816899,-9104.533087,-2960.823768,0.000000
1311.817220,-9474.636058,-3256.906145,-536.266849
1311.817541,-9030.512492,-1258.350101,-612.876398
1311.817862,-9474.636058,1406.391290,536.266849
1311.818183,-10881.027347,2960.823768,-153.219100
1311.818504,-9696.697840,2072.576638,1455.581446
1311.818825,-10214.842000,666.185348,536.266849
1311.819146,-10807.006753,-1332.370696,-536.266849
1311.819467,-9474.636058,-740.205942,76.609550
1311.819788,-10214.842000,-592.164754,1149.143247
1311.820109,-9844.739029,444.123565,842.705048
1311.820430,-9178.553681,740.205942,612.876398
1311.820751,-7994.224174,592.164754,383.047749
1311.821072,-7772.162391,0.000000,76.609550
1311.821393,-10140.821405,-2294.638420,0.000000
1311.821714,-8364.327145,-1036.288319,-383.047749
1311.822035,-8882.471304,0.000000,306.438199
1311.822356,-10362.883188,-444.123565,766.095498
1311.822677,-9030.512492,1850.514855,2451.505594
1311.822998,-10881.027347,518.144159,3677.258390
1311.823319,-10362.883188,-592.164754,2528.115143
1311.823640,-10214.842000,-1332.370696,1608.800546
1311.823961,-8808.450710,-1406.391290,1378.971896
1311.824282,-9770.718434,0.000000,1378.971896
1311.824603,-10214.842000,814.226536,2145.067394
1311.824923,-8216.285956,-518.144159,1608.800546
1311.825244,-8660.409521,-740.205942,1532.190996
1311.825565,-9918.759623,-2368.659014,1149.143247
1311.825886,-10214.842000,-2072.576638,1225.752797
1311.826207,-10362.883188,-74.020594,1685.410096
1311.826528,-10214.842000,1332.370696,1455.581446
1311.826849,-10436.903782,740.205942,2068.457845
1311.827170,-8882.471304,740.205942,2374.896044
1311.827491,-9844.739029,-2294.638420,919.314598
1311.827812,-9844.739029,-2738.761985,536.266849
1311.828132,-8660.409521,-1850.514855,229.828649
1311.828453,-9400.615463,-592.164754,1072.533697
1311.828774,-10140.821405,666.185348,1455.581446
1311.829095,-9548.656652,666.185348,1455.581446
1311.829416,-8512.368333,148.041188,2451.505594
1311.829737,-10732.986159,-1406.391290,1455.581446
1311.830058,-10881.027347,-2294.638420,1685.410096
1311.830379,-9030.512492,-1406.391290,1302.362347
1311.830700,-9104.533087,-296.082377,1302.362347
1311.831020,-9548.656652,1850.514855,2068.457845
1311.831341,-9104.533087,888.247130,1685.410096
1311.831662,-8660.409521,-222.061783,1302.362347
1311.831983,-9548.656652,-1702.473667,0.000000
1311.832304,-9400.615463,-1480.411884,0.000000
1311.832625,-9104.533087,-296.082377,1455.581446
1311.832946,-9992.780217,-444.123565,1991.848295
1311.833267,-8882.471304,-740.205942,536.266849
1311.833588,-8068.244768,-444.123565,306.438199
1311.833909,-9622.677246,-1406.391290,689.485948
1311.834229,-9844.739029,-1776.494261,689.485948
1311.834550,-9474.636058,-1406.391290,995.924147
1311.834871,-8956.491898,0.000000,1838.629195
1311.835192,-10881.027347,0.000000,1685.410096
1311.835513,-10584.944971,-740.205942,2451.505594
1311.835834,-9104.533087,-1184.329507,1915.238745
1311.836155,-9770.718434,-1924.535449,689.485948
1311.836476,-9992.780217,-1480.411884,536.266849
1311.836797,-9030.512492,-666.185348,0.000000
1311.837117,-9252.574275,-888.247130,-766.095498
1311.837438,-9178.553681,296.082377,-153.219100
1311.837759,-9400.615463,666.185348,0.000000
1311.838080,-9326.594869,1406.391290,536.266849
1311.838401,-11325.150913,0.000000,842.705048
1311.838722,-9992.780217,-444.123565,612.876398
1311.839043,-9400.615463,740.205942,-766.095498
1311.839364,-10510.924376,1776.494261,612.876398
1311.839685,-10584.944971,2294.638420,1838.629195
1311.840006,-9400.615463,962.267725,1225.752797
1311.840326,-9622.677246,0.000000,1378.971896
1311.840647,-9326.594869,-1998.556043,-1225.752797
1311.840968,-9252.574275,-740.205942,153.219100
1311.841289,-9770.718434,-444.123565,1302.362347
1311.841610,-9326.594869,0.000000,1838.629195
1311.841931,-9326.594869,-740.205942,1149.143247
1311.842252,-8956.491898,-148.041188,995.924147
1311.842573,-9918.759623,-148.041188,1302.362347
1311.842894,-10807.006753,-444.123565,1225.752797
1311.843214,-8660.409521,518.144159,919.314598
1311.843535,-8882.471304,1850.514855,153.219100
1311.843856,-9770.718434,2146.597232,612.876398
1311.844177,-8808.450710,962.267725,766.095498
1311.844498,-8512.368333,0.000000,2604.724693
1311.844819,-10658.965565,-2516.700203,1455.581446
1311.845140,-9030.512492,-1406.391290,842.705048
1311.845461,-9178.553681,-1036.288319,1608.800546
1311.845782,-9548.656652,-592.164754,2298.286494
1311.846102,-8956.491898,-222.061783,3677.258390
1311.846423,-8586.388927,-1110.308913,1838.629195
1311.846744,-9178.553681,-1184.329507,1455.581446
1311.847065,-10362.883188,-1480.411884,919.314598
1311.847386,-9326.594869,-962.267725,383.047749
1311.847707,-8660.409521,962.267725,459.657299
1311.848028,-10066.800811,2220.617826,995.924147
1311.848349,-10066.800811,1554.432478,1762.019645
1311.848670,-9178.553681,962.267725,1225.752797
1311.848991,-9622.677246,-2146.597232,2145.067394
1311.849311,-10955.047942,-2072.576638,229.828649
1311.849632,-9770.718434,-740.205942,1685.410096
1311.849953,-10955.047942,-1332.370696,1685.410096
1311.850274,-9474.636058,-296.082377,1532.190996
1311.850595,-8808.450710,-296.082377,919.314598
1311.850916,-9474.636058,-592.164754,1608.800546
1311.851237,-9992.780217,-962.267725,842.705048
1311.851558,-9844.739029,-1480.411884,919.314598
1311.851879,-8364.327145,-222.061783,842.705048
1311.852199,-10584.944971,1110.308913,2068.457845
1311.852520,-11547.212695,1406.391290,3830.477490
1311.852841,-10066.800811,0.000000,2987.772442
1311.853162,-9696.697840,-1184.329507,1915.238745
1311.853483,-10510.924376,-2886.803174,76.609550
1311.853804,-7328.038826,-1628.453072,-2068.457845
1311.854125,-7698.141797,74.020594,-2221.676944
1311.854446,-7920.203579,2738.761985,-2451.505594
1311.854767,-7624.121203,2442.679609,0.000000
1311.855088,-8660.409521,888.247130,919.314598
1311.855408,-11103.089130,-2072.576638,3140.991542
1311.855729,-12139.377449,-3923.091493,2987.772442
1311.856050,-11399.171507,-3701.029710,2911.162892
1311.856371,-9992.780217,-370.102971,3370.820191
1311.856692,-11547.212695,222.061783,3294.210641
1311.857013,-8512.368333,222.061783,2145.067394
1311.857334,-7550.100608,-740.205942,-306.438199
1311.857655,-7402.059420,-2072.576638,-2068.457845
1311.857976,-8808.450710,-1332.370696,-2145.067394
1311.858296,-8882.471304,0.000000,0.000000
1311.858617,-9844.739029,148.041188,1072.533697
1311.858938,-9992.780217,222.061783,1302.362347
1311.859259,-9696.697840,222.061783,1915.238745
1311.859580,-11029.068536,-444.123565,2681.334243
1311.859901,-12139.377449,-2072.576638,2451.505594
1311.860222,-10362.883188,-1702.473667,1072.533697
1311.860543,-9030.512492,0.000000,76.609550
1311.860864,-9252.574275,1110.308913,0.000000
1311.861185,-8438.347739,1850.514855,306.438199
1311.861505,-8734.430116,518.144159,383.047749
1311.861826,-9252.574275,-444.123565,-153.219100
1311.862147,-9770.718434,-814.226536,-306.438199
1311.862468,-10510.924376,-148.041188,2145.067394
1311.862789,-11177.109724,-370.102971,2681.334243
1311.863110,-11547.212695,592.164754,2528.115143
1311.863431,-9104.533087,2368.659014,2298.286494
1311.863752,-10140.821405,962.267725,1149.143247
1311.864073,-9104.533087,814.226536,1072.533697
1311.864393,-9622.677246,-1332.370696,459.657299
1311.864714,-7920.203579,-1110.308913,-766.095498
1311.865035,-8512.368333,1628.453072,229.828649
1311.865356,-10288.862594,1332.370696,1608.800546
1311.865677,-8586.388927,1628.453072,1915.238745
1311.865998,-10066.800811,0.000000,2911.162892
1311.866319,-10955.047942,-2368.659014,2757.943793
1311.866640,-10362.883188,-2886.803174,2068.457845
1311.866961,-10066.800811,-2368.659014,2451.505594
1311.867282,-9918.759623,-888.247130,3217.601092
1311.867602,-9548.656652,-1184.329507,2451.505594
1311.867923,-7920.203579,-666.185348,1838.629195
1311.868244,-8364.327145,-2294.638420,0.000000
1311.868565,-7920.203579,-1998.556043,-1225.752797
1311.868886,-8290.306550,-666.185348,-1149.143247
1311.869207,-9548.656652,962.267725,0.000000
1311.869528,-10436.903782,1480.411884,766.095498
1311.869849,-9474.636058,1628.453072,1685.410096
1311.870170,-9622.677246,-222.061783,2451.505594
1311.870490,-11177.109724,-2812.782580,1762.019645
1311.870811,-11177.109724,-2886.803174,2068.457845
1311.871132,-9474.636058,-1850.514855,1838.629195
1311.871453,-9474.636058,-888.247130,1225.752797
1311.871774,-9178.553681,-222.061783,1225.752797
1311.872095,-7698.141797,148.041188,383.047749
1311.872416,-9030.512492,296.082377,612.876398
1311.872737,-10362.883188,-148.041188,612.876398
1311.873058,-9622.677246,-296.082377,229.828649
1311.873379,-9474.636058,0.000000,612.876398
1311.873699,-10807.006753,814.226536,1225.752797
1311.874020,-9474.636058,592.164754,1991.848295
1311.874341,-9548.656652,1110.308913,1455.581446
1311.874662,-10066.800811,222.061783,1225.752797
1311.874983,-10362.883188,-1036.288319,689.485948
1311.875304,-9104.533087,-1184.329507,919.314598
1311.875625,-9548.656652,-592.164754,1455.581446
1311.875946,-9326.594869,-148.041188,1685.410096
1311.876267,-9178.553681,-592.164754,1608.800546
1311.876587,-8734.430116,-592.164754,1838.629195
1311.876908,-9992.780217,-2294.638420,3140.991542
1311.877229,-9918.759623,-3478.967927,919.314598
1311.877550,-8586.388927,-2146.597232,612.876398
1311.877871,-9548.656652,0.000000,689.485948
1311.878192,-10658.965565,2442.679609,1532.190996
1311.878513,-9178.553681,1924.535449,2451.505594
1311.878834,-9548.656652,370.102971,1378.971896
1311.879155,-10214.842000,-888.247130,306.438199
1311.879475,-8734.430116,-1628.453072,459.657299
1311.879796,-9104.533087,-1406.391290,1302.362347
1311.880117,-10140.821405,-814.226536,1302.362347
1311.880438,-9326.594869,-444.123565,153.219100
1311.880759,-8216.285956,370.102971,0.000000
1311.881080,-8882.471304,-296.082377,383.047749
1311.881401,-10288.862594,-740.205942,229.828649
1311.881722,-10140.821405,-296.082377,536.266849
1311.882043,-9622.677246,1776.494261,306.438199
1311.882364,-11473.192101,2664.741391,1838.629195
1311.882684,-10732.986159,1110.308913,2604.724693
1311.883005,-10436.903782,-148.041188,2451.505594
1311.883326,-10658.965565,-1850.514855,536.266849
1311.883647,-9474.636058,-1998.556043,-919.314598
1311.883968,-8586.388927,-592.164754,-995.924147
1311.884289,-8882.471304,296.082377,229.828649
1311.884610,-9918.759623,370.102971,229.828649
1311.884931,-8438.347739,1184.329507,919.314598
1311.885252,-9548.656652,-1036.288319,1225.752797
1311.885572,-10288.862594,-2294.638420,1302.362347
1311.885893,-9474.636058,-2368.659014,-306.438199
1311.886214,-10362.883188,0.000000,1455.581446
1311.886535,-10288.862594,2738.761985,689.485948
1311.886856,-9844.739029,2738.761985,1455.581446
1311.887177,-8586.388927,1406.391290,2068.457845
1311.887498,-9400.615463,-666.185348,153.219100
1311.887819,-10362.883188,-1776.494261,229.828649
1311.888140,-9622.677246,-1702.473667,1455.581446
1311.888461,-8956.491898,-740.205942,1762.019645
1311.888781,-9770.718434,-592.164754,2451.505594
1311.889102,-9252.574275,-592.164754,2834.553343
1311.889423,-8364.327145,-1036.288319,3524.039291
1311.889744,-10288.862594,-2146.597232,2681.334243
1311.890065,-10140.821405,-2442.679609,1455.581446
1311.890386,-8438.347739,-666.185348,229.828649
1311.890707,-9252.574275,592.164754,0.000000
1311.891028,-9548.656652,2738.761985,1532.190996
1311.891349,-9178.553681,2294.638420,2145.067394
1311.891669,-9548.656652,-444.123565,1302.362347
1311.891990,-10288.862594,-1628.453072,1149.143247
1311.892311,-10584.944971,-2886.803174,1762.019645
1311.892632,-9844.739029,-1628.453072,2374.896044
1311.892953,-10510.924376,-518.144159,2604.724693
1311.893274,-9400.615463,370.102971,1378.971896
1311.893595,-8882.471304,222.061783,536.266849
1311.893916,-9400.615463,-296.082377,1072.533697
1311.894237,-10584.944971,-2072.576638,1072.533697
1311.894558,-9622.677246,-2220.617826,-306.438199
1311.894878,-9918.759623,222.061783,-1378.971896
1311.895199,-10288.862594,1332.370696,689.485948
1311.895520,-9844.739029,2294.638420,2298.286494
1311.895841,-9770.718434,1036.288319,2451.505594
1311.896162,-10362.883188,-222.061783,1149.143247
1311.896483,-10584.944971,-1998.556043,0.000000
1311.896804,-8734.430116,-666.185348,536.266849
1311.897125,-10658.965565,-1258.350101,1455.581446
1311.897446,-9104.533087,222.061783,1225.752797
1311.897766,-8808.450710,-592.164754,0.000000
1311.898087,-8512.368333,-592.164754,689.485948
1311.898408,-9992.780217,-2146.597232,612.876398
1311.898729,-9844.739029,-2738.761985,76.609550
1311.899050,-9030.512492,-1702.473667,383.047749
1311.899371,-9104.533087,1480.411884,-383.047749
1311.899692,-10066.800811,3478.967927,1762.019645
1311.900013,-10140.821405,1998.556043,3447.429741
1311.900334,-9844.739029,-370.102971,2374.896044
1311.900655,-10732.986159,-2368.659014,1455.581446
1311.900975,-9844.739029,-3478.967927,536.266849
1311.901296,-8808.450710,-2368.659014,229.828649
1311.901617,-9178.553681,-1184.329507,-766.095498
1311.901938,-6069.688724,1480.411884,-1762.019645
1311.902259,-6809.894666,2294.638420,-2834.553343
1311.902580,-8956.491898,1776.494261,-919.314598
1311.902901,-10140.821405,0.000000,-153.219100
1311.903222,-10658.965565,-666.185348,2451.505594
1311.903543,-11473.192101,-518.144159,2298.286494
1311.903863,-12509.480420,222.061783,2911.162892
1311.904184,-10732.986159,888.247130,3830.477490
1311.904505,-10140.821405,0.000000,1991.848295
1311.904826,-9696.697840,370.102971,612.876398
1311.905147,-9400.615463,-666.185348,-229.828649
1311.905468,-8290.306550,0.000000,-383.047749
1311.905789,-9104.533087,74.020594,536.266849
1311.906110,-9400.615463,-370.102971,919.314598
1311.906431,-9030.512492,-370.102971,1685.410096
1311.906752,-9104.533087,-740.205942,2451.505594
1311.907072,-10955.047942,-3182.885551,2451.505594
1311.907393,-10584.944971,-888.247130,2145.067394
1311.907714,-10436.903782,-370.102971,2604.724693
1311.908035,-10658.965565,296.082377,1762.019645
1311.908356,-9770.718434,2960.823768,2068.457845
1311.908677,-9844.739029,1776.494261,2068.457845
1311.908998,-9030.512492,740.205942,689.485948
1311.909319,-10214.842000,-1184.329507,1149.143247
1311.909640,-8660.409521,-1998.556043,995.924147
1311.909960,-9474.636058,-1480.411884,2068.457845
1311.910281,-10584.944971,-1702.473667,2834.553343
1311.910602,-8956.491898,0.000000,3064.381992
1311.910923,-7846.182985,-2368.659014,2298.286494
1311.911244,-9548.656652,-666.185348,1762.019645
1311.911565,-9992.780217,-2146.597232,-306.438199
1311.911886,-7846.182985,-666.185348,-919.314598
1311.912207,-9178.553681,1480.411884,229.828649
1311.912528,-10066.800811,1850.514855,1455.581446
1311.912848,-9178.553681,1554.432478,1455.581446
1311.913169,-10584.944971,-222.061783,1455.581446
1311.913490,-11473.192101,-1258.350101,995.924147
1311.913811,-9770.718434,-1480.411884,306.438199
1311.914132,-10436.903782,-1406.391290,1762.019645
1311.914453,-10436.903782,-740.205942,1762.019645
1311.914774,-9474.636058,-1702.473667,1072.533697
1311.915095,-7846.182985,-1258.350101,383.047749
1311.915416,-8734.430116,-1332.370696,0.000000
1311.915737,-9918.759623,-1184.329507,919.314598
1311.916057,-8734.430116,-592.164754,-383.047749
1311.916378,-8660.409521,1628.453072,0.000000
1311.916699,-9770.718434,2146.597232,536.266849
1311.917020,-10732.986159,2220.617826,2298.286494
1311.917341,-10362.883188,740.205942,2451.505594
1311.917662,-11251.130318,-1110.308913,1378.971896
1311.917983,-10732.986159,-888.247130,919.314598
1311.918304,-9400.615463,-296.082377,766.095498
1311.918625,-8586.388927,-370.102971,459.657299
1311.918945,-8734.430116,74.020594,689.485948
1311.919266,-8068.244768,296.082377,919.314598
1311.919587,-8734.430116,-740.205942,536.266849
1311.919908,-9474.636058,-1480.411884,536.266849
1311.920229,-9622.677246,-1998.556043,1532.190996
1311.920550,-9030.512492,-888.247130,1762.019645
1311.920871,-11029.068536,74.020594,2221.676944
1311.921192,-10288.862594,370.102971,2221.676944
1311.921513,-8290.306550,0.000000,919.314598
1311.921834,-10066.800811,-1406.391290,153.219100
1311.922154,-9474.636058,-666.185348,-383.047749
1311.922475,-9178.553681,0.000000,0.000000
1311.922796,-9474.636058,370.102971,919.314598
1311.923117,-9474.636058,296.082377,1225.752797
1311.923438,-9696.697840,-1036.288319,995.924147
1311.923759,-9104.533087,-888.247130,229.828649
1311.924080,-10140.821405,-1110.308913,612.876398
1311.924401,-10658.965565,-1258.350101,1302.362347
1311.924722,-9548.656652,-962.267725,459.657299
1311.925042,-9844.739029,222.061783,229.828649
1311.925363,-9992.780217,1480.411884,229.828649
1311.925684,-9770.718434,1776.494261,1455.581446
1311.926005,-9844.739029,148.041188,2068.457845
1311.926326,-10140.821405,-2368.659014,153.219100
1311.926647,-9030.512492,-1702.473667,-383.047749
1311.926968,-9252.574275,-740.205942,0.000000
1311.927289,-9770.718434,-148.041188,1455.581446
1311.927609,-9030.512492,148.041188,1455.581446
1311.927930,-8808.450710,444.123565,842.705048
1311.928251,-9326.594869,0.000000,-536.266849
1311.928572,-9918.759623,-1110.308913,306.438199
1311.928892,-9474.636058,-814.226536,153.219100
1311.929213,-9474.636058,1036.288319,612.876398
1311.929534,-9992.780217,2590.720797,1762.019645
1311.929854,-10214.842000,2146.597232,2451.505594
1311.930175,-9178.553681,-148.041188,3217.601092
1311.930496,-10658.965565,-3034.844362,2298.286494
1311.930816,-10436.903782,-2738.761985,1455.581446
1311.931137,-9400.615463,-740.205942,1685.410096
1311.931458,-9474.636058,-814.226536,1532.190996
1311.931778,-8438.347739,740.205942,1915.238745
1311.932099,-7846.182985,370.102971,689.485948
1311.932420,-8660.409521,-444.123565,1762.019645
1311.932741,-10362.883188,-2220.617826,1302.362347
1311.933061,-10140.821405,-2738.761985,2221.676944
1311.933382,-9474.636058,-1554.432478,995.924147
1311.933703,-9770.718434,962.267725,1302.362347
1311.934023,-10510.924376,1480.411884,2221.676944
1311.934344,-9178.553681,1554.432478,1762.019645
1311.934665,-9622.677246,-370.102971,612.876398
1311.934985,-9918.759623,-2368.659014,-919.314598
1311.935306,-9548.656652,-1110.308913,995.924147
1311.935627,-10288.862594,-1406.391290,919.314598
1311.935947,-9548.656652,518.144159,612.876398
1311.936268,-9696.697840,814.226536,1608.800546
1311.936589,-9178.553681,370.102971,995.924147
1311.936910,-10288.862594,-296.082377,1532.190996
1311.937230,-11399.171507,-1628.453072,536.266849
1311.937551,-9548.656652,-370.102971,459.657299
1311.937872,-9474.636058,962.267725,383.047749
1311.938192,-10584.944971,1850.514855,1072.533697
1311.938513,-8216.285956,1184.329507,612.876398
1311.938834,-9474.636058,-148.041188,383.047749
1311.939154,-9622.677246,-1554.432478,-612.876398
1311.939475,-9548.656652,-1554.432478,-306.438199
1311.939796,-9622.677246,444.123565,1532.190996
1311.940116,-10362.883188,370.102971,2145.067394
1311.940437,-9992.780217,888.247130,2528.115143
1311.940758,-9030.512492,-222.061783,2451.505594
1311.941079,-9178.553681,-1258.350101,1455.581446
1311.941399,-9844.739029,-2146.597232,1378.971896
1311.941720,-9696.697840,-2368.659014,1225.752797
1311.942041,-8512.368333,0.000000,1225.752797
1311.942361,-9326.594869,296.082377,2145.067394
1311.942682,-8808.450710,0.000000,1378.971896
1311.943003,-8882.471304,74.020594,1455.581446
1311.943323,-10140.821405,-888.247130,536.266849
1311.943644,-9770.718434,-740.205942,612.876398
1311.943965,-9548.656652,-296.082377,1225.752797
1311.944286,-9252.574275,-444.123565,689.485948
1311.944606,-9770.718434,148.041188,1302.362347
1311.944927,-9474.636058,74.020594,1225.752797
1311.945248,-8734.430116,-296.082377,1072.533697
1311.945568,-10955.047942,-1036.288319,689.485948
1311.945889,-9696.697840,-518.144159,0.000000
1311.946210,-9474.636058,888.247130,0.000000
1311.946530,-10510.924376,1480.411884,306.438199
1311.946851,-9326.594869,1924.535449,536.266849
1311.947172,-9252.574275,444.123565,1225.752797
1311.947492,-9696.697840,-740.205942,1608.800546
1311.947813,-10807.006753,-1036.288319,2374.896044
1311.948134,-11177.109724,-2146.597232,2757.943793
1311.948455,-9844.739029,-2072.576638,1915.238745
1311.948775,-9770.718434,-1184.329507,536.266849
1311.949096,-7994.224174,0.000000,-689.485948
1311.949417,-7328.038826,1480.411884,-1762.019645
1311.949737,-7550.100608,962.267725,-1762.019645
1311.950058,-8216.285956,74.020594,-1532.190996
1311.950379,-8956.491898,222.061783,-536.266849
1311.950699,-11103.089130,-296.082377,1455.581446
1311.951020,-10955.047942,592.164754,3294.210641
1311.951341,-11843.295072,-1258.350101,4596.572988
1311.951661,-9622.677246,-1184.329507,2757.943793
1311.951982,-9844.739029,-1998.556043,842.705048
1311.952303,-9474.636058,-740.205942,612.876398
1311.952624,-7994.224174,1406.391290,1455.581446
1311.952944,-9030.512492,0.000000,689.485948
1311.953265,-7772.162391,222.061783,459.657299
1311.953586,-8290.306550,-1332.370696,-383.047749
1311.953906,-9326.594869,-1406.391290,842.705048
1311.954227,-10510.924376,-1406.391290,2145.067394
1311.954548,-9548.656652,-1924.535449,1838.629195
1311.954868,-9030.512492,0.000000,1302.362347
1311.955189,-11177.109724,1184.329507,2451.505594
1311.955510,-10510.924376,740.205942,2451.505594
1311.955830,-10066.800811,0.000000,2374.896044
1311.956151,-10732.986159,-518.144159,2528.115143
1311.956472,-9622.677246,-888.247130,229.828649
1311.956793,-9178.553681,-1110.308913,536.266849
1311.957113,-9326.594869,-962.267725,1608.800546
1311.957434,-9474.636058,-1702.473667,1302.362347
1311.957755,-9178.553681,-1184.329507,1302.362347
1311.958075,-9770.718434,-518.144159,1991.848295
1311.958396,-10807.006753,-296.082377,1532.190996
1311.958717,-10584.944971,148.041188,1455.581446
1311.959037,-8512.368333,888.247130,612.876398
1311.959358,-10140.821405,1998.556043,612.876398
1311.959679,-9622.677246,2368.659014,1225.752797
1311.960000,-9474.636058,1480.411884,1455.581446
1311.960320,-9474.636058,444.123565,1685.410096
1311.960641,-10214.842000,74.020594,1991.848295
1311.960962,-9918.759623,-888.247130,1302.362347
1311.961282,-9770.718434,592.164754,2068.457845
1311.961603,-10362.883188,0.000000,2298.286494
1311.961924,-8956.491898,-1110.308913,1915.238745
1311.962244,-8364.327145,-1332.370696,1532.190996
1311.962565,-9252.574275,-2664.741391,2068.457845
1311.962886,-8882.471304,-3627.009116,153.219100
1311.963206,-7254.018232,-2738.761985,-536.266849
1311.963527,-7920.203579,-222.061783,-383.047749
1311.963848,-9400.615463,1184.329507,1302.362347
1311.964169,-9400.615463,518.144159,2374.896044
1311.964489,-9770.718434,-518.144159,842.705048
1311.964810,-10288.862594,-740.205942,842.705048
1311.965131,-10807.006753,-1702.473667,842.705048
1311.965451,-9844.739029,148.041188,2374.896044
1311.965772,-10140.821405,-962.267725,1608.800546
1311.966093,-8290.306550,-1480.411884,0.000000
1311.966413,-7846.182985,-1628.453072,-536.266849
1311.966734,-8956.491898,-2072.576638,-229.828649
1311.967055,-10214.842000,-1924.535449,0.000000
1311.967375,-9918.759623,-666.185348,229.828649
1311.967696,-9474.636058,1332.370696,536.266849
1311.968017,-10955.047942,1258.350101,1149.143247
1311.968338,-10584.944971,1480.411884,1762.019645
1311.968658,-10436.903782,740.205942,2911.162892
1311.968979,-10881.027347,-1924.535449,383.047749
1311.969300,-10214.842000,-2220.617826,-842.705048
1311.969620,-9622.677246,-1110.308913,-153.219100
1311.969941,-9178.553681,0.000000,306.438199
1311.970262,-9400.615463,592.164754,1149.143247
1311.970582,-9252.574275,-222.061783,1455.581446
1311.970903,-9326.594869,-1702.473667,689.485948
1311.971224,-10362.883188,-2294.638420,536.266849
1311.971544,-10584.944971,-2294.638420,-306.438199
1311.971865,-8882.471304,222.061783,306.438199
1311.972186,-9474.636058,2664.741391,1072.533697
1311.972507,-9918.759623,2294.638420,2298.286494
1311.972827,-9918.759623,814.226536,2911.162892
1311.973148,-9844.739029,-1998.556043,1991.848295
1311.973469,-9770.718434,-4145.153275,459.657299
1311.973789,-9178.553681,-1998.556043,1225.752797
1311.974110,-9548.656652,0.000000,2604.724693
1311.974431,-9104.533087,222.061783,2987.772442
1311.974751,-8290.306550,-74.020594,1378.971896
1311.975072,-7994.224174,-592.164754,919.314598
1311.975393,-9252.574275,-518.144159,1072.533697
1311.975714,-10584.944971,-1480.411884,995.924147
1311.976034,-9252.574275,-666.185348,1072.533697
1311.976355,-9030.512492,444.123565,536.266849
1311.976676,-9696.697840,1184.329507,766.095498
1311.976996,-9770.718434,2146.597232,1072.533697
1311.977317,-10288.862594,592.164754,2681.334243
1311.977638,-11399.171507,-1628.453072,2681.334243
1311.977958,-10362.883188,-1924.535449,2911.162892
1311.978279,-10436.903782,-1184.329507,2528.115143
1311.978600,-10066.800811,-888.247130,1685.410096
1311.978920,-9252.574275,296.082377,689.485948
1311.979241,-8068.244768,1036.288319,76.609550
1311.979562,-8586.388927,-148.041188,-766.095498
1311.979883,-8660.409521,814.226536,-76.609550
1311.980203,-11325.150913,-1110.308913,-306.438199
1311.980524,-8660.409521,666.185348,306.438199
1311.980845,-11251.130318,1998.556043,1455.581446
1311.981165,-12139.377449,2516.700203,2451.505594
1311.981486,-9992.780217,592.164754,2451.505594
1311.981807,-9844.739029,-814.226536,76.609550
1311.982127,-10658.965565,-296.082377,612.876398
1311.982448,-8216.285956,-296.082377,-766.095498
1311.982769,-10288.862594,888.247130,766.095498
1311.983089,-9030.512492,370.102971,459.657299
1311.983410,-8512.368333,1184.329507,-383.047749
1311.983731,-9326.594869,666.185348,1302.362347
1311.984052,-9918.759623,-740.205942,2221.676944
1311.984372,-9844.739029,-1776.494261,536.266849
1311.984693,-10140.821405,-1184.329507,766.095498
1311.985014,-9770.718434,1110.308913,689.485948
1311.985334,-9400.615463,1554.432478,1608.800546
1311.985655,-10362.883188,666.185348,1762.019645
1311.985976,-8512.368333,370.102971,995.924147
1311.986296,-10214.842000,-1850.514855,153.219100
1311.986617,-8956.491898,-2368.659014,-536.266849
1311.986938,-7920.203579,-1406.391290,-612.876398
1311.987258,-9622.677246,-666.185348,1072.533697
1311.987579,-9252.574275,0.000000,1302.362347
1311.987900,-8808.450710,-518.144159,1685.410096
1311.988221,-9844.739029,-2072.576638,842.705048
1311.988541,-10214.842000,-2442.679609,1149.143247
1311.988862,-9844.739029,-1184.329507,919.314598
1311.989183,-10362.883188,592.164754,1838.629195
1311.989503,-10436.903782,1332.370696,1455.581446
1311.989824,-9178.553681,592.164754,1455.581446
1311.990145,-8956.491898,-962.267725,1149.143247
1311.990465,-9770.718434,-2368.659014,689.485948
1311.990786,-9992.780217,-2220.617826,383.047749
1311.991107,-9548.656652,-148.041188,1149.143247
1311.991428,-9844.739029,1332.370696,1991.848295
1311.991748,-10140.821405,1036.288319,1685.410096
1311.992069,-9474.636058,1036.288319,2298.286494
1311.992390,-10807.006753,-1184.329507,2528.115143
1311.992710,-9474.636058,-2368.659014,1072.533697
1311.993031,-9474.636058,-2664.741391,995.924147
1311.993352,-9696.697840,-370.102971,1225.752797
1311.993672,-10066.800811,1850.514855,919.314598
1311.993993,-9844.739029,1850.514855,2221.676944
1311.994314,-9474.636058,296.082377,919.314598
1311.994634,-8216.285956,370.102971,766.095498
1311.994955,-11547.212695,-1702.473667,1991.848295
1311.995276,-9400.615463,-518.144159,2298.286494
1311.995597,-10584.944971,-1850.514855,3217.601092
1311.995917,-9918.759623,-2368.659014,2604.724693
1311.996238,-7846.182985,-2812.782580,995.924147
1311.996559,-9844.739029,-2886.803174,766.095498
1311.996879,-7476.080014,-814.226536,-919.314598
1311.997200,-8734.430116,-222.061783,-1685.410096
1311.997521,-7698.141797,740.205942,-1762.019645
1311.997841,-8956.491898,2664.741391,-1378.971896
1311.998162,-11325.150913,1998.556043,1915.238745
1311.998483,-10584.944971,148.041188,2834.553343
1311.998803,-11325.150913,-2516.700203,3447.429741
1311.999124,-10807.006753,-3404.947333,2221.676944
1311.999445,-9844.739029,-2664.741391,842.705048
1311.999766,-9696.697840,74.020594,1302.362347
1312.000086,-8290.306550,1406.391290,919.314598
1312.000407,-8438.347739,1110.308913,-536.266849
1312.000728,-7846.182985,1184.329507,-459.657299
1312.001048,-8956.491898,-1554.432478,-306.438199
1312.001369,-10362.883188,-2590.720797,383.047749
1312.001690,-9696.697840,-1406.391290,229.828649
1312.002010,-10214.842000,444.123565,1378.971896
1312.002331,-11103.089130,2294.638420,1915.238745
1312.002652,-9918.759623,2516.700203,2068.457845
1312.002972,-10436.903782,1776.494261,1685.410096
1312.003293,-10436.903782,592.164754,536.266849
1312.003614,-10214.842000,0.000000,0.000000
1312.003935,-9474.636058,888.247130,612.876398
1312.004255,-9400.615463,740.205942,1455.581446
1312.004576,-9622.677246,222.061783,1762.019645
1312.004897,-9104.533087,-814.226536,2834.553343
1312.005217,-9326.594869,-2368.659014,1532.190996
1312.005538,-10362.883188,-2368.659014,1608.800546
1312.005859,-9474.636058,-592.164754,1149.143247
1312.006179,-9548.656652,1036.288319,1915.238745
1312.006500,-9474.636058,1850.514855,1532.190996
1312.006821,-9474.636058,1184.329507,1225.752797
1312.007142,-8808.450710,666.185348,1378.971896
1312.007462,-10362.883188,-1184.329507,1685.410096
1312.007783,-9622.677246,-2590.720797,1225.752797
1312.008104,-9326.594869,-1480.411884,1302.362347
1312.008424,-10362.883188,-296.082377,1072.533697
1312.008745,-9992.780217,1924.535449,1762.019645
1312.009066,-9918.759623,2146.597232,2528.115143
1312.009386,-8808.450710,-962.267725,1455.581446
1312.009707,-9770.718434,-1850.514855,306.438199
1312.010028,-9770.718434,-2516.700203,-536.266849
1312.010348,-7920.203579,-1998.556043,-1302.362347
1312.010669,-8068.244768,518.144159,-612.876398
1312.010990,-8808.450710,2294.638420,995.924147
1312.011311,-9252.574275,1776.494261,1378.971896
1312.011631,-9770.718434,814.226536,1072.533697
1312.011952,-11769.274478,-666.185348,306.438199
1312.012273,-9844.739029,-370.102971,459.657299
1312.012593,-10881.027347,296.082377,1915.238745
1312.012914,-10510.924376,222.061783,3064.381992
1312.013235,-9104.533087,-1776.494261,536.266849
1312.013555,-7179.997637,-2738.761985,-306.438199
1312.013876,-8734.430116,-3182.885551,-229.828649
1312.014197,-9400.615463,-2368.659014,76.609550
1312.014517,-9622.677246,-1110.308913,459.657299
1312.014838,-8364.327145,1554.432478,459.657299
1312.015159,-9844.739029,3034.844362,459.657299
1312.015480,-10066.800811,1924.535449,1838.629195
1312.015800,-9548.656652,1258.350101,2451.505594
1312.016121,-11251.130318,-1554.432478,2374.896044
1312.016442,-10955.047942,-3108.864956,459.657299
1312.016762,-8438.347739,-1776.494261,1149.143247
1312.017083,-9622.677246,-2738.761985,1378.971896
1312.017404,-8882.471304,-666.185348,153.219100
1312.017724,-8808.450710,-222.061783,1378.971896
1312.018045,-9104.533087,-814.226536,1685.410096
1312.018366,-9918.759623,-1110.308913,1302.362347
1312.018686,-9992.780217,-2146.597232,1072.533697
1312.019007,-9474.636058,-1850.514855,1302.362347
1312.019328,-9622.677246,518.144159,612.876398
1312.019649,-10955.047942,1184.329507,2298.286494
1312.019969,-8808.450710,0.000000,2451.505594
1312.020290,-10584.944971,-1110.308913,2298.286494
1312.020611,-10658.965565,-1924.535449,1608.800546
1312.020931,-9992.780217,-1776.494261,229.828649
1312.021252,-8956.491898,0.000000,1685.410096
1312.021573,-10066.800811,-222.061783,2145.067394
1312.021893,-9474.636058,-296.082377,2298.286494
1312.022214,-9252.574275,-1406.391290,1685.410096
1312.022535,-9400.615463,-1850.514855,689.485948
1312.022856,-9992.780217,-2368.659014,-229.828649
1312.023176,-8882.471304,-518.144159,1149.143247
1312.023497,-9548.656652,1110.308913,1225.752797
1312.023818,-9992.780217,1924.535449,919.314598
1312.024138,-8660.409521,1554.432478,383.047749
1312.024459,-9252.574275,1258.350101,76.609550
1312.024780,-10288.862594,296.082377,919.314598
1312.025100,-10584.944971,74.020594,919.314598
1312.025421,-9622.677246,1110.308913,2221.676944
1312.025742,-9992.780217,666.185348,1915.238745
1312.026062,-9622.677246,-222.061783,1915.238745
1312.026383,-9992.780217,-814.226536,2834.553343
1312.026704,-9474.636058,-2738.761985,2068.457845
1312.027025,-9474.636058,-2664.741391,1455.581446
1312.027345,-8956.491898,-3182.885551,0.000000
1312.027666,-7179.997637,0.000000,-153.219100
1312.027987,-9474.636058,2146.597232,306.438199
1312.028308,-10584.944971,1850.514855,2451.505594
1312.028629,-8216.285956,222.061783,459.657299
1312.028949,-9548.656652,-2516.700203,459.657299
1312.029270,-10214.842000,-3108.864956,-995.924147
1312.029591,-9622.677246,-1554.432478,-229.828649
1312.029912,-10436.903782,740.205942,1532.190996
1312.030233,-10214.842000,962.267725,1225.752797
1312.030553,-8290.306550,1554.432478,-383.047749
1312.030874,-9918.759623,370.102971,383.047749
1312.031195,-10732.986159,-814.226536,229.828649
1312.031516,-9696.697840,-740.205942,-689.485948
1312.031837,-9696.697840,-518.144159,0.000000
1312.032157,-9326.594869,1406.391290,0.000000
1312.032478,-10436.903782,2368.659014,1378.971896
1312.032799,-10066.800811,1554.432478,1915.238745
1312.033120,-9548.656652,1110.308913,1608.800546
1312.033441,-10807.006753,-1332.370696,76.609550
1312.033761,-9548.656652,-666.185348,-536.266849
1312.034082,-10066.800811,592.164754,76.609550
1312.034403,-10066.800811,1036.288319,766.095498
1312.034724,-9696.697840,1406.391290,919.314598
1312.035045,-8808.450710,962.267725,842.705048
1312.035365,-10066.800811,-1036.288319,842.705048
1312.035686,-10881.027347,-1776.494261,459.657299
1312.036007,-9474.636058,-2368.659014,1072.533697
1312.036328,-9918.759623,-888.247130,1455.581446
1312.036649,-10066.800811,962.267725,2145.067394
1312.036969,-8734.430116,148.041188,3830.477490
1312.037290,-9696.697840,-814.226536,2451.505594
1312.037611,-9030.512492,-1184.329507,1762.019645
1312.037932,-9252.574275,-3108.864956,919.314598
1312.038253,-7698.141797,-1406.391290,1532.190996
1312.038573,-9474.636058,-1184.329507,2451.505594
1312.038894,-8660.409521,0.000000,1532.190996
1312.039215,-9104.533087,222.061783,2604.724693
1312.039536,-8512.368333,0.000000,2145.067394
1312.039857,-10066.800811,-1480.411884,1149.143247
1312.040177,-9474.636058,-1184.329507,995.924147
1312.040498,-8734.430116,444.123565,459.657299
1312.040819,-10288.862594,1406.391290,2298.286494
1312.041140,-10881.027347,1628.453072,3064.381992
1312.041461,-8882.471304,-1184.329507,2145.067394
1312.041781,-9474.636058,-2368.659014,995.924147
1312.042102,-9104.533087,-2220.617826,76.609550
1312.042423,-9844.739029,74.020594,2068.457845
1312.042744,-10362.883188,222.061783,3524.039291
1312.043065,-9992.780217,-148.041188,3064.381992
1312.043385,-10214.842000,-1776.494261,2911.162892
1312.043706,-9770.718434,-3330.926739,1532.190996
1312.044027,-9770.718434,-3627.009116,306.438199
1312.044348,-9474.636058,-2590.720797,-1915.238745
1312.044669,-7402.059420,1480.411884,-2911.162892
1312.044989,-7624.121203,3849.070898,-3677.258390
1312.045310,-7624.121203,4959.379811,-3830.477490
1312.045631,-9326.594869,2294.638420,-1455.581446
1312.045952,-10436.903782,148.041188,842.705048
1312.046273,-12213.398043,-1702.473667,1608.800546
1312.046593,-12879.583391,-2812.782580,3447.429741
1312.046914,-11769.274478,-1332.370696,3677.258390
1312.047235,-11695.253884,-592.164754,3294.210641
1312.047556,-9548.656652,222.061783,1838.629195
1312.047877,-7698.141797,296.082377,689.485948
1312.048197,-8808.450710,-1628.453072,-153.219100
1312.048518,-8290.306550,-2664.741391,-1838.629195
1312.048839,-7994.224174,-1480.411884,-2604.724693
1312.049160,-8734.430116,1702.473667,-612.876398
1312.049481,-9178.553681,3182.885551,1991.848295
1312.049801,-10732.986159,1110.308913,3370.820191
1312.050122,-9622.677246,-1258.350101,2987.772442
1312.050443,-10584.944971,-2664.741391,1685.410096
1312.050764,-10955.047942,-3034.844362,1225.752797
1312.051085,-9770.718434,-592.164754,1455.581446
1312.051405,-9252.574275,888.247130,1455.581446
1312.051726,-8586.388927,1924.535449,536.266849
1312.052047,-7846.182985,1850.514855,689.485948
1312.052368,-8438.347739,-518.144159,1378.971896
1312.052689,-9548.656652,-2812.782580,919.314598
1312.053009,-9918.759623,-3552.988522,995.924147
1312.053330,-9474.636058,-1998.556043,842.705048
1312.053651,-9548.656652,-518.144159,2604.724693
1312.053972,-9918.759623,1184.329507,3064.381992
1312.054293,-9474.636058,444.123565,2681.334243
1312.054613,-10288.862594,-740.205942,1302.362347
1312.054934,-9474.636058,-888.247130,-766.095498
1312.055255,-9548.656652,-740.205942,0.000000
1312.055576,-9696.697840,0.000000,1149.143247
1312.055897,-9918.759623,296.082377,1762.019645
1312.056217,-9918.759623,962.267725,1225.752797
1312.056538,-9770.718434,962.267725,1762.019645
1312.056859,-10140.821405,-888.247130,1302.362347
1312.057180,-10362.883188,-1776.494261,766.095498
1312.057501,-9326.594869,-666.185348,-612.876398
1312.057821,-8734.430116,1332.370696,383.047749
1312.058142,-9844.739029,1998.556043,842.705048
1312.058463,-7920.203579,1110.308913,383.047749
1312.058784,-9030.512492,-740.205942,229.828649
1312.059105,-9844.739029,-1406.391290,1685.410096
1312.059425,-10362.883188,-962.267725,1225.752797
1312.059746,-10510.924376,0.000000,3064.381992
1312.060067,-10362.883188,814.226536,1915.238745
1312.060388,-9844.739029,518.144159,2451.505594
1312.060709,-8512.368333,814.226536,842.705048
1312.061029,-9696.697840,-740.205942,1149.143247
1312.061350,-9104.533087,-2368.659014,-612.876398
1312.061671,-8364.327145,-1480.411884,-1455.581446
1312.061992,-8586.388927,-74.020594,-383.047749
1312.062313,-10214.842000,1110.308913,1225.752797
1312.062633,-9770.718434,1258.350101,2374.896044
1312.062954,-9918.759623,-296.082377,1991.848295
1312.063275,-9770.718434,-518.144159,1991.848295
1312.063596,-11399.171507,-1554.432478,1455.581446
1312.063917,-9030.512492,-592.164754,1608.800546
1312.064237,-9770.718434,-888.247130,1608.800546
1312.064558,-8882.471304,-592.164754,995.924147
1312.064879,-8216.285956,-1110.308913,842.705048
1312.065200,-8734.430116,-1776.494261,842.705048
1312.065521,-9400.615463,-1776.494261,306.438199
1312.065841,-9326.594869,-444.123565,306.438199
1312.066162,-9622.677246,1332.370696,1455.581446
1312.066483,-11103.089130,2368.659014,2757.943793
1312.066804,-10807.006753,1628.453072,3217.601092
1312.067125,-9770.718434,-592.164754,2604.724693
1312.067445,-9992.780217,-1924.535449,1532.190996
1312.067766,-10658.965565,-2590.720797,1072.533697
1312.068087,-8660.409521,-666.185348,1072.533697
1312.068408,-9696.697840,0.000000,1838.629195
1312.068729,-8808.450710,1406.391290,1608.800546
1312.069049,-9696.697840,0.000000,1762.019645
1312.069370,-9104.533087,222.061783,1149.143247
1312.069691,-10214.842000,296.082377,1685.410096
1312.070012,-10584.944971,-740.205942,1532.190996
1312.070333,-8586.388927,-296.082377,1532.190996
1312.070653,-9326.594869,592.164754,76.609550
1312.070974,-9770.718434,592.164754,459.657299
1312.071295,-8438.347739,0.000000,459.657299
1312.071616,-9548.656652,-666.185348,1762.019645
1312.071937,-10436.903782,-2368.659014,229.828649
1312.072257,-9252.574275,-1776.494261,-306.438199
1312.072578,-9326.594869,-444.123565,1225.752797
1312.072899,-10140.821405,-518.144159,1838.629195
1312.073220,-10362.883188,-592.164754,2604.724693
1312.073541,-10140.821405,-1480.411884,2298.286494
1312.073861,-10066.800811,-1406.391290,995.924147
1312.074182,-9548.656652,-2294.638420,0.000000
1312.074503,-8068.244768,-1406.391290,-1225.752797
1312.074824,-8438.347739,1554.432478,-612.876398
1312.075145,-9622.677246,1628.453072,-689.485948
1312.075465,-9030.512492,1258.350101,0.000000
1312.075786,-9326.594869,-148.041188,0.000000
1312.076107,-10066.800811,-1702.473667,76.609550
1312.076428,-10658.965565,-1998.556043,306.438199
1312.076749,-10362.883188,0.000000,1378.971896
1312.077069,-9992.780217,592.164754,1685.410096
1312.077390,-9918.759623,666.185348,1072.533697
1312.077711,-8512.368333,148.041188,689.485948
1312.078032,-9474.636058,-962.267725,383.047749
1312.078353,-10140.821405,-1480.411884,306.438199
1312.078673,-9104.533087,-1258.350101,-995.924147
1312.078994,-7920.203579,0.000000,0.000000
1312.079315,-9918.759623,1406.391290,842.705048
1312.079636,-9992.780217,3108.864956,2068.457845
1312.079957,-11177.109724,1554.432478,4826.401637
1312.080277,-10362.883188,-888.247130,2834.553343
1312.080598,-10288.862594,-2516.700203,1532.190996
1312.080919,-10288.862594,-2886.803174,1762.019645
1312.081240,-8808.450710,-296.082377,2221.676944
1312.081561,-10140.821405,-296.082377,2757.943793
1312.081881,-8142.265362,592.164754,1532.190996
1312.082202,-8734.430116,-592.164754,1378.971896
1312.082523,-9474.636058,-888.247130,1378.971896
1312.082844,-10510.924376,-814.226536,1072.533697
1312.083165,-9474.636058,-740.205942,459.657299
1312.083485,-8438.347739,1628.453072,1225.752797
1312.083806,-10510.924376,888.247130,2221.676944
1312.084127,-10066.800811,2664.741391,4903.011187
1312.084448,-9992.780217,-592.164754,2911.162892
1312.084769,-10436.903782,-2220.617826,1532.190996
1312.085089,-9548.656652,-2220.617826,1302.362347
1312.085410,-9474.636058,-1628.453072,1378.971896
1312.085731,-9696.697840,-222.061783,2911.162892
1312.086052,-9252.574275,-370.102971,1915.238745
1312.086373,-8364.327145,-148.041188,1225.752797
1312.086693,-8956.491898,-1184.329507,459.657299
1312.087014,-9844.739029,-370.102971,306.438199
1312.087335,-9770.718434,222.061783,0.000000
1312.087656,-9252.574275,2442.679609,306.438199
1312.087977,-9400.615463,2664.741391,229.828649
1312.088297,-9400.615463,888.247130,689.485948
1312.088618,-10140.821405,222.061783,1149.143247
1312.088939,-10807.006753,-592.164754,1455.581446
1312.089260,-10362.883188,-1776.494261,842.705048
1312.089581,-9400.615463,-1924.535449,766.095498
1312.089901,-8734.430116,-222.061783,0.000000
1312.090222,-10214.842000,1628.453072,766.095498
1312.090543,-8882.471304,1924.535449,1991.848295
1312.090864,-9252.574275,74.020594,2145.067394
1312.091185,-10362.883188,-2368.659014,2221.676944
1312.091505,-10584.944971,-4737.318029,766.095498
1312.091826,-8364.327145,-3330.926739,-612.876398
1312.092147,-9474.636058,-1332.370696,-1149.143247
1312.092468,-7254.018232,2960.823768,-689.485948
1312.092789,-7698.141797,3256.906145,-1532.190996
1312.093109,-8216.285956,2442.679609,-536.266849
1312.093430,-10066.800811,-222.061783,-459.657299
1312.093751,-11103.089130,-1554.432478,1225.752797
1312.094072,-10955.047942,-2368.659014,2374.896044
1312.094393,-11843.295072,-1850.514855,3370.820191
1312.094713,-11547.212695,-1110.308913,3830.477490
1312.095034,-9104.533087,-666.185348,2298.286494
1312.095355,-9030.512492,-1184.329507,2451.505594
1312.095676,-8512.368333,-1924.535449,-842.705048
1312.095997,-8216.285956,-1406.391290,-1225.752797
1312.096317,-9474.636058,518.144159,-766.095498
1312.096638,-9474.636058,1480.411884,0.000000
1312.096959,-9474.636058,1702.473667,2145.067394
1312.097280,-9992.780217,-148.041188,2681.334243
1312.097601,-11251.130318,-2220.617826,1915.238745
1312.097921,-10955.047942,-1554.432478,1838.629195
1312.098242,-10658.965565,0.000000,2451.505594
1312.098563,-10510.924376,740.205942,2451.505594
1312.098884,-10214.842000,888.247130,2221.676944
1312.099205,-8512.368333,740.205942,1608.800546
1312.099525,-8882.471304,-962.267725,689.485948
1312.099846,-9326.594869,-2886.803174,383.047749
1312.100167,-8808.450710,-4367.215058,-459.657299
1312.100488,-8068.244768,-2146.597232,-536.266849
1312.100809,-10362.883188,666.185348,1455.581446
1312.101129,-9992.780217,3034.844362,3830.477490
1312.101450,-10140.821405,1406.391290,3140.991542
1312.101771,-10066.800811,0.000000,1685.410096
1312.102092,-10436.903782,-1702.473667,842.705048
1312.102413,-9252.574275,-740.205942,1378.971896
1312.102733,-9400.615463,-1776.494261,1685.410096
1312.103054,-9178.553681,-2072.576638,1762.019645
1312.103375,-8882.471304,-2294.638420,536.266849
1312.103696,-8882.471304,-962.267725,459.657299
1312.104017,-10066.800811,592.164754,766.095498
1312.104337,-10214.842000,0.000000,1302.362347
1312.104658,-8956.491898,0.000000,0.000000
1312.104979,-8882.471304,1554.432478,-612.876398
1312.105300,-9622.677246,1258.350101,-229.828649
1312.105621,-7920.203579,1554.432478,612.876398
1312.105941,-9474.636058,-1628.453072,1072.533697
1312.106262,-9770.718434,-2146.597232,-919.314598
1312.106583,-9844.739029,-74.020594,459.657299
1312.106904,-10881.027347,-296.082377,1838.629195
1312.107225,-11399.171507,-296.082377,2987.772442
1312.107545,-9992.780217,296.082377,2451.505594
1312.107866,-9844.739029,-444.123565,1455.581446
1312.108187,-9178.553681,74.020594,229.828649
1312.108508,-9548.656652,-1258.350101,0.000000
1312.108829,-9104.533087,-1850.514855,-1149.143247
1312.109149,-8364.327145,1628.453072,-1149.143247
1312.109470,-10066.800811,2960.823768,459.657299
1312.109791,-10066.800811,1998.556043,1838.629195
1312.110112,-9474.636058,1036.288319,1762.019645
1312.110433,-10510.924376,0.000000,1532.190996
1312.110753,-10955.047942,-222.061783,1915.238745
1312.111074,-10066.800811,444.123565,1532.190996
1312.111395,-9992.780217,-148.041188,2681.334243
1312.111716,-9326.594869,-592.164754,1685.410096
1312.112037,-8216.285956,-1776.494261,689.485948
1312.112357,-8068.244768,-518.144159,612.876398
1312.112678,-9252.574275,-1998.556043,383.047749
1312.112999,-8882.471304,-740.205942,383.047749
1312.113320,-9178.553681,740.205942,842.705048
1312.113641,-9844.739029,2146.597232,1608.800546
1312.113961,-10140.821405,1110.308913,2298.286494
1312.114282,-9992.780217,148.041188,2068.457845
1312.114603,-9844.739029,-1998.556043,1378.971896
1312.114924,-10066.800811,-2294.638420,0.000000
1312.115245,-9326.594869,-222.061783,1149.143247
1312.115565,-9400.615463,0.000000,1532.190996
1312.115886,-9252.574275,444.123565,1991.848295
1312.116207,-9178.553681,-1110.308913,919.314598
1312.116528,-7846.182985,-962.267725,919.314598
1312.116849,-9992.780217,-2146.597232,689.485948
1312.117169,-10140.821405,-1554.432478,536.266849
1312.117490,-9474.636058,444.123565,229.828649
1312.117811,-10288.862594,2590.720797,1302.362347
1312.118132,-10658.965565,2368.659014,536.266849
1312.118453,-8882.471304,2294.638420,2221.676944
1312.118773,-12139.377449,-222.061783,459.657299
1312.119094,-10066.800811,-1480.411884,-229.828649
1312.119415,-9696.697840,-2442.679609,-1225.752797
1312.119736,-9474.636058,296.082377,1072.533697
1312.120057,-9770.718434,-592.164754,306.438199
1312.120377,-10214.842000,740.205942,2451.505594
1312.120698,-8216.285956,0.000000,2145.067394
1312.121019,-10362.883188,-1628.453072,1149.143247
1312.121340,-9622.677246,-2960.823768,1991.848295
1312.121661,-9178.553681,-2812.782580,612.876398
1312.121981,-9104.533087,-518.144159,76.609550
1312.122302,-9400.615463,740.205942,766.095498
1312.122623,-8586.388927,1332.370696,1225.752797
1312.122944,-9474.636058,222.061783,1991.848295
1312.123265,-10140.821405,-962.267725,1455.581446
1312.123585,-9844.739029,-1850.514855,995.924147
1312.123906,-9178.553681,-1110.308913,1378.971896
1312.124227,-10140.821405,444.123565,2145.067394
1312.124548,-9992.780217,370.102971,2681.334243
1312.124869,-9178.553681,-2368.659014,1302.362347
1312.125189,-8142.265362,-1332.370696,1762.019645
1312.125510,-9178.553681,-3108.864956,689.485948
1312.125831,-8882.471304,-1776.494261,229.828649
1312.126152,-9770.718434,0.000000,612.876398
1312.126473,-9326.594869,962.267725,995.924147
1312.126793,-9548.656652,1998.556043,1762.019645
1312.127114,-9178.553681,888.247130,1991.848295
1312.127435,-9326.594869,-148.041188,1378.971896
1312.127756,-11991.336260,-740.205942,536.266849
1312.128077,-9400.615463,74.020594,995.924147
1312.128397,-9770.718434,-296.082377,1455.581446
1312.128718,-10214.842000,-296.082377,995.924147
1312.129039,-9622.677246,222.061783,612.876398
1312.129360,-9474.636058,-666.185348,995.924147
1312.129681,-9992.780217,-1554.432478,1685.410096
1312.130001,-10362.883188,-2960.823768,919.314598
1312.130322,-9178.553681,-814.226536,-536.266849
1312.130643,-9918.759623,1258.350101,306.438199
1312.130964,-10732.986159,2886.803174,1915.238745
1312.131285,-9474.636058,1628.453072,1685.410096
1312.131605,-9252.574275,-592.164754,689.485948
1312.131926,-9844.739029,-2442.679609,-689.485948
1312.132247,-9696.697840,-592.164754,-306.438199
1312.132568,-10436.903782,888.247130,1685.410096
1312.132889,-9622.677246,1998.556043,2374.896044
1312.133210,-9770.718434,1628.453072,1149.143247
1312.133530,-9252.574275,888.247130,1762.019645
1312.133851,-9622.677246,-740.205942,995.924147
1312.134172,-9696.697840,-1628.453072,766.095498
1312.134493,-9400.615463,-1406.391290,1149.143247
1312.134814,-8586.388927,222.061783,689.485948
1312.135134,-9770.718434,666.185348,919.314598
1312.135455,-8068.244768,1776.494261,842.705048
1312.135776,-9178.553681,-222.061783,1608.800546
1312.136097,-9548.656652,-1776.494261,1762.019645
1312.136418,-9992.780217,-2590.720797,76.609550
1312.136738,-9548.656652,-1258.350101,612.876398
1312.137059,-9622.677246,-444.123565,1225.752797
1312.137380,-9474.636058,0.000000,1455.581446
1312.137701,-9252.574275,-1554.432478,1225.752797
1312.138022,-8068.244768,-1998.556043,-153.219100
1312.138343,-10362.883188,-962.267725,612.876398
1312.138663,-10436.903782,-1184.329507,1838.629195
1312.138984,-10066.800811,-666.185348,2145.067394
1312.139305,-10807.006753,0.000000,2681.334243
1312.139626,-11029.068536,-666.185348,2221.676944
1312.139947,-8882.471304,-1036.288319,1838.629195
1312.140267,-9474.636058,-2294.638420,766.095498
1312.140588,-8586.388927,-1184.329507,-536.266849
1312.140909,-8660.409521,-296.082377,-1378.971896
1312.141230,-8068.244768,1332.370696,-842.705048
1312.141551,-8660.409521,1850.514855,612.876398
1312.141871,-10362.883188,592.164754,1302.362347
1312.142192,-9992.780217,-148.041188,1838.629195
1312.142513,-11399.171507,-1184.329507,2298.286494
1312.142834,-11399.171507,-888.247130,766.095498
1312.143155,-9474.636058,-1036.288319,1302.362347
1312.143475,-9696.697840,666.185348,1302.362347
1312.143796,-9918.759623,888.247130,919.314598
1312.144117,-9770.718434,1110.308913,306.438199
1312.144438,-8956.491898,740.205942,536.266849
1312.144759,-9474.636058,-888.247130,0.000000
1312.145080,-9474.636058,-1332.370696,-153.219100
1312.145400,-9030.512492,-962.267725,919.314598
1312.145721,-9474.636058,74.020594,1072.533697
1312.146042,-10214.842000,-222.061783,2604.724693
1312.146363,-9326.594869,-1258.350101,2374.896044
1312.146684,-9548.656652,-1628.453072,1838.629195
1312.147004,-10214.842000,-814.226536,2068.457845
1312.147325,-9104.533087,-1776.494261,383.047749
1312.147646,-8290.306550,222.061783,153.219100
1312.147967,-8956.491898,962.267725,306.438199
1312.148288,-9030.512492,444.123565,689.485948
1312.148608,-8734.430116,-814.226536,1532.190996
1312.148929,-9104.533087,-2886.803174,153.219100
1312.149250,-9474.636058,-2664.741391,0.000000
1312.149571,-9992.780217,-962.267725,1685.410096
1312.149892,-9696.697840,444.123565,3830.477490
1312.150213,-10658.965565,444.123565,2987.772442
1312.150533,-9844.739029,-296.082377,2221.676944
1312.150854,-8808.450710,-962.267725,1532.190996
1312.151175,-10658.965565,-2516.700203,1378.971896
1312.151496,-10140.821405,-2072.576638,1072.533697
1312.151817,-9622.677246,-296.082377,1455.581446
1312.152137,-8956.491898,1332.370696,383.047749
1312.152458,-9622.677246,2368.659014,536.266849
1312.152779,-9622.677246,1998.556043,1149.143247
1312.153100,-9548.656652,74.020594,229.828649
1312.153421,-9400.615463,0.000000,-842.705048
1312.153741,-9548.656652,814.226536,-229.828649
1312.154062,-9178.553681,888.247130,1149.143247
1312.154383,-10584.944971,888.247130,2145.067394
1312.154704,-10584.944971,0.000000,2528.115143
1312.155025,-9474.636058,-814.226536,2221.676944
1312.155346,-10955.047942,0.000000,3064.381992
1312.155666,-11473.192101,-1998.556043,2374.896044
1312.155987,-9474.636058,-740.205942,1838.629195
1312.156308,-9030.512492,740.205942,689.485948
1312.156629,-9178.553681,1406.391290,1072.533697
1312.156950,-8512.368333,148.041188,612.876398
1312.157270,-8586.388927,-666.185348,919.314598
1312.157591,-10140.821405,-1850.514855,612.876398
1312.157912,-9770.718434,-1110.308913,995.924147
1312.158233,-9326.594869,0.000000,1991.848295
1312.158554,-10510.924376,296.082377,2068.457845
1312.158874,-9844.739029,592.164754,1302.362347
1312.159195,-9622.677246,0.000000,612.876398
1312.159516,-8734.430116,518.144159,612.876398
1312.159837,-9548.656652,-1702.473667,-306.438199
1312.160158,-9252.574275,-1628.453072,-536.266849
1312.160478,-8808.450710,-370.102971,-689.485948
1312.160799,-9104.533087,1628.453072,0.000000
1312.161120,-10288.862594,666.185348,1532.190996
1312.161441,-9104.533087,-222.061783,1685.410096
1312.161762,-9844.739029,-2738.761985,1149.143247
1312.162083,-10436.903782,-2812.782580,-76.609550
1312.162403,-8142.265362,-518.144159,842.705048
1312.162724,-9622.677246,888.247130,1302.362347
1312.163045,-9770.718434,1628.453072,1378.971896
1312.163366,-9400.615463,0.000000,-229.828649
1312.163687,-7254.018232,-1036.288319,-1378.971896
1312.164007,-10214.842000,-1554.432478,0.000000
1312.164328,-10658.965565,-1184.329507,612.876398
1312.164649,-10288.862594,-370.102971,766.095498
1312.164970,-9918.759623,1702.473667,1302.362347
1312.165291,-9992.780217,2294.638420,1608.800546
1312.165611,-9252.574275,592.164754,2068.457845
1312.165932,-9548.656652,-1036.288319,1532.190996
1312.166253,-9992.780217,-2738.761985,229.828649
1312.166574,-8734.430116,-1628.453072,153.219100
1312.166895,-8290.306550,0.000000,1378.971896
1312.167216,-9770.718434,0.000000,2604.724693
1312.167536,-9770.718434,-962.267725,2374.896044
1312.167857,-8438.347739,0.000000,2145.067394
1312.168178,-10140.821405,-1850.514855,1685.410096
1312.168499,-11029.068536,-2368.659014,1072.533697
1312.168820,-9104.533087,0.000000,1762.019645
1312.169140,-9252.574275,740.205942,-919.314598
1312.169461,-8882.471304,2738.761985,1685.410096
1312.169782,-9844.739029,148.041188,2145.067394
1312.170103,-8438.347739,-1702.473667,1302.362347
1312.170424,-9548.656652,-2146.597232,1149.143247
1312.170744,-10510.924376,-1406.391290,1762.019645
1312.171065,-9104.533087,-148.041188,2221.676944
1312.171386,-10140.821405,0.000000,2145.067394
1312.171707,-9178.553681,-370.102971,1455.581446
1312.172028,-8586.388927,-1702.473667,1532.190996
1312.172349,-9326.594869,-1850.514855,1455.581446
1312.172669,-10362.883188,-2368.659014,1915.238745
1312.172990,-9548.656652,-1998.556043,995.924147
1312.173311,-8882.471304,666.185348,1302.362347
1312.173632,-10362.883188,1480.411884,995.924147
1312.173953,-10140.821405,2368.659014,1532.190996
1312.174273,-9474.636058,666.185348,1378.971896
1312.174594,-9844.739029,-888.247130,919.314598
1312.174915,-9770.718434,-1332.370696,153.219100
1312.175236,-10362.883188,-1258.350101,689.485948
1312.175557,-9474.636058,148.041188,1455.581446
1312.175877,-10214.842000,888.247130,1915.238745
1312.176198,-9770.718434,1258.350101,2451.505594
1312.176519,-9252.574275,444.123565,1532.190996
1312.176840,-10362.883188,-814.226536,612.876398
1312.177161,-9844.739029,-1406.391290,612.876398
1312.177482,-8734.430116,0.000000,1072.533697
1312.177802,-9548.656652,1332.370696,229.828649
1312.178123,-9918.759623,2368.659014,842.705048
1312.178444,-9104.533087,1110.308913,1072.533697
1312.178765,-8586.388927,-814.226536,0.000000
1312.179086,-9474.636058,-3034.844362,-459.657299
1312.179406,-9548.656652,-2590.720797,0.000000
1312.179727,-9400.615463,-1406.391290,842.705048
1312.180048,-10214.842000,-222.061783,1532.190996
1312.180369,-8290.306550,-222.061783,919.314598
1312.180690,-9104.533087,-1184.329507,689.485948
1312.181010,-9474.636058,-1480.411884,842.705048
1312.181331,-9770.718434,-2516.700203,0.000000
1312.181652,-9252.574275,-2294.638420,-612.876398
1312.181973,-8956.491898,-296.082377,-306.438199
1312.182294,-9548.656652,1036.288319,0.000000
1312.182614,-8734.430116,888.247130,0.000000
1312.182935,-7550.100608,222.061783,-1225.752797
1312.183256,-8882.471304,222.061783,-383.047749
1312.183577,-10584.944971,74.020594,612.876398
1312.183898,-9474.636058,666.185348,2681.334243
1312.184219,-11547.212695,-1110.308913,3294.210641
1312.184539,-11473.192101,-1332.370696,3064.381992
1312.184860,-10436.903782,-1332.370696,2987.772442
1312.185181,-10955.047942,-1406.391290,3677.258390
1312.185502,-10066.800811,-962.267725,1455.581446
1312.185823,-8734.430116,1036.288319,-153.219100
1312.186143,-8068.244768,2442.679609,-459.657299
1312.186464,-9252.574275,4737.318029,612.876398
1312.186785,-11103.089130,3034.844362,3677.258390
1312.187106,-10584.944971,-666.185348,4443.353888
1312.187427,-9992.780217,-4145.153275,2604.724693
1312.187747,-10658.965565,-5329.482782,1532.190996
1312.188068,-9252.574275,-3256.906145,1762.019645
1312.188389,-8290.306550,296.082377,2221.676944
1312.188710,-8734.430116,888.247130,1532.190996
1312.189031,-7179.997637,1110.308913,-306.438199
1312.189352,-7550.100608,0.000000,-842.705048
1312.189672,-10362.883188,-1184.329507,-153.219100
1312.189993,-9844.739029,-1258.350101,1838.629195
1312.190314,-10214.842000,-888.247130,1455.581446
1312.190635,-10436.903782,0.000000,2298.286494
1312.190956,-10066.800811,-370.102971,1532.190996
1312.191276,-10214.842000,-296.082377,2451.505594
1312.191597,-9622.677246,-1628.453072,1685.410096
1312.191918,-9918.759623,-814.226536,0.000000
1312.192239,-9770.718434,-1110.308913,0.000000
1312.192560,-7179.997637,-666.185348,-383.047749
1312.192880,-8882.471304,-1036.288319,612.876398
1312.193201,-8438.347739,-1406.391290,0.000000
1312.193522,-8512.368333,-1332.370696,536.266849
1312.193843,-10066.800811,-1110.308913,1225.752797
1312.194164,-10881.027347,0.000000,459.657299
1312.194485,-10066.800811,222.061783,229.828649
1312.194805,-13545.768739,2294.638420,1072.533697
1312.195126,-7772.162391,2960.823768,919.314598
1312.195447,-10658.965565,2368.659014,1532.190996
1312.195768,-9918.759623,-370.102971,0.000000
1312.196089,-9474.636058,-2368.659014,-306.438199
1312.196409,-10140.821405,-1554.432478,306.438199
1312.196730,-9696.697840,-296.082377,1149.143247
1312.197051,-9770.718434,1628.453072,2221.676944
1312.197372,-10214.842000,1628.453072,2145.067394
1312.197693,-9918.759623,1776.494261,2145.067394
1312.198013,-10066.800811,-592.164754,1838.629195
1312.198334,-10732.986159,-1998.556043,919.314598
1312.198655,-9474.636058,-3108.864956,-229.828649
1312.198976,-9030.512492,-814.226536,0.000000
1312.199297,-10140.821405,962.267725,1149.143247
1312.199617,-9844.739029,2072.576638,1915.238745
1312.199938,-9326.594869,592.164754,1915.238745
1312.200259,-9696.697840,-962.267725,689.485948
1312.200580,-9918.759623,-1554.432478,76.609550
1312.200901,-9622.677246,-666.185348,612.876398
1312.201222,-9030.512492,-148.041188,689.485948
1312.201542,-9326.594869,-370.102971,766.095498
1312.201863,-8364.327145,74.020594,995.924147
1312.202184,-8364.327145,-814.226536,995.924147
1312.202505,-9326.594869,-740.205942,2757.943793
1312.202826,-10658.965565,-1332.370696,1225.752797
1312.203146,-9622.677246,592.164754,1225.752797
1312.203467,-9770.718434,2368.659014,1608.800546
1312.203788,-10732.986159,2294.638420,3294.210641
1312.204109,-8882.471304,888.247130,1608.800546
1312.204430,-8734.430116,-1184.329507,536.266849
1312.204750,-9030.512492,-2442.679609,-306.438199
1312.205071,-9844.739029,-2072.576638,-153.219100
1312.205392,-9622.677246,-962.267725,1685.410096
1312.205713,-10288.862594,74.020594,2451.505594
1312.206034,-9918.759623,222.061783,2298.286494
1312.206355,-9474.636058,-592.164754,1915.238745
1312.206675,-10436.903782,-1332.370696,1685.410096
1312.206996,-10658.965565,-2368.659014,459.657299
1312.207317,-9252.574275,-1184.329507,0.000000
1312.207638,-8734.430116,1036.288319,-536.266849
1312.207959,-9918.759623,1998.556043,1072.533697
1312.208279,-9770.718434,1702.473667,459.657299
1312.208600,-9030.512492,0.000000,76.609550
1312.208921,-9474.636058,-1554.432478,536.266849
1312.209242,-9696.697840,-2960.823768,306.438199
1312.209563,-9326.594869,-2516.700203,1072.533697
1312.209883,-10140.821405,-888.247130,1149.143247
1312.210204,-9178.553681,-296.082377,2298.286494
1312.210525,-9326.594869,-740.205942,2068.457845
1312.210846,-7402.059420,-444.123565,2451.505594
1312.211167,-11547.212695,-2442.679609,2145.067394
1312.211488,-9252.574275,-2072.576638,612.876398
1312.211808,-10362.883188,740.205942,919.314598
1312.212129,-9326.594869,1258.350101,1762.019645
1312.212450,-10214.842000,1924.535449,1532.190996
1312.212771,-8882.471304,666.185348,1455.581446
1312.213092,-9104.533087,-1332.370696,612.876398
1312.213412,-8734.430116,-1850.514855,459.657299
1312.213733,-9474.636058,-1554.432478,919.314598
1312.214054,-9548.656652,-148.041188,2451.505594
1312.214375,-9770.718434,0.000000,2451.505594
1312.214696,-8882.471304,-592.164754,1762.019645
1312.215016,-8364.327145,-1554.432478,2298.286494
1312.215337,-9400.615463,-2368.659014,1838.629195
1312.215658,-10436.903782,-2146.597232,1302.362347
1312.215979,-10066.800811,-740.205942,995.924147
1312.216300,-9030.512492,222.061783,-1455.581446
1312.216620,-9696.697840,3775.050304,1378.971896
1312.216941,-10955.047942,1184.329507,1608.800546
1312.217262,-8660.409521,0.000000,1072.533697
1312.217583,-9696.697840,-1184.329507,995.924147
1312.217904,-9992.780217,-2220.617826,153.219100
1312.218225,-9548.656652,-740.205942,1532.190996
1312.218545,-11177.109724,-222.061783,2298.286494
1312.218866,-7772.162391,1924.535449,1149.143247
1312.219187,-9770.718434,962.267725,689.485948
1312.219508,-7550.100608,1702.473667,1302.362347
1312.219829,-9918.759623,-370.102971,1225.752797
1312.220149,-10658.965565,-962.267725,689.485948
1312.220470,-8882.471304,-148.041188,536.266849
1312.220791,-10436.903782,1628.453072,919.314598
1312.221112,-9474.636058,1776.494261,1302.362347
1312.221433,-10436.903782,1184.329507,1915.238745
1312.221753,-10140.821405,0.000000,1915.238745
1312.222074,-9474.636058,-1628.453072,76.609550
1312.222395,-9030.512492,-1480.411884,0.000000
1312.222716,-9548.656652,-1110.308913,919.314598
1312.223037,-9548.656652,-1184.329507,1072.533697
1312.223358,-8956.491898,-1184.329507,1302.362347
1312.223678,-8586.388927,-1702.473667,0.000000
1312.223999,-9178.553681,-3256.906145,-995.924147
1312.224320,-9178.553681,0.000000,-306.438199
1312.224641,-10584.944971,-666.185348,-995.924147
1312.224962,-8808.450710,2072.576638,1532.190996
1312.225282,-9622.677246,666.185348,1532.190996
1312.225603,-9474.636058,-1110.308913,766.095498
1312.225924,-9104.533087,-2368.659014,0.000000
1312.226245,-11177.109724,-2442.679609,842.705048
1312.226566,-9104.533087,-1036.288319,76.609550
1312.226886,-9104.533087,-444.123565,536.266849
1312.227207,-9918.759623,888.247130,1149.143247
1312.227528,-9178.553681,1110.308913,1378.971896
1312.227849,-9696.697840,444.123565,1378.971896
1312.228170,-10436.903782,518.144159,2374.896044
1312.228491,-10066.800811,-1036.288319,536.266849
1312.228811,-9992.780217,-1480.411884,76.609550
1312.229132,-8586.388927,888.247130,76.609550
1312.229453,-10510.924376,1776.494261,1302.362347
1312.229773,-8586.388927,1036.288319,919.314598
1312.230094,-8216.285956,-148.041188,-229.828649
1312.230415,-8734.430116,-666.185348,-1225.752797
1312.230736,-9474.636058,-740.205942,0.000000
1312.231056,-9548.656652,592.164754,2374.896044
1312.231377,-10658.965565,74.020594,4903.011187
1312.231698,-10658.965565,-1924.535449,4903.011187
1312.232018,-10658.965565,-2886.803174,4136.915689
1312.232339,-10140.821405,-3478.967927,3677.258390
1312.232660,-11029.068536,-3256.906145,2528.115143
1312.232981,-9030.512492,-148.041188,1991.848295
1312.233301,-7550.100608,962.267725,-919.314598
1312.233622,-8068.244768,3034.844362,-919.314598
1312.233943,-9326.594869,2516.700203,612.876398
1312.234263,-8956.491898,148.041188,1378.971896
1312.234584,-10362.883188,-1998.556043,2451.505594
1312.234905,-11621.233289,-3478.967927,2298.286494
1312.235226,-10807.006753,-2516.700203,2911.162892
1312.235546,-10066.800811,-1628.453072,3830.477490
1312.235867,-9696.697840,-888.247130,-306.438199
1312.236188,-8068.244768,444.123565,1149.143247
1312.236508,-7550.100608,-518.144159,76.609550
1312.236829,-8660.409521,-296.082377,-229.828649
1312.237150,-9622.677246,-1036.288319,-229.828649
1312.237471,-8586.388927,148.041188,536.266849
1312.237791,-9844.739029,592.164754,919.314598
1312.238112,-10807.006753,592.164754,1302.362347
1312.238433,-10436.903782,444.123565,1991.848295
1312.238753,-10732.986159,222.061783,2451.505594
1312.239074,-11103.089130,-740.205942,1302.362347
1312.239395,-9992.780217,148.041188,0.000000
1312.239716,-9770.718434,814.226536,0.000000
1312.240036,-9178.553681,2072.576638,0.000000
1312.240357,-9844.739029,1036.288319,612.876398
1312.240678,-8142.265362,-296.082377,153.219100
1312.240998,-9178.553681,-2146.597232,76.609550
1312.241319,-9992.780217,-2368.659014,-766.095498
1312.241640,-9400.615463,-666.185348,-383.047749
1312.241961,-9844.739029,1480.411884,919.314598
1312.242281,-10066.800811,2516.700203,1378.971896
1312.242602,-10140.821405,1480.411884,536.266849
1312.242923,-9252.574275,148.041188,459.657299
1312.243243,-10140.821405,-1332.370696,153.219100
1312.243564,-10362.883188,-2294.638420,153.219100
1312.243885,-8956.491898,-888.247130,536.266849
1312.244206,-9696.697840,296.082377,1149.143247
1312.244526,-9474.636058,740.205942,1455.581446
1312.244847,-8808.450710,444.123565,1838.629195
1312.245168,-9474.636058,-592.164754,1455.581446
1312.245488,-9918.759623,-1480.411884,766.095498
1312.245809,-9030.512492,-1702.473667,-842.705048
1312.246130,-8808.450710,-296.082377,229.828649
1312.246451,-9474.636058,592.164754,842.705048
1312.246771,-9622.677246,1258.350101,1915.238745
1312.247092,-9400.615463,370.102971,2145.067394
1312.247413,-10288.862594,-1258.350101,1991.848295
1312.247733,-10066.800811,-2146.597232,766.095498
1312.248054,-9622.677246,-296.082377,459.657299
1312.248375,-9326.594869,1258.350101,1149.143247
1312.248696,-9548.656652,2072.576638,1455.581446
1312.249016,-9104.533087,444.123565,1685.410096
1312.249337,-8364.327145,-1184.329507,842.705048
1312.249658,-9474.636058,-2590.720797,1149.143247
1312.249978,-10658.965565,-2590.720797,995.924147
1312.250299,-9992.780217,-1110.308913,1991.848295
1312.250620,-9696.697840,1924.535449,2911.162892
1312.250941,-10732.986159,1702.473667,3524.039291
1312.251261,-9474.636058,888.247130,2911.162892
1312.251582,-9622.677246,-666.185348,2068.457845
1312.251903,-9770.718434,-2220.617826,383.047749
1312.252223,-9696.697840,-1332.370696,459.657299
1312.252544,-9326.594869,-888.247130,842.705048
1312.252865,-8586.388927,-370.102971,1991.848295
1312.253186,-9474.636058,222.061783,1072.533697
1312.253506,-9474.636058,-1036.288319,2145.067394
1312.253827,-9918.759623,-2368.659014,2298.286494
1312.254148,-11547.212695,-2738.761985,1762.019645
1312.254468,-8882.471304,-2960.823768,536.266849
1312.254789,-9326.594869,0.000000,229.828649
1312.255110,-9918.759623,1332.370696,995.924147
1312.255431,-9474.636058,1184.329507,1378.971896
1312.255751,-8808.450710,-518.144159,1302.362347
1312.256072,-9252.574275,-1702.473667,0.000000
1312.256393,-10510.924376,-2664.741391,-306.438199
1312.256713,-9918.759623,-1036.288319,842.705048
1312.257034,-9844.739029,-518.144159,919.314598
1312.257355,-10436.903782,888.247130,1378.971896
1312.257676,-9400.615463,888.247130,1838.629195
1312.257996,-9474.636058,-1110.308913,612.876398
1312.258317,-10066.800811,-1628.453072,1225.752797
1312.258638,-9548.656652,-2220.617826,0.000000
1312.258958,-9030.512492,0.000000,0.000000
1312.259279,-9474.636058,1480.411884,306.438199
1312.259600,-9474.636058,1850.514855,766.095498
1312.259921,-9770.718434,888.247130,995.924147
1312.260241,-9770.718434,296.082377,1302.362347
1312.260562,-10732.986159,-1554.432478,76.609550
1312.260883,-9326.594869,-370.102971,1455.581446
1312.261203,-9992.780217,0.000000,1302.362347
1312.261524,-9326.594869,1554.432478,1991.848295
1312.261845,-9326.594869,-1184.329507,1685.410096
1312.262166,-7105.977043,518.144159,459.657299
1312.262486,-10288.862594,-1850.514855,1302.362347
1312.262807,-9326.594869,-1554.432478,0.000000
1312.263128,-9400.615463,1036.288319,536.266849
1312.263448,-9918.759623,2072.576638,1685.410096
1312.263769,-10140.821405,2294.638420,1608.800546
1312.264090,-9770.718434,1036.288319,2604.724693
1312.264411,-10066.800811,-370.102971,2068.457845
1312.264731,-9844.739029,-2442.679609,766.095498
1312.265052,-10066.800811,-2220.617826,153.219100
1312.265373,-8512.368333,74.020594,1302.362347
1312.265693,-9770.718434,814.226536,1149.143247
1312.266014,-9104.533087,2146.597232,1225.752797
1312.266335,-9252.574275,888.247130,1455.581446
1312.266656,-8956.491898,-962.267725,-306.438199
1312.266976,-9622.677246,-1628.453072,76.609550
1312.267297,-10066.800811,-2368.659014,459.657299
1312.267618,-8512.368333,-148.041188,153.219100
1312.267938,-10362.883188,1850.514855,842.705048
1312.268259,-9400.615463,3108.864956,1685.410096
1312.268580,-9622.677246,1480.411884,536.266849
1312.268901,-10658.965565,-370.102971,842.705048
1312.269221,-10066.800811,-1406.391290,-229.828649
1312.269542,-10362.883188,-814.226536,766.095498
1312.269863,-10288.862594,-370.102971,2451.505594
1312.270183,-10214.842000,-222.061783,2451.505594
1312.270504,-9770.718434,-1036.288319,1455.581446
1312.270825,-8586.388927,-1110.308913,-612.876398
1312.271146,-9622.677246,-1776.494261,383.047749
1312.271466,-10288.862594,-2960.823768,-383.047749
1312.271787,-7179.997637,444.123565,-459.657299
1312.272108,-10140.821405,-222.061783,842.705048
1312.272428,-9178.553681,888.247130,1838.629195
1312.272749,-9844.739029,-962.267725,1225.752797
1312.273070,-9696.697840,-1332.370696,1608.800546
1312.273391,-10066.800811,-2368.659014,229.828649
1312.273711,-9992.780217,-1110.308913,1991.848295
1312.274032,-10066.800811,-518.144159,2911.162892
1312.274353,-8290.306550,-222.061783,842.705048
1312.274673,-9474.636058,222.061783,1608.800546
1312.274994,-8068.244768,-1406.391290,689.485948
1312.275315,-9104.533087,-1554.432478,-229.828649
1312.275636,-10436.903782,-1776.494261,766.095498
1312.275956,-8882.471304,-740.205942,995.924147
1312.276277,-9178.553681,74.020594,1455.581446
1312.276598,-10955.047942,370.102971,1915.238745
1312.276918,-10362.883188,-148.041188,2451.505594
1312.277239,-9548.656652,-962.267725,1991.848295
1312.277560,-10807.006753,-2220.617826,1991.848295
1312.277881,-9474.636058,-2220.617826,1532.190996
1312.278201,-9400.615463,-1184.329507,383.047749
1312.278522,-8956.491898,740.205942,1225.752797
1312.278843,-10288.862594,222.061783,1685.410096
1312.279163,-8808.450710,-296.082377,1455.581446
1312.279484,-9770.718434,-2072.576638,1378.971896
1312.279805,-10436.903782,-2812.782580,766.095498
1312.280126,-9770.718434,-2886.803174,383.047749
1312.280446,-10066.800811,-1110.308913,1685.410096
1312.280767,-9474.636058,1554.432478,1838.629195
1312.281088,-10362.883188,2220.617826,2068.457845
1312.281408,-9992.780217,2146.597232,2604.724693
1312.281729,-9696.697840,518.144159,3140.991542
1312.282050,-11769.274478,-1702.473667,2451.505594
1312.282371,-9844.739029,-1628.453072,3370.820191
1312.282691,-9770.718434,-1406.391290,2834.553343
1312.283012,-9992.780217,-666.185348,2374.896044
1312.283333,-9178.553681,1258.350101,3217.601092
1312.283653,-7328.038826,814.226536,842.705048
1312.283974,-7846.182985,-518.144159,-459.657299
1312.284295,-8290.306550,-740.205942,-1915.238745
1312.284616,-8290.306550,74.020594,-1302.362347
1312.284936,-9474.636058,1258.350101,383.047749
1312.285257,-9622.677246,1480.411884,2145.067394
1312.285578,-10214.842000,-370.102971,2528.115143
1312.285898,-10214.842000,-1480.411884,1838.629195
1312.286219,-10658.965565,-1850.514855,2298.286494
1312.286540,-10066.800811,-592.164754,1072.533697
1312.286861,-9918.759623,148.041188,1225.752797
1312.287181,-9030.512492,1406.391290,-76.609550
1312.287502,-10288.862594,666.185348,-1302.362347
1312.287823,-7920.203579,0.000000,-1378.971896
1312.288143,-8216.285956,-1332.370696,-1685.410096
1312.288464,-8956.491898,-2516.700203,-2451.505594
1312.288785,-8808.450710,-888.247130,-2757.943793
1312.289106,-9104.533087,1998.556043,-2451.505594
1312.289426,-9400.615463,3701.029710,76.609550
1312.289747,-10140.821405,3182.885551,2145.067394
1312.290068,-11103.089130,666.185348,2604.724693
1312.290388,-12139.377449,-1480.411884,2374.896044
1312.290709,-11843.295072,-3108.864956,1685.410096
1312.291030,-9992.780217,-962.267725,2145.067394
1312.291351,-9992.780217,-1184.329507,2451.505594
1312.291671,-9104.533087,148.041188,2298.286494
1312.291992,-8068.244768,1406.391290,0.000000
1312.292313,-7476.080014,1036.288319,-919.314598
1312.292633,-9252.574275,74.020594,0.000000
1312.292954,-9622.677246,370.102971,536.266849
1312.293275,-9918.759623,1036.288319,1532.190996
1312.293596,-10362.883188,1850.514855,2298.286494
1312.293916,-11251.130318,1628.453072,3370.820191
1312.294237,-10362.883188,-592.164754,3830.477490
1312.294558,-9474.636058,-962.267725,3907.087040
1312.294878,-10732.986159,-1850.514855,2451.505594
1312.295199,-8882.471304,-1110.308913,2221.676944
1312.295520,-8290.306550,-296.082377,2068.457845
1312.295841,-8290.306550,-962.267725,1225.752797
1312.296161,-7402.059420,-1554.432478,76.609550
1312.296482,-6957.935855,-1480.411884,-459.657299
1312.296803,-8660.409521,-1628.453072,229.828649
1312.297123,-10732.986159,-1628.453072,1838.629195
1312.297444,-10510.924376,-518.144159,2681.334243
1312.297765,-11399.171507,666.185348,3217.601092
1312.298086,-11991.336260,1184.329507,3983.696590
1312.298406,-10362.883188,1776.494261,3524.039291
1312.298727,-10510.924376,-148.041188,2834.553343
1312.299048,-10288.862594,-1850.514855,1072.533697
1312.299368,-8512.368333,-2146.597232,-536.266849
1312.299689,-7994.224174,-2072.576638,-76.609550
1312.300010,-8142.265362,-1628.453072,-306.438199
1312.300331,-9474.636058,-1480.411884,1072.533697
1312.300651,-9326.594869,-1332.370696,1915.238745
1312.300972,-9326.594869,-1924.535449,1762.019645
1312.301293,-10807.006753,-2368.659014,1685.410096
1312.301613,-10362.883188,-2738.761985,919.314598
1312.301934,-9696.697840,-740.205942,612.876398
1312.302255,-10362.883188,740.205942,1072.533697
1312.302576,-9622.677246,592.164754,842.705048
1312.302896,-8660.409521,74.020594,1302.362347
1312.303217,-9918.759623,-962.267725,-459.657299
1312.303538,-9696.697840,-666.185348,-536.266849
1312.303858,-8586.388927,-740.205942,-153.219100
1312.304179,-9252.574275,-1850.514855,459.657299
1312.304500,-9326.594869,-1110.308913,919.314598
1312.304821,-9474.636058,-1406.391290,536.266849
1312.305141,-9030.512492,-962.267725,1762.019645
1312.305462,-9622.677246,-592.164754,842.705048
1312.305783,-9400.615463,-888.247130,766.095498
1312.306103,-8808.450710,1332.370696,-306.438199
1312.306424,-9474.636058,2516.700203,76.609550
1312.306745,-10807.006753,2442.679609,1225.752797
1312.307066,-9474.636058,2368.659014,459.657299
1312.307386,-10362.883188,148.041188,1072.533697
1312.307707,-10881.027347,-1406.391290,0.000000
1312.308028,-9844.739029,-666.185348,-229.828649
1312.308348,-9548.656652,-222.061783,995.924147
1312.308669,-9252.574275,518.144159,919.314598
1312.308990,-9178.553681,888.247130,1225.752797
1312.309311,-9252.574275,0.000000,1225.752797
1312.309631,-9548.656652,-888.247130,995.924147
1312.309952,-10362.883188,-2368.659014,536.266849
1312.310273,-9474.636058,-1110.308913,1225.752797
1312.310593,-9770.718434,962.267725,1378.971896
1312.310914,-10436.903782,1850.514855,2221.676944
1312.311235,-9696.697840,1110.308913,2681.334243
1312.311556,-9326.594869,0.000000,919.314598
1312.311876,-9622.677246,-1110.308913,229.828649
1312.312197,-9992.780217,-1036.288319,0.000000
1312.312518,-9474.636058,666.185348,2145.067394
1312.312838,-10288.862594,814.226536,2145.067394
1312.313159,-9622.677246,814.226536,1915.238745
1312.313480,-9178.553681,-444.123565,1225.752797
1312.313800,-8882.471304,-740.205942,1455.581446
1312.314121,-10510.924376,-2146.597232,1149.143247
1312.314442,-8142.265362,-148.041188,842.705048
1312.314763,-9696.697840,222.061783,1072.533697
1312.315083,-8586.388927,2368.659014,995.924147
1312.315404,-9474.636058,2960.823768,1225.752797
1312.315725,-8586.388927,1036.288319,2145.067394
1312.316045,-8882.471304,-740.205942,919.314598
1312.316366,-9770.718434,-1850.514855,536.266849
1312.316687,-9548.656652,-1184.329507,1838.629195
1312.317008,-9030.512492,-518.144159,1455.581446
1312.317328,-10288.862594,444.123565,2451.505594
1312.317649,-10066.800811,-518.144159,2374.896044
1312.317970,-8808.450710,-962.267725,689.485948
1312.318290,-10732.986159,-1702.473667,1455.581446
1312.318611,-10510.924376,-3182.885551,76.609550
1312.318932,-8734.430116,-2146.597232,153.219100
1312.319253,-10140.821405,-2072.576638,-153.219100
1312.319573,-9252.574275,518.144159,1915.238745
1312.319894,-8586.388927,518.144159,995.924147
1312.320215,-10362.883188,-962.267725,1302.362347
1312.320535,-8290.306550,-1924.535449,383.047749
1312.320856,-9326.594869,-2886.803174,-612.876398
1312.321177,-9548.656652,-666.185348,995.924147
1312.321498,-10881.027347,-1036.288319,1838.629195
1312.321818,-10140.821405,-296.082377,1455.581446
1312.322139,-9548.656652,148.041188,1608.800546
1312.322460,-9548.656652,-666.185348,919.314598
1312.322780,-9918.759623,-1332.370696,-229.828649
1312.323101,-10436.903782,-888.247130,0.000000
1312.323422,-9104.533087,1924.535449,229.828649
1312.323743,-9770.718434,2960.823768,2757.943793
1312.324063,-10214.842000,1480.411884,2604.724693
1312.324384,-9474.636058,-814.226536,2145.067394
1312.324705,-10881.027347,-2368.659014,1608.800546
1312.325025,-9770.718434,-1850.514855,689.485948
1312.325346,-9326.594869,-444.123565,1685.410096
1312.325667,-9992.780217,370.102971,1915.238745
1312.325988,-8586.388927,740.205942,1378.971896
1312.326308,-8438.347739,-518.144159,842.705048
1312.326629,-9104.533087,-1702.473667,842.705048
1312.326950,-9548.656652,-2368.659014,612.876398
1312.327270,-9770.718434,-1776.494261,766.095498
1312.327591,-9474.636058,0.000000,1378.971896
1312.327912,-10214.842000,1850.514855,2451.505594
1312.328233,-10732.986159,888.247130,2604.724693
1312.328553,-9178.553681,0.000000,1915.238745
1312.328874,-9326.594869,-1924.535449,842.705048
1312.329195,-9770.718434,-2664.741391,2451.505594
1312.329515,-8660.409521,-1332.370696,536.266849
1312.329836,-8882.471304,0.000000,1608.800546
1312.330157,-9252.574275,296.082377,1302.362347
1312.330478,-8216.285956,444.123565,766.095498
1312.330798,-8808.450710,-740.205942,1149.143247
1312.331119,-10140.821405,-2146.597232,612.876398
1312.331440,-9400.615463,-1258.350101,153.219100
1312.331760,-9548.656652,-222.061783,76.609550
1312.332081,-9252.574275,1776.494261,689.485948
1312.332402,-10510.924376,2590.720797,459.657299
1312.332723,-9474.636058,1998.556043,306.438199
1312.333043,-9474.636058,962.267725,-612.876398
1312.333364,-10436.903782,-370.102971,-689.485948
1312.333685,-10066.800811,-296.082377,-383.047749
1312.334006,-9696.697840,1110.308913,-306.438199
1312.334326,-9992.780217,2442.679609,0.000000
1312.334647,-10584.944971,1554.432478,383.047749
1312.334968,-9326.594869,888.247130,-842.705048
1312.335289,-9548.656652,-74.020594,-1072.533697
1312.335609,-10066.800811,-74.020594,-1302.362347
1312.335930,-10066.800811,666.185348,-1455.581446
1312.336251,-9622.677246,2368.659014,-2757.943793
1312.336571,-9326.594869,4959.379811,-1915.238745
1312.336892,-9918.759623,5329.482782,-1762.019645
1312.337213,-9326.594869,4367.215058,229.828649
1312.337534,-10881.027347,1258.350101,0.000000
1312.337854,-11473.192101,-592.164754,1225.752797
1312.338175,-11029.068536,-1480.411884,1378.971896
1312.338496,-10881.027347,-1258.350101,1991.848295
1312.338817,-9992.780217,0.000000,919.314598
1312.339137,-9474.636058,1110.308913,76.609550
1312.339458,-7402.059420,1702.473667,-306.438199
1312.339779,-7994.224174,1332.370696,-1225.752797
1312.340099,-8882.471304,1036.288319,-229.828649
1312.340420,-9992.780217,0.000000,-536.266849
1312.340741,-8956.491898,148.041188,-1455.581446
1312.341062,-9770.718434,1850.514855,-1302.362347
1312.341382,-9770.718434,4219.173869,-536.266849
1312.341703,-9844.739029,4811.338623,-842.705048
1312.342024,-9844.739029,3849.070898,-689.485948
1312.342345,-9844.739029,2664.741391,-1302.362347
1312.342665,-9474.636058,1554.432478,-1225.752797
1312.342986,-9844.739029,222.061783,-689.485948
1312.343307,-8882.471304,0.000000,-1455.581446
1312.343628,-8586.388927,1258.350101,-1378.971896
1312.343948,-9548.656652,1924.535449,153.219100
1312.344269,-9030.512492,1628.453072,459.657299
1312.344590,-9992.780217,962.267725,0.000000
1312.344910,-10584.944971,1702.473667,229.828649
1312.345231,-10955.047942,2368.659014,-153.219100
1312.345552,-10807.006753,1702.473667,-229.828649
1312.345873,-8734.430116,1702.473667,-2604.724693
1312.346193,-9030.512492,2738.761985,-3830.477490
1312.346514,-9992.780217,4219.173869,-1915.238745
1312.346835,-10066.800811,3404.947333,-1532.190996
1312.347156,-10066.800811,1998.556043,-1762.019645
1312.347476,-9696.697840,888.247130,-2145.067394
1312.347797,-10436.903782,2516.700203,-1149.143247
1312.348118,-10955.047942,1258.350101,612.876398
1312.348438,-10288.862594,0.000000,0.000000
1312.348759,-9178.553681,-296.082377,-1685.410096
1312.349080,-9326.594869,370.102971,-2374.896044
1312.349401,-9400.615463,1480.411884,-1225.752797
1312.349721,-9992.780217,1036.288319,-612.876398
1312.350042,-9474.636058,1628.453072,-2221.676944
1312.350363,-9030.512492,3256.906145,-2681.334243
1312.350684,-10362.883188,5033.400406,-1072.533697
1312.351004,-10584.944971,3923.091493,0.000000
1312.351325,-10658.965565,1924.535449,0.000000
1312.351646,-9104.533087,0.000000,-1991.848295
1312.351967,-8734.430116,-370.102971,-3907.087040
1312.352287,-9030.512492,1036.288319,-2757.943793
1312.352608,-9178.553681,3034.844362,-1608.800546
1312.352929,-9474.636058,4293.194464,-459.657299
1312.353249,-9252.574275,3256.906145,-919.314598
1312.353570,-8734.430116,666.185348,-919.314598
1312.353891,-9474.636058,-296.082377,-306.438199
1312.354212,-10140.821405,-370.102971,1302.362347
1312.354532,-9844.739029,814.226536,2374.896044
1312.354853,-9178.553681,74.020594,1302.362347
1312.355174,-8660.409521,0.000000,-1455.581446
1312.355495,-8068.244768,1554.432478,-2987.772442
1312.355815,-8882.471304,3182.885551,-2834.553343
1312.356136,-9918.759623,5181.441594,-1455.581446
1312.356457,-10584.944971,4885.359217,-919.314598
1312.356777,-10436.903782,3552.988522,-1072.533697
1312.357098,-10732.986159,1998.556043,-842.705048
1312.357419,-11473.192101,592.164754,-842.705048
