#time,accel_x,accel_y,accel_z
1352.354462,-9474.636058,-370.102971,1149.143247
1352.354783,-9770.718434,-296.082377,1149.143247
1352.355104,-9252.574275,-222.061783,1762.019645
1352.355425,-9474.636058,-444.123565,1072.533697
1352.355745,-9696.697840,-296.082377,842.705048
1352.356066,-9622.677246,-444.123565,995.924147
1352.356387,-9548.656652,-148.041188,536.266849
1352.356708,-9548.656652,-296.082377,842.705048
1352.357028,-9474.636058,-148.041188,1225.752797
1352.357349,-9548.656652,-444.123565,919.314598
1352.357670,-9696.697840,74.020594,1378.971896
1352.357991,-9770.718434,-592.164754,995.924147
1352.358311,-9696.697840,-444.123565,1302.362347
1352.358632,-9844.739029,-592.164754,1149.143247
1352.358953,-9474.636058,-444.123565,1072.533697
1352.359274,-10140.821405,-1184.329507,1072.533697
1352.359594,-9400.615463,-1036.288319,1378.971896
1352.359915,-9400.615463,-814.226536,1072.533697
1352.360236,-9474.636058,-740.205942,1072.533697
1352.360557,-9548.656652,-518.144159,2374.896044
1352.360877,-9622.677246,-518.144159,1378.971896
1352.361198,-9474.636058,-444.123565,919.314598
1352.361519,-9622.677246,-962.267725,459.657299
1352.361840,-9400.615463,-444.123565,612.876398
1352.362160,-9696.697840,-592.164754,842.705048
1352.362481,-9400.615463,-592.164754,1302.362347
1352.362802,-9992.780217,-1110.308913,1225.752797
1352.363123,-9770.718434,-1258.350101,1532.190996
1352.363443,-8734.430116,-740.205942,1455.581446
1352.363764,-9844.739029,-1332.370696,2068.457845
1352.364085,-9474.636058,-1332.370696,2221.676944
1352.364406,-9400.615463,-1036.288319,2068.457845
1352.364726,-9474.636058,-962.267725,1915.238745
1352.365047,-9252.574275,-814.226536,1762.019645
1352.365368,-9474.636058,-1036.288319,2298.286494
1352.365689,-9770.718434,-814.226536,2298.286494
1352.366009,-9696.697840,-740.205942,1915.238745
1352.366330,-9696.697840,-666.185348,2528.115143
1352.366651,-9770.718434,-1110.308913,2681.334243
1352.366972,-9844.739029,-1110.308913,3677.258390
1352.367292,-10066.800811,-1258.350101,3677.258390
1352.367613,-9918.759623,-2368.659014,3064.381992
1352.367934,-9918.759623,-1702.473667,4366.744339
1352.368255,-9622.677246,-1850.514855,4903.011187
1352.368575,-9474.636058,-1776.494261,5132.839837
1352.368896,-9326.594869,-1998.556043,5132.839837
1352.369217,-9326.594869,-2072.576638,5132.839837
1352.369538,-9178.553681,-2294.638420,5439.278036
1352.369858,-9252.574275,-2368.659014,5362.668486
1352.370179,-9252.574275,-2220.617826,5822.325785
1352.370500,-9474.636058,-1850.514855,5362.668486
1352.370820,-9474.636058,-2072.576638,5209.449386
1352.371141,-9474.636058,-1850.514855,5132.839837
1352.371462,-9548.656652,-1776.494261,4903.011187
1352.371783,-9400.615463,-370.102971,4290.134789
1352.372103,-9770.718434,-962.267725,4443.353888
1352.372424,-9696.697840,-814.226536,4290.134789
1352.372745,-9770.718434,-444.123565,4213.525239
1352.373066,-9992.780217,-370.102971,4213.525239
1352.373386,-10214.842000,-444.123565,4060.306139
1352.373707,-9696.697840,-814.226536,4060.306139
1352.374028,-9844.739029,-2960.823768,3830.477490
1352.374349,-9326.594869,-5181.441594,3447.429741
1352.374669,-9178.553681,-6143.709319,3294.210641
1352.374990,-8882.471304,-7624.121203,2528.115143
1352.375311,-8512.368333,-7179.997637,1685.410096
1352.375632,-8882.471304,-6661.853478,1455.581446
1352.375952,-7920.203579,-5551.544565,1991.848295
1352.376273,-8438.347739,-4737.318029,1149.143247
1352.376594,-9104.533087,-4515.256246,842.705048
1352.376915,-9178.553681,-4145.153275,536.266849
1352.377235,-9770.718434,-4589.276840,995.924147
1352.377556,-9622.677246,-4663.297435,2451.505594
1352.377877,-9474.636058,-5625.565159,2834.553343
1352.378198,-9400.615463,-7031.956449,3600.648841
1352.378518,-9178.553681,-8290.306550,3524.039291
1352.378839,-8660.409521,-9104.533087,3140.991542
1352.379160,-8142.265362,-9326.594869,2911.162892
1352.379481,-8364.327145,-7920.203579,2911.162892
1352.379801,-8364.327145,-7105.977043,3524.039291
1352.380122,-8290.306550,-6587.832884,3217.601092
1352.380443,-8734.430116,-5255.462188,2911.162892
1352.380764,-9622.677246,-5033.400406,2221.676944
1352.381084,-9474.636058,-3775.050304,1455.581446
1352.381405,-10214.842000,-1850.514855,2604.724693
1352.381726,-10807.006753,148.041188,1915.238745
1352.382047,-10955.047942,1332.370696,1838.629195
1352.382367,-11251.130318,2072.576638,2221.676944
1352.382688,-11621.233289,1332.370696,2451.505594
1352.383009,-11843.295072,0.000000,3753.867940
1352.383330,-11251.130318,-2072.576638,4060.306139
1352.383650,-10658.965565,-4145.153275,4136.915689
1352.383971,-10288.862594,-4515.256246,4903.011187
1352.384292,-10436.903782,-4737.318029,5592.497135
1352.384613,-9548.656652,-5921.647536,6665.030833
1352.384933,-9770.718434,-6883.915261,6128.763984
1352.385254,-9252.574275,-6513.812290,4826.401637
1352.385575,-8734.430116,-4737.318029,3524.039291
1352.385896,-9326.594869,-1998.556043,2987.772442
1352.386216,-9770.718434,814.226536,3753.867940
1352.386537,-9844.739029,2220.617826,3600.648841
1352.386858,-10066.800811,2220.617826,2911.162892
1352.387179,-9992.780217,1184.329507,2298.286494
1352.387499,-9992.780217,222.061783,2298.286494
1352.387820,-9992.780217,0.000000,2834.553343
1352.388141,-9104.533087,-370.102971,3830.477490
1352.388462,-8364.327145,-1850.514855,5975.544884
1352.388782,-8068.244768,-3997.112087,4826.401637
1352.389103,-7698.141797,-6365.771101,4136.915689
1352.389424,-8068.244768,-6069.688724,3830.477490
1352.389745,-8290.306550,-3997.112087,4826.401637
1352.390065,-8290.306550,-1850.514855,4979.620737
1352.390386,-8216.285956,-1332.370696,4826.401637
1352.390707,-7624.121203,-222.061783,3370.820191
1352.391028,-7846.182985,592.164754,2068.457845
1352.391348,-9326.594869,1184.329507,1991.848295
1352.391669,-9326.594869,1702.473667,2528.115143
1352.391990,-9400.615463,444.123565,1072.533697
1352.392311,-8882.471304,666.185348,-306.438199
1352.392631,-8142.265362,1702.473667,536.266849
1352.392952,-9474.636058,1998.556043,1302.362347
1352.393273,-11103.089130,1554.432478,2911.162892
1352.393594,-11029.068536,-222.061783,3370.820191
1352.393914,-10288.862594,-1850.514855,3983.696590
1352.394235,-10140.821405,-2442.679609,2604.724693
1352.394556,-10732.986159,-3108.864956,3907.087040
1352.394877,-10066.800811,-3849.070898,3753.867940
1352.395197,-9474.636058,-3849.070898,2681.334243
1352.395518,-9104.533087,-2516.700203,766.095498
1352.395839,-9844.739029,-740.205942,1685.410096
1352.396159,-11547.212695,0.000000,3217.601092
1352.396480,-10955.047942,0.000000,3217.601092
1352.396801,-11103.089130,148.041188,1685.410096
1352.397122,-11547.212695,0.000000,2451.505594
1352.397442,-11843.295072,-962.267725,4060.306139
1352.397763,-11695.253884,-3701.029710,3753.867940
1352.398084,-9030.512492,-4737.318029,2451.505594
1352.398405,-9474.636058,-4071.132681,1378.971896
1352.398725,-9252.574275,-2072.576638,3140.991542
1352.399046,-9696.697840,-2590.720797,4519.963438
1352.399367,-8808.450710,-3701.029710,4979.620737
1352.399688,-8216.285956,-5699.585753,3064.381992
1352.400008,-8956.491898,-6439.791695,3524.039291
1352.400329,-8808.450710,-7402.059420,3983.696590
1352.400650,-8216.285956,-6883.915261,3983.696590
1352.400971,-7772.162391,-4811.338623,4290.134789
1352.401291,-8882.471304,-4071.132681,3830.477490
1352.401612,-8438.347739,-3034.844362,3600.648841
1352.401933,-8290.306550,-2886.803174,3524.039291
1352.402254,-9030.512492,-2886.803174,3600.648841
1352.402574,-9918.759623,-4219.173869,3447.429741
1352.402895,-8956.491898,-5477.523971,2374.896044
1352.403216,-7846.182985,-4811.338623,2145.067394
1352.403537,-9326.594869,-4367.215058,3370.820191
1352.403857,-9178.553681,-4959.379811,5515.887586
1352.404178,-9252.574275,-6069.688724,5592.497135
1352.404499,-8438.347739,-6365.771101,4290.134789
1352.404820,-8660.409521,-6587.832884,3064.381992
1352.405140,-7179.997637,-4441.235652,2681.334243
1352.405461,-8882.471304,-3701.029710,3830.477490
1352.405782,-9918.759623,-3108.864956,3600.648841
1352.406103,-8512.368333,-2368.659014,2604.724693
1352.406424,-9548.656652,-1850.514855,2834.553343
1352.406745,-11917.315666,-2072.576638,3217.601092
1352.407065,-11769.274478,-2294.638420,2834.553343
1352.407386,-10881.027347,-888.247130,2145.067394
1352.407707,-10658.965565,1036.288319,1455.581446
1352.408028,-11547.212695,1776.494261,1838.629195
1352.408349,-10955.047942,0.000000,3983.696590
1352.408670,-10436.903782,-2368.659014,3217.601092
1352.408991,-10140.821405,-3997.112087,1838.629195
1352.409312,-9622.677246,-3552.988522,1838.629195
1352.409633,-9918.759623,-2294.638420,3447.429741
1352.409954,-10510.924376,-2146.597232,3830.477490
1352.410274,-9104.533087,-1258.350101,3217.601092
1352.410595,-8512.368333,-1628.453072,4136.915689
1352.410916,-9474.636058,-2590.720797,459.657299
1352.411237,-9770.718434,0.000000,383.047749
1352.411558,-10436.903782,0.000000,1532.190996
1352.411879,-9252.574275,1406.391290,1532.190996
1352.412200,-9696.697840,1406.391290,1302.362347
1352.412521,-10140.821405,518.144159,1072.533697
1352.412842,-8808.450710,-962.267725,766.095498
1352.413162,-9030.512492,-1258.350101,1149.143247
1352.413483,-10214.842000,-1110.308913,2987.772442
1352.413804,-9178.553681,-1998.556043,2298.286494
1352.414125,-7994.224174,-1850.514855,2145.067394
1352.414446,-8512.368333,-2368.659014,2374.896044
1352.414767,-7254.018232,-2516.700203,1762.019645
1352.415088,-7105.977043,-1480.411884,1532.190996
1352.415409,-9326.594869,0.000000,3524.039291
1352.415730,-8808.450710,962.267725,3907.087040
1352.416051,-9252.574275,-370.102971,4213.525239
1352.416371,-8438.347739,-1332.370696,4443.353888
1352.416692,-8068.244768,-1480.411884,1608.800546
1352.417013,-9474.636058,370.102971,1225.752797
1352.417334,-9992.780217,2442.679609,3064.381992
1352.417655,-8808.450710,2294.638420,383.047749
1352.417976,-9844.739029,1480.411884,1072.533697
1352.418297,-11621.233289,1258.350101,3294.210641
1352.418618,-12509.480420,0.000000,2298.286494
1352.418939,-11843.295072,0.000000,4213.525239
1352.419259,-12509.480420,0.000000,3907.087040
1352.419580,-11251.130318,0.000000,3524.039291
1352.419901,-10732.986159,-1332.370696,1685.410096
1352.420222,-9844.739029,-296.082377,919.314598
1352.420543,-7402.059420,-370.102971,-995.924147
1352.420864,-10288.862594,444.123565,766.095498
1352.421185,-10140.821405,962.267725,2757.943793
1352.421506,-10584.944971,-1110.308913,1608.800546
1352.421827,-11991.336260,-2812.782580,2298.286494
1352.422148,-9770.718434,-2960.823768,306.438199
1352.422468,-7105.977043,-740.205942,-1302.362347
1352.422789,-11251.130318,1480.411884,1378.971896
1352.423110,-9918.759623,2664.741391,1225.752797
1352.423431,-9178.553681,148.041188,-153.219100
1352.423752,-8882.471304,-2368.659014,-1149.143247
1352.424073,-6069.688724,-2072.576638,-2757.943793
1352.424394,-10436.903782,-1554.432478,383.047749
1352.424715,-11325.150913,0.000000,2681.334243
1352.425036,-8734.430116,0.000000,1532.190996
1352.425356,-9178.553681,-2072.576638,153.219100
1352.425677,-8808.450710,-2368.659014,-995.924147
1352.425998,-9474.636058,-222.061783,0.000000
1352.426319,-9252.574275,-148.041188,0.000000
1352.426640,-7550.100608,592.164754,-306.438199
1352.426961,-7031.956449,-1036.288319,-2528.115143
1352.427282,-8734.430116,-2516.700203,-2834.553343
1352.427603,-8290.306550,-296.082377,-153.219100
1352.427924,-10214.842000,-740.205942,1455.581446
1352.428244,-9548.656652,-1628.453072,2298.286494
1352.428565,-9770.718434,-2368.659014,1455.581446
1352.428886,-10807.006753,-2368.659014,766.095498
1352.429207,-10955.047942,-444.123565,1455.581446
1352.429528,-9474.636058,1554.432478,2068.457845
1352.429849,-9622.677246,1110.308913,1685.410096
1352.430170,-9400.615463,370.102971,306.438199
1352.430491,-8882.471304,-1480.411884,-229.828649
1352.430812,-9030.512492,-1554.432478,0.000000
1352.431133,-9104.533087,-1850.514855,1302.362347
1352.431453,-9770.718434,-1406.391290,2374.896044
1352.431774,-11103.089130,0.000000,3600.648841
1352.432095,-11029.068536,740.205942,4749.792088
1352.432416,-12213.398043,-666.185348,4290.134789
1352.432737,-9992.780217,-1110.308913,3370.820191
1352.433058,-10140.821405,-1406.391290,1302.362347
1352.433379,-11325.150913,1258.350101,383.047749
1352.433700,-9622.677246,888.247130,2681.334243
1352.434021,-8660.409521,-222.061783,2451.505594
1352.434341,-8660.409521,-1406.391290,842.705048
1352.434662,-9252.574275,-814.226536,1225.752797
1352.434983,-10288.862594,740.205942,1762.019645
1352.435304,-10658.965565,1110.308913,3294.210641
1352.435625,-9918.759623,888.247130,3677.258390
1352.435946,-9474.636058,-2220.617826,2374.896044
1352.436267,-8586.388927,-2294.638420,459.657299
1352.436588,-9252.574275,-296.082377,229.828649
1352.436909,-10066.800811,1554.432478,1991.848295
1352.437230,-9178.553681,2368.659014,3217.601092
1352.437550,-7550.100608,-296.082377,1455.581446
1352.437871,-8956.491898,-148.041188,76.609550
1352.438192,-7920.203579,0.000000,-842.705048
1352.438513,-9474.636058,1110.308913,536.266849
1352.438834,-10214.842000,1110.308913,2221.676944
1352.439155,-7920.203579,0.000000,76.609550
1352.439476,-9844.739029,-1406.391290,-383.047749
1352.439797,-8142.265362,-1110.308913,-1532.190996
1352.440118,-9178.553681,1184.329507,383.047749
1352.440438,-11029.068536,1110.308913,1302.362347
1352.440759,-9474.636058,2368.659014,1149.143247
1352.441080,-10658.965565,518.144159,229.828649
1352.441401,-8734.430116,-444.123565,-1685.410096
1352.441722,-7772.162391,-518.144159,0.000000
1352.442043,-10066.800811,444.123565,153.219100
1352.442364,-10288.862594,592.164754,995.924147
1352.442685,-8808.450710,444.123565,0.000000
1352.443006,-10140.821405,-1850.514855,-1455.581446
1352.443327,-8956.491898,-1776.494261,-2221.676944
1352.443647,-9252.574275,296.082377,-995.924147
1352.443968,-11843.295072,1332.370696,1532.190996
1352.444289,-10955.047942,2590.720797,2145.067394
1352.444610,-10066.800811,518.144159,2068.457845
1352.444931,-9844.739029,-1480.411884,0.000000
1352.445252,-9252.574275,-296.082377,0.000000
1352.445573,-10955.047942,-1036.288319,1225.752797
1352.445894,-10214.842000,888.247130,2834.553343
1352.446215,-9104.533087,-148.041188,1532.190996
1352.446535,-9474.636058,-1554.432478,919.314598
1352.446856,-9474.636058,-1702.473667,383.047749
1352.447177,-8956.491898,-888.247130,229.828649
1352.447498,-9992.780217,592.164754,1838.629195
1352.447819,-9918.759623,1480.411884,3140.991542
1352.448140,-9104.533087,1480.411884,2681.334243
1352.448461,-10510.924376,592.164754,2528.115143
1352.448782,-9770.718434,444.123565,2528.115143
1352.449103,-9474.636058,-888.247130,2681.334243
1352.449424,-9474.636058,-3404.947333,2681.334243
1352.449744,-7772.162391,-2738.761985,1532.190996
1352.450065,-8808.450710,-2146.597232,1455.581446
1352.450386,-10066.800811,-2368.659014,1455.581446
1352.450707,-7846.182985,0.000000,2145.067394
1352.451028,-9548.656652,-888.247130,1608.800546
1352.451349,-8956.491898,-222.061783,2145.067394
1352.451670,-9696.697840,-814.226536,2221.676944
1352.451991,-10584.944971,-3034.844362,1838.629195
1352.452312,-8290.306550,-1924.535449,1378.971896
1352.452632,-9400.615463,-2516.700203,1378.971896
1352.452953,-9400.615463,-1850.514855,1915.238745
1352.453274,-9844.739029,-1924.535449,2221.676944
1352.453595,-8882.471304,-2886.803174,536.266849
1352.453916,-8290.306550,-1998.556043,-995.924147
1352.454237,-9178.553681,-370.102971,-536.266849
1352.454558,-9548.656652,518.144159,153.219100
1352.454879,-9770.718434,1184.329507,1378.971896
1352.455200,-10066.800811,592.164754,1608.800546
1352.455520,-9474.636058,-296.082377,153.219100
1352.455841,-10362.883188,-148.041188,842.705048
1352.456162,-10584.944971,0.000000,1302.362347
1352.456483,-10732.986159,444.123565,1302.362347
1352.456804,-9326.594869,740.205942,1455.581446
1352.457125,-10140.821405,-888.247130,306.438199
1352.457446,-9400.615463,-518.144159,229.828649
1352.457767,-9696.697840,0.000000,-766.095498
1352.458088,-10436.903782,740.205942,919.314598
1352.458409,-9992.780217,2146.597232,1225.752797
1352.458729,-9548.656652,592.164754,1762.019645
1352.459050,-10066.800811,-962.267725,-383.047749
1352.459371,-7105.977043,1480.411884,-1838.629195
1352.459692,-11473.192101,1110.308913,2221.676944
1352.460013,-11769.274478,518.144159,2834.553343
1352.460334,-7994.224174,-1110.308913,1838.629195
1352.460655,-11029.068536,-3034.844362,-842.705048
1352.460976,-8364.327145,-1406.391290,-842.705048
1352.461297,-7550.100608,-1110.308913,-2374.896044
1352.461617,-11769.274478,1628.453072,2451.505594
1352.461938,-7624.121203,2442.679609,306.438199
1352.462259,-10955.047942,148.041188,689.485948
1352.462580,-8438.347739,-1110.308913,1225.752797
1352.462901,-7772.162391,-1184.329507,-1072.533697
1352.463222,-11251.130318,0.000000,2911.162892
1352.463543,-10140.821405,296.082377,2374.896044
1352.463864,-6735.874072,0.000000,1225.752797
1352.464185,-10066.800811,-1850.514855,-689.485948
1352.464506,-8364.327145,-1554.432478,1149.143247
1352.464826,-9622.677246,-962.267725,2374.896044
1352.465147,-11473.192101,0.000000,3217.601092
1352.465468,-8734.430116,2368.659014,2604.724693
1352.465789,-9696.697840,296.082377,1838.629195
1352.466110,-8882.471304,0.000000,0.000000
1352.466431,-8068.244768,1036.288319,-459.657299
1352.466752,-7920.203579,222.061783,459.657299
1352.467073,-7846.182985,666.185348,1072.533697
1352.467394,-10066.800811,0.000000,1838.629195
1352.467714,-10732.986159,-1258.350101,612.876398
1352.468035,-10658.965565,-814.226536,2145.067394
1352.468356,-9548.656652,1258.350101,2068.457845
1352.468677,-10955.047942,148.041188,3064.381992
1352.468998,-11547.212695,148.041188,2911.162892
1352.469319,-9474.636058,296.082377,2911.162892
1352.469640,-11103.089130,-2812.782580,536.266849
1352.469961,-8660.409521,-666.185348,383.047749
1352.470282,-9104.533087,0.000000,306.438199
1352.470603,-10362.883188,740.205942,1532.190996
1352.470923,-9474.636058,1184.329507,1608.800546
1352.471244,-10140.821405,-2664.741391,-689.485948
1352.471565,-9548.656652,-3997.112087,-229.828649
1352.471886,-8808.450710,-3256.906145,-1225.752797
1352.472207,-11843.295072,962.267725,536.266849
1352.472528,-10955.047942,3552.988522,2374.896044
1352.472849,-8882.471304,2368.659014,2911.162892
1352.473170,-10066.800811,-1184.329507,1915.238745
1352.473491,-9178.553681,-3478.967927,0.000000
1352.473811,-9178.553681,-3997.112087,0.000000
1352.474132,-9178.553681,-3182.885551,612.876398
1352.474453,-7846.182985,-962.267725,1915.238745
1352.474774,-8956.491898,-1258.350101,995.924147
1352.475095,-8808.450710,148.041188,1455.581446
1352.475416,-9178.553681,-2220.617826,0.000000
1352.475737,-9770.718434,-592.164754,1455.581446
1352.476058,-11177.109724,-814.226536,2757.943793
1352.476379,-9918.759623,-1332.370696,1838.629195
1352.476700,-9400.615463,-888.247130,995.924147
1352.477020,-8290.306550,-1406.391290,-383.047749
1352.477341,-8290.306550,0.000000,0.000000
1352.477662,-10066.800811,888.247130,1072.533697
1352.477983,-9844.739029,814.226536,2145.067394
1352.478304,-9844.739029,-1480.411884,1072.533697
1352.478625,-8882.471304,-2146.597232,-306.438199
1352.478946,-9474.636058,-1258.350101,-459.657299
1352.479267,-9770.718434,518.144159,1991.848295
1352.479588,-10881.027347,444.123565,2451.505594
1352.479908,-9252.574275,0.000000,2528.115143
1352.480229,-9178.553681,-2812.782580,229.828649
1352.480550,-8734.430116,-1924.535449,-766.095498
1352.480871,-10140.821405,-148.041188,1838.629195
1352.481192,-10584.944971,1258.350101,1302.362347
1352.481513,-10066.800811,2738.761985,2834.553343
1352.481834,-10807.006753,222.061783,766.095498
1352.482155,-9326.594869,-740.205942,0.000000
1352.482476,-9548.656652,-962.267725,-536.266849
1352.482796,-11251.130318,0.000000,1608.800546
1352.483117,-10140.821405,1110.308913,1608.800546
1352.483438,-9770.718434,1184.329507,1685.410096
1352.483759,-7994.224174,-1036.288319,842.705048
1352.484080,-8216.285956,-592.164754,-383.047749
1352.484401,-10140.821405,740.205942,1302.362347
1352.484722,-10140.821405,888.247130,2528.115143
1352.485043,-9844.739029,-296.082377,4136.915689
1352.485364,-9992.780217,-3108.864956,1532.190996
1352.485685,-9474.636058,-3404.947333,0.000000
1352.486005,-8142.265362,-592.164754,-229.828649
1352.486326,-10362.883188,592.164754,1991.848295
1352.486647,-9178.553681,2812.782580,1838.629195
1352.486968,-9474.636058,1184.329507,1302.362347
1352.487289,-9178.553681,-222.061783,-306.438199
1352.487610,-8512.368333,888.247130,-1225.752797
1352.487931,-9474.636058,1332.370696,612.876398
1352.488252,-10584.944971,370.102971,1991.848295
1352.488573,-8734.430116,666.185348,2145.067394
1352.488893,-9474.636058,-2368.659014,919.314598
1352.489214,-9252.574275,-1554.432478,0.000000
1352.489535,-8660.409521,444.123565,1149.143247
1352.489856,-10584.944971,444.123565,1915.238745
1352.490177,-9770.718434,2590.720797,2834.553343
1352.490498,-9474.636058,0.000000,1225.752797
1352.490819,-8586.388927,-1998.556043,-612.876398
1352.491140,-8290.306550,-1110.308913,-842.705048
1352.491461,-9548.656652,-222.061783,229.828649
1352.491782,-11103.089130,592.164754,2451.505594
1352.492102,-10214.842000,1332.370696,2451.505594
1352.492423,-10436.903782,-962.267725,1455.581446
1352.492744,-9844.739029,-814.226536,153.219100
1352.493065,-8734.430116,-370.102971,0.000000
1352.493386,-10436.903782,0.000000,1915.238745
1352.493707,-9918.759623,1776.494261,2298.286494
1352.494028,-9178.553681,0.000000,612.876398
1352.494349,-9030.512492,-1628.453072,-689.485948
1352.494670,-8290.306550,-962.267725,-1532.190996
1352.494990,-9844.739029,444.123565,1149.143247
1352.495311,-11325.150913,0.000000,2834.553343
1352.495632,-9918.759623,370.102971,2834.553343
1352.495953,-10584.944971,-1776.494261,1838.629195
1352.496274,-10140.821405,-2812.782580,-459.657299
1352.496595,-9400.615463,-962.267725,612.876398
1352.496916,-10510.924376,0.000000,1149.143247
1352.497237,-8956.491898,1850.514855,995.924147
1352.497558,-9030.512492,666.185348,383.047749
1352.497879,-9178.553681,-1554.432478,76.609550
1352.498199,-8660.409521,-1554.432478,-766.095498
1352.498520,-9770.718434,-1258.350101,612.876398
1352.498841,-10362.883188,-592.164754,2145.067394
1352.499162,-9770.718434,-962.267725,2987.772442
1352.499483,-10066.800811,-2664.741391,1685.410096
1352.499804,-9622.677246,-2368.659014,842.705048
1352.500125,-8660.409521,-296.082377,0.000000
1352.500446,-9622.677246,0.000000,383.047749
1352.500767,-9104.533087,1258.350101,1302.362347
1352.501087,-8882.471304,148.041188,1149.143247
1352.501408,-9400.615463,-1850.514855,919.314598
1352.501729,-9474.636058,-2072.576638,-689.485948
1352.502050,-9400.615463,-2368.659014,1149.143247
1352.502371,-10807.006753,-1628.453072,2834.553343
1352.502692,-9992.780217,222.061783,3370.820191
1352.503013,-9992.780217,-1332.370696,1302.362347
1352.503334,-9622.677246,-592.164754,459.657299
1352.503655,-7698.141797,888.247130,229.828649
1352.503976,-10288.862594,296.082377,2298.286494
1352.504296,-10955.047942,592.164754,4596.572988
1352.504617,-10214.842000,-1850.514855,3677.258390
1352.504938,-9622.677246,-3552.988522,306.438199
1352.505259,-7698.141797,-1924.535449,-995.924147
1352.505580,-9548.656652,74.020594,306.438199
1352.505901,-9770.718434,2812.782580,1685.410096
1352.506222,-9326.594869,2738.761985,1915.238745
1352.506543,-8290.306550,-222.061783,-229.828649
1352.506864,-8734.430116,-1036.288319,-1225.752797
1352.507184,-10362.883188,-740.205942,459.657299
1352.507505,-11695.253884,592.164754,2834.553343
1352.507826,-10288.862594,2072.576638,4290.134789
1352.508147,-10066.800811,222.061783,3447.429741
1352.508468,-9918.759623,-1998.556043,1991.848295
1352.508789,-10066.800811,-2072.576638,689.485948
1352.509110,-10288.862594,-518.144159,766.095498
1352.509430,-8882.471304,1776.494261,1378.971896
1352.509751,-9030.512492,1110.308913,766.095498
1352.510072,-8882.471304,74.020594,1149.143247
1352.510393,-9252.574275,-1406.391290,-842.705048
1352.510713,-9474.636058,-2146.597232,-842.705048
1352.511034,-9178.553681,296.082377,-306.438199
1352.511355,-11621.233289,296.082377,0.000000
1352.511676,-9918.759623,1702.473667,1762.019645
1352.511996,-11177.109724,-222.061783,1378.971896
1352.512317,-9326.594869,0.000000,689.485948
1352.512638,-9696.697840,-1628.453072,0.000000
1352.512959,-9844.739029,-814.226536,-995.924147
1352.513279,-8882.471304,444.123565,306.438199
1352.513600,-9030.512492,-444.123565,0.000000
1352.513921,-7772.162391,0.000000,-536.266849
1352.514242,-8438.347739,-814.226536,-383.047749
1352.514563,-9696.697840,-592.164754,459.657299
1352.514883,-10288.862594,296.082377,2221.676944
1352.515204,-11103.089130,-444.123565,2145.067394
1352.515525,-8956.491898,-888.247130,842.705048
1352.515846,-9252.574275,-518.144159,-306.438199
1352.516166,-9030.512492,666.185348,0.000000
1352.516487,-10288.862594,2146.597232,1302.362347
1352.516808,-9548.656652,2368.659014,2451.505594
1352.517129,-9474.636058,0.000000,919.314598
1352.517449,-10140.821405,-1998.556043,306.438199
1352.517770,-8364.327145,-2072.576638,-229.828649
1352.518091,-10214.842000,-1628.453072,1225.752797
1352.518412,-9918.759623,1036.288319,76.609550
1352.518732,-9548.656652,1258.350101,2681.334243
1352.519053,-9622.677246,-592.164754,1455.581446
1352.519374,-9252.574275,-1554.432478,919.314598
1352.519695,-10214.842000,-1850.514855,1378.971896
1352.520016,-10436.903782,-814.226536,2068.457845
1352.520336,-9548.656652,-962.267725,2604.724693
1352.520657,-9918.759623,-1332.370696,1685.410096
1352.520978,-9326.594869,-1924.535449,1762.019645
1352.521299,-9104.533087,-1554.432478,995.924147
1352.521619,-11103.089130,148.041188,2834.553343
1352.521940,-11473.192101,444.123565,2528.115143
1352.522261,-9400.615463,-148.041188,3140.991542
1352.522582,-10066.800811,-3849.070898,-229.828649
1352.522902,-7994.224174,-666.185348,-383.047749
1352.523223,-10066.800811,-1332.370696,842.705048
1352.523544,-9030.512492,814.226536,1532.190996
1352.523865,-9622.677246,888.247130,3524.039291
1352.524185,-9474.636058,-1924.535449,1302.362347
1352.524506,-9104.533087,-666.185348,689.485948
1352.524827,-10362.883188,0.000000,689.485948
1352.525148,-9548.656652,1406.391290,2298.286494
1352.525469,-10214.842000,1702.473667,3524.039291
1352.525789,-9622.677246,-148.041188,2451.505594
1352.526110,-8734.430116,-2368.659014,536.266849
1352.526431,-9104.533087,-1110.308913,153.219100
1352.526752,-9622.677246,-2738.761985,383.047749
1352.527072,-8808.450710,0.000000,1762.019645
1352.527393,-10140.821405,-740.205942,2068.457845
1352.527714,-8586.388927,-740.205942,842.705048
1352.528035,-9178.553681,-1628.453072,-995.924147
1352.528355,-8364.327145,-444.123565,-536.266849
1352.528676,-9844.739029,518.144159,995.924147
1352.528997,-11547.212695,1480.411884,2221.676944
1352.529318,-10214.842000,666.185348,2374.896044
1352.529639,-9252.574275,-1776.494261,-766.095498
1352.529959,-9696.697840,-814.226536,-995.924147
1352.530280,-9030.512492,-814.226536,-459.657299
1352.530601,-10732.986159,888.247130,1378.971896
1352.530922,-10140.821405,296.082377,1608.800546
1352.531242,-9622.677246,0.000000,153.219100
1352.531563,-9844.739029,-1332.370696,-153.219100
1352.531884,-8956.491898,-1332.370696,-919.314598
1352.532205,-10584.944971,0.000000,766.095498
1352.532525,-9622.677246,1258.350101,1149.143247
1352.532846,-8956.491898,1110.308913,919.314598
1352.533167,-9622.677246,-1036.288319,0.000000
1352.533488,-9104.533087,-222.061783,306.438199
1352.533808,-10140.821405,-518.144159,153.219100
1352.534129,-10658.965565,518.144159,2221.676944
1352.534450,-10066.800811,518.144159,2681.334243
1352.534771,-11399.171507,-1332.370696,1991.848295
1352.535092,-10584.944971,-1776.494261,919.314598
1352.535412,-9622.677246,-1184.329507,229.828649
1352.535733,-9326.594869,370.102971,1532.190996
1352.536054,-9918.759623,296.082377,1685.410096
1352.536375,-8216.285956,740.205942,995.924147
1352.536695,-9474.636058,-518.144159,76.609550
1352.537016,-9400.615463,0.000000,536.266849
1352.537337,-8808.450710,-296.082377,1838.629195
1352.537658,-10140.821405,-2442.679609,1149.143247
1352.537978,-8438.347739,148.041188,2834.553343
1352.538299,-11177.109724,-1850.514855,2221.676944
1352.538620,-10140.821405,-1258.350101,3064.381992
1352.538941,-8438.347739,-1924.535449,459.657299
1352.539261,-9918.759623,814.226536,1685.410096
1352.539582,-9030.512492,1554.432478,306.438199
1352.539903,-8882.471304,2664.741391,1762.019645
1352.540224,-10362.883188,-814.226536,1838.629195
1352.540545,-7105.977043,-1850.514855,1072.533697
1352.540865,-10510.924376,-1480.411884,995.924147
1352.541186,-10362.883188,-1850.514855,2451.505594
1352.541507,-10288.862594,-222.061783,3370.820191
1352.541828,-10881.027347,-1406.391290,3370.820191
1352.542148,-7846.182985,-2368.659014,76.609550
1352.542469,-8290.306550,-518.144159,-689.485948
1352.542790,-10214.842000,1776.494261,995.924147
1352.543111,-10362.883188,2664.741391,2681.334243
1352.543431,-10584.944971,2590.720797,4213.525239
1352.543752,-11325.150913,-1702.473667,2145.067394
1352.544073,-10140.821405,-2368.659014,383.047749
1352.544394,-10214.842000,-1998.556043,0.000000
1352.544714,-9770.718434,-296.082377,-383.047749
1352.545035,-8734.430116,1554.432478,229.828649
1352.545356,-7994.224174,222.061783,-229.828649
1352.545677,-8956.491898,-148.041188,-1838.629195
1352.545998,-8734.430116,0.000000,-1378.971896
1352.546318,-10066.800811,-518.144159,0.000000
1352.546639,-11029.068536,370.102971,3294.210641
1352.546960,-10881.027347,-518.144159,2681.334243
1352.547281,-10955.047942,-1998.556043,1838.629195
1352.547601,-9992.780217,-1628.453072,919.314598
1352.547922,-9400.615463,-814.226536,306.438199
1352.548243,-11029.068536,-296.082377,153.219100
1352.548564,-9400.615463,1924.535449,536.266849
1352.548884,-8290.306550,1110.308913,-1838.629195
1352.549205,-9326.594869,-592.164754,-1685.410096
1352.549526,-7254.018232,222.061783,-2451.505594
1352.549847,-9400.615463,-1110.308913,-1378.971896
1352.550167,-9696.697840,814.226536,-536.266849
1352.550488,-10066.800811,2072.576638,1455.581446
1352.550809,-10807.006753,-1406.391290,2604.724693
1352.551130,-9918.759623,-1554.432478,2757.943793
1352.551451,-10584.944971,-962.267725,3600.648841
1352.551771,-11251.130318,-1776.494261,2757.943793
1352.552092,-9326.594869,0.000000,2145.067394
1352.552413,-7846.182985,-1110.308913,-153.219100
1352.552734,-7254.018232,-1036.288319,-2451.505594
1352.553054,-6809.894666,814.226536,-1378.971896
1352.553375,-8512.368333,1480.411884,383.047749
1352.553696,-10881.027347,1628.453072,2068.457845
1352.554017,-10436.903782,1406.391290,3370.820191
1352.554337,-10807.006753,-592.164754,3294.210641
1352.554658,-11029.068536,-962.267725,3370.820191
1352.554979,-9918.759623,-1258.350101,2298.286494
1352.555300,-10066.800811,-1406.391290,3217.601092
1352.555620,-7920.203579,-666.185348,1532.190996
1352.555941,-8068.244768,-2368.659014,919.314598
1352.556262,-9622.677246,-2294.638420,536.266849
1352.556583,-8586.388927,-1554.432478,-153.219100
1352.556904,-8512.368333,1850.514855,0.000000
1352.557224,-11399.171507,2072.576638,3907.087040
1352.557545,-9622.677246,1998.556043,2681.334243
1352.557866,-10807.006753,0.000000,2987.772442
1352.558187,-9992.780217,-2886.803174,842.705048
1352.558507,-9474.636058,-740.205942,689.485948
1352.558828,-11991.336260,-1554.432478,1685.410096
1352.559149,-9252.574275,0.000000,1838.629195
1352.559470,-9474.636058,-222.061783,995.924147
1352.559790,-9474.636058,-222.061783,459.657299
1352.560111,-8364.327145,962.267725,0.000000
1352.560432,-10436.903782,-296.082377,306.438199
1352.560753,-9992.780217,666.185348,2298.286494
1352.561073,-10510.924376,-518.144159,2681.334243
1352.561394,-9992.780217,-2368.659014,612.876398
1352.561715,-9104.533087,-1628.453072,306.438199
1352.562036,-8734.430116,-444.123565,76.609550
1352.562357,-9696.697840,370.102971,995.924147
1352.562677,-10214.842000,1036.288319,2298.286494
1352.562998,-9326.594869,74.020594,919.314598
1352.563319,-9474.636058,-2146.597232,-383.047749
1352.563640,-9474.636058,-1184.329507,-383.047749
1352.563960,-9474.636058,0.000000,76.609550
1352.564281,-10658.965565,1924.535449,2221.676944
1352.564602,-9770.718434,2220.617826,2298.286494
1352.564923,-9326.594869,0.000000,0.000000
1352.565243,-8956.491898,-1258.350101,-1608.800546
1352.565564,-8882.471304,-740.205942,-689.485948
1352.565885,-10362.883188,0.000000,1149.143247
1352.566206,-9992.780217,-148.041188,1838.629195
1352.566526,-8142.265362,-1406.391290,306.438199
1352.566847,-9030.512492,-2368.659014,-1149.143247
1352.567168,-9104.533087,-740.205942,-1532.190996
1352.567489,-9844.739029,814.226536,1455.581446
1352.567810,-10362.883188,1924.535449,2374.896044
1352.568130,-10436.903782,1702.473667,2068.457845
1352.568451,-10362.883188,-592.164754,-306.438199
1352.568772,-9178.553681,-1924.535449,-536.266849
1352.569093,-8660.409521,-740.205942,306.438199
1352.569413,-10288.862594,-1184.329507,1762.019645
1352.569734,-9548.656652,-296.082377,2374.896044
1352.570055,-9252.574275,-1184.329507,1225.752797
1352.570376,-9992.780217,-2590.720797,612.876398
1352.570696,-9030.512492,-1036.288319,766.095498
1352.571017,-9992.780217,-518.144159,2068.457845
1352.571338,-10140.821405,1406.391290,1608.800546
1352.571659,-9992.780217,1480.411884,2604.724693
1352.571979,-9622.677246,74.020594,1838.629195
1352.572300,-10214.842000,-1184.329507,1225.752797
1352.572621,-8956.491898,-1110.308913,-383.047749
1352.572942,-10807.006753,-592.164754,2374.896044
1352.573263,-9622.677246,370.102971,2911.162892
1352.573583,-9548.656652,-1924.535449,2528.115143
1352.573904,-8882.471304,-2812.782580,76.609550
1352.574225,-8438.347739,-1036.288319,459.657299
1352.574546,-8808.450710,444.123565,153.219100
1352.574866,-10436.903782,3182.885551,2681.334243
1352.575187,-9474.636058,2294.638420,2757.943793
1352.575508,-9696.697840,-2590.720797,919.314598
1352.575829,-9326.594869,-1554.432478,459.657299
1352.576149,-10288.862594,-1702.473667,306.438199
1352.576470,-10955.047942,74.020594,2911.162892
1352.576791,-10658.965565,1258.350101,3294.210641
1352.577112,-9918.759623,-1850.514855,2221.676944
1352.577432,-8068.244768,-3256.906145,-1302.362347
1352.577753,-7328.038826,-1110.308913,-1991.848295
1352.578074,-10362.883188,1110.308913,306.438199
1352.578395,-9178.553681,2368.659014,2451.505594
1352.578716,-9400.615463,1998.556043,2221.676944
1352.579036,-9548.656652,-814.226536,1762.019645
1352.579357,-9474.636058,-3701.029710,-689.485948
1352.579678,-10732.986159,-1554.432478,2451.505594
1352.579999,-10732.986159,-1998.556043,2298.286494
1352.580319,-9474.636058,370.102971,1838.629195
1352.580640,-9474.636058,0.000000,1225.752797
1352.580961,-9474.636058,-222.061783,-919.314598
1352.581282,-7698.141797,-1110.308913,-2068.457845
1352.581602,-9622.677246,222.061783,-919.314598
1352.581923,-9474.636058,2368.659014,1225.752797
1352.582244,-11103.089130,1924.535449,2681.334243
1352.582565,-10807.006753,-1110.308913,3677.258390
1352.582885,-10362.883188,-3478.967927,2145.067394
1352.583206,-10807.006753,-3404.947333,1455.581446
1352.583527,-11251.130318,-2442.679609,766.095498
1352.583848,-9252.574275,814.226536,2145.067394
1352.584169,-7920.203579,888.247130,-689.485948
1352.584489,-8068.244768,666.185348,-1762.019645
1352.584810,-7624.121203,444.123565,-2681.334243
1352.585131,-8364.327145,-296.082377,-842.705048
1352.585452,-10362.883188,0.000000,153.219100
1352.585772,-10066.800811,444.123565,1532.190996
1352.586093,-11251.130318,-1332.370696,1685.410096
1352.586414,-10584.944971,-1554.432478,2374.896044
1352.586735,-9474.636058,518.144159,995.924147
1352.587055,-10807.006753,740.205942,1455.581446
1352.587376,-9844.739029,2442.679609,2221.676944
1352.587697,-9844.739029,518.144159,1149.143247
1352.588018,-8808.450710,-1110.308913,-689.485948
1352.588338,-8216.285956,-1258.350101,-1149.143247
1352.588659,-8808.450710,74.020594,76.609550
1352.588980,-10214.842000,1184.329507,2451.505594
1352.589301,-10214.842000,1258.350101,2145.067394
1352.589622,-8734.430116,-740.205942,459.657299
1352.589942,-7772.162391,-2664.741391,-1225.752797
1352.590263,-8808.450710,370.102971,229.828649
1352.590584,-11177.109724,1332.370696,3447.429741
1352.590905,-11769.274478,1184.329507,4290.134789
1352.591225,-9400.615463,-148.041188,4136.915689
1352.591546,-10881.027347,-4515.256246,995.924147
1352.591867,-9696.697840,-2442.679609,229.828649
1352.592188,-11103.089130,-814.226536,1608.800546
1352.592508,-9104.533087,2886.803174,2145.067394
1352.592829,-10214.842000,2146.597232,2221.676944
1352.593150,-8660.409521,1480.411884,536.266849
1352.593471,-8438.347739,-1702.473667,1149.143247
1352.593791,-8438.347739,-2368.659014,-612.876398
1352.594112,-9030.512492,-1258.350101,766.095498
1352.594433,-10214.842000,-1628.453072,1991.848295
1352.594754,-8734.430116,-74.020594,2911.162892
1352.595075,-9400.615463,-666.185348,2221.676944
1352.595395,-9326.594869,0.000000,2374.896044
1352.595716,-9178.553681,592.164754,2374.896044
1352.596037,-11621.233289,518.144159,2068.457845
1352.596358,-9474.636058,1998.556043,2681.334243
1352.596678,-9622.677246,-148.041188,919.314598
1352.596999,-9474.636058,-666.185348,842.705048
1352.597320,-8364.327145,-1406.391290,-459.657299
1352.597641,-8438.347739,-1110.308913,1225.752797
1352.597961,-9474.636058,-370.102971,2298.286494
1352.598282,-10214.842000,-592.164754,2374.896044
1352.598603,-10881.027347,-1998.556043,2221.676944
1352.598924,-9696.697840,-1332.370696,-612.876398
1352.599244,-8956.491898,740.205942,1072.533697
1352.599565,-10955.047942,74.020594,1455.581446
1352.599886,-8808.450710,1110.308913,1915.238745
1352.600207,-9548.656652,-2146.597232,0.000000
1352.600528,-8216.285956,-2220.617826,-1225.752797
1352.600848,-8734.430116,-1628.453072,-1915.238745
1352.601169,-10288.862594,148.041188,76.609550
1352.601490,-9770.718434,1998.556043,1532.190996
1352.601811,-11029.068536,1258.350101,1762.019645
1352.602131,-10140.821405,-888.247130,919.314598
1352.602452,-10214.842000,-2368.659014,-1149.143247
1352.602773,-9474.636058,-518.144159,-383.047749
1352.603094,-10955.047942,-222.061783,229.828649
1352.603414,-9326.594869,1406.391290,2451.505594
1352.603735,-9178.553681,-592.164754,1532.190996
1352.604056,-9252.574275,-2368.659014,-306.438199
1352.604377,-7624.121203,-1924.535449,-689.485948
1352.604697,-9252.574275,-1480.411884,306.438199
1352.605018,-10732.986159,-518.144159,1991.848295
1352.605339,-8956.491898,0.000000,2221.676944
1352.605660,-9696.697840,-2220.617826,612.876398
1352.605981,-8512.368333,-2516.700203,-612.876398
1352.606301,-8956.491898,-1184.329507,-689.485948
1352.606622,-10362.883188,592.164754,1455.581446
1352.606943,-9696.697840,1628.453072,2757.943793
1352.607264,-9918.759623,222.061783,1455.581446
1352.607584,-9918.759623,-444.123565,1532.190996
1352.607905,-9918.759623,-740.205942,1608.800546
1352.608226,-10510.924376,-2146.597232,1838.629195
1352.608547,-10510.924376,-592.164754,3294.210641
1352.608867,-9696.697840,-1554.432478,2911.162892
1352.609188,-8956.491898,-3108.864956,1378.971896
1352.609509,-8956.491898,-3034.844362,612.876398
1352.609830,-8142.265362,-518.144159,-689.485948
1352.610150,-8956.491898,2368.659014,995.924147
1352.610471,-10140.821405,3775.050304,2681.334243
1352.610792,-9400.615463,1776.494261,2451.505594
1352.611113,-9992.780217,-2072.576638,0.000000
1352.611434,-8882.471304,-962.267725,0.000000
1352.611754,-11029.068536,-1184.329507,2145.067394
1352.612075,-11029.068536,-370.102971,4749.792088
1352.612396,-9696.697840,-148.041188,2757.943793
1352.612717,-9696.697840,-1184.329507,1149.143247
1352.613038,-7698.141797,-592.164754,-995.924147
1352.613359,-8882.471304,296.082377,536.266849
1352.613679,-9992.780217,1036.288319,2374.896044
1352.614000,-9252.574275,222.061783,2374.896044
1352.614321,-9844.739029,148.041188,1685.410096
1352.614642,-11177.109724,-1110.308913,2528.115143
1352.614963,-10510.924376,-1776.494261,2374.896044
1352.615284,-9918.759623,-1332.370696,2834.553343
1352.615604,-9770.718434,444.123565,2451.505594
1352.615925,-9104.533087,1110.308913,1072.533697
1352.616246,-9178.553681,-296.082377,76.609550
1352.616567,-8142.265362,0.000000,-1685.410096
1352.616888,-7624.121203,962.267725,-1302.362347
1352.617209,-9696.697840,0.000000,-153.219100
1352.617529,-9030.512492,2368.659014,1762.019645
1352.617850,-11769.274478,-1184.329507,1685.410096
1352.618171,-9252.574275,-2368.659014,689.485948
1352.618492,-9474.636058,-1480.411884,-995.924147
1352.618813,-10362.883188,-1998.556043,306.438199
1352.619134,-9992.780217,666.185348,229.828649
1352.619454,-8956.491898,1776.494261,1149.143247
1352.619775,-9622.677246,0.000000,-842.705048
1352.620096,-7994.224174,0.000000,-1762.019645
1352.620417,-9474.636058,-74.020594,-2068.457845
1352.620738,-9844.739029,592.164754,0.000000
1352.621059,-9326.594869,1258.350101,536.266849
1352.621379,-10955.047942,-370.102971,1532.190996
1352.621700,-9918.759623,-592.164754,536.266849
1352.622021,-10066.800811,0.000000,1991.848295
1352.622342,-11177.109724,370.102971,3294.210641
1352.622663,-11547.212695,-1110.308913,4903.011187
1352.622984,-9622.677246,-1406.391290,1685.410096
1352.623304,-9474.636058,-2590.720797,-1455.581446
1352.623625,-7698.141797,444.123565,-1762.019645
1352.623946,-7550.100608,2664.741391,76.609550
1352.624267,-9992.780217,2738.761985,995.924147
1352.624588,-9178.553681,2886.803174,1991.848295
1352.624909,-9326.594869,-148.041188,1302.362347
1352.625229,-11251.130318,-2368.659014,1838.629195
1352.625550,-9326.594869,-2368.659014,2451.505594
1352.625871,-10436.903782,-2146.597232,2221.676944
1352.626192,-10362.883188,222.061783,4290.134789
1352.626513,-8586.388927,-444.123565,2374.896044
1352.626834,-9178.553681,-2220.617826,1762.019645
1352.627154,-9104.533087,-2738.761985,-153.219100
1352.627475,-7994.224174,-814.226536,-536.266849
1352.627796,-9622.677246,1776.494261,612.876398
1352.628117,-10140.821405,1998.556043,1608.800546
1352.628438,-8364.327145,962.267725,2221.676944
1352.628759,-10658.965565,-1258.350101,2374.896044
1352.629079,-9400.615463,-2516.700203,1072.533697
1352.629400,-9474.636058,-1924.535449,1378.971896
1352.629721,-9548.656652,-2146.597232,689.485948
1352.630042,-7402.059420,-148.041188,-153.219100
1352.630363,-8734.430116,1110.308913,-459.657299
1352.630684,-9326.594869,1480.411884,306.438199
1352.631004,-8216.285956,518.144159,919.314598
1352.631325,-10955.047942,-74.020594,2528.115143
1352.631646,-11843.295072,-1628.453072,4290.134789
1352.631967,-11325.150913,-1998.556043,3447.429741
1352.632288,-11177.109724,-1776.494261,2987.772442
1352.632609,-9030.512492,0.000000,1378.971896
1352.632929,-8438.347739,888.247130,1149.143247
1352.633250,-9474.636058,296.082377,306.438199
1352.633571,-7402.059420,0.000000,-459.657299
1352.633892,-7994.224174,-2442.679609,-2681.334243
1352.634213,-8364.327145,-1332.370696,-1915.238745
1352.634534,-9252.574275,1850.514855,612.876398
1352.634854,-11769.274478,2072.576638,2604.724693
1352.635175,-11843.295072,1406.391290,3983.696590
1352.635496,-10510.924376,0.000000,2068.457845
1352.635817,-10584.944971,-1110.308913,995.924147
1352.636138,-10214.842000,-1036.288319,0.000000
1352.636459,-10214.842000,-370.102971,1149.143247
1352.636779,-9178.553681,370.102971,0.000000
1352.637100,-7772.162391,-370.102971,-766.095498
1352.637421,-8586.388927,-2220.617826,-1455.581446
1352.637742,-9178.553681,-2886.803174,-1225.752797
1352.638063,-9474.636058,-1554.432478,-536.266849
1352.638384,-10881.027347,814.226536,1225.752797
1352.638704,-11177.109724,1776.494261,2221.676944
1352.639025,-10658.965565,888.247130,2145.067394
1352.639346,-10066.800811,-518.144159,459.657299
1352.639667,-8364.327145,-814.226536,-842.705048
1352.639988,-9030.512492,-444.123565,0.000000
1352.640309,-9770.718434,-296.082377,766.095498
1352.640629,-8660.409521,222.061783,-306.438199
1352.640950,-9178.553681,-1480.411884,1072.533697
1352.641271,-8808.450710,-1850.514855,383.047749
1352.641592,-8808.450710,-1406.391290,842.705048
1352.641913,-9844.739029,-888.247130,1302.362347
1352.642234,-9030.512492,1850.514855,1762.019645
1352.642554,-10288.862594,2368.659014,3753.867940
1352.642875,-10807.006753,-592.164754,2528.115143
1352.643196,-7624.121203,-1036.288319,1532.190996
1352.643517,-9622.677246,-1924.535449,842.705048
1352.643838,-10066.800811,-666.185348,2604.724693
1352.644158,-9474.636058,-1702.473667,2757.943793
1352.644479,-9252.574275,-2220.617826,2604.724693
1352.644800,-8364.327145,-1332.370696,0.000000
1352.645121,-9178.553681,296.082377,0.000000
1352.645442,-9770.718434,2664.741391,1991.848295
1352.645763,-10288.862594,2368.659014,2451.505594
1352.646083,-9104.533087,518.144159,1455.581446
1352.646404,-10214.842000,-1332.370696,536.266849
1352.646725,-8068.244768,-1850.514855,-536.266849
1352.647046,-10214.842000,-1480.411884,1072.533697
1352.647367,-10584.944971,-518.144159,2911.162892
1352.647688,-10140.821405,-814.226536,3447.429741
1352.648008,-10362.883188,-1332.370696,1072.533697
1352.648329,-9400.615463,-888.247130,0.000000
1352.648650,-8808.450710,1554.432478,612.876398
1352.648971,-10658.965565,592.164754,919.314598
1352.649292,-9992.780217,2294.638420,1455.581446
1352.649613,-9252.574275,296.082377,612.876398
1352.649933,-8882.471304,-2368.659014,-536.266849
1352.650254,-9474.636058,-2294.638420,459.657299
1352.650575,-9918.759623,-1184.329507,1072.533697
1352.650896,-11177.109724,0.000000,2911.162892
1352.651217,-9696.697840,1776.494261,2221.676944
1352.651538,-10288.862594,-592.164754,2145.067394
1352.651858,-10066.800811,-1554.432478,153.219100
1352.652179,-8586.388927,-740.205942,-383.047749
1352.652500,-9326.594869,-222.061783,-153.219100
1352.652821,-9252.574275,1406.391290,1378.971896
1352.653142,-9030.512492,-370.102971,153.219100
1352.653463,-9400.615463,-2368.659014,153.219100
1352.653783,-10140.821405,-1850.514855,-383.047749
1352.654104,-10362.883188,-296.082377,1149.143247
1352.654425,-11325.150913,666.185348,3600.648841
1352.654746,-10436.903782,444.123565,3447.429741
1352.655067,-9474.636058,-2294.638420,612.876398
1352.655388,-9104.533087,-2516.700203,-1378.971896
1352.655708,-7698.141797,-518.144159,-1685.410096
1352.656029,-9400.615463,888.247130,-766.095498
1352.656350,-9474.636058,1184.329507,-229.828649
1352.656671,-7994.224174,2072.576638,1149.143247
1352.656992,-10584.944971,-1184.329507,0.000000
1352.657313,-6661.853478,-1406.391290,459.657299
1352.657633,-10436.903782,-592.164754,1532.190996
1352.657954,-11843.295072,-592.164754,2298.286494
1352.658275,-9474.636058,-296.082377,1608.800546
1352.658596,-9696.697840,-222.061783,1608.800546
1352.658917,-9918.759623,148.041188,229.828649
1352.659238,-8142.265362,0.000000,-689.485948
1352.659558,-9770.718434,1554.432478,306.438199
1352.659879,-9992.780217,1628.453072,1915.238745
1352.660200,-9326.594869,0.000000,1149.143247
1352.660521,-9844.739029,-1628.453072,2681.334243
1352.660842,-9326.594869,-2368.659014,1685.410096
1352.661163,-10362.883188,-888.247130,2987.772442
1352.661483,-11177.109724,-592.164754,4290.134789
1352.661804,-10436.903782,-148.041188,5209.449386
1352.662125,-10140.821405,-2664.741391,2834.553343
1352.662446,-10214.842000,-4071.132681,76.609550
1352.662767,-6365.771101,222.061783,0.000000
1352.663088,-8956.491898,518.144159,-766.095498
1352.663408,-9474.636058,3108.864956,995.924147
1352.663729,-8290.306550,3627.009116,2451.505594
1352.664050,-10214.842000,-3627.009116,-459.657299
1352.664371,-7031.956449,-1332.370696,-229.828649
1352.664692,-11251.130318,-1332.370696,1762.019645
1352.665013,-12139.377449,-740.205942,3753.867940
1352.665333,-10732.986159,1554.432478,4519.963438
1352.665654,-9844.739029,-518.144159,2068.457845
1352.665975,-7698.141797,-666.185348,-229.828649
1352.666296,-9178.553681,518.144159,0.000000
1352.666617,-9252.574275,222.061783,919.314598
1352.666938,-9770.718434,1628.453072,1838.629195
1352.667258,-8734.430116,518.144159,1072.533697
1352.667579,-9474.636058,-962.267725,229.828649
1352.667900,-9474.636058,222.061783,1302.362347
1352.668221,-10658.965565,-222.061783,1685.410096
1352.668542,-10362.883188,444.123565,2604.724693
1352.668863,-9992.780217,444.123565,2221.676944
1352.669183,-9474.636058,-962.267725,842.705048
1352.669504,-9030.512492,-1480.411884,-1072.533697
1352.669825,-7476.080014,-296.082377,-2528.115143
1352.670146,-7994.224174,1554.432478,-1762.019645
1352.670467,-10288.862594,2516.700203,1532.190996
1352.670788,-11547.212695,888.247130,3294.210641
1352.671108,-11103.089130,-2368.659014,4519.963438
1352.671429,-11103.089130,-4145.153275,1302.362347
1352.671750,-9844.739029,-2442.679609,153.219100
1352.672071,-11251.130318,-518.144159,1455.581446
1352.672392,-9104.533087,1554.432478,919.314598
1352.672713,-8216.285956,296.082377,-1532.190996
1352.673033,-6365.771101,-888.247130,-3907.087040
1352.673354,-6883.915261,-370.102971,-4213.525239
1352.673675,-9918.759623,296.082377,-1455.581446
1352.673996,-11029.068536,2146.597232,4366.744339
1352.674317,-11621.233289,444.123565,4060.306139
1352.674638,-10732.986159,-1998.556043,2068.457845
1352.674958,-9770.718434,-1998.556043,689.485948
1352.675279,-9622.677246,-592.164754,1072.533697
1352.675600,-10658.965565,370.102971,2757.943793
1352.675921,-9548.656652,1036.288319,2451.505594
1352.676242,-7772.162391,-888.247130,-229.828649
1352.676563,-7846.182985,-1406.391290,-1532.190996
1352.676883,-8290.306550,0.000000,-229.828649
1352.677204,-9918.759623,-296.082377,1838.629195
1352.677525,-10140.821405,592.164754,3524.039291
1352.677846,-10066.800811,-444.123565,2911.162892
1352.678167,-9178.553681,-1998.556043,1915.238745
1352.678488,-9548.656652,-370.102971,1762.019645
1352.678808,-10658.965565,370.102971,3064.381992
1352.679129,-9992.780217,1406.391290,2681.334243
1352.679450,-9326.594869,1184.329507,1532.190996
1352.679771,-8142.265362,-2590.720797,153.219100
1352.680092,-9326.594869,-3552.988522,0.000000
1352.680413,-8882.471304,-1998.556043,229.828649
1352.680733,-10214.842000,-1184.329507,2145.067394
1352.681054,-9770.718434,1036.288319,2068.457845
1352.681375,-10732.986159,1332.370696,2451.505594
1352.681696,-9474.636058,592.164754,1149.143247
1352.682017,-10288.862594,222.061783,1685.410096
1352.682338,-9252.574275,74.020594,2451.505594
1352.682658,-10214.842000,-1406.391290,1838.629195
1352.682979,-8956.491898,-1406.391290,689.485948
1352.683300,-9252.574275,-1480.411884,153.219100
1352.683621,-8956.491898,-1998.556043,-919.314598
1352.683942,-8586.388927,296.082377,536.266849
1352.684263,-10214.842000,1184.329507,1378.971896
1352.684583,-9992.780217,1628.453072,1685.410096
1352.684904,-9474.636058,592.164754,2221.676944
1352.685225,-10732.986159,-1184.329507,1991.848295
1352.685546,-9400.615463,0.000000,842.705048
1352.685867,-9992.780217,-1184.329507,1072.533697
1352.686188,-9622.677246,-1406.391290,1685.410096
1352.686508,-7994.224174,-296.082377,2374.896044
1352.686829,-10362.883188,-2442.679609,1991.848295
1352.687150,-9030.512492,-1628.453072,689.485948
1352.687471,-9474.636058,0.000000,612.876398
1352.687792,-9474.636058,888.247130,1149.143247
1352.688113,-9622.677246,2590.720797,1455.581446
1352.688433,-9844.739029,1036.288319,2374.896044
1352.688754,-9326.594869,-1924.535449,0.000000
1352.689075,-9326.594869,-2738.761985,-1225.752797
1352.689396,-8882.471304,-1702.473667,-766.095498
1352.689717,-10288.862594,-1184.329507,1072.533697
1352.690038,-10214.842000,740.205942,1685.410096
1352.690358,-9918.759623,740.205942,1532.190996
1352.690679,-9844.739029,-666.185348,-229.828649
1352.691000,-8068.244768,0.000000,-995.924147
1352.691321,-10584.944971,-296.082377,76.609550
1352.691642,-10140.821405,740.205942,1532.190996
1352.691963,-9474.636058,1332.370696,842.705048
1352.692283,-9696.697840,-1702.473667,0.000000
1352.692604,-7550.100608,-1406.391290,-1532.190996
1352.692925,-8734.430116,296.082377,-612.876398
1352.693246,-10584.944971,518.144159,1762.019645
1352.693567,-9252.574275,666.185348,2681.334243
1352.693887,-9844.739029,-1110.308913,1532.190996
1352.694208,-10066.800811,-2812.782580,1072.533697
1352.694529,-10288.862594,-740.205942,383.047749
1352.694850,-12213.398043,518.144159,2987.772442
1352.695171,-9918.759623,2664.741391,3064.381992
1352.695492,-10066.800811,2368.659014,2451.505594
1352.695812,-9992.780217,-962.267725,1302.362347
1352.696133,-8438.347739,-2368.659014,-2068.457845
1352.696454,-8660.409521,-2738.761985,0.000000
1352.696775,-9400.615463,-2368.659014,306.438199
1352.697096,-9178.553681,370.102971,1915.238745
1352.697417,-10140.821405,222.061783,2298.286494
1352.697737,-9696.697840,-814.226536,842.705048
1352.698058,-8438.347739,592.164754,689.485948
1352.698379,-10214.842000,0.000000,1225.752797
1352.698700,-10214.842000,370.102971,919.314598
1352.699021,-10436.903782,1554.432478,2987.772442
1352.699342,-8438.347739,-370.102971,459.657299
1352.699662,-8734.430116,-2072.576638,-1225.752797
1352.699983,-7698.141797,1036.288319,-306.438199
1352.700304,-10510.924376,296.082377,2451.505594
1352.700625,-10214.842000,1628.453072,3217.601092
1352.700946,-10807.006753,-518.144159,4519.963438
1352.701267,-11251.130318,-2960.823768,2451.505594
1352.701587,-8808.450710,-1258.350101,689.485948
1352.701908,-10066.800811,296.082377,766.095498
1352.702229,-9178.553681,1332.370696,1378.971896
1352.702550,-7402.059420,2146.597232,612.876398
1352.702871,-8364.327145,-1110.308913,-995.924147
1352.703192,-8068.244768,-1036.288319,-1685.410096
1352.703512,-9030.512492,0.000000,-766.095498
1352.703833,-11325.150913,222.061783,1991.848295
1352.704154,-10658.965565,1480.411884,3294.210641
1352.704475,-11547.212695,-370.102971,2604.724693
1352.704796,-9844.739029,-2072.576638,3447.429741
1352.705117,-9252.574275,-1776.494261,766.095498
1352.705437,-10066.800811,-666.185348,995.924147
1352.705758,-10362.883188,0.000000,1149.143247
1352.706079,-8882.471304,1036.288319,536.266849
1352.706400,-9030.512492,-370.102971,-842.705048
1352.706721,-8142.265362,-296.082377,-1532.190996
1352.707042,-9326.594869,296.082377,306.438199
1352.707362,-10732.986159,-1332.370696,689.485948
1352.707683,-9844.739029,740.205942,1838.629195
1352.708004,-10881.027347,-1702.473667,842.705048
1352.708325,-9696.697840,-2072.576638,-383.047749
1352.708646,-9326.594869,0.000000,-919.314598
1352.708967,-9252.574275,1184.329507,459.657299
1352.709287,-8068.244768,2146.597232,-1532.190996
1352.709608,-8068.244768,1924.535449,-1072.533697
1352.709929,-9326.594869,-296.082377,0.000000
1352.710250,-10510.924376,-2294.638420,1302.362347
1352.710571,-11325.150913,-2590.720797,2681.334243
1352.710893,-12065.356855,-2738.761985,3907.087040
1352.711213,-11991.336260,-1628.453072,4673.182538
1352.711534,-9844.739029,-1702.473667,4290.134789
1352.711855,-9474.636058,-1776.494261,1225.752797
1352.712176,-7328.038826,0.000000,-1378.971896
1352.712497,-6439.791695,666.185348,-2145.067394
1352.712817,-6883.915261,592.164754,-1455.581446
1352.713138,-8142.265362,1184.329507,842.705048
1352.713459,-9548.656652,-592.164754,536.266849
1352.713780,-10288.862594,-666.185348,2681.334243
1352.714100,-10881.027347,-814.226536,3140.991542
1352.714421,-12509.480420,-814.226536,5056.230287
1352.714742,-12213.398043,222.061783,6128.763984
1352.715063,-10436.903782,-814.226536,3907.087040
1352.715383,-9548.656652,-1924.535449,1455.581446
1352.715704,-7476.080014,-2146.597232,-153.219100
1352.716025,-9844.739029,-1702.473667,-842.705048
1352.716346,-9252.574275,444.123565,536.266849
1352.716666,-9252.574275,1480.411884,2145.067394
1352.716987,-10214.842000,222.061783,2145.067394
1352.717308,-10066.800811,-1332.370696,0.000000
1352.717629,-10807.006753,-444.123565,1608.800546
1352.717949,-11399.171507,666.185348,3217.601092
1352.718270,-10807.006753,444.123565,3447.429741
1352.718591,-9326.594869,-518.144159,1838.629195
1352.718912,-9030.512492,-1998.556043,-1302.362347
1352.719233,-8068.244768,-296.082377,-1532.190996
1352.719553,-8956.491898,740.205942,0.000000
1352.719874,-9770.718434,888.247130,1378.971896
1352.720195,-8290.306550,1184.329507,2528.115143
1352.720516,-10584.944971,-1480.411884,2068.457845
1352.720836,-10510.924376,-2072.576638,1762.019645
1352.721157,-9474.636058,-1702.473667,2145.067394
1352.721478,-10881.027347,-2294.638420,3677.258390
1352.721799,-9474.636058,-148.041188,2374.896044
1352.722119,-9622.677246,-444.123565,1072.533697
1352.722440,-8364.327145,-1480.411884,-842.705048
1352.722761,-7994.224174,0.000000,-2145.067394
1352.723082,-8660.409521,2886.803174,-919.314598
1352.723402,-10584.944971,2516.700203,1072.533697
1352.723723,-10288.862594,2368.659014,1838.629195
1352.724044,-10140.821405,148.041188,1608.800546
1352.724365,-10214.842000,-2516.700203,842.705048
1352.724685,-9178.553681,-1628.453072,-995.924147
1352.725006,-10436.903782,-592.164754,1302.362347
1352.725327,-9622.677246,296.082377,1072.533697
1352.725648,-8956.491898,1036.288319,459.657299
1352.725969,-9548.656652,-1406.391290,-536.266849
1352.726289,-8142.265362,-518.144159,-1608.800546
1352.726610,-9696.697840,222.061783,-306.438199
1352.726931,-10658.965565,666.185348,1072.533697
1352.727252,-9622.677246,1776.494261,1915.238745
1352.727572,-10510.924376,-666.185348,1149.143247
1352.727893,-9474.636058,-370.102971,-842.705048
1352.728214,-10066.800811,222.061783,229.828649
1352.728535,-11177.109724,0.000000,1455.581446
1352.728855,-9844.739029,74.020594,1915.238745
1352.729176,-9770.718434,-2072.576638,1225.752797
1352.729497,-8660.409521,-3330.926739,-383.047749
1352.729818,-8882.471304,-2072.576638,153.219100
1352.730138,-9474.636058,-592.164754,1455.581446
1352.730459,-10214.842000,1036.288319,2987.772442
1352.730780,-10807.006753,1850.514855,3983.696590
1352.731101,-10362.883188,74.020594,2374.896044
1352.731421,-9622.677246,-740.205942,1378.971896
1352.731742,-9474.636058,-592.164754,1762.019645
1352.732063,-9622.677246,-1702.473667,1608.800546
1352.732384,-9178.553681,-444.123565,1915.238745
1352.732705,-7476.080014,-888.247130,919.314598
1352.733025,-8734.430116,-1776.494261,1225.752797
1352.733346,-9918.759623,-1998.556043,2145.067394
1352.733667,-9474.636058,-592.164754,2451.505594
1352.733988,-10807.006753,-1554.432478,3600.648841
1352.734308,-9252.574275,1998.556043,3600.648841
1352.734629,-11621.233289,-222.061783,2987.772442
1352.734950,-8660.409521,-1184.329507,2145.067394
1352.735271,-9474.636058,-3478.967927,612.876398
1352.735591,-7550.100608,-888.247130,0.000000
1352.735912,-9474.636058,-1628.453072,536.266849
1352.736233,-7772.162391,370.102971,536.266849
1352.736554,-9992.780217,-148.041188,1991.848295
1352.736874,-8808.450710,0.000000,-1225.752797
1352.737195,-9474.636058,1924.535449,1378.971896
1352.737516,-10584.944971,518.144159,1378.971896
1352.737837,-9992.780217,1554.432478,1685.410096
1352.738157,-11029.068536,518.144159,2068.457845
1352.738478,-9696.697840,-1702.473667,-383.047749
1352.738799,-7698.141797,444.123565,-383.047749
1352.739120,-10807.006753,-888.247130,153.219100
1352.739441,-9400.615463,444.123565,1455.581446
1352.739761,-9844.739029,-1110.308913,1378.971896
1352.740082,-10214.842000,-2886.803174,1302.362347
1352.740403,-8734.430116,-1184.329507,459.657299
1352.740724,-10436.903782,-296.082377,2298.286494
1352.741044,-11177.109724,444.123565,4060.306139
1352.741365,-11473.192101,1036.288319,3753.867940
1352.741686,-10436.903782,-1332.370696,1915.238745
1352.742007,-9030.512492,-2812.782580,-1762.019645
1352.742327,-7846.182985,518.144159,-2604.724693
1352.742648,-8660.409521,592.164754,-1455.581446
1352.742969,-9178.553681,2220.617826,0.000000
1352.743290,-8808.450710,1702.473667,-459.657299
1352.743610,-9400.615463,-1406.391290,-1991.848295
1352.743931,-9844.739029,-1332.370696,-995.924147
1352.744252,-11325.150913,-740.205942,842.705048
1352.744573,-11177.109724,148.041188,3140.991542
1352.744893,-11177.109724,888.247130,3753.867940
1352.745214,-8808.450710,-1924.535449,919.314598
1352.745535,-9030.512492,-2368.659014,-612.876398
1352.745856,-8586.388927,-1258.350101,-229.828649
1352.746177,-9030.512492,518.144159,76.609550
1352.746497,-8734.430116,1110.308913,2451.505594
1352.746818,-8734.430116,740.205942,842.705048
1352.747139,-9770.718434,-1480.411884,0.000000
1352.747460,-9474.636058,-1776.494261,-76.609550
1352.747780,-8956.491898,-444.123565,919.314598
1352.748101,-9918.759623,-444.123565,1838.629195
1352.748422,-9474.636058,74.020594,1532.190996
1352.748743,-8364.327145,-148.041188,919.314598
1352.749063,-9400.615463,-1258.350101,-766.095498
1352.749384,-8142.265362,740.205942,-766.095498
1352.749705,-11103.089130,666.185348,2374.896044
1352.750026,-11695.253884,962.267725,4673.182538
1352.750346,-11547.212695,-518.144159,5822.325785
1352.750667,-11251.130318,-5403.503377,2987.772442
1352.750988,-8364.327145,-5403.503377,612.876398
1352.751309,-8586.388927,-1850.514855,76.609550
1352.751629,-9400.615463,1110.308913,612.876398
1352.751950,-7105.977043,4737.318029,612.876398
1352.752271,-8290.306550,2442.679609,0.000000
1352.752592,-7624.121203,888.247130,-1915.238745
1352.752913,-9696.697840,-444.123565,-306.438199
1352.753233,-11917.315666,-1554.432478,2834.553343
1352.753554,-11695.253884,-1110.308913,5132.839837
1352.753875,-10955.047942,-1184.329507,3830.477490
1352.754196,-9770.718434,-666.185348,2987.772442
1352.754516,-9696.697840,-1776.494261,1378.971896
1352.754837,-8660.409521,222.061783,0.000000
1352.755158,-9252.574275,518.144159,306.438199
1352.755479,-8142.265362,1258.350101,-153.219100
1352.755799,-8956.491898,148.041188,0.000000
1352.756120,-9474.636058,-1554.432478,536.266849
1352.756441,-8364.327145,-888.247130,842.705048
1352.756762,-10214.842000,-1332.370696,1991.848295
1352.757082,-11399.171507,0.000000,3217.601092
1352.757403,-10584.944971,74.020594,3753.867940
1352.757724,-11621.233289,-1776.494261,1532.190996
1352.758045,-9104.533087,74.020594,0.000000
1352.758365,-8438.347739,1554.432478,-1072.533697
1352.758686,-8882.471304,2146.597232,-306.438199
1352.759007,-8586.388927,2368.659014,2374.896044
1352.759328,-9400.615463,-1554.432478,0.000000
1352.759649,-8660.409521,-4515.256246,-995.924147
1352.759969,-9030.512492,-2960.823768,-1302.362347
1352.760290,-9992.780217,-1036.288319,1225.752797
1352.760611,-11917.315666,1184.329507,3217.601092
1352.760932,-10658.965565,1184.329507,3064.381992
1352.761252,-9992.780217,-1554.432478,153.219100
1352.761573,-8660.409521,-2072.576638,-1225.752797
1352.761894,-8734.430116,-1776.494261,-1685.410096
1352.762215,-10214.842000,-296.082377,0.000000
1352.762535,-9178.553681,1184.329507,383.047749
1352.762856,-8808.450710,888.247130,306.438199
1352.763177,-10066.800811,-592.164754,-842.705048
1352.763498,-8660.409521,-592.164754,-76.609550
1352.763818,-11473.192101,-222.061783,1302.362347
1352.764139,-10362.883188,370.102971,2145.067394
1352.764460,-9918.759623,1258.350101,2221.676944
1352.764781,-9622.677246,-2146.597232,612.876398
1352.765101,-8438.347739,-1110.308913,-1225.752797
1352.765422,-9030.512492,518.144159,229.828649
1352.765743,-10214.842000,1480.411884,1762.019645
1352.766064,-10658.965565,3552.988522,2528.115143
1352.766385,-10658.965565,370.102971,3524.039291
1352.766705,-9992.780217,-1406.391290,2068.457845
1352.767026,-8956.491898,-1702.473667,766.095498
1352.767347,-8956.491898,-1480.411884,1225.752797
1352.767668,-9400.615463,-666.185348,1455.581446
1352.767988,-8512.368333,814.226536,1225.752797
1352.768309,-9696.697840,0.000000,689.485948
1352.768630,-8512.368333,0.000000,306.438199
1352.768951,-9474.636058,-222.061783,0.000000
1352.769271,-9992.780217,0.000000,1225.752797
1352.769592,-10288.862594,444.123565,2757.943793
1352.769913,-8956.491898,-962.267725,2221.676944
1352.770234,-9696.697840,-888.247130,1685.410096
1352.770554,-9474.636058,-370.102971,1608.800546
1352.770875,-9770.718434,-888.247130,842.705048
1352.771196,-7698.141797,148.041188,2145.067394
1352.771517,-8290.306550,1998.556043,306.438199
1352.771837,-9770.718434,-1776.494261,919.314598
1352.772158,-9030.512492,-1480.411884,919.314598
1352.772479,-9400.615463,74.020594,1762.019645
1352.772800,-9696.697840,666.185348,2221.676944
1352.773121,-10584.944971,1036.288319,3830.477490
1352.773441,-10066.800811,0.000000,3294.210641
1352.773762,-10881.027347,-1480.411884,842.705048
1352.774083,-8364.327145,-222.061783,229.828649
1352.774404,-8734.430116,0.000000,995.924147
1352.774724,-9918.759623,148.041188,1532.190996
1352.775045,-9400.615463,-296.082377,766.095498
1352.775366,-9178.553681,-2146.597232,76.609550
1352.775687,-9030.512492,-1998.556043,-689.485948
1352.776007,-9696.697840,-888.247130,1072.533697
1352.776328,-11103.089130,74.020594,3064.381992
1352.776649,-10807.006753,592.164754,3447.429741
1352.776970,-9844.739029,-370.102971,1838.629195
1352.777290,-9178.553681,-2146.597232,-153.219100
1352.777611,-8364.327145,-1258.350101,-1302.362347
1352.777932,-9326.594869,148.041188,-689.485948
1352.778253,-10362.883188,1554.432478,842.705048
1352.778573,-9030.512492,888.247130,689.485948
1352.778894,-9326.594869,-1258.350101,-995.924147
1352.779215,-9622.677246,-1776.494261,-2068.457845
1352.779536,-10658.965565,666.185348,-229.828649
1352.779857,-11399.171507,1554.432478,1608.800546
1352.780177,-10436.903782,3182.885551,2068.457845
1352.780498,-10066.800811,1850.514855,1685.410096
1352.780819,-9770.718434,-1406.391290,612.876398
1352.781140,-9178.553681,-1554.432478,1378.971896
1352.781460,-11251.130318,-1776.494261,2068.457845
1352.781781,-9992.780217,-1480.411884,1838.629195
1352.782102,-9474.636058,0.000000,1378.971896
1352.782423,-8882.471304,-888.247130,229.828649
1352.782743,-8068.244768,-888.247130,-383.047749
1352.783064,-7550.100608,1258.350101,0.000000
1352.783385,-9326.594869,296.082377,612.876398
1352.783706,-10140.821405,-2146.597232,0.000000
1352.784026,-8956.491898,0.000000,1378.971896
1352.784347,-11769.274478,-4737.318029,842.705048
1352.784668,-7698.141797,-148.041188,2604.724693
1352.784989,-11547.212695,0.000000,2374.896044
1352.785309,-10955.047942,370.102971,4443.353888
1352.785630,-9696.697840,-1258.350101,1378.971896
1352.785951,-10658.965565,-2590.720797,1608.800546
1352.786272,-9400.615463,-2738.761985,459.657299
1352.786593,-7105.977043,-2072.576638,-1455.581446
1352.786913,-9548.656652,370.102971,1072.533697
1352.787234,-9474.636058,962.267725,3064.381992
1352.787555,-8882.471304,-740.205942,2451.505594
1352.787876,-9696.697840,-2220.617826,612.876398
1352.788196,-8142.265362,-592.164754,-612.876398
1352.788517,-8956.491898,518.144159,229.828649
1352.788838,-10881.027347,1628.453072,2374.896044
1352.789159,-10214.842000,2960.823768,3677.258390
1352.789479,-11325.150913,148.041188,2757.943793
1352.789800,-11325.150913,-148.041188,2451.505594
1352.790121,-10288.862594,-444.123565,1838.629195
1352.790442,-10955.047942,-296.082377,1762.019645
1352.790762,-9474.636058,2738.761985,2298.286494
1352.791083,-8438.347739,2220.617826,2145.067394
1352.791404,-6957.935855,-1258.350101,-919.314598
1352.791725,-7476.080014,-962.267725,-1149.143247
1352.792045,-8438.347739,-518.144159,-459.657299
1352.792366,-10140.821405,74.020594,1762.019645
1352.792687,-11325.150913,2072.576638,4290.134789
1352.793008,-11103.089130,-814.226536,3753.867940
1352.793329,-10732.986159,-1776.494261,1378.971896
1352.793649,-9992.780217,74.020594,1685.410096
1352.793970,-10140.821405,0.000000,1532.190996
1352.794291,-9400.615463,1480.411884,1149.143247
1352.794612,-9030.512492,296.082377,229.828649
1352.794932,-8660.409521,-1850.514855,-1608.800546
1352.795253,-7772.162391,-1628.453072,-2604.724693
1352.795574,-10362.883188,-1036.288319,0.000000
1352.795895,-9844.739029,-592.164754,1302.362347
1352.796215,-9992.780217,-740.205942,2145.067394
1352.796536,-10658.965565,-2294.638420,1608.800546
1352.796857,-9104.533087,-2886.803174,-459.657299
1352.797178,-9252.574275,-1406.391290,-612.876398
1352.797498,-10288.862594,222.061783,229.828649
1352.797819,-9326.594869,2294.638420,536.266849
1352.798140,-9400.615463,2072.576638,-153.219100
1352.798461,-9178.553681,-888.247130,-995.924147
1352.798781,-7772.162391,-666.185348,-1915.238745
1352.799102,-10658.965565,-740.205942,76.609550
1352.799423,-10658.965565,-1184.329507,2451.505594
1352.799744,-9622.677246,-222.061783,2528.115143
1352.800065,-10658.965565,-2220.617826,2068.457845
1352.800385,-8882.471304,-1850.514855,842.705048
1352.800706,-9030.512492,-1480.411884,0.000000
1352.801027,-9474.636058,-370.102971,689.485948
1352.801348,-9770.718434,2738.761985,2068.457845
1352.801668,-10436.903782,1332.370696,2451.505594
1352.801989,-9548.656652,0.000000,1685.410096
1352.802310,-9252.574275,296.082377,689.485948
1352.802631,-10436.903782,-1628.453072,1838.629195
1352.802951,-10140.821405,-814.226536,2987.772442
1352.803272,-9696.697840,-1628.453072,3217.601092
1352.803593,-8586.388927,-3404.947333,2451.505594
1352.803914,-9030.512492,-1480.411884,76.609550
1352.804234,-8660.409521,0.000000,76.609550
1352.804555,-10510.924376,370.102971,1532.190996
1352.804876,-10214.842000,1332.370696,2451.505594
1352.805197,-9622.677246,0.000000,1915.238745
1352.805517,-9770.718434,-3108.864956,689.485948
1352.805838,-9474.636058,-1406.391290,383.047749
1352.806159,-9622.677246,888.247130,2834.553343
1352.806480,-12287.418637,-740.205942,3217.601092
1352.806801,-7031.956449,1258.350101,2145.067394
1352.807121,-9622.677246,-2146.597232,842.705048
1352.807442,-8512.368333,-2368.659014,-1225.752797
1352.807763,-8216.285956,222.061783,1072.533697
1352.808084,-10362.883188,222.061783,1685.410096
1352.808404,-7698.141797,1998.556043,1455.581446
1352.808725,-10584.944971,1480.411884,1991.848295
1352.809046,-9474.636058,0.000000,919.314598
1352.809367,-10510.924376,444.123565,689.485948
1352.809687,-10658.965565,148.041188,2681.334243
1352.810008,-10214.842000,-962.267725,2757.943793
1352.810329,-9474.636058,-444.123565,1455.581446
1352.810650,-9992.780217,-1480.411884,995.924147
1352.810970,-8290.306550,-666.185348,-306.438199
1352.811291,-8808.450710,222.061783,0.000000
1352.811612,-9622.677246,740.205942,76.609550
1352.811932,-9548.656652,2590.720797,766.095498
1352.812253,-9844.739029,370.102971,1915.238745
1352.812574,-9696.697840,-592.164754,0.000000
1352.812895,-10066.800811,666.185348,1225.752797
1352.813215,-10732.986159,74.020594,536.266849
1352.813536,-10214.842000,2368.659014,2145.067394
1352.813857,-9844.739029,296.082377,1225.752797
1352.814178,-8290.306550,-148.041188,-612.876398
1352.814498,-10140.821405,-1406.391290,-612.876398
1352.814819,-8734.430116,444.123565,-1838.629195
1352.815140,-10807.006753,1480.411884,153.219100
1352.815460,-10066.800811,1776.494261,689.485948
1352.815781,-9622.677246,666.185348,1915.238745
1352.816102,-9770.718434,-2368.659014,2221.676944
1352.816423,-9474.636058,-1554.432478,995.924147
1352.816743,-9474.636058,-1406.391290,766.095498
1352.817064,-10510.924376,-222.061783,2528.115143
1352.817385,-10066.800811,-1036.288319,2374.896044
1352.817706,-7994.224174,-1480.411884,1225.752797
1352.818026,-9622.677246,-3182.885551,0.000000
1352.818347,-8068.244768,0.000000,383.047749
1352.818668,-10510.924376,-740.205942,1838.629195
1352.818988,-10140.821405,962.267725,2298.286494
1352.819309,-9326.594869,-444.123565,2221.676944
1352.819630,-9400.615463,-3256.906145,536.266849
1352.819951,-7846.182985,-1776.494261,76.609550
1352.820271,-7920.203579,740.205942,2451.505594
1352.820592,-11251.130318,666.185348,4366.744339
1352.820913,-10807.006753,592.164754,5362.668486
1352.821233,-11547.212695,-2664.741391,4060.306139
1352.821554,-10658.965565,-5847.626942,1532.190996
1352.821875,-8290.306550,-2738.761985,1225.752797
1352.822196,-9844.739029,-1480.411884,1762.019645
1352.822516,-8956.491898,888.247130,1455.581446
1352.822837,-8512.368333,1406.391290,536.266849
1352.823158,-7550.100608,-296.082377,-1455.581446
1352.823479,-7402.059420,-666.185348,-3064.381992
1352.823799,-10732.986159,370.102971,306.438199
1352.824120,-10955.047942,518.144159,2681.334243
1352.824441,-9474.636058,888.247130,3294.210641
1352.824761,-11399.171507,-1850.514855,1991.848295
1352.825082,-9696.697840,-3182.885551,459.657299
1352.825403,-9918.759623,-962.267725,0.000000
1352.825724,-10140.821405,444.123565,1532.190996
1352.826044,-8660.409521,1924.535449,536.266849
1352.826365,-9178.553681,1850.514855,383.047749
1352.826686,-9474.636058,-740.205942,-612.876398
1352.827006,-9178.553681,-666.185348,-612.876398
1352.827327,-9696.697840,-1850.514855,536.266849
1352.827648,-9992.780217,-666.185348,1302.362347
1352.827969,-10288.862594,1776.494261,2298.286494
1352.828289,-12435.459826,-740.205942,2757.943793
1352.828610,-8734.430116,1554.432478,2604.724693
1352.828931,-11695.253884,296.082377,2221.676944
1352.829252,-9696.697840,-888.247130,1378.971896
1352.829572,-8808.450710,0.000000,842.705048
1352.829893,-9252.574275,-148.041188,0.000000
1352.830214,-8512.368333,-1628.453072,-2221.676944
1352.830534,-5033.400406,592.164754,-3294.210641
1352.830855,-10066.800811,666.185348,-383.047749
1352.831176,-7550.100608,1110.308913,0.000000
1352.831497,-12213.398043,666.185348,2834.553343
1352.831817,-10584.944971,-2294.638420,3370.820191
1352.832138,-10362.883188,-2960.823768,1378.971896
1352.832459,-11029.068536,-888.247130,1915.238745
1352.832779,-10807.006753,518.144159,3064.381992
1352.833100,-8068.244768,2368.659014,1838.629195
1352.833421,-9104.533087,1258.350101,1991.848295
1352.833742,-7846.182985,-1258.350101,-306.438199
1352.834062,-7254.018232,-592.164754,-1762.019645
1352.834383,-8882.471304,-962.267725,-919.314598
1352.834704,-9696.697840,1406.391290,919.314598
1352.835025,-9548.656652,2590.720797,3524.039291
1352.835345,-10732.986159,-666.185348,3830.477490
1352.835666,-9622.677246,-2220.617826,2145.067394
1352.835987,-9326.594869,-2368.659014,842.705048
1352.836307,-10955.047942,-1924.535449,1608.800546
1352.836628,-9918.759623,1776.494261,2374.896044
1352.836949,-9474.636058,2442.679609,919.314598
1352.837270,-9622.677246,740.205942,2221.676944
1352.837590,-8290.306550,444.123565,612.876398
1352.837911,-9474.636058,0.000000,383.047749
1352.838232,-11695.253884,-296.082377,2681.334243
1352.838552,-9474.636058,-296.082377,2604.724693
1352.838873,-10436.903782,-2368.659014,1455.581446
1352.839194,-9622.677246,-2146.597232,1072.533697
1352.839515,-8142.265362,-962.267725,-536.266849
1352.839835,-9326.594869,0.000000,383.047749
1352.840156,-8882.471304,1628.453072,842.705048
1352.840477,-9030.512492,1554.432478,0.000000
1352.840798,-11177.109724,-1332.370696,612.876398
1352.841118,-9622.677246,-3182.885551,0.000000
1352.841439,-9844.739029,-2072.576638,1532.190996
1352.841760,-12435.459826,-2590.720797,3907.087040
1352.842080,-11103.089130,-2664.741391,3294.210641
1352.842401,-9104.533087,-1184.329507,1991.848295
1352.842722,-9400.615463,-2146.597232,-459.657299
1352.843043,-7402.059420,222.061783,-1072.533697
1352.843363,-8586.388927,370.102971,-76.609550
1352.843684,-9104.533087,296.082377,0.000000
1352.844005,-7550.100608,1776.494261,0.000000
1352.844326,-10362.883188,-1850.514855,1455.581446
1352.844646,-8956.491898,-2368.659014,1072.533697
1352.844967,-11103.089130,-1628.453072,1149.143247
1352.845288,-10510.924376,-666.185348,1762.019645
1352.845608,-10140.821405,2072.576638,3064.381992
1352.845929,-10214.842000,592.164754,3140.991542
1352.846250,-9992.780217,-2664.741391,919.314598
1352.846571,-8290.306550,-444.123565,-459.657299
1352.846891,-8438.347739,-1258.350101,-995.924147
1352.847212,-10066.800811,0.000000,842.705048
1352.847533,-9474.636058,1332.370696,2681.334243
1352.847853,-9622.677246,-740.205942,1762.019645
1352.848174,-9622.677246,-592.164754,459.657299
1352.848495,-9918.759623,148.041188,383.047749
1352.848816,-11325.150913,0.000000,2145.067394
1352.849136,-10066.800811,1332.370696,2528.115143
1352.849457,-10066.800811,-518.144159,1532.190996
1352.849778,-9770.718434,-1110.308913,306.438199
1352.850099,-8068.244768,-740.205942,-919.314598
1352.850419,-9400.615463,-518.144159,0.000000
1352.850740,-9992.780217,814.226536,1225.752797
1352.851061,-9178.553681,1110.308913,1532.190996
1352.851381,-9696.697840,-370.102971,383.047749
1352.851702,-8956.491898,148.041188,-306.438199
1352.852023,-9992.780217,740.205942,1302.362347
1352.852344,-11177.109724,444.123565,2911.162892
1352.852664,-10066.800811,74.020594,2528.115143
1352.852985,-9770.718434,-1924.535449,1072.533697
1352.853306,-8364.327145,-2368.659014,-842.705048
1352.853626,-8734.430116,-814.226536,-536.266849
1352.853947,-10214.842000,370.102971,1225.752797
1352.854268,-10140.821405,962.267725,1608.800546
1352.854589,-9178.553681,1184.329507,1378.971896
1352.854909,-9104.533087,-1184.329507,-383.047749
1352.855230,-9400.615463,-2146.597232,76.609550
1352.855551,-9622.677246,-1184.329507,1072.533697
1352.855872,-9918.759623,-666.185348,1378.971896
1352.856192,-9622.677246,296.082377,1378.971896
1352.856513,-8734.430116,-814.226536,689.485948
1352.856834,-9178.553681,-814.226536,0.000000
1352.857154,-9326.594869,-444.123565,0.000000
1352.857475,-9400.615463,370.102971,1532.190996
1352.857796,-10955.047942,666.185348,2757.943793
1352.858117,-9548.656652,74.020594,1991.848295
1352.858437,-9474.636058,-1406.391290,536.266849
1352.858758,-9474.636058,-740.205942,0.000000
1352.859079,-8586.388927,296.082377,995.924147
1352.859399,-10362.883188,1258.350101,1532.190996
1352.859720,-9548.656652,2590.720797,2451.505594
1352.860041,-9474.636058,-518.144159,2757.943793
1352.860362,-10510.924376,-2664.741391,2451.505594
1352.860682,-9918.759623,-1480.411884,2068.457845
1352.861003,-9918.759623,-1036.288319,2374.896044
1352.861324,-10510.924376,74.020594,1991.848295
1352.861645,-8512.368333,2516.700203,2145.067394
1352.861965,-9326.594869,-888.247130,536.266849
1352.862286,-7254.018232,-592.164754,-1378.971896
1352.862607,-8364.327145,0.000000,0.000000
1352.862927,-10066.800811,-1776.494261,1072.533697
1352.863248,-9474.636058,666.185348,1532.190996
1352.863569,-10955.047942,-740.205942,3064.381992
1352.863890,-10066.800811,-2220.617826,1225.752797
1352.864210,-8068.244768,-1036.288319,459.657299
1352.864531,-9548.656652,-962.267725,1225.752797
1352.864852,-9326.594869,0.000000,919.314598
1352.865172,-10362.883188,1924.535449,2145.067394
1352.865493,-10436.903782,-222.061783,1838.629195
1352.865814,-7846.182985,-2664.741391,-1225.752797
1352.866135,-10140.821405,518.144159,-459.657299
1352.866455,-11251.130318,-1628.453072,1455.581446
1352.866776,-10140.821405,296.082377,2298.286494
1352.867097,-9400.615463,-888.247130,2068.457845
1352.867418,-12509.480420,-1258.350101,-76.609550
1352.867738,-7920.203579,-1554.432478,-1532.190996
1352.868059,-7624.121203,-592.164754,-919.314598
1352.868380,-10584.944971,1554.432478,459.657299
1352.868700,-8956.491898,2960.823768,1532.190996
1352.869021,-9844.739029,0.000000,1838.629195
1352.869342,-9178.553681,-1184.329507,0.000000
1352.869663,-8660.409521,-2220.617826,-689.485948
1352.869983,-10510.924376,-2368.659014,689.485948
1352.870304,-10436.903782,1480.411884,306.438199
1352.870625,-8808.450710,-518.144159,1225.752797
1352.870945,-9548.656652,-1110.308913,-153.219100
1352.871266,-8142.265362,-370.102971,-612.876398
1352.871587,-9474.636058,-740.205942,-1378.971896
1352.871908,-10214.842000,1332.370696,1838.629195
1352.872228,-11177.109724,1702.473667,3294.210641
1352.872549,-10955.047942,0.000000,3064.381992
1352.872870,-9770.718434,-1554.432478,1378.971896
1352.873191,-8956.491898,888.247130,1762.019645
1352.873511,-11029.068536,-518.144159,2068.457845
1352.873832,-9770.718434,592.164754,2528.115143
1352.874153,-9326.594869,-1406.391290,1608.800546
1352.874473,-9030.512492,-2664.741391,-1072.533697
1352.874794,-8512.368333,-1480.411884,-229.828649
1352.875115,-9326.594869,-222.061783,459.657299
1352.875436,-10955.047942,1332.370696,2987.772442
1352.875756,-9844.739029,1036.288319,3524.039291
1352.876077,-9474.636058,-1110.308913,2451.505594
1352.876398,-10066.800811,-3478.967927,229.828649
1352.876719,-8586.388927,-666.185348,1149.143247
1352.877039,-10955.047942,-518.144159,1915.238745
1352.877360,-10214.842000,2442.679609,2834.553343
1352.877681,-10881.027347,592.164754,3217.601092
1352.878001,-9844.739029,-2960.823768,689.485948
1352.878322,-7254.018232,-1776.494261,0.000000
1352.878643,-9252.574275,-3478.967927,612.876398
1352.878964,-9252.574275,1036.288319,1762.019645
1352.879284,-9548.656652,2442.679609,2604.724693
1352.879605,-8734.430116,370.102971,76.609550
1352.879926,-7179.997637,962.267725,-1685.410096
1352.880246,-8512.368333,888.247130,-919.314598
1352.880567,-9548.656652,518.144159,1378.971896
1352.880888,-10436.903782,2072.576638,2451.505594
1352.881209,-12065.356855,74.020594,5132.839837
1352.881529,-11325.150913,-3701.029710,2911.162892
1352.881850,-10584.944971,-1998.556043,1608.800546
1352.882171,-9770.718434,-814.226536,1072.533697
1352.882492,-9474.636058,2368.659014,1608.800546
1352.882812,-9252.574275,2886.803174,1072.533697
1352.883133,-8586.388927,0.000000,229.828649
1352.883454,-7994.224174,-1332.370696,-2757.943793
1352.883774,-8216.285956,-962.267725,-2451.505594
1352.884095,-9622.677246,0.000000,-229.828649
1352.884416,-10881.027347,1332.370696,2451.505594
1352.884737,-10807.006753,0.000000,2451.505594
1352.885057,-10881.027347,-1110.308913,842.705048
1352.885378,-9326.594869,-814.226536,-1072.533697
1352.885699,-10214.842000,-592.164754,-919.314598
1352.886019,-10288.862594,1628.453072,536.266849
1352.886340,-9474.636058,1850.514855,383.047749
1352.886661,-9178.553681,-888.247130,-995.924147
1352.886982,-7772.162391,-1110.308913,-1455.581446
1352.887302,-8956.491898,-1406.391290,-1072.533697
1352.887623,-11473.192101,-1406.391290,1532.190996
1352.887944,-10288.862594,-222.061783,2757.943793
1352.888265,-10140.821405,-1776.494261,1685.410096
1352.888585,-9622.677246,-2220.617826,1302.362347
1352.888906,-9178.553681,-1406.391290,919.314598
1352.889227,-10066.800811,-222.061783,2068.457845
1352.889547,-9770.718434,1036.288319,1762.019645
1352.889868,-9104.533087,1110.308913,919.314598
1352.890189,-8660.409521,-1332.370696,689.485948
1352.890510,-7994.224174,-2146.597232,-689.485948
1352.890830,-8734.430116,-1184.329507,459.657299
1352.891151,-10214.842000,-592.164754,1762.019645
1352.891472,-9474.636058,1036.288319,3370.820191
1352.891792,-10288.862594,-740.205942,3217.601092
1352.892113,-10362.883188,-2368.659014,2374.896044
1352.892434,-9178.553681,-1628.453072,1608.800546
1352.892755,-10140.821405,-518.144159,1991.848295
1352.893075,-9844.739029,296.082377,1915.238745
1352.893396,-8808.450710,1924.535449,2757.943793
1352.893717,-10807.006753,-1628.453072,2374.896044
1352.894038,-9030.512492,-1850.514855,842.705048
1352.894358,-8586.388927,-1332.370696,536.266849
1352.894679,-10807.006753,-1628.453072,1072.533697
1352.895000,-9400.615463,1332.370696,2298.286494
1352.895320,-11547.212695,-444.123565,2528.115143
1352.895641,-9992.780217,-1110.308913,1991.848295
1352.895962,-8290.306550,-1702.473667,76.609550
1352.896283,-9548.656652,-962.267725,919.314598
1352.896603,-9770.718434,-814.226536,1455.581446
1352.896924,-9474.636058,1998.556043,2987.772442
1352.897245,-10807.006753,518.144159,2681.334243
1352.897565,-9400.615463,0.000000,1302.362347
1352.897886,-9400.615463,-1258.350101,0.000000
1352.898207,-9474.636058,-740.205942,1302.362347
1352.898528,-10140.821405,370.102971,1149.143247
1352.898848,-9548.656652,296.082377,2221.676944
1352.899169,-9696.697840,-1554.432478,1149.143247
1352.899490,-7550.100608,592.164754,459.657299
1352.899811,-11029.068536,-148.041188,2451.505594
1352.900131,-11695.253884,-444.123565,3217.601092
1352.900452,-9548.656652,148.041188,3064.381992
1352.900773,-9770.718434,-3775.050304,0.000000
1352.901093,-7105.977043,-1036.288319,-1302.362347
1352.901414,-8734.430116,518.144159,-1302.362347
1352.901735,-9474.636058,-222.061783,-459.657299
1352.902056,-7179.997637,1480.411884,-995.924147
1352.902376,-8660.409521,592.164754,-459.657299
1352.902697,-9474.636058,-1998.556043,-1302.362347
1352.903018,-9474.636058,-740.205942,-1225.752797
1352.903338,-9844.739029,148.041188,-459.657299
1352.903659,-10066.800811,1628.453072,383.047749
1352.903980,-10510.924376,2368.659014,1608.800546
1352.904301,-10807.006753,0.000000,2221.676944
1352.904621,-10732.986159,-1776.494261,1149.143247
1352.904942,-10140.821405,-518.144159,1455.581446
1352.905263,-10658.965565,-1850.514855,1072.533697
1352.905584,-9844.739029,222.061783,2068.457845
1352.905904,-8882.471304,0.000000,995.924147
1352.906225,-8808.450710,-1998.556043,-689.485948
1352.906546,-7179.997637,-1406.391290,-2374.896044
1352.906866,-9030.512492,0.000000,-2298.286494
1352.907187,-10288.862594,296.082377,919.314598
1352.907508,-11547.212695,1998.556043,2911.162892
1352.907829,-11547.212695,962.267725,3217.601092
1352.908149,-11473.192101,0.000000,1455.581446
1352.908470,-9178.553681,-296.082377,1991.848295
1352.908791,-9696.697840,-518.144159,1149.143247
1352.909112,-9400.615463,592.164754,1838.629195
1352.909432,-8216.285956,-148.041188,153.219100
1352.909753,-7402.059420,-962.267725,-995.924147
1352.910074,-6587.832884,148.041188,-995.924147
1352.910395,-8438.347739,740.205942,229.828649
1352.910716,-11103.089130,148.041188,3447.429741
1352.911036,-10658.965565,518.144159,4596.572988
1352.911357,-11103.089130,-2368.659014,3677.258390
1352.911678,-9992.780217,-3256.906145,2834.553343
1352.911999,-9622.677246,-1480.411884,2757.943793
1352.912320,-10288.862594,-222.061783,2604.724693
1352.912641,-9252.574275,2220.617826,2221.676944
1352.912961,-8068.244768,0.000000,995.924147
1352.913282,-7624.121203,-2072.576638,-689.485948
1352.913603,-8956.491898,-2220.617826,-1455.581446
1352.913924,-8142.265362,-740.205942,459.657299
1352.914245,-10140.821405,0.000000,3064.381992
1352.914565,-9770.718434,370.102971,3600.648841
1352.914886,-9400.615463,-2590.720797,3064.381992
1352.915207,-8512.368333,-3552.988522,1225.752797
1352.915528,-8734.430116,-1702.473667,1302.362347
1352.915849,-9770.718434,-370.102971,1685.410096
1352.916170,-9326.594869,814.226536,1991.848295
1352.916490,-9030.512492,2146.597232,842.705048
1352.916811,-9252.574275,0.000000,0.000000
1352.917132,-8808.450710,0.000000,-229.828649
1352.917453,-9992.780217,-370.102971,-153.219100
1352.917774,-10658.965565,888.247130,842.705048
1352.918095,-10066.800811,1480.411884,2068.457845
1352.918415,-10584.944971,740.205942,1685.410096
1352.918736,-9548.656652,-222.061783,-919.314598
1352.919057,-8438.347739,-222.061783,-2451.505594
1352.919378,-8216.285956,1258.350101,-2528.115143
1352.919699,-10288.862594,888.247130,-536.266849
1352.920020,-9844.739029,592.164754,1762.019645
1352.920340,-11621.233289,-2590.720797,1991.848295
1352.920661,-10436.903782,-2516.700203,612.876398
1352.920982,-10658.965565,-1924.535449,842.705048
1352.921303,-11177.109724,-222.061783,1072.533697
1352.921624,-9770.718434,3256.906145,1378.971896
1352.921945,-10214.842000,2146.597232,995.924147
1352.922265,-8586.388927,-296.082377,-1838.629195
1352.922586,-7179.997637,444.123565,-3064.381992
1352.922907,-9844.739029,0.000000,-995.924147
1352.923228,-10214.842000,666.185348,1532.190996
1352.923549,-10288.862594,-148.041188,3140.991542
1352.923870,-10732.986159,-2812.782580,2528.115143
1352.924190,-8586.388927,-1850.514855,1608.800546
1352.924511,-9474.636058,74.020594,1302.362347
1352.924832,-10288.862594,518.144159,2987.772442
1352.925153,-9104.533087,1702.473667,3064.381992
1352.925474,-9770.718434,-888.247130,2681.334243
1352.925794,-7105.977043,-2738.761985,383.047749
1352.926115,-7772.162391,-1998.556043,76.609550
1352.926436,-9992.780217,-2294.638420,2451.505594
1352.926757,-9326.594869,0.000000,3524.039291
1352.927078,-9548.656652,-370.102971,4136.915689
1352.927399,-9474.636058,-3034.844362,1225.752797
1352.927719,-8438.347739,-2812.782580,689.485948
1352.928040,-10140.821405,-740.205942,1072.533697
1352.928361,-10881.027347,1258.350101,2528.115143
1352.928682,-9474.636058,2960.823768,2528.115143
1352.929003,-10288.862594,592.164754,1762.019645
1352.929324,-8438.347739,-1036.288319,-229.828649
1352.929644,-9326.594869,-2220.617826,-919.314598
1352.929965,-9918.759623,-1702.473667,1378.971896
1352.930286,-9474.636058,-222.061783,2298.286494
1352.930607,-9400.615463,370.102971,2757.943793
1352.930928,-10436.903782,222.061783,2451.505594
1352.931249,-9992.780217,-370.102971,1225.752797
1352.931569,-9400.615463,148.041188,459.657299
1352.931890,-10584.944971,-222.061783,919.314598
1352.932211,-7994.224174,74.020594,1455.581446
1352.932532,-9844.739029,-962.267725,1072.533697
1352.932853,-10066.800811,-1554.432478,76.609550
1352.933174,-8586.388927,370.102971,-383.047749
1352.933494,-10436.903782,666.185348,689.485948
1352.933815,-10288.862594,1036.288319,2911.162892
1352.934136,-10362.883188,888.247130,1378.971896
1352.934457,-11177.109724,-1776.494261,612.876398
1352.934778,-8216.285956,-1850.514855,-536.266849
1352.935099,-8660.409521,-1702.473667,-306.438199
1352.935419,-8808.450710,-2516.700203,0.000000
1352.935740,-8512.368333,888.247130,995.924147
1352.936061,-10140.821405,0.000000,1915.238745
1352.936382,-8586.388927,-2072.576638,0.000000
1352.936703,-8586.388927,0.000000,-612.876398
1352.937023,-9918.759623,518.144159,383.047749
1352.937344,-10436.903782,962.267725,1149.143247
1352.937665,-9918.759623,1258.350101,1685.410096
1352.937986,-9252.574275,-814.226536,842.705048
1352.938307,-9474.636058,-3256.906145,-1455.581446
1352.938628,-9178.553681,1480.411884,-1149.143247
1352.938948,-10288.862594,2294.638420,919.314598
1352.939269,-10066.800811,2368.659014,1685.410096
1352.939590,-8364.327145,814.226536,689.485948
1352.939911,-8808.450710,-1998.556043,-1225.752797
1352.940232,-8364.327145,370.102971,-612.876398
1352.940553,-11325.150913,222.061783,2757.943793
1352.940873,-11029.068536,814.226536,4749.792088
1352.941194,-10066.800811,0.000000,4366.744339
1352.941515,-11103.089130,-2738.761985,4136.915689
1352.941836,-8586.388927,-2368.659014,383.047749
1352.942157,-9400.615463,-1110.308913,-383.047749
1352.942478,-8290.306550,666.185348,0.000000
1352.942798,-8956.491898,2072.576638,153.219100
1352.943119,-9178.553681,2220.617826,2145.067394
1352.943440,-9548.656652,-1850.514855,383.047749
1352.943761,-9252.574275,-1776.494261,689.485948
1352.944082,-11029.068536,-2072.576638,2451.505594
1352.944403,-10881.027347,0.000000,3370.820191
1352.944723,-11473.192101,-740.205942,3370.820191
1352.945044,-8364.327145,1184.329507,3907.087040
1352.945365,-11917.315666,-2368.659014,612.876398
1352.945686,-7328.038826,370.102971,1685.410096
1352.946007,-10140.821405,-3330.926739,-919.314598
1352.946327,-9474.636058,1406.391290,2298.286494
1352.946648,-10288.862594,-1850.514855,0.000000
1352.946969,-8956.491898,-1702.473667,612.876398
1352.947290,-7846.182985,1332.370696,459.657299
1352.947611,-9400.615463,-2072.576638,0.000000
1352.947932,-10288.862594,1110.308913,1532.190996
1352.948252,-11769.274478,-1036.288319,3907.087040
1352.948573,-10658.965565,-3404.947333,612.876398
1352.948894,-9696.697840,-740.205942,612.876398
1352.949215,-8660.409521,0.000000,766.095498
1352.949536,-9844.739029,814.226536,1378.971896
1352.949857,-9178.553681,1480.411884,1378.971896
1352.950177,-8438.347739,-666.185348,229.828649
1352.950498,-8290.306550,-2738.761985,-1685.410096
1352.950819,-8142.265362,-2590.720797,-1608.800546
1352.951140,-9548.656652,1406.391290,-536.266849
1352.951461,-11621.233289,1628.453072,3907.087040
1352.951782,-10362.883188,962.267725,3447.429741
1352.952102,-10436.903782,-1554.432478,2528.115143
1352.952423,-9992.780217,-3552.988522,0.000000
1352.952744,-10510.924376,0.000000,1455.581446
1352.953065,-11177.109724,74.020594,2987.772442
1352.953386,-9178.553681,1924.535449,1532.190996
1352.953707,-9178.553681,74.020594,1225.752797
1352.954027,-7772.162391,-2294.638420,-1149.143247
1352.954348,-7994.224174,-2146.597232,-1685.410096
1352.954669,-10066.800811,-1406.391290,766.095498
1352.954990,-9326.594869,-592.164754,1838.629195
1352.955311,-9770.718434,-148.041188,1378.971896
1352.955632,-10732.986159,-148.041188,1685.410096
1352.955952,-9696.697840,-1110.308913,0.000000
1352.956273,-8290.306550,444.123565,1991.848295
1352.956594,-9844.739029,370.102971,1302.362347
1352.956915,-8882.471304,1702.473667,1149.143247
1352.957236,-10140.821405,222.061783,766.095498
1352.957556,-8956.491898,-1036.288319,0.000000
1352.957877,-8808.450710,814.226536,-1532.190996
1352.958198,-9992.780217,-444.123565,153.219100
1352.958519,-9918.759623,1184.329507,1838.629195
1352.958840,-9770.718434,740.205942,1915.238745
1352.959161,-10584.944971,-1406.391290,1149.143247
1352.959481,-8882.471304,-740.205942,919.314598
1352.959802,-8512.368333,518.144159,0.000000
1352.960123,-10955.047942,1036.288319,2374.896044
1352.960444,-10288.862594,1776.494261,3294.210641
1352.960765,-9030.512492,0.000000,1991.848295
1352.961086,-10658.965565,-2886.803174,459.657299
1352.961406,-8882.471304,-1406.391290,0.000000
1352.961727,-10066.800811,-518.144159,995.924147
1352.962048,-10140.821405,1554.432478,2604.724693
1352.962369,-8882.471304,666.185348,2451.505594
1352.962690,-8956.491898,-3034.844362,76.609550
1352.963011,-8438.347739,-2294.638420,0.000000
1352.963331,-9844.739029,-1554.432478,0.000000
1352.963652,-10214.842000,740.205942,1838.629195
1352.963973,-10436.903782,1924.535449,2604.724693
1352.964294,-10066.800811,1036.288319,2987.772442
1352.964615,-10140.821405,-1332.370696,689.485948
1352.964936,-9104.533087,-888.247130,0.000000
1352.965256,-9400.615463,-444.123565,459.657299
1352.965577,-10362.883188,-296.082377,1225.752797
1352.965898,-9326.594869,1332.370696,842.705048
1352.966219,-9696.697840,-1036.288319,1532.190996
1352.966540,-8512.368333,-1036.288319,76.609550
1352.966861,-9622.677246,-1554.432478,306.438199
1352.967181,-9474.636058,-518.144159,1149.143247
1352.967502,-9030.512492,962.267725,1608.800546
1352.967823,-10510.924376,1110.308913,2451.505594
1352.968144,-9252.574275,-740.205942,1378.971896
1352.968465,-9030.512492,-1258.350101,229.828649
1352.968785,-9474.636058,-1480.411884,536.266849
1352.969106,-10436.903782,370.102971,1685.410096
1352.969427,-10436.903782,1628.453072,2298.286494
1352.969748,-10362.883188,-962.267725,1915.238745
1352.970069,-8512.368333,-2072.576638,-459.657299
1352.970390,-8956.491898,-1110.308913,0.000000
1352.970710,-9696.697840,-1628.453072,1149.143247
1352.971031,-9992.780217,1258.350101,1991.848295
1352.971352,-10288.862594,1258.350101,2987.772442
1352.971673,-9548.656652,-1702.473667,612.876398
1352.971994,-7698.141797,-1480.411884,536.266849
1352.972315,-10510.924376,-1406.391290,842.705048
1352.972635,-10214.842000,-444.123565,1378.971896
1352.972956,-9770.718434,592.164754,1838.629195
1352.973277,-9992.780217,-1628.453072,1378.971896
1352.973598,-8438.347739,-1850.514855,-1532.190996
1352.973919,-9474.636058,0.000000,-689.485948
1352.974240,-10140.821405,1110.308913,0.000000
1352.974560,-9326.594869,3627.009116,2298.286494
1352.974881,-10584.944971,814.226536,1915.238745
1352.975202,-8586.388927,-1850.514855,995.924147
1352.975523,-8808.450710,-2368.659014,-1685.410096
1352.975844,-9326.594869,-1110.308913,229.828649
1352.976165,-10140.821405,0.000000,1991.848295
1352.976485,-9770.718434,1332.370696,2451.505594
1352.976806,-10584.944971,-222.061783,1225.752797
1352.977127,-9474.636058,-962.267725,0.000000
1352.977448,-8734.430116,-222.061783,-153.219100
1352.977769,-10214.842000,0.000000,1838.629195
1352.978090,-10510.924376,1776.494261,2451.505594
1352.978410,-9474.636058,1036.288319,2987.772442
1352.978731,-10214.842000,-1702.473667,919.314598
1352.979052,-8290.306550,-444.123565,919.314598
1352.979373,-9622.677246,-1480.411884,919.314598
1352.979694,-10140.821405,-518.144159,2145.067394
1352.980014,-7772.162391,-74.020594,2221.676944
1352.980335,-9918.759623,-1924.535449,1302.362347
1352.980656,-8882.471304,-1850.514855,919.314598
1352.980977,-8142.265362,-1702.473667,383.047749
1352.981298,-9918.759623,-296.082377,1072.533697
1352.981619,-9622.677246,1480.411884,2374.896044
1352.981939,-10658.965565,740.205942,2221.676944
1352.982260,-10584.944971,-962.267725,2298.286494
1352.982581,-8882.471304,-740.205942,1532.190996
1352.982902,-11399.171507,-148.041188,919.314598
1352.983223,-11251.130318,-1110.308913,2911.162892
1352.983544,-9548.656652,-1184.329507,919.314598
1352.983864,-8142.265362,-444.123565,-1455.581446
1352.984185,-9252.574275,-666.185348,-2834.553343
1352.984506,-7105.977043,2220.617826,-2298.286494
1352.984827,-9252.574275,2590.720797,-2374.896044
1352.985148,-9178.553681,3627.009116,-1455.581446
1352.985469,-9992.780217,1924.535449,-689.485948
1352.985789,-10732.986159,-592.164754,229.828649
1352.986110,-12213.398043,-1332.370696,1378.971896
1352.986431,-10140.821405,1332.370696,689.485948
1352.986752,-11103.089130,2516.700203,2068.457845
1352.987073,-10955.047942,3478.967927,2451.505594
1352.987394,-10066.800811,1184.329507,612.876398
1352.987714,-9104.533087,-1332.370696,-1149.143247
1352.988035,-7328.038826,-962.267725,-2987.772442
1352.988356,-7846.182985,148.041188,-2451.505594
1352.988677,-10807.006753,2072.576638,-306.438199
1352.988998,-9548.656652,4441.235652,612.876398
1352.989319,-10288.862594,2664.741391,919.314598
1352.989639,-10584.944971,888.247130,0.000000
1352.989960,-9770.718434,-148.041188,-1149.143247
1352.990281,-11547.212695,0.000000,0.000000
1352.990602,-10955.047942,962.267725,536.266849
1352.990923,-9844.739029,2072.576638,-766.095498
1352.991243,-9696.697840,1332.370696,-1225.752797
1352.991564,-8660.409521,2072.576638,-2374.896044
1352.991885,-9178.553681,2442.679609,-3217.601092
1352.992206,-9474.636058,3182.885551,-2911.162892
1352.992527,-9844.739029,4145.153275,-2451.505594
1352.992848,-8438.347739,4367.215058,-2145.067394
1352.993168,-9178.553681,1776.494261,-1532.190996
1352.993489,-8512.368333,814.226536,-2145.067394
1352.993810,-8586.388927,1258.350101,-2298.286494
1352.994131,-9474.636058,1998.556043,-1455.581446
1352.994452,-9474.636058,4219.173869,459.657299
1352.994773,-10881.027347,2442.679609,995.924147
1352.995093,-9992.780217,2220.617826,536.266849
1352.995414,-9178.553681,2220.617826,306.438199
1352.995735,-10140.821405,814.226536,-229.828649
1352.996056,-9474.636058,1184.329507,-919.314598
1352.996377,-8956.491898,2812.782580,-1685.410096
1352.996698,-9104.533087,4367.215058,-1072.533697
1352.997018,-8512.368333,4219.173869,1225.752797
1352.997339,-9326.594869,2294.638420,-306.438199
1352.997660,-9918.759623,222.061783,-383.047749
1352.997981,-10436.903782,-740.205942,-1532.190996
1352.998302,-9622.677246,592.164754,-1302.362347
1352.998623,-9770.718434,1110.308913,-1455.581446
1352.998943,-9474.636058,2516.700203,-612.876398
1352.999264,-9696.697840,2072.576638,306.438199
1352.999585,-9474.636058,1702.473667,-383.047749
1352.999906,-10436.903782,666.185348,153.219100
1353.000227,-11843.295072,-444.123565,766.095498
1353.000548,-10881.027347,444.123565,-766.095498
1353.000868,-9252.574275,1406.391290,-2604.724693
1353.001189,-9474.636058,3775.050304,-2451.505594
1353.001510,-9474.636058,4145.153275,-1838.629195
1353.001831,-9030.512492,4589.276840,-2374.896044
1353.002152,-9548.656652,1702.473667,-1685.410096
1353.002472,-10436.903782,1480.411884,-1225.752797
1353.002793,-10584.944971,-296.082377,0.000000
1353.003114,-9474.636058,-1258.350101,-153.219100
1353.003435,-8216.285956,0.000000,306.438199
1353.003756,-9622.677246,2516.700203,459.657299
1353.004077,-10510.924376,2442.679609,1302.362347
1353.004397,-9178.553681,1998.556043,153.219100
1353.004718,-9400.615463,444.123565,-1302.362347
1353.005039,-9030.512492,148.041188,-766.095498
1353.005360,-9844.739029,740.205942,-766.095498
1353.005681,-9918.759623,666.185348,-1455.581446
1353.006002,-8660.409521,2886.803174,-3370.820191
1353.006322,-9178.553681,4885.359217,-1225.752797
1353.006643,-10288.862594,5551.544565,-766.095498
1353.006964,-10881.027347,4071.132681,0.000000
1353.007285,-10807.006753,2146.597232,-306.438199
1353.007606,-10362.883188,1184.329507,-536.266849
1353.007927,-11251.130318,888.247130,1378.971896
1353.008247,-10066.800811,-148.041188,459.657299
1353.008568,-9178.553681,-518.144159,-995.924147
1353.008889,-7994.224174,962.267725,-1915.238745
1353.009210,-8142.265362,2220.617826,-1608.800546
1353.009531,-8290.306550,2368.659014,-2068.457845
1353.009852,-9696.697840,888.247130,-919.314598
1353.010172,-9178.553681,1406.391290,-1991.848295
1353.010493,-9474.636058,2960.823768,-1532.190996
1353.010814,-9918.759623,3330.926739,1149.143247
1353.011135,-9992.780217,1998.556043,1762.019645
1353.011456,-10362.883188,-148.041188,0.000000
1353.011777,-9474.636058,-370.102971,-1915.238745
1353.012097,-9474.636058,888.247130,-2681.334243
1353.012418,-9548.656652,3552.988522,995.924147
1353.012739,-10362.883188,4663.297435,-306.438199
1353.013060,-9474.636058,4515.256246,-766.095498
1353.013381,-9252.574275,2664.741391,-1302.362347
1353.013701,-9252.574275,962.267725,-2298.286494
1353.014022,-9326.594869,148.041188,-1149.143247
1353.014343,-10584.944971,0.000000,306.438199
1353.014664,-10214.842000,592.164754,153.219100
1353.014985,-9326.594869,222.061783,-995.924147
1353.015306,-8660.409521,1036.288319,-2604.724693
1353.015626,-8808.450710,3108.864956,-2757.943793
1353.015947,-10362.883188,4737.318029,-1072.533697
1353.016268,-10881.027347,5625.565159,-689.485948
1353.016589,-10288.862594,4737.318029,-919.314598
1353.016910,-9770.718434,2220.617826,-306.438199
1353.017231,-9548.656652,1110.308913,-2298.286494
1353.017551,-10658.965565,592.164754,-536.266849
1353.017872,-9992.780217,1110.308913,0.000000
1353.018193,-9696.697840,2072.576638,383.047749
1353.018514,-10510.924376,1406.391290,1838.629195
1353.018835,-8882.471304,444.123565,-612.876398
1353.019156,-9104.533087,-296.082377,-1838.629195
1353.019476,-8586.388927,518.144159,-2604.724693
1353.019797,-9030.512492,1924.535449,-2681.334243
1353.020118,-10658.965565,3182.885551,-3370.820191
1353.020439,-9918.759623,4441.235652,-2298.286494
1353.020760,-10140.821405,5033.400406,-1991.848295
1353.021081,-10510.924376,4737.318029,-1072.533697
1353.021401,-10807.006753,3701.029710,-689.485948
1353.021722,-9474.636058,2738.761985,-612.876398
1353.022043,-10066.800811,962.267725,-459.657299
1353.022364,-9548.656652,74.020594,0.000000
1353.022685,-9030.512492,-962.267725,229.828649
1353.023006,-8364.327145,-1184.329507,842.705048
1353.023326,-9474.636058,-740.205942,612.876398
1353.023647,-8882.471304,-1184.329507,1072.533697
1353.023968,-8808.450710,-222.061783,306.438199
1353.024289,-9030.512492,518.144159,-842.705048
1353.024610,-8882.471304,1850.514855,-1608.800546
1353.024931,-8734.430116,3404.947333,-2681.334243
1353.025251,-9252.574275,4145.153275,-2834.553343
1353.025572,-10066.800811,4663.297435,-3140.991542
1353.025893,-10955.047942,4959.379811,-2528.115143
1353.026214,-11473.192101,4959.379811,-2221.676944
1353.026535,-11251.130318,2960.823768,-1225.752797
1353.026856,-11103.089130,1924.535449,-229.828649
1353.027176,-10807.006753,814.226536,536.266849
1353.027497,-10066.800811,-296.082377,1302.362347
1353.027818,-9992.780217,-2146.597232,1302.362347
1353.028139,-8586.388927,-2812.782580,766.095498
1353.028460,-8068.244768,-2664.741391,153.219100
1353.028781,-7994.224174,-1110.308913,-612.876398
1353.029101,-8364.327145,962.267725,-995.924147
1353.029422,-8808.450710,2294.638420,-995.924147
1353.029743,-9178.553681,3552.988522,-1838.629195
1353.030064,-9844.739029,4145.153275,-2221.676944
1353.030385,-10807.006753,4737.318029,-1991.848295
1353.030706,-11399.171507,4737.318029,-689.485948
1353.031026,-11103.089130,4367.215058,-1149.143247
1353.031347,-11103.089130,3478.967927,-919.314598
1353.031668,-10658.965565,2220.617826,-995.924147
1353.031989,-10214.842000,740.205942,-612.876398
1353.032310,-9548.656652,74.020594,2221.676944
1353.032631,-9400.615463,-1184.329507,-536.266849
1353.032951,-9030.512492,-1480.411884,-612.876398
1353.033272,-8808.450710,-1184.329507,-842.705048
1353.033593,-8512.368333,-444.123565,-1378.971896
1353.033914,-8734.430116,1036.288319,-2987.772442
1353.034235,-9178.553681,2368.659014,-2374.896044
1353.034556,-9622.677246,3923.091493,-2757.943793
1353.034876,-9844.739029,5107.421000,-2604.724693
1353.035197,-10362.883188,5699.585753,-3830.477490
1353.035518,-10732.986159,5107.421000,-2604.724693
1353.035839,-10584.944971,4145.153275,-1915.238745
1353.036160,-10732.986159,2812.782580,-1072.533697
1353.036481,-10658.965565,1480.411884,-689.485948
1353.036801,-9696.697840,370.102971,383.047749
1353.037122,-9474.636058,0.000000,459.657299
1353.037443,-9030.512492,0.000000,306.438199
1353.037764,-8734.430116,0.000000,995.924147
1353.038085,-8512.368333,222.061783,766.095498
1353.038406,-9104.533087,0.000000,689.485948
1353.038726,-8660.409521,518.144159,-383.047749
1353.039047,-8956.491898,1628.453072,-459.657299
1353.039368,-9622.677246,2590.720797,0.000000
1353.039689,-9844.739029,3256.906145,459.657299
1353.040010,-9770.718434,3182.885551,995.924147
1353.040330,-10510.924376,1998.556043,995.924147
1353.040651,-10362.883188,148.041188,536.266849
1353.040972,-9992.780217,-296.082377,919.314598
1353.041293,-9992.780217,-814.226536,995.924147
1353.041614,-9548.656652,-592.164754,919.314598
1353.041935,-9030.512492,-962.267725,1532.190996
1353.042255,-8956.491898,-962.267725,1685.410096
1353.042576,-8734.430116,-962.267725,1149.143247
1353.042897,-9400.615463,-666.185348,1608.800546
1353.043218,-9474.636058,148.041188,1915.238745
1353.043539,-9696.697840,1332.370696,1225.752797
1353.043860,-9622.677246,2368.659014,1149.143247
1353.044180,-9770.718434,2590.720797,612.876398
1353.044501,-9696.697840,2960.823768,766.095498
1353.044822,-10140.821405,2738.761985,0.000000
1353.045143,-10066.800811,2886.803174,-459.657299
1353.045464,-10288.862594,2664.741391,-383.047749
1353.045785,-10436.903782,1998.556043,0.000000
1353.046105,-10732.986159,740.205942,0.000000
1353.046426,-10584.944971,814.226536,0.000000
1353.046747,-10436.903782,740.205942,-229.828649
1353.047068,-10214.842000,592.164754,-919.314598
1353.047389,-9992.780217,592.164754,-1838.629195
1353.047710,-9400.615463,888.247130,-2528.115143
1353.048030,-9252.574275,1776.494261,-3753.867940
1353.048351,-9178.553681,2368.659014,-4519.963438
1353.048672,-9030.512492,2738.761985,-5132.839837
1353.048993,-9030.512492,3330.926739,-7814.174080
1353.049314,-9770.718434,3478.967927,-5898.935335
1353.049635,-10362.883188,3701.029710,-5132.839837
1353.049955,-10140.821405,3256.906145,-5286.058936
1353.050276,-10658.965565,3182.885551,-4673.182538
1353.050597,-11769.274478,4219.173869,-4213.525239
1353.050918,-10584.944971,2960.823768,-4213.525239
1353.051239,-10436.903782,2516.700203,-4136.915689
1353.051560,-9844.739029,2516.700203,-3447.429741
1353.051880,-9252.574275,2072.576638,-3677.258390
1353.052201,-9178.553681,1110.308913,-3600.648841
1353.052522,-8882.471304,1998.556043,-3753.867940
1353.052843,-8734.430116,2516.700203,-3447.429741
1353.053164,-8956.491898,2960.823768,-3064.381992
1353.053485,-8956.491898,3034.844362,-2681.334243
1353.053805,-8512.368333,3404.947333,-3524.039291
1353.054126,-9252.574275,4145.153275,-1915.238745
1353.054447,-9474.636058,4663.297435,-1149.143247
1353.054768,-9770.718434,4441.235652,-153.219100
1353.055089,-11103.089130,4219.173869,-612.876398
1353.055410,-10732.986159,3256.906145,1915.238745
1353.055730,-10288.862594,1702.473667,2451.505594
1353.056051,-9918.759623,0.000000,2911.162892
1353.056372,-9400.615463,-296.082377,2528.115143
1353.056693,-9844.739029,-1184.329507,3524.039291
1353.057014,-8586.388927,-148.041188,2221.676944
1353.057335,-8438.347739,962.267725,1302.362347
1353.057655,-8660.409521,1850.514855,612.876398
1353.057976,-8808.450710,3256.906145,76.609550
1353.058297,-9844.739029,3701.029710,1302.362347
1353.058618,-10288.862594,3849.070898,842.705048
1353.058939,-10436.903782,3182.885551,153.219100
1353.059260,-10807.006753,2812.782580,383.047749
1353.059580,-10584.944971,3108.864956,919.314598
1353.059901,-11029.068536,2738.761985,1378.971896
1353.060222,-10436.903782,2368.659014,1991.848295
1353.060543,-10066.800811,1110.308913,1915.238745
1353.060864,-9918.759623,-296.082377,1915.238745
1353.061185,-9474.636058,-1702.473667,0.000000
1353.061505,-9400.615463,-2294.638420,612.876398
1353.061826,-9030.512492,-2220.617826,0.000000
1353.062147,-8364.327145,-962.267725,-1225.752797
1353.062468,-8364.327145,444.123565,-2221.676944
1353.062789,-8882.471304,2072.576638,-2757.943793
1353.063110,-9622.677246,2664.741391,-4060.306139
1353.063430,-9992.780217,3478.967927,-4826.401637
1353.063751,-10288.862594,4219.173869,-5209.449386
1353.064072,-10584.944971,4885.359217,-5209.449386
1353.064393,-10881.027347,5329.482782,-2834.553343
1353.064714,-11251.130318,3775.050304,-2298.286494
1353.065035,-10658.965565,814.226536,-1838.629195
1353.065355,-9844.739029,-2220.617826,-2374.896044
1353.065676,-8956.491898,-4071.132681,-2451.505594
1353.065997,-8660.409521,-2886.803174,-2068.457845
1353.066318,-9030.512492,-2368.659014,-1225.752797
1353.066639,-7698.141797,-1702.473667,-2221.676944
1353.066959,-7550.100608,-1184.329507,-3447.429741
1353.067280,-8290.306550,0.000000,-3447.429741
1353.067601,-8882.471304,1702.473667,-4443.353888
1353.067922,-9844.739029,3775.050304,-3677.258390
1353.068243,-10436.903782,5625.565159,-2298.286494
1353.068564,-10658.965565,5625.565159,-2298.286494
1353.068884,-11251.130318,4071.132681,-1608.800546
1353.069205,-10436.903782,2590.720797,-1838.629195
1353.069526,-10436.903782,2516.700203,-1762.019645
1353.069847,-10881.027347,2294.638420,0.000000
1353.070168,-9696.697840,888.247130,612.876398
1353.070489,-9326.594869,518.144159,-229.828649
1353.070809,-8438.347739,1332.370696,-689.485948
1353.071130,-8882.471304,2516.700203,1455.581446
1353.071451,-10066.800811,1924.535449,3600.648841
1353.071772,-10140.821405,0.000000,4596.572988
1353.072093,-9474.636058,-1628.453072,2068.457845
1353.072414,-8734.430116,0.000000,689.485948
1353.072734,-9548.656652,2146.597232,1532.190996
1353.073055,-10214.842000,4219.173869,2374.896044
1353.073376,-10066.800811,3997.112087,2374.896044
1353.073697,-9548.656652,3775.050304,-1225.752797
1353.074018,-9326.594869,4589.276840,-1378.971896
1353.074339,-10955.047942,4441.235652,0.000000
1353.074659,-12139.377449,3478.967927,1455.581446
1353.074980,-9844.739029,1702.473667,1378.971896
1353.075301,-9548.656652,814.226536,0.000000
1353.075622,-9474.636058,370.102971,-306.438199
1353.075943,-9622.677246,-296.082377,229.828649
1353.076264,-9696.697840,-370.102971,1608.800546
1353.076584,-8586.388927,1406.391290,-1608.800546
1353.076905,-8586.388927,3404.947333,-1532.190996
1353.077226,-9474.636058,3034.844362,-612.876398
1353.077547,-9474.636058,2368.659014,-1072.533697
1353.077868,-8660.409521,1332.370696,-766.095498
1353.078189,-9548.656652,1332.370696,-2911.162892
1353.078509,-9474.636058,2072.576638,-3294.210641
1353.078830,-9918.759623,1850.514855,-3830.477490
1353.079151,-9548.656652,4219.173869,-3064.381992
1353.079472,-10436.903782,5033.400406,-3140.991542
1353.079793,-11251.130318,4589.276840,-1991.848295
1353.080114,-10362.883188,1480.411884,-2298.286494
1353.080434,-10658.965565,0.000000,-2451.505594
1353.080755,-10066.800811,814.226536,-1608.800546
1353.081076,-9548.656652,888.247130,-2911.162892
1353.081397,-8882.471304,1850.514855,-3064.381992
1353.081718,-7328.038826,2368.659014,-3907.087040
1353.082039,-7772.162391,2516.700203,-3907.087040
1353.082359,-8216.285956,3034.844362,-4136.915689
1353.082680,-9400.615463,2590.720797,-3294.210641
1353.083001,-10362.883188,3182.885551,-2451.505594
1353.083322,-10881.027347,3256.906145,-1685.410096
1353.083643,-9918.759623,3034.844362,153.219100
1353.083964,-11547.212695,3034.844362,1149.143247
1353.084284,-11843.295072,1554.432478,1072.533697
1353.084605,-10288.862594,1036.288319,612.876398
1353.084926,-9918.759623,592.164754,76.609550
1353.085247,-8734.430116,1258.350101,153.219100
1353.085568,-9104.533087,2072.576638,153.219100
1353.085889,-8142.265362,2590.720797,0.000000
1353.086209,-7772.162391,1480.411884,-689.485948
1353.086530,-7772.162391,-296.082377,-842.705048
1353.086851,-7550.100608,-962.267725,-1991.848295
1353.087172,-9474.636058,-592.164754,995.924147
1353.087493,-10362.883188,-148.041188,1302.362347
1353.087814,-9696.697840,2442.679609,3524.039291
1353.088134,-12139.377449,1702.473667,3907.087040
1353.088455,-11325.150913,1628.453072,2757.943793
1353.088776,-10807.006753,1702.473667,1532.190996
1353.089097,-10807.006753,1258.350101,0.000000
1353.089418,-8660.409521,2516.700203,-842.705048
1353.089739,-9844.739029,1628.453072,612.876398
1353.090059,-9548.656652,1480.411884,919.314598
1353.090380,-8882.471304,-666.185348,153.219100
1353.090701,-9178.553681,-2146.597232,-76.609550
1353.091022,-9548.656652,-1776.494261,0.000000
1353.091343,-9992.780217,1998.556043,612.876398
1353.091664,-10732.986159,2220.617826,2298.286494
1353.091984,-9622.677246,2442.679609,2068.457845
1353.092305,-9252.574275,518.144159,-306.438199
1353.092626,-9696.697840,-814.226536,-1991.848295
1353.092947,-9474.636058,-814.226536,-2681.334243
1353.093268,-8956.491898,1480.411884,-1608.800546
1353.093589,-10288.862594,1406.391290,-995.924147
1353.093909,-9252.574275,2516.700203,-689.485948
1353.094230,-9918.759623,-518.144159,919.314598
1353.094551,-9252.574275,-1036.288319,-2911.162892
1353.094872,-9992.780217,-2220.617826,-3447.429741
1353.095193,-10436.903782,74.020594,-1378.971896
1353.095513,-10288.862594,74.020594,76.609550
1353.095834,-9474.636058,-1332.370696,0.000000
1353.096155,-9178.553681,-444.123565,-1225.752797
1353.096476,-9844.739029,-592.164754,-1225.752797
1353.096797,-10214.842000,2590.720797,-536.266849
1353.097118,-10732.986159,3108.864956,2068.457845
1353.097438,-10881.027347,1036.288319,1991.848295
1353.097759,-8882.471304,-1184.329507,-383.047749
1353.098080,-8068.244768,-3256.906145,-1991.848295
1353.098401,-8438.347739,-2960.823768,-2221.676944
1353.098722,-8438.347739,1924.535449,-2221.676944
1353.099043,-9770.718434,2590.720797,2221.676944
1353.099363,-9178.553681,740.205942,1685.410096
1353.099684,-10214.842000,-1184.329507,1455.581446
1353.100005,-10288.862594,-1110.308913,2451.505594
1353.100326,-11399.171507,-1702.473667,2451.505594
1353.100647,-10955.047942,1258.350101,4366.744339
1353.100968,-11251.130318,444.123565,4903.011187
1353.101288,-7920.203579,518.144159,1302.362347
1353.101609,-7328.038826,-296.082377,153.219100
1353.101930,-8364.327145,-1184.329507,306.438199
1353.102251,-8068.244768,1850.514855,459.657299
1353.102572,-10510.924376,962.267725,2145.067394
1353.102893,-9178.553681,1110.308913,3140.991542
1353.103213,-7254.018232,-518.144159,306.438199
1353.103534,-10140.821405,-2664.741391,3217.601092
1353.103855,-10066.800811,-2294.638420,3907.087040
1353.104176,-9548.656652,0.000000,4213.525239
1353.104497,-11029.068536,-518.144159,5362.668486
1353.104818,-9474.636058,-740.205942,3983.696590
1353.105138,-8882.471304,-962.267725,2451.505594
1353.105459,-9992.780217,-1554.432478,1991.848295
1353.105780,-8364.327145,296.082377,1302.362347
1353.106101,-9326.594869,592.164754,2604.724693
1353.106422,-9918.759623,-592.164754,2451.505594
1353.106743,-8882.471304,-962.267725,766.095498
1353.107063,-9474.636058,-1480.411884,0.000000
1353.107384,-9770.718434,-1110.308913,229.828649
1353.107705,-8364.327145,1998.556043,842.705048
1353.108026,-11621.233289,1184.329507,2298.286494
1353.108347,-10955.047942,-740.205942,1991.848295
1353.108668,-8586.388927,-1776.494261,0.000000
1353.108988,-10436.903782,-3775.050304,-1532.190996
1353.109309,-8068.244768,-444.123565,153.219100
1353.109630,-9918.759623,444.123565,689.485948
1353.109951,-10881.027347,-222.061783,919.314598
1353.110272,-8512.368333,518.144159,-842.705048
1353.110593,-9696.697840,-1776.494261,-2068.457845
1353.110913,-8882.471304,-444.123565,-1455.581446
1353.111234,-9992.780217,222.061783,0.000000
1353.111555,-10955.047942,-370.102971,1608.800546
1353.111876,-8956.491898,-1036.288319,76.609550
1353.112197,-8364.327145,-2146.597232,-1378.971896
1353.112518,-9178.553681,-2664.741391,-1685.410096
1353.112838,-9474.636058,74.020594,0.000000
1353.113159,-10288.862594,1036.288319,1608.800546
1353.113480,-10732.986159,370.102971,1991.848295
1353.113801,-9104.533087,296.082377,842.705048
1353.114122,-9696.697840,-3182.885551,-612.876398
1353.114443,-9548.656652,-2368.659014,459.657299
1353.114763,-9030.512492,0.000000,1072.533697
1353.115084,-9992.780217,222.061783,1838.629195
1353.115405,-10066.800811,370.102971,2145.067394
1353.115726,-8660.409521,-222.061783,612.876398
1353.116047,-9474.636058,-1480.411884,306.438199
1353.116368,-9548.656652,74.020594,1149.143247
1353.116688,-9918.759623,888.247130,2145.067394
1353.117009,-11177.109724,740.205942,3600.648841
1353.117330,-9770.718434,666.185348,2987.772442
1353.117651,-9770.718434,-1406.391290,1838.629195
1353.117972,-9770.718434,-1628.453072,919.314598
1353.118293,-8956.491898,962.267725,1302.362347
1353.118613,-9918.759623,1110.308913,3524.039291
1353.118934,-10066.800811,592.164754,3140.991542
1353.119255,-8216.285956,-370.102971,1838.629195
1353.119576,-9622.677246,-1110.308913,1225.752797
1353.119897,-9992.780217,-814.226536,1762.019645
1353.120218,-9400.615463,518.144159,2987.772442
1353.120538,-11177.109724,-222.061783,3907.087040
1353.120859,-9844.739029,-370.102971,1991.848295
1353.121180,-9770.718434,0.000000,919.314598
1353.121501,-9992.780217,-370.102971,153.219100
1353.121822,-8438.347739,1480.411884,995.924147
1353.122143,-9992.780217,444.123565,1915.238745
1353.122463,-9400.615463,0.000000,2145.067394
1353.122784,-8734.430116,-1258.350101,0.000000
1353.123105,-8438.347739,0.000000,1762.019645
1353.123426,-11029.068536,-2960.823768,1378.971896
1353.123747,-7698.141797,2664.741391,2068.457845
1353.124068,-11843.295072,-1110.308913,383.047749
1353.124388,-7772.162391,1110.308913,306.438199
1353.124709,-7698.141797,-296.082377,-1149.143247
1353.125030,-11103.089130,962.267725,459.657299
1353.125351,-9252.574275,888.247130,1225.752797
1353.125672,-9400.615463,-1184.329507,-1532.190996
1353.125993,-10807.006753,370.102971,1532.190996
1353.126314,-7476.080014,-1924.535449,-2221.676944
1353.126634,-10214.842000,-518.144159,-1149.143247
1353.126955,-10214.842000,962.267725,919.314598
1353.127276,-8142.265362,1406.391290,0.000000
1353.127597,-11029.068536,0.000000,536.266849
1353.127918,-9622.677246,-296.082377,-153.219100
1353.128239,-8290.306550,-1332.370696,-1072.533697
1353.128559,-11399.171507,-2368.659014,-842.705048
1353.128880,-9178.553681,592.164754,-153.219100
1353.129201,-10288.862594,518.144159,1455.581446
1353.129522,-9770.718434,-1554.432478,-536.266849
1353.129843,-6291.750507,-518.144159,-1608.800546
1353.130164,-9474.636058,-1850.514855,-1532.190996
1353.130484,-9474.636058,74.020594,459.657299
1353.130805,-10881.027347,1184.329507,2911.162892
1353.131126,-11177.109724,-1184.329507,3370.820191
1353.131447,-11103.089130,-1924.535449,3294.210641
1353.131768,-9918.759623,-2664.741391,2681.334243
1353.132089,-10436.903782,-2886.803174,1915.238745
1353.132409,-9622.677246,740.205942,2681.334243
1353.132730,-9030.512492,888.247130,2451.505594
1353.133051,-9326.594869,-518.144159,1225.752797
1353.133372,-8216.285956,-592.164754,-306.438199
1353.133693,-7920.203579,-1184.329507,-306.438199
1353.134014,-9696.697840,814.226536,842.705048
1353.134334,-9918.759623,2220.617826,3983.696590
1353.134655,-10658.965565,-370.102971,4903.011187
1353.134976,-10584.944971,-1110.308913,2604.724693
1353.135297,-9326.594869,-2368.659014,2221.676944
1353.135618,-9696.697840,-3775.050304,1838.629195
1353.135939,-8216.285956,518.144159,1838.629195
1353.136259,-10288.862594,1036.288319,2834.553343
1353.136580,-9770.718434,1702.473667,2528.115143
1353.136901,-8882.471304,1184.329507,2604.724693
1353.137222,-10436.903782,-1554.432478,2145.067394
1353.137543,-10732.986159,-1776.494261,2681.334243
1353.137864,-9844.739029,-296.082377,2757.943793
1353.138184,-10214.842000,0.000000,3140.991542
1353.138505,-8882.471304,-1110.308913,2451.505594
1353.138826,-8290.306550,-1480.411884,0.000000
1353.139147,-7698.141797,-592.164754,-2145.067394
