#time,accel_x,accel_y,accel_z
925.769619,-9326.594869,-1258.350101,1149.143247
925.769940,-9622.677246,-296.082377,1072.533697
925.770261,-9548.656652,-296.082377,1149.143247
925.770581,-9252.574275,-296.082377,995.924147
925.770902,-9622.677246,-370.102971,995.924147
925.771223,-9622.677246,-222.061783,919.314598
925.771543,-9474.636058,-222.061783,1149.143247
925.771864,-9474.636058,-444.123565,1225.752797
925.772185,-9622.677246,-444.123565,1149.143247
925.772506,-9548.656652,-666.185348,612.876398
925.772826,-9696.697840,-444.123565,919.314598
925.773147,-9548.656652,-296.082377,1302.362347
925.773468,-9696.697840,-296.082377,842.705048
925.773788,-9400.615463,-888.247130,306.438199
925.774109,-9474.636058,-518.144159,766.095498
925.774430,-9474.636058,-518.144159,689.485948
925.774751,-9622.677246,-444.123565,612.876398
925.775071,-9622.677246,0.000000,1149.143247
925.775392,-9474.636058,-222.061783,1225.752797
925.775713,-9474.636058,-370.102971,1225.752797
925.776033,-9770.718434,-518.144159,995.924147
925.776354,-9548.656652,-370.102971,1149.143247
925.776675,-9622.677246,-148.041188,612.876398
925.776995,-9622.677246,-444.123565,1072.533697
925.777316,-9622.677246,-222.061783,1455.581446
925.777637,-9548.656652,-740.205942,1072.533697
925.777958,-9474.636058,-518.144159,842.705048
925.778278,-9474.636058,-1480.411884,612.876398
925.778599,-9622.677246,-962.267725,459.657299
925.778920,-9548.656652,-962.267725,612.876398
925.779240,-9622.677246,-1406.391290,536.266849
925.779561,-9252.574275,-1184.329507,0.000000
925.779882,-9770.718434,-1258.350101,0.000000
925.780203,-9622.677246,-962.267725,0.000000
925.780523,-9696.697840,-888.247130,306.438199
925.780844,-8808.450710,-1554.432478,-689.485948
925.781165,-9326.594869,-1110.308913,-766.095498
925.781485,-9548.656652,-1554.432478,-689.485948
925.781806,-9474.636058,-1998.556043,-612.876398
925.782127,-9400.615463,-2294.638420,995.924147
925.782447,-9400.615463,-2516.700203,-1455.581446
925.782768,-9326.594869,-3256.906145,-1762.019645
925.783089,-9178.553681,-3256.906145,-2221.676944
925.783410,-9252.574275,-3627.009116,-2757.943793
925.783730,-9400.615463,-3552.988522,-2911.162892
925.784051,-9474.636058,-3478.967927,-3677.258390
925.784372,-9548.656652,-3849.070898,-4060.306139
925.784692,-9474.636058,-3997.112087,-4060.306139
925.785013,-9992.780217,-3701.029710,-4596.572988
925.785334,-9844.739029,-3701.029710,-3447.429741
925.785655,-9770.718434,-4145.153275,-3064.381992
925.785975,-9474.636058,-4367.215058,-3217.601092
925.786296,-9548.656652,-5403.503377,-3907.087040
925.786617,-9474.636058,-4515.256246,-2757.943793
925.786937,-9252.574275,-4515.256246,-2681.334243
925.787258,-9844.739029,-3849.070898,-2451.505594
925.787579,-9252.574275,-3701.029710,-2221.676944
925.787899,-9696.697840,-3627.009116,-2911.162892
925.788220,-9474.636058,-3404.947333,-2451.505594
925.788541,-9770.718434,-2886.803174,-2451.505594
925.788862,-9770.718434,-2960.823768,-2298.286494
925.789182,-9844.739029,-3108.864956,-2374.896044
925.789503,-9844.739029,-3108.864956,-1608.800546
925.789824,-10288.862594,-3256.906145,-689.485948
925.790144,-10140.821405,-3552.988522,-306.438199
925.790465,-10140.821405,-3701.029710,919.314598
925.790786,-10066.800811,-3404.947333,1149.143247
925.791106,-10214.842000,-2960.823768,1378.971896
925.791427,-9696.697840,-2664.741391,1532.190996
925.791748,-9696.697840,-3108.864956,1149.143247
925.792069,-9104.533087,-2590.720797,766.095498
925.792389,-9178.553681,-2664.741391,0.000000
925.792710,-8956.491898,-2516.700203,-612.876398
925.793031,-8808.450710,-2294.638420,-612.876398
925.793351,-8956.491898,-1776.494261,-842.705048
925.793672,-9918.759623,-1998.556043,-229.828649
925.793993,-9992.780217,-2368.659014,-383.047749
925.794314,-10584.944971,-2664.741391,0.000000
925.794634,-9326.594869,-2960.823768,-306.438199
925.794955,-9992.780217,-2664.741391,0.000000
925.795276,-9622.677246,-2072.576638,0.000000
925.795596,-9548.656652,-1850.514855,153.219100
925.795917,-9104.533087,-1480.411884,612.876398
925.796238,-9474.636058,-1406.391290,1072.533697
925.796558,-8956.491898,-1110.308913,1455.581446
925.796879,-9474.636058,-1036.288319,842.705048
925.797200,-9104.533087,-740.205942,536.266849
925.797521,-8882.471304,-814.226536,-689.485948
925.797841,-8808.450710,-1480.411884,-1455.581446
925.798162,-8438.347739,-1850.514855,-2451.505594
925.798483,-8512.368333,-2220.617826,-3370.820191
925.798803,-9844.739029,-2368.659014,-3677.258390
925.799124,-9770.718434,-2442.679609,-3524.039291
925.799445,-10436.903782,-1998.556043,-3600.648841
925.799766,-10584.944971,-1406.391290,-3447.429741
925.800086,-10436.903782,-1184.329507,-2604.724693
925.800407,-10732.986159,-962.267725,-1302.362347
925.800728,-10807.006753,-1776.494261,-229.828649
925.801048,-10436.903782,-2368.659014,-153.219100
925.801369,-9770.718434,-1702.473667,-766.095498
925.801690,-9548.656652,-1480.411884,-2145.067394
925.802010,-8660.409521,222.061783,-2298.286494
925.802331,-8216.285956,222.061783,-2911.162892
925.802652,-7846.182985,296.082377,-3370.820191
925.802973,-8290.306550,-1850.514855,-4366.744339
925.803293,-9178.553681,-3034.844362,-4060.306139
925.803614,-10140.821405,-3256.906145,-3294.210641
925.803935,-10584.944971,-2516.700203,-1915.238745
925.804255,-11177.109724,-1924.535449,-229.828649
925.804576,-11547.212695,-962.267725,689.485948
925.804897,-11325.150913,-2146.597232,459.657299
925.805218,-10510.924376,-2960.823768,-612.876398
925.805538,-9770.718434,-3330.926739,-919.314598
925.805859,-8290.306550,-3404.947333,-689.485948
925.806180,-9030.512492,-3997.112087,-612.876398
925.806500,-7772.162391,-3923.091493,-1302.362347
925.806821,-7328.038826,-4515.256246,-2145.067394
925.807142,-8142.265362,-3849.070898,-3447.429741
925.807462,-8438.347739,-3034.844362,-689.485948
925.807783,-10214.842000,-2960.823768,1302.362347
925.808104,-10732.986159,-3330.926739,1838.629195
925.808425,-10436.903782,-4293.194464,0.000000
925.808745,-10510.924376,-4367.215058,536.266849
925.809066,-9844.739029,-3923.091493,306.438199
925.809387,-10436.903782,-3552.988522,459.657299
925.809707,-9474.636058,-3108.864956,-153.219100
925.810028,-8512.368333,-2146.597232,-2451.505594
925.810349,-8438.347739,-370.102971,-1608.800546
925.810670,-9992.780217,148.041188,0.000000
925.810990,-9252.574275,-222.061783,995.924147
925.811311,-9844.739029,-3034.844362,-153.219100
925.811632,-9178.553681,-3330.926739,-1915.238745
925.811952,-8808.450710,-3627.009116,-842.705048
925.812273,-10066.800811,-4515.256246,-306.438199
925.812594,-10214.842000,-3775.050304,-536.266849
925.812914,-10140.821405,-2590.720797,-2681.334243
925.813235,-8512.368333,-666.185348,-3600.648841
925.813556,-10955.047942,-1184.329507,-2221.676944
925.813877,-11103.089130,-2664.741391,-1072.533697
925.814197,-9474.636058,-4663.297435,-3064.381992
925.814518,-8512.368333,-4589.276840,-4749.792088
925.814839,-7624.121203,-2886.803174,-3907.087040
925.815159,-9548.656652,-2294.638420,-1838.629195
925.815480,-8512.368333,148.041188,1915.238745
925.815801,-9992.780217,0.000000,842.705048
925.816122,-9918.759623,-592.164754,2374.896044
925.816442,-10807.006753,-2072.576638,2221.676944
925.816763,-10584.944971,-1406.391290,2681.334243
925.817084,-10362.883188,-1480.411884,2298.286494
925.817404,-8586.388927,-1702.473667,536.266849
925.817725,-8068.244768,-1480.411884,-1149.143247
925.818046,-7698.141797,-592.164754,-2911.162892
925.818366,-8660.409521,1184.329507,-2911.162892
925.818687,-9104.533087,1332.370696,-1455.581446
925.819008,-10807.006753,1036.288319,-536.266849
925.819329,-11029.068536,666.185348,-612.876398
925.819649,-11769.274478,888.247130,153.219100
925.819970,-10955.047942,-518.144159,1455.581446
925.820291,-10658.965565,-962.267725,2298.286494
925.820611,-10066.800811,-296.082377,3677.258390
925.820932,-9844.739029,-518.144159,3907.087040
925.821253,-9252.574275,-740.205942,3217.601092
925.821574,-8734.430116,-1258.350101,1685.410096
925.821894,-8068.244768,0.000000,766.095498
925.822215,-8364.327145,518.144159,612.876398
925.822536,-8660.409521,0.000000,229.828649
925.822856,-8364.327145,0.000000,76.609550
925.823177,-9474.636058,0.000000,459.657299
925.823498,-11029.068536,-592.164754,1915.238745
925.823818,-11547.212695,-296.082377,2451.505594
925.824139,-11547.212695,0.000000,1762.019645
925.824460,-10881.027347,1184.329507,1302.362347
925.824781,-9918.759623,1110.308913,1455.581446
925.825101,-8882.471304,0.000000,1838.629195
925.825422,-9400.615463,-222.061783,1991.848295
925.825743,-8808.450710,-1110.308913,1915.238745
925.826064,-8290.306550,-2294.638420,1378.971896
925.826384,-8216.285956,-1702.473667,1225.752797
925.826705,-8586.388927,444.123565,1225.752797
925.827026,-9770.718434,740.205942,2145.067394
925.827347,-9030.512492,222.061783,1302.362347
925.827667,-9030.512492,518.144159,153.219100
925.827988,-10066.800811,-444.123565,229.828649
925.828309,-9770.718434,0.000000,536.266849
925.828630,-10140.821405,-666.185348,459.657299
925.828950,-9696.697840,-518.144159,-689.485948
925.829271,-9770.718434,-814.226536,-1149.143247
925.829592,-8660.409521,-592.164754,0.000000
925.829913,-9622.677246,74.020594,1378.971896
925.830233,-10436.903782,0.000000,2451.505594
925.830554,-9622.677246,-518.144159,1915.238745
925.830875,-8882.471304,0.000000,0.000000
925.831196,-9400.615463,-148.041188,306.438199
925.831516,-8956.491898,-148.041188,919.314598
925.831837,-8808.450710,-444.123565,919.314598
925.832158,-8290.306550,-1184.329507,-995.924147
925.832479,-8882.471304,-1184.329507,-459.657299
925.832799,-11029.068536,-1036.288319,1149.143247
925.833120,-11029.068536,-1628.453072,1915.238745
925.833441,-11325.150913,-1332.370696,1685.410096
925.833762,-11325.150913,-888.247130,536.266849
925.834082,-9548.656652,-1110.308913,459.657299
925.834403,-9474.636058,-1332.370696,689.485948
925.834724,-10140.821405,-888.247130,1225.752797
925.835045,-8956.491898,-2368.659014,2757.943793
925.835365,-9030.512492,-1184.329507,919.314598
925.835686,-9622.677246,-1110.308913,995.924147
925.836007,-9918.759623,0.000000,1838.629195
925.836328,-9696.697840,0.000000,2834.553343
925.836648,-9548.656652,-148.041188,2681.334243
925.836969,-8660.409521,0.000000,306.438199
925.837290,-9400.615463,-148.041188,306.438199
925.837611,-9474.636058,-740.205942,766.095498
925.837931,-6957.935855,-888.247130,1532.190996
925.838252,-9252.574275,-222.061783,229.828649
925.838573,-8882.471304,-1036.288319,306.438199
925.838894,-9252.574275,-592.164754,689.485948
925.839214,-10436.903782,296.082377,2145.067394
925.839535,-10658.965565,222.061783,3524.039291
925.839856,-10214.842000,74.020594,2757.943793
925.840177,-9400.615463,-370.102971,2298.286494
925.840497,-8364.327145,-518.144159,919.314598
925.840818,-8512.368333,74.020594,842.705048
925.841139,-8142.265362,-444.123565,1685.410096
925.841460,-8068.244768,-666.185348,1455.581446
925.841780,-8734.430116,74.020594,842.705048
925.842101,-9918.759623,296.082377,1149.143247
925.842422,-9992.780217,74.020594,1991.848295
925.842743,-10362.883188,666.185348,1302.362347
925.843063,-10584.944971,1184.329507,919.314598
925.843384,-9326.594869,666.185348,459.657299
925.843705,-9474.636058,-296.082377,-229.828649
925.844026,-9474.636058,444.123565,995.924147
925.844346,-10510.924376,-148.041188,1302.362347
925.844667,-10214.842000,0.000000,1072.533697
925.844988,-10436.903782,666.185348,383.047749
925.845309,-10584.944971,1924.535449,689.485948
925.845629,-10436.903782,814.226536,1532.190996
925.845950,-9844.739029,222.061783,1685.410096
925.846271,-8734.430116,888.247130,3217.601092
925.846592,-11769.274478,-1332.370696,-459.657299
925.846912,-7772.162391,0.000000,1302.362347
925.847233,-11029.068536,-1258.350101,1072.533697
925.847554,-9548.656652,666.185348,1149.143247
925.847875,-9252.574275,222.061783,-153.219100
925.848195,-9844.739029,444.123565,1225.752797
925.848516,-9030.512492,-444.123565,0.000000
925.848837,-11177.109724,-592.164754,1991.848295
925.849158,-10732.986159,-1554.432478,3677.258390
925.849478,-9696.697840,-2072.576638,919.314598
925.849799,-9548.656652,-222.061783,1149.143247
925.850120,-9326.594869,74.020594,995.924147
925.850441,-7994.224174,-222.061783,536.266849
925.850761,-9030.512492,-296.082377,1225.752797
925.851082,-8364.327145,-962.267725,76.609550
925.851403,-8956.491898,-1406.391290,536.266849
925.851723,-9918.759623,-2146.597232,2068.457845
925.852044,-9992.780217,-1850.514855,1302.362347
925.852365,-9696.697840,-666.185348,1225.752797
925.852686,-9030.512492,-740.205942,612.876398
925.853006,-8364.327145,0.000000,919.314598
925.853327,-9474.636058,0.000000,995.924147
925.853648,-9770.718434,-740.205942,1455.581446
925.853969,-9770.718434,-1480.411884,612.876398
925.854289,-8808.450710,-1702.473667,-612.876398
925.854610,-9104.533087,-888.247130,-536.266849
925.854931,-9252.574275,0.000000,459.657299
925.855252,-9400.615463,-888.247130,1072.533697
925.855572,-9178.553681,74.020594,1378.971896
925.855893,-10807.006753,-592.164754,1072.533697
925.856214,-10510.924376,-592.164754,1302.362347
925.856535,-10807.006753,0.000000,2145.067394
925.856855,-11177.109724,0.000000,2068.457845
925.857176,-9696.697840,-518.144159,919.314598
925.857497,-8882.471304,-222.061783,383.047749
925.857818,-8956.491898,-888.247130,612.876398
925.858138,-10436.903782,-740.205942,229.828649
925.858459,-10140.821405,-296.082377,1378.971896
925.858780,-9696.697840,-888.247130,0.000000
925.859101,-9326.594869,222.061783,153.219100
925.859421,-10288.862594,-444.123565,842.705048
925.859742,-9844.739029,-1036.288319,1149.143247
925.860063,-9548.656652,-1258.350101,689.485948
925.860384,-9992.780217,-666.185348,766.095498
925.860704,-10362.883188,-888.247130,1225.752797
925.861025,-10214.842000,-740.205942,1608.800546
925.861346,-10362.883188,518.144159,1762.019645
925.861667,-9326.594869,1036.288319,689.485948
925.861987,-8216.285956,1332.370696,612.876398
925.862308,-8734.430116,1184.329507,919.314598
925.862629,-9474.636058,0.000000,1455.581446
925.862950,-9252.574275,-1184.329507,1991.848295
925.863270,-9326.594869,-1924.535449,766.095498
925.863591,-9030.512492,-592.164754,-229.828649
925.863912,-9252.574275,888.247130,306.438199
925.864233,-9400.615463,1776.494261,1455.581446
925.864553,-9178.553681,1258.350101,2145.067394
925.864874,-9992.780217,222.061783,2451.505594
925.865195,-10955.047942,-1702.473667,2451.505594
925.865516,-10732.986159,-2738.761985,2298.286494
925.865836,-10362.883188,-1184.329507,1378.971896
925.866157,-9326.594869,592.164754,1225.752797
925.866478,-8068.244768,814.226536,-1225.752797
925.866799,-6661.853478,1406.391290,-995.924147
925.867119,-7846.182985,814.226536,-1225.752797
925.867440,-9622.677246,296.082377,1072.533697
925.867761,-11251.130318,-1258.350101,2068.457845
925.868082,-11251.130318,-1184.329507,3064.381992
925.868402,-11843.295072,-1480.411884,2221.676944
925.868723,-10955.047942,-148.041188,1991.848295
925.869044,-10066.800811,-888.247130,2298.286494
925.869365,-9474.636058,-444.123565,919.314598
925.869685,-9844.739029,148.041188,536.266849
925.870006,-9548.656652,74.020594,383.047749
925.870327,-9252.574275,-518.144159,0.000000
925.870648,-9770.718434,592.164754,536.266849
925.870968,-10436.903782,518.144159,1532.190996
925.871289,-9104.533087,-444.123565,1455.581446
925.871610,-9326.594869,-592.164754,1455.581446
925.871931,-10066.800811,148.041188,2298.286494
925.872251,-10732.986159,-592.164754,2528.115143
925.872572,-9622.677246,-444.123565,2145.067394
925.872893,-10807.006753,666.185348,-229.828649
925.873214,-8586.388927,666.185348,-689.485948
925.873534,-8882.471304,148.041188,-153.219100
925.873855,-8364.327145,-222.061783,0.000000
925.874176,-9474.636058,-1110.308913,-229.828649
925.874497,-9474.636058,-1184.329507,536.266849
925.874817,-9992.780217,-2072.576638,1608.800546
925.875138,-10658.965565,-1036.288319,1608.800546
925.875459,-11103.089130,-148.041188,2451.505594
925.875780,-9030.512492,-222.061783,1991.848295
925.876100,-8142.265362,-592.164754,766.095498
925.876421,-8438.347739,-222.061783,536.266849
925.876742,-8290.306550,-444.123565,995.924147
925.877063,-9474.636058,-1776.494261,1608.800546
925.877383,-7772.162391,-1184.329507,153.219100
925.877704,-8734.430116,-444.123565,229.828649
925.878025,-9622.677246,148.041188,995.924147
925.878346,-10955.047942,0.000000,2834.553343
925.878666,-10584.944971,-296.082377,1991.848295
925.878987,-10584.944971,-888.247130,1532.190996
925.879308,-10510.924376,-1776.494261,1072.533697
925.879629,-9992.780217,-1998.556043,383.047749
925.879949,-9770.718434,-1184.329507,-689.485948
925.880270,-8290.306550,814.226536,-612.876398
925.880591,-8882.471304,0.000000,-1072.533697
925.880912,-8290.306550,1776.494261,612.876398
925.881232,-10807.006753,1480.411884,2757.943793
925.881553,-9992.780217,-1110.308913,2528.115143
925.881874,-10288.862594,-2220.617826,1302.362347
925.882195,-10436.903782,-1554.432478,612.876398
925.882515,-8882.471304,-370.102971,0.000000
925.882836,-8882.471304,740.205942,0.000000
925.883157,-8808.450710,1258.350101,0.000000
925.883478,-8512.368333,0.000000,-689.485948
925.883798,-10584.944971,-1184.329507,536.266849
925.884119,-10214.842000,-2294.638420,1072.533697
925.884440,-11029.068536,-1554.432478,1378.971896
925.884761,-11177.109724,444.123565,2145.067394
925.885081,-9474.636058,1480.411884,1991.848295
925.885402,-8808.450710,1110.308913,1532.190996
925.885723,-9992.780217,518.144159,2604.724693
925.886044,-9474.636058,-222.061783,1685.410096
925.886364,-9400.615463,-740.205942,1378.971896
925.886685,-9104.533087,296.082377,459.657299
925.887006,-9252.574275,2220.617826,459.657299
925.887327,-9252.574275,1554.432478,1762.019645
925.887647,-8142.265362,0.000000,1149.143247
925.887968,-8808.450710,-962.267725,919.314598
925.888289,-10362.883188,-1184.329507,612.876398
925.888610,-11177.109724,-1332.370696,2145.067394
925.888930,-10658.965565,-74.020594,2681.334243
925.889251,-10510.924376,888.247130,2145.067394
925.889572,-9178.553681,666.185348,536.266849
925.889893,-7994.224174,296.082377,459.657299
925.890213,-8512.368333,-222.061783,1378.971896
925.890534,-9622.677246,-1036.288319,2451.505594
925.890855,-9770.718434,-1702.473667,2298.286494
925.891176,-10214.842000,-1924.535449,1685.410096
925.891496,-8956.491898,74.020594,229.828649
925.891817,-9030.512492,1258.350101,919.314598
925.892138,-9326.594869,370.102971,995.924147
925.892459,-8290.306550,0.000000,76.609550
925.892779,-9474.636058,-888.247130,-306.438199
925.893100,-10881.027347,-1702.473667,459.657299
925.893421,-10955.047942,-666.185348,1455.581446
925.893742,-13027.624579,1332.370696,3217.601092
925.894062,-11103.089130,1258.350101,2681.334243
925.894383,-10214.842000,1332.370696,2451.505594
925.894704,-9918.759623,0.000000,2451.505594
925.895025,-8882.471304,-1406.391290,689.485948
925.895345,-8290.306550,-2590.720797,-536.266849
925.895666,-8660.409521,-666.185348,-1762.019645
925.895987,-7698.141797,518.144159,-2221.676944
925.896308,-8290.306550,1480.411884,-1762.019645
925.896628,-8734.430116,1332.370696,842.705048
925.896949,-9474.636058,-1184.329507,842.705048
925.897270,-10288.862594,-2516.700203,995.924147
925.897591,-11399.171507,-2664.741391,1915.238745
925.897911,-11843.295072,-3034.844362,2834.553343
925.898232,-11029.068536,-2072.576638,2298.286494
925.898553,-10140.821405,74.020594,1532.190996
925.898874,-8660.409521,814.226536,459.657299
925.899194,-8216.285956,370.102971,0.000000
925.899515,-7772.162391,0.000000,306.438199
925.899836,-9252.574275,-1332.370696,612.876398
925.900157,-9326.594869,-1776.494261,1378.971896
925.900477,-9474.636058,-1628.453072,1608.800546
925.900798,-9474.636058,74.020594,2374.896044
925.901119,-9770.718434,-222.061783,2451.505594
925.901440,-8808.450710,-666.185348,2068.457845
925.901760,-9252.574275,-1110.308913,383.047749
925.902081,-9326.594869,-518.144159,-306.438199
925.902402,-10066.800811,-444.123565,1149.143247
925.902723,-9696.697840,-1110.308913,995.924147
925.903043,-10140.821405,-962.267725,689.485948
925.903364,-9918.759623,-370.102971,536.266849
925.903685,-9030.512492,222.061783,842.705048
925.904006,-9622.677246,-74.020594,2145.067394
925.904326,-10436.903782,-888.247130,2911.162892
925.904647,-9918.759623,-1258.350101,2451.505594
925.904968,-9548.656652,296.082377,3064.381992
925.905289,-9992.780217,592.164754,1685.410096
925.905609,-9474.636058,1036.288319,1838.629195
925.905930,-9252.574275,296.082377,1532.190996
925.906251,-8438.347739,-518.144159,76.609550
925.906571,-9474.636058,-592.164754,-1225.752797
925.906892,-10362.883188,-148.041188,229.828649
925.907213,-10510.924376,-296.082377,1149.143247
925.907534,-10955.047942,0.000000,1149.143247
925.907854,-11325.150913,1184.329507,995.924147
925.908175,-10732.986159,1332.370696,1455.581446
925.908496,-9770.718434,814.226536,2068.457845
925.908817,-10288.862594,-296.082377,2451.505594
925.909137,-9696.697840,-1924.535449,229.828649
925.909458,-9252.574275,-1036.288319,1455.581446
925.909779,-9252.574275,-148.041188,612.876398
925.910100,-8438.347739,1184.329507,766.095498
925.910420,-9326.594869,1332.370696,1149.143247
925.910741,-9326.594869,518.144159,766.095498
925.911062,-8660.409521,-296.082377,-229.828649
925.911383,-9326.594869,0.000000,153.219100
925.911703,-10510.924376,-962.267725,1072.533697
925.912024,-10658.965565,-444.123565,689.485948
925.912345,-10436.903782,-740.205942,842.705048
925.912666,-9400.615463,-222.061783,76.609550
925.912986,-9030.512492,370.102971,459.657299
925.913307,-9252.574275,0.000000,766.095498
925.913628,-9178.553681,74.020594,2528.115143
925.913949,-10066.800811,-1258.350101,1991.848295
925.914269,-8882.471304,-1184.329507,842.705048
925.914590,-8956.491898,-370.102971,689.485948
925.914911,-8438.347739,444.123565,1149.143247
925.915232,-9252.574275,-444.123565,1838.629195
925.915552,-8586.388927,-1110.308913,612.876398
925.915873,-8882.471304,-1184.329507,-153.219100
925.916194,-9992.780217,-1036.288319,76.609550
925.916515,-10807.006753,-1258.350101,1685.410096
925.916835,-10955.047942,-1110.308913,1532.190996
925.917156,-11695.253884,0.000000,2145.067394
925.917477,-9548.656652,666.185348,1302.362347
925.917798,-10066.800811,370.102971,1378.971896
925.918118,-10584.944971,296.082377,2528.115143
925.918439,-9770.718434,0.000000,1915.238745
925.918760,-9770.718434,-814.226536,919.314598
925.919081,-8586.388927,-1332.370696,-306.438199
925.919401,-8364.327145,-148.041188,-612.876398
925.919722,-9104.533087,0.000000,689.485948
925.920043,-9178.553681,-296.082377,1302.362347
925.920364,-7994.224174,-296.082377,919.314598
925.920684,-10584.944971,-1332.370696,1149.143247
925.921005,-11547.212695,-2960.823768,1072.533697
925.921326,-10288.862594,-2960.823768,1608.800546
925.921647,-10584.944971,-2368.659014,536.266849
925.921967,-9622.677246,370.102971,153.219100
925.922288,-8956.491898,444.123565,536.266849
925.922609,-8882.471304,518.144159,689.485948
925.922930,-9548.656652,0.000000,1915.238745
925.923250,-9622.677246,-1554.432478,1455.581446
925.923571,-9252.574275,-1776.494261,1455.581446
925.923892,-8882.471304,-740.205942,766.095498
925.924213,-8956.491898,370.102971,995.924147
925.924533,-9400.615463,740.205942,2451.505594
925.924854,-7920.203579,370.102971,842.705048
925.925174,-8364.327145,666.185348,536.266849
925.925495,-11621.233289,-2738.761985,1838.629195
925.925816,-8512.368333,-2368.659014,1685.410096
925.926136,-9918.759623,-2368.659014,229.828649
925.926457,-11769.274478,222.061783,689.485948
925.926777,-8290.306550,1554.432478,536.266849
925.927098,-9696.697840,592.164754,919.314598
925.927419,-11103.089130,814.226536,2987.772442
925.927739,-8882.471304,-1702.473667,-153.219100
925.928060,-11473.192101,-1480.411884,1838.629195
925.928380,-7698.141797,-1628.453072,-689.485948
925.928701,-8290.306550,1110.308913,-2145.067394
925.929022,-8660.409521,740.205942,306.438199
925.929342,-6883.915261,1110.308913,-766.095498
925.929663,-9474.636058,888.247130,0.000000
925.929984,-12065.356855,592.164754,1838.629195
925.930304,-10732.986159,-296.082377,2451.505594
925.930625,-12583.501014,-1850.514855,2757.943793
925.930945,-11473.192101,148.041188,2298.286494
925.931266,-10881.027347,518.144159,1455.581446
925.931587,-9770.718434,1480.411884,612.876398
925.931907,-9326.594869,1110.308913,383.047749
925.932228,-8808.450710,1554.432478,1455.581446
925.932548,-9474.636058,-1036.288319,1072.533697
925.932869,-9030.512492,1110.308913,995.924147
925.933190,-9474.636058,1036.288319,1991.848295
925.933510,-8956.491898,518.144159,1532.190996
925.933831,-9474.636058,1924.535449,3294.210641
925.934151,-8956.491898,0.000000,2374.896044
925.934472,-9844.739029,-740.205942,1608.800546
925.934793,-9178.553681,-740.205942,1608.800546
925.935113,-9844.739029,-2812.782580,1455.581446
925.935434,-9918.759623,-1628.453072,766.095498
925.935755,-10066.800811,1184.329507,383.047749
925.936075,-8808.450710,1184.329507,229.828649
925.936396,-9178.553681,296.082377,919.314598
925.936716,-9474.636058,-148.041188,1838.629195
925.937037,-10362.883188,-2368.659014,2374.896044
925.937358,-10140.821405,-2664.741391,1838.629195
925.937678,-9252.574275,-1628.453072,1532.190996
925.937999,-9622.677246,0.000000,1762.019645
925.938319,-8882.471304,666.185348,1838.629195
925.938640,-8290.306550,666.185348,842.705048
925.938961,-8734.430116,74.020594,766.095498
925.939281,-9770.718434,-1036.288319,919.314598
925.939602,-9622.677246,-1332.370696,766.095498
925.939922,-10288.862594,-1332.370696,459.657299
925.940243,-10362.883188,-296.082377,689.485948
925.940564,-10214.842000,592.164754,536.266849
925.940884,-9178.553681,148.041188,612.876398
925.941205,-8882.471304,-296.082377,842.705048
925.941526,-10658.965565,-444.123565,1302.362347
925.941846,-10658.965565,-1850.514855,1225.752797
925.942167,-9844.739029,-2220.617826,306.438199
925.942487,-9474.636058,-814.226536,306.438199
925.942808,-9178.553681,222.061783,766.095498
925.943129,-9474.636058,0.000000,1685.410096
925.943449,-8808.450710,0.000000,995.924147
925.943770,-9696.697840,222.061783,536.266849
925.944090,-10510.924376,222.061783,536.266849
925.944411,-10362.883188,-296.082377,1302.362347
925.944732,-9622.677246,0.000000,229.828649
925.945052,-9844.739029,666.185348,306.438199
925.945373,-8808.450710,74.020594,-995.924147
925.945693,-9030.512492,-666.185348,459.657299
925.946014,-10214.842000,-1036.288319,2068.457845
925.946335,-11251.130318,-1480.411884,2834.553343
925.946655,-10881.027347,-1554.432478,2145.067394
925.946976,-9770.718434,-888.247130,1149.143247
925.947297,-9474.636058,0.000000,842.705048
925.947617,-8808.450710,296.082377,1378.971896
925.947938,-8290.306550,-1036.288319,383.047749
925.948258,-8068.244768,-1480.411884,-459.657299
925.948579,-8438.347739,-1924.535449,-842.705048
925.948900,-9622.677246,-1776.494261,689.485948
925.949220,-9770.718434,-1332.370696,1762.019645
925.949541,-10807.006753,0.000000,459.657299
925.949861,-9770.718434,370.102971,995.924147
925.950182,-9030.512492,-296.082377,229.828649
925.950503,-9178.553681,0.000000,1225.752797
925.950823,-10658.965565,-1258.350101,2298.286494
925.951144,-9696.697840,-1998.556043,1608.800546
925.951464,-9474.636058,-2368.659014,612.876398
925.951785,-8364.327145,148.041188,-229.828649
925.952106,-9622.677246,1258.350101,1302.362347
925.952426,-9770.718434,1850.514855,2298.286494
925.952747,-9326.594869,666.185348,1838.629195
925.953068,-9474.636058,-592.164754,459.657299
925.953388,-10140.821405,-1184.329507,1685.410096
925.953709,-11103.089130,-444.123565,2834.553343
925.954029,-10955.047942,444.123565,2221.676944
925.954350,-9992.780217,1998.556043,1532.190996
925.954671,-8808.450710,1406.391290,612.876398
925.954991,-8586.388927,666.185348,76.609550
925.955312,-10214.842000,222.061783,766.095498
925.955632,-10732.986159,0.000000,2374.896044
925.955953,-10510.924376,-370.102971,1685.410096
925.956274,-10066.800811,0.000000,1532.190996
925.956594,-8438.347739,444.123565,536.266849
925.956915,-9622.677246,888.247130,1608.800546
925.957235,-9030.512492,296.082377,1302.362347
925.957556,-9252.574275,296.082377,919.314598
925.957877,-9474.636058,0.000000,689.485948
925.958197,-10214.842000,-1110.308913,1685.410096
925.958518,-10066.800811,0.000000,2528.115143
925.958839,-10658.965565,-370.102971,2221.676944
925.959159,-8956.491898,-518.144159,536.266849
925.959480,-8660.409521,148.041188,0.000000
925.959800,-9548.656652,0.000000,689.485948
925.960121,-9326.594869,-148.041188,1455.581446
925.960442,-10362.883188,-1036.288319,1762.019645
925.960762,-9326.594869,-666.185348,1072.533697
925.961083,-9548.656652,0.000000,-612.876398
925.961403,-10140.821405,1406.391290,995.924147
925.961724,-9400.615463,518.144159,1225.752797
925.962045,-9252.574275,1110.308913,689.485948
925.962365,-9252.574275,222.061783,612.876398
925.962686,-9474.636058,-740.205942,766.095498
925.963006,-10140.821405,-1628.453072,1455.581446
925.963327,-10214.842000,-814.226536,1378.971896
925.963648,-8956.491898,0.000000,766.095498
925.963968,-8882.471304,0.000000,0.000000
925.964289,-8734.430116,0.000000,536.266849
925.964610,-9474.636058,-296.082377,383.047749
925.964930,-9918.759623,-1924.535449,766.095498
925.965251,-9918.759623,-2220.617826,1149.143247
925.965571,-9770.718434,-1480.411884,536.266849
925.965892,-9844.739029,-296.082377,1072.533697
925.966213,-9696.697840,74.020594,2681.334243
925.966533,-9104.533087,-592.164754,1072.533697
925.966854,-9474.636058,-1184.329507,153.219100
925.967174,-9474.636058,-444.123565,-153.219100
925.967495,-9474.636058,-444.123565,919.314598
925.967816,-10510.924376,-1924.535449,1838.629195
925.968136,-9178.553681,-740.205942,1838.629195
925.968457,-9548.656652,-1480.411884,689.485948
925.968777,-8290.306550,-148.041188,766.095498
925.969098,-9400.615463,-666.185348,1762.019645
925.969419,-10214.842000,-592.164754,1685.410096
925.969739,-9548.656652,-1110.308913,1378.971896
925.970060,-9400.615463,-1702.473667,0.000000
925.970381,-8364.327145,0.000000,-383.047749
925.970701,-10362.883188,-222.061783,612.876398
925.971022,-9252.574275,74.020594,1378.971896
925.971342,-9400.615463,-148.041188,459.657299
925.971663,-9992.780217,-148.041188,689.485948
925.971984,-9178.553681,-1258.350101,2145.067394
925.972304,-10436.903782,-1406.391290,2068.457845
925.972625,-10658.965565,-814.226536,1762.019645
925.972945,-9326.594869,-740.205942,383.047749
925.973266,-7846.182985,-962.267725,153.219100
925.973587,-8734.430116,-444.123565,1072.533697
925.973907,-9918.759623,-888.247130,919.314598
925.974228,-10510.924376,-1332.370696,1991.848295
925.974548,-9918.759623,-1850.514855,995.924147
925.974869,-9844.739029,-740.205942,383.047749
925.975190,-9622.677246,222.061783,536.266849
925.975510,-9252.574275,592.164754,1072.533697
925.975831,-8660.409521,0.000000,76.609550
925.976152,-8142.265362,0.000000,-1685.410096
925.976472,-9548.656652,-666.185348,0.000000
925.976793,-9622.677246,-148.041188,995.924147
925.977113,-10436.903782,0.000000,1838.629195
925.977434,-10436.903782,1702.473667,766.095498
925.977755,-9252.574275,1628.453072,1762.019645
925.978075,-9770.718434,1036.288319,1685.410096
925.978396,-9548.656652,1924.535449,3064.381992
925.978716,-9992.780217,-444.123565,2451.505594
925.979037,-9104.533087,-1480.411884,995.924147
925.979358,-8142.265362,-1554.432478,-1225.752797
925.979678,-7994.224174,222.061783,-1302.362347
925.979999,-8808.450710,1332.370696,0.000000
925.980319,-8882.471304,2886.803174,1302.362347
925.980640,-9992.780217,1110.308913,1685.410096
925.980961,-10510.924376,-222.061783,2374.896044
925.981281,-10807.006753,-1924.535449,3140.991542
925.981602,-10955.047942,-3256.906145,3677.258390
925.981923,-10732.986159,-2146.597232,3294.210641
925.982243,-9622.677246,518.144159,2451.505594
925.982564,-8734.430116,740.205942,1072.533697
925.982884,-7550.100608,1776.494261,1302.362347
925.983205,-9030.512492,740.205942,919.314598
925.983526,-9400.615463,-1110.308913,995.924147
925.983846,-9030.512492,-1110.308913,689.485948
925.984167,-9400.615463,-518.144159,842.705048
925.984487,-9992.780217,518.144159,2451.505594
925.984808,-10436.903782,0.000000,2681.334243
925.985129,-9622.677246,-444.123565,2374.896044
925.985449,-9918.759623,-296.082377,1455.581446
925.985770,-10658.965565,-296.082377,1991.848295
925.986090,-9474.636058,-518.144159,842.705048
925.986411,-10362.883188,222.061783,766.095498
925.986732,-10140.821405,1480.411884,383.047749
925.987052,-8586.388927,1776.494261,0.000000
925.987373,-9178.553681,518.144159,766.095498
925.987694,-9400.615463,74.020594,1378.971896
925.988014,-10732.986159,-1332.370696,1685.410096
925.988335,-10140.821405,-1924.535449,1838.629195
925.988655,-9844.739029,-1628.453072,76.609550
925.988976,-9104.533087,222.061783,612.876398
925.989297,-9548.656652,0.000000,536.266849
925.989617,-8512.368333,-370.102971,229.828649
925.989938,-8882.471304,-888.247130,-766.095498
925.990258,-9474.636058,-962.267725,-1225.752797
925.990579,-9992.780217,-1036.288319,459.657299
925.990900,-10658.965565,-1110.308913,1225.752797
925.991220,-10732.986159,0.000000,1378.971896
925.991541,-9770.718434,296.082377,536.266849
925.991861,-8956.491898,-444.123565,459.657299
925.992182,-8586.388927,-592.164754,689.485948
925.992503,-9548.656652,-1332.370696,919.314598
925.992823,-9326.594869,-2146.597232,612.876398
925.993144,-8216.285956,-962.267725,-612.876398
925.993465,-8808.450710,-518.144159,-536.266849
925.993785,-9400.615463,518.144159,306.438199
925.994106,-9622.677246,0.000000,1685.410096
925.994426,-9474.636058,-740.205942,2298.286494
925.994747,-9474.636058,-1554.432478,536.266849
925.995068,-10584.944971,-2442.679609,536.266849
925.995388,-10584.944971,-2368.659014,1685.410096
925.995709,-10066.800811,-518.144159,1455.581446
925.996029,-9696.697840,1036.288319,1072.533697
925.996350,-7994.224174,1480.411884,536.266849
925.996671,-9030.512492,-370.102971,1225.752797
925.996991,-9548.656652,-814.226536,2451.505594
925.997312,-10732.986159,-814.226536,3907.087040
925.997632,-10510.924376,-2146.597232,2757.943793
925.997953,-9770.718434,-666.185348,2221.676944
925.998274,-10140.821405,1036.288319,1225.752797
925.998594,-10066.800811,1628.453072,1762.019645
925.998915,-9326.594869,814.226536,1455.581446
925.999236,-8586.388927,-518.144159,-229.828649
925.999556,-9622.677246,-1406.391290,-842.705048
925.999877,-9770.718434,-1924.535449,0.000000
926.000197,-9622.677246,-888.247130,1532.190996
926.000518,-10807.006753,-296.082377,2068.457845
926.000839,-10140.821405,222.061783,1915.238745
926.001159,-9178.553681,888.247130,1455.581446
926.001480,-10362.883188,1702.473667,2374.896044
926.001800,-10288.862594,666.185348,3064.381992
926.002121,-9918.759623,-518.144159,2221.676944
926.002442,-9252.574275,-1406.391290,383.047749
926.002762,-8142.265362,-74.020594,919.314598
926.003083,-8068.244768,222.061783,-76.609550
926.003403,-9030.512492,0.000000,1149.143247
926.003724,-8586.388927,0.000000,612.876398
926.004045,-9252.574275,-370.102971,0.000000
926.004365,-10584.944971,-666.185348,689.485948
926.004686,-10288.862594,-888.247130,1608.800546
926.005007,-11029.068536,0.000000,1455.581446
926.005327,-10362.883188,1332.370696,1762.019645
926.005648,-9178.553681,-222.061783,0.000000
926.005968,-8216.285956,296.082377,689.485948
926.006289,-9992.780217,-222.061783,1608.800546
926.006610,-9326.594869,0.000000,1149.143247
926.006930,-10510.924376,-370.102971,842.705048
926.007251,-8956.491898,-222.061783,0.000000
926.007571,-9252.574275,1628.453072,0.000000
926.007892,-9844.739029,888.247130,1072.533697
926.008213,-9474.636058,962.267725,1378.971896
926.008533,-9770.718434,-148.041188,919.314598
926.008854,-10732.986159,-740.205942,306.438199
926.009174,-9992.780217,-592.164754,689.485948
926.009495,-10807.006753,-1036.288319,1225.752797
926.009816,-10362.883188,0.000000,459.657299
926.010136,-9770.718434,1332.370696,1149.143247
926.010457,-8660.409521,666.185348,1149.143247
926.010778,-9252.574275,-222.061783,1685.410096
926.011098,-10584.944971,-888.247130,2911.162892
926.011419,-9918.759623,-2368.659014,2298.286494
926.011739,-9474.636058,-1924.535449,1225.752797
926.012060,-8438.347739,-444.123565,459.657299
926.012381,-8808.450710,-296.082377,459.657299
926.012701,-8586.388927,-592.164754,919.314598
926.013022,-8290.306550,-1776.494261,76.609550
926.013342,-8882.471304,-1850.514855,-536.266849
926.013663,-10140.821405,-2146.597232,919.314598
926.013984,-9326.594869,-814.226536,1225.752797
926.014304,-10955.047942,-592.164754,2451.505594
926.014625,-10584.944971,148.041188,1915.238745
926.014945,-8586.388927,666.185348,919.314598
926.015266,-8068.244768,1258.350101,1149.143247
926.015587,-9326.594869,0.000000,1302.362347
926.015907,-8734.430116,-740.205942,1991.848295
926.016228,-8808.450710,-1850.514855,1072.533697
926.016549,-7994.224174,-1332.370696,-766.095498
926.016869,-8586.388927,74.020594,306.438199
926.017190,-9548.656652,296.082377,1072.533697
926.017510,-8882.471304,-148.041188,995.924147
926.017831,-9696.697840,-592.164754,306.438199
926.018152,-10214.842000,-1406.391290,-459.657299
926.018472,-11103.089130,-1850.514855,919.314598
926.018793,-11177.109724,-962.267725,1685.410096
926.019113,-10732.986159,592.164754,1455.581446
926.019434,-9474.636058,888.247130,229.828649
926.019755,-8956.491898,222.061783,229.828649
926.020075,-9474.636058,-296.082377,536.266849
926.020396,-9992.780217,-814.226536,1915.238745
926.020716,-10140.821405,-1998.556043,2221.676944
926.021037,-9696.697840,-1258.350101,1072.533697
926.021358,-9252.574275,-592.164754,229.828649
926.021678,-9326.594869,592.164754,612.876398
926.021999,-9474.636058,740.205942,1378.971896
926.022320,-8956.491898,-222.061783,1762.019645
926.022640,-9918.759623,-222.061783,919.314598
926.022961,-10807.006753,-962.267725,919.314598
926.023281,-10584.944971,-1776.494261,1302.362347
926.023602,-10732.986159,-296.082377,2834.553343
926.023923,-9844.739029,888.247130,1225.752797
926.024243,-9178.553681,1184.329507,995.924147
926.024564,-9030.512492,1258.350101,1685.410096
926.024884,-9548.656652,814.226536,2681.334243
926.025205,-10436.903782,-296.082377,3217.601092
926.025526,-10362.883188,0.000000,3217.601092
926.025846,-9918.759623,148.041188,1991.848295
926.026167,-9104.533087,1184.329507,1762.019645
926.026487,-9770.718434,-444.123565,995.924147
926.026808,-7698.141797,222.061783,229.828649
926.027128,-7476.080014,-1406.391290,-1149.143247
926.027449,-8882.471304,-444.123565,-229.828649
926.027770,-8660.409521,-962.267725,-153.219100
926.028090,-10214.842000,-888.247130,1685.410096
926.028411,-10955.047942,-148.041188,2068.457845
926.028731,-10732.986159,666.185348,2374.896044
926.029052,-9992.780217,0.000000,2834.553343
926.029373,-9252.574275,-592.164754,3140.991542
926.029693,-10214.842000,-888.247130,2451.505594
926.030014,-9918.759623,-1110.308913,2145.067394
926.030334,-8586.388927,-518.144159,1072.533697
926.030655,-8216.285956,740.205942,229.828649
926.030976,-8512.368333,2886.803174,1685.410096
926.031296,-11251.130318,-1628.453072,1378.971896
926.031617,-7550.100608,1184.329507,-306.438199
926.031937,-10584.944971,-2294.638420,-1532.190996
926.032258,-9696.697840,-592.164754,153.219100
926.032578,-9030.512492,-1776.494261,-536.266849
926.032899,-11177.109724,-444.123565,612.876398
926.033220,-10288.862594,1036.288319,229.828649
926.033540,-7994.224174,296.082377,-1608.800546
926.033861,-12287.418637,1184.329507,3064.381992
926.034181,-9326.594869,-296.082377,2298.286494
926.034502,-12213.398043,-1480.411884,2451.505594
926.034823,-11399.171507,-1702.473667,3447.429741
926.035143,-8068.244768,-2146.597232,383.047749
926.035464,-9770.718434,-1184.329507,383.047749
926.035784,-9252.574275,0.000000,919.314598
926.036105,-7105.977043,222.061783,-766.095498
926.036426,-8512.368333,-592.164754,-1149.143247
926.036746,-8808.450710,-1184.329507,-459.657299
926.037067,-9178.553681,-1554.432478,842.705048
926.037387,-11695.253884,-2812.782580,1838.629195
926.037708,-9770.718434,-1258.350101,1838.629195
926.038029,-9918.759623,0.000000,1455.581446
926.038349,-9622.677246,-148.041188,1455.581446
926.038670,-9548.656652,1110.308913,3140.991542
926.038990,-10140.821405,-444.123565,2221.676944
926.039311,-9474.636058,-740.205942,1378.971896
926.039631,-8734.430116,-592.164754,306.438199
926.039952,-8438.347739,0.000000,-306.438199
926.040273,-8882.471304,0.000000,459.657299
926.040593,-8142.265362,-370.102971,1685.410096
926.040914,-8364.327145,-1702.473667,306.438199
926.041234,-9474.636058,-2220.617826,459.657299
926.041555,-9622.677246,-2294.638420,1838.629195
926.041876,-11547.212695,-3034.844362,1378.971896
926.042196,-11177.109724,-962.267725,1685.410096
926.042517,-9696.697840,0.000000,383.047749
926.042837,-8956.491898,0.000000,-153.219100
926.043158,-9400.615463,444.123565,766.095498
926.043479,-8882.471304,296.082377,1532.190996
926.043799,-10066.800811,-2368.659014,1225.752797
926.044120,-8882.471304,-1480.411884,919.314598
926.044440,-9770.718434,-1628.453072,0.000000
926.044761,-10362.883188,444.123565,1225.752797
926.045081,-10140.821405,888.247130,2911.162892
926.045402,-9326.594869,-444.123565,1762.019645
926.045723,-8956.491898,-592.164754,306.438199
926.046043,-10362.883188,-518.144159,153.219100
926.046364,-10584.944971,-740.205942,1608.800546
926.046684,-10732.986159,-222.061783,1302.362347
926.047005,-10584.944971,1110.308913,689.485948
926.047326,-9178.553681,1998.556043,383.047749
926.047646,-9992.780217,2072.576638,1455.581446
926.047967,-10436.903782,1554.432478,2987.772442
926.048287,-10732.986159,962.267725,2911.162892
926.048608,-9770.718434,296.082377,2221.676944
926.048929,-9696.697840,814.226536,1072.533697
926.049249,-9178.553681,518.144159,1225.752797
926.049570,-8808.450710,296.082377,612.876398
926.049890,-7994.224174,0.000000,229.828649
926.050211,-7550.100608,148.041188,229.828649
926.050532,-9326.594869,0.000000,306.438199
926.050852,-10584.944971,222.061783,2374.896044
926.051173,-11547.212695,-888.247130,2681.334243
926.051493,-10732.986159,-370.102971,1838.629195
926.051814,-10510.924376,0.000000,1608.800546
926.052134,-9326.594869,222.061783,153.219100
926.052455,-8512.368333,592.164754,1685.410096
926.052776,-9622.677246,-1924.535449,1072.533697
926.053096,-8438.347739,-296.082377,0.000000
926.053417,-9474.636058,-1406.391290,-842.705048
926.053737,-8734.430116,296.082377,0.000000
926.054058,-9252.574275,1110.308913,1149.143247
926.054379,-9548.656652,666.185348,2374.896044
926.054699,-9030.512492,-740.205942,536.266849
926.055020,-9326.594869,-296.082377,-153.219100
926.055340,-10510.924376,-444.123565,1149.143247
926.055661,-10140.821405,-1406.391290,1532.190996
926.055982,-10658.965565,-296.082377,1455.581446
926.056302,-10510.924376,592.164754,459.657299
926.056623,-9178.553681,888.247130,0.000000
926.056943,-9252.574275,1850.514855,0.000000
926.057264,-9918.759623,518.144159,1991.848295
926.057585,-9918.759623,-148.041188,1685.410096
926.057905,-10214.842000,-1628.453072,459.657299
926.058226,-9326.594869,-1258.350101,153.219100
926.058546,-9030.512492,-1110.308913,2298.286494
926.058867,-9844.739029,-518.144159,1838.629195
926.059187,-9178.553681,-444.123565,1608.800546
926.059508,-8660.409521,-1036.288319,459.657299
926.059829,-9770.718434,-1776.494261,383.047749
926.060149,-9844.739029,-2442.679609,1149.143247
926.060470,-10140.821405,-2664.741391,1378.971896
926.060790,-10214.842000,-1702.473667,1302.362347
926.061111,-9252.574275,-1036.288319,842.705048
926.061432,-9326.594869,-1554.432478,1455.581446
926.061752,-8734.430116,-1776.494261,766.095498
926.062073,-9548.656652,-1554.432478,1378.971896
926.062393,-9548.656652,-1776.494261,1302.362347
926.062714,-9400.615463,-1776.494261,919.314598
926.063035,-9252.574275,-666.185348,766.095498
926.063355,-9178.553681,0.000000,1608.800546
926.063676,-9252.574275,-1036.288319,1685.410096
926.063996,-8586.388927,-962.267725,689.485948
926.064317,-8882.471304,-962.267725,153.219100
926.064637,-9844.739029,-370.102971,1149.143247
926.064958,-9696.697840,-296.082377,1149.143247
926.065279,-10140.821405,0.000000,1608.800546
926.065599,-10140.821405,444.123565,1225.752797
926.065920,-8586.388927,370.102971,0.000000
926.066240,-9548.656652,-296.082377,919.314598
926.066561,-9992.780217,-296.082377,2451.505594
926.066882,-10658.965565,0.000000,3294.210641
926.067202,-10881.027347,-592.164754,1915.238745
926.067523,-9770.718434,0.000000,689.485948
926.067843,-9474.636058,444.123565,0.000000
926.068164,-9622.677246,1036.288319,1149.143247
926.068485,-8808.450710,1184.329507,383.047749
926.068805,-9400.615463,518.144159,-229.828649
926.069126,-9696.697840,-370.102971,0.000000
926.069446,-9548.656652,-1406.391290,153.219100
926.069767,-10584.944971,-1110.308913,689.485948
926.070088,-10955.047942,296.082377,1149.143247
926.070408,-9844.739029,1036.288319,459.657299
926.070729,-9030.512492,592.164754,459.657299
926.071049,-9104.533087,-222.061783,2374.896044
926.071370,-9770.718434,222.061783,1455.581446
926.071690,-10362.883188,-1110.308913,1455.581446
926.072011,-9696.697840,-296.082377,919.314598
926.072332,-9326.594869,592.164754,0.000000
926.072652,-8956.491898,1332.370696,229.828649
926.072973,-9178.553681,1480.411884,1378.971896
926.073293,-9178.553681,1184.329507,1225.752797
926.073614,-9474.636058,444.123565,995.924147
926.073935,-9622.677246,-370.102971,995.924147
926.074255,-10362.883188,-1036.288319,2298.286494
926.074576,-10510.924376,-444.123565,2528.115143
926.074896,-10436.903782,296.082377,2604.724693
926.075217,-7772.162391,1406.391290,0.000000
926.075538,-9178.553681,370.102971,1455.581446
926.075858,-8216.285956,1184.329507,2068.457845
926.076179,-10584.944971,-666.185348,2374.896044
926.076499,-10066.800811,-814.226536,2374.896044
926.076820,-9474.636058,-592.164754,919.314598
926.077140,-9992.780217,-962.267725,1685.410096
926.077461,-9696.697840,74.020594,2298.286494
926.077782,-9992.780217,74.020594,2221.676944
926.078102,-9400.615463,-518.144159,1072.533697
926.078423,-9548.656652,-666.185348,766.095498
926.078743,-9918.759623,-1480.411884,1532.190996
926.079064,-10288.862594,-1480.411884,1608.800546
926.079385,-10362.883188,296.082377,459.657299
926.079705,-9770.718434,296.082377,1072.533697
926.080026,-9252.574275,0.000000,766.095498
926.080346,-9992.780217,-444.123565,2145.067394
926.080667,-10732.986159,-1258.350101,2145.067394
926.080988,-11103.089130,-2072.576638,1455.581446
926.081308,-10066.800811,-1036.288319,1685.410096
926.081629,-10214.842000,0.000000,689.485948
926.081949,-9474.636058,296.082377,919.314598
926.082270,-9622.677246,-888.247130,0.000000
926.082591,-7402.059420,-74.020594,-1378.971896
926.082911,-8734.430116,-1406.391290,-2374.896044
926.083232,-9474.636058,-518.144159,-459.657299
926.083552,-9770.718434,-444.123565,1762.019645
926.083873,-10362.883188,-962.267725,229.828649
926.084193,-9104.533087,0.000000,-459.657299
926.084514,-8882.471304,518.144159,-306.438199
926.084835,-9400.615463,888.247130,1225.752797
926.085155,-10955.047942,148.041188,2757.943793
926.085476,-10214.842000,-1776.494261,2911.162892
926.085796,-9252.574275,-2072.576638,2374.896044
926.086117,-11103.089130,-4145.153275,0.000000
926.086438,-7550.100608,-296.082377,1225.752797
926.086758,-9770.718434,-592.164754,536.266849
926.087079,-7994.224174,1110.308913,1991.848295
926.087399,-7698.141797,-518.144159,-459.657299
926.087720,-9622.677246,-1406.391290,1378.971896
926.088041,-9252.574275,-2738.761985,0.000000
926.088361,-9918.759623,-2072.576638,842.705048
926.088682,-10955.047942,148.041188,2834.553343
926.089002,-8364.327145,666.185348,1225.752797
926.089323,-9474.636058,0.000000,229.828649
926.089643,-8808.450710,-518.144159,1455.581446
926.089964,-9622.677246,-2220.617826,229.828649
926.090285,-10362.883188,-2072.576638,1225.752797
926.090605,-9696.697840,-2368.659014,-766.095498
926.090926,-8808.450710,296.082377,229.828649
926.091246,-9992.780217,592.164754,1149.143247
926.091567,-9326.594869,74.020594,1378.971896
926.091888,-9474.636058,0.000000,1608.800546
926.092208,-10955.047942,-592.164754,1838.629195
926.092529,-10584.944971,-740.205942,1991.848295
926.092849,-11029.068536,-740.205942,2298.286494
926.093170,-10807.006753,444.123565,2298.286494
926.093491,-9474.636058,1924.535449,1378.971896
926.093811,-8734.430116,1184.329507,536.266849
926.094132,-8660.409521,1036.288319,842.705048
926.094452,-9696.697840,888.247130,1685.410096
926.094773,-9030.512492,0.000000,2068.457845
926.095094,-10214.842000,-370.102971,1685.410096
926.095414,-9474.636058,444.123565,536.266849
926.095735,-9474.636058,814.226536,459.657299
926.096055,-9844.739029,1480.411884,1608.800546
926.096376,-8956.491898,888.247130,1838.629195
926.096696,-9474.636058,-814.226536,1149.143247
926.097017,-9918.759623,-1110.308913,1608.800546
926.097338,-9770.718434,-2294.638420,1838.629195
926.097658,-9474.636058,-1776.494261,2221.676944
926.097979,-9622.677246,148.041188,1378.971896
926.098299,-8364.327145,1036.288319,459.657299
926.098620,-7550.100608,1628.453072,0.000000
926.098941,-8808.450710,1998.556043,1225.752797
926.099261,-9844.739029,518.144159,2068.457845
926.099582,-10658.965565,-1332.370696,2221.676944
926.099902,-9474.636058,-1258.350101,1302.362347
926.100223,-8956.491898,-222.061783,-306.438199
926.100544,-9696.697840,888.247130,383.047749
926.100864,-8808.450710,518.144159,1072.533697
926.101185,-8068.244768,74.020594,0.000000
926.101505,-9252.574275,-296.082377,-612.876398
926.101826,-9178.553681,-1036.288319,0.000000
926.102147,-10955.047942,-814.226536,2145.067394
926.102467,-11325.150913,0.000000,2911.162892
926.102788,-10807.006753,814.226536,3217.601092
926.103108,-10066.800811,370.102971,2987.772442
926.103429,-9918.759623,-814.226536,3600.648841
926.103749,-9992.780217,-1036.288319,1915.238745
926.104070,-10214.842000,-1998.556043,842.705048
926.104391,-8512.368333,-962.267725,0.000000
926.104711,-8734.430116,-444.123565,-995.924147
926.105032,-9104.533087,518.144159,-612.876398
926.105352,-9474.636058,-148.041188,459.657299
926.105673,-9326.594869,-1258.350101,306.438199
926.105994,-9992.780217,-1332.370696,229.828649
926.106314,-11843.295072,-1258.350101,1532.190996
926.106635,-10807.006753,-1184.329507,2145.067394
926.106955,-10881.027347,-814.226536,1991.848295
926.107276,-10214.842000,222.061783,1455.581446
926.107597,-7920.203579,222.061783,0.000000
926.107917,-8512.368333,-370.102971,-842.705048
926.108238,-7994.224174,222.061783,536.266849
926.108558,-9918.759623,-1110.308913,1532.190996
926.108879,-9918.759623,-2072.576638,919.314598
926.109199,-9178.553681,-1036.288319,-306.438199
926.109520,-9474.636058,-814.226536,-766.095498
926.109841,-9178.553681,0.000000,612.876398
926.110161,-9326.594869,-592.164754,766.095498
926.110482,-8512.368333,-296.082377,919.314598
926.110802,-9622.677246,-1554.432478,0.000000
926.111123,-9992.780217,-962.267725,1532.190996
926.111444,-10658.965565,-1628.453072,1838.629195
926.111764,-10510.924376,-518.144159,1455.581446
926.112085,-9252.574275,0.000000,766.095498
926.112405,-7920.203579,74.020594,76.609550
926.112726,-8956.491898,0.000000,1378.971896
926.113047,-9696.697840,-888.247130,2298.286494
926.113367,-10214.842000,-1702.473667,2298.286494
926.113688,-9770.718434,-2368.659014,1532.190996
926.114008,-9178.553681,-1406.391290,153.219100
926.114329,-9104.533087,0.000000,1455.581446
926.114650,-9622.677246,-888.247130,2528.115143
926.114970,-9104.533087,-740.205942,1608.800546
926.115291,-10214.842000,-1332.370696,995.924147
926.115611,-10658.965565,-1998.556043,1072.533697
926.115932,-10658.965565,-592.164754,1225.752797
926.116252,-11251.130318,148.041188,2068.457845
926.116573,-10140.821405,1628.453072,1455.581446
926.116894,-9178.553681,2516.700203,689.485948
926.117214,-9178.553681,2146.597232,1302.362347
926.117535,-9622.677246,2294.638420,1991.848295
926.117855,-11251.130318,222.061783,2834.553343
926.118176,-10140.821405,-1184.329507,2451.505594
926.118497,-8734.430116,-370.102971,536.266849
926.118817,-8290.306550,962.267725,1149.143247
926.119138,-9474.636058,2146.597232,1072.533697
926.119458,-8956.491898,1554.432478,1072.533697
926.119779,-8512.368333,222.061783,0.000000
926.120100,-9474.636058,-814.226536,1149.143247
926.120420,-9992.780217,-1480.411884,536.266849
926.120741,-10436.903782,-1184.329507,1608.800546
926.121061,-10881.027347,-518.144159,2451.505594
926.121382,-8734.430116,1480.411884,1685.410096
926.121702,-9252.574275,888.247130,2145.067394
926.122023,-9474.636058,74.020594,1838.629195
926.122344,-9326.594869,296.082377,2068.457845
926.122664,-9548.656652,-1554.432478,1685.410096
926.122985,-8290.306550,-370.102971,-153.219100
926.123305,-8882.471304,0.000000,153.219100
926.123626,-8660.409521,1332.370696,459.657299
926.123947,-8734.430116,296.082377,842.705048
926.124267,-8438.347739,-592.164754,306.438199
926.124588,-9400.615463,-1480.411884,-229.828649
926.124908,-10584.944971,-1776.494261,842.705048
926.125229,-10510.924376,-1184.329507,2145.067394
926.125550,-11251.130318,0.000000,2451.505594
926.125870,-10881.027347,888.247130,1915.238745
926.126191,-9030.512492,518.144159,1225.752797
926.126512,-9474.636058,444.123565,1532.190996
926.126832,-9548.656652,-296.082377,2068.457845
926.127153,-9992.780217,-222.061783,1838.629195
926.127474,-9844.739029,-1554.432478,1302.362347
926.127795,-9030.512492,0.000000,76.609550
926.128115,-9474.636058,1406.391290,536.266849
926.128436,-9400.615463,888.247130,1455.581446
926.128757,-9474.636058,-666.185348,612.876398
926.129077,-9548.656652,-1184.329507,0.000000
926.129398,-10510.924376,-1850.514855,612.876398
926.129719,-10881.027347,-1406.391290,1225.752797
926.130040,-12065.356855,-962.267725,1302.362347
926.130360,-10584.944971,518.144159,1302.362347
926.130681,-10140.821405,518.144159,1302.362347
926.131002,-8364.327145,222.061783,229.828649
926.131322,-9474.636058,0.000000,1532.190996
926.131643,-9696.697840,-444.123565,1685.410096
926.131964,-9844.739029,-1184.329507,1838.629195
926.132285,-10066.800811,-2146.597232,919.314598
926.132605,-8364.327145,0.000000,153.219100
926.132926,-9030.512492,-296.082377,1302.362347
926.133247,-8882.471304,-1332.370696,919.314598
926.133568,-8290.306550,-1332.370696,229.828649
926.133888,-9696.697840,-2220.617826,-842.705048
926.134209,-10288.862594,-1924.535449,689.485948
926.134530,-10066.800811,-1776.494261,766.095498
926.134850,-10881.027347,-1850.514855,612.876398
926.135171,-9844.739029,-296.082377,0.000000
926.135492,-8142.265362,592.164754,0.000000
926.135813,-8068.244768,444.123565,0.000000
926.136133,-8512.368333,0.000000,689.485948
926.136454,-9104.533087,-370.102971,1225.752797
926.136775,-8956.491898,-2368.659014,-153.219100
926.137096,-8216.285956,-814.226536,766.095498
926.137416,-9400.615463,-962.267725,1225.752797
926.137737,-9326.594869,-1110.308913,2374.896044
926.138058,-9696.697840,-814.226536,2298.286494
926.138378,-8586.388927,74.020594,1072.533697
926.138699,-10584.944971,-888.247130,1302.362347
926.139020,-10288.862594,-592.164754,1608.800546
926.139341,-10510.924376,-740.205942,842.705048
926.139661,-10140.821405,1110.308913,-229.828649
926.139982,-9252.574275,1110.308913,0.000000
926.140303,-8512.368333,1406.391290,612.876398
926.140624,-10288.862594,962.267725,2374.896044
926.140944,-10807.006753,370.102971,3140.991542
926.141265,-10881.027347,-370.102971,2757.943793
926.141586,-10584.944971,296.082377,2221.676944
926.141906,-9770.718434,1628.453072,1532.190996
926.142227,-9326.594869,1850.514855,2145.067394
926.142548,-8512.368333,1480.411884,1608.800546
926.142869,-8438.347739,-444.123565,76.609550
926.143189,-9326.594869,-1332.370696,-383.047749
926.143510,-9918.759623,-1554.432478,459.657299
926.143831,-10584.944971,-1480.411884,1838.629195
926.144151,-11473.192101,296.082377,1991.848295
926.144472,-10955.047942,1850.514855,1915.238745
926.144793,-9696.697840,1776.494261,2068.457845
926.145114,-9474.636058,666.185348,2987.772442
926.145434,-10881.027347,0.000000,3064.381992
926.145755,-9844.739029,-1554.432478,2451.505594
926.146076,-9030.512492,-1628.453072,1915.238745
926.146397,-8216.285956,-222.061783,1225.752797
926.146717,-7846.182985,148.041188,76.609550
926.147038,-8068.244768,592.164754,995.924147
926.147359,-7994.224174,148.041188,0.000000
926.147679,-8290.306550,740.205942,-153.219100
926.148000,-10140.821405,-962.267725,612.876398
926.148321,-10214.842000,-2294.638420,1302.362347
926.148642,-10807.006753,-2220.617826,1225.752797
926.148962,-10288.862594,-1110.308913,612.876398
926.149283,-8956.491898,0.000000,459.657299
926.149604,-9474.636058,222.061783,995.924147
926.149925,-9696.697840,370.102971,2068.457845
926.150245,-10288.862594,-592.164754,1685.410096
926.150566,-9030.512492,-814.226536,995.924147
926.150887,-9696.697840,-1702.473667,-229.828649
926.151207,-8364.327145,296.082377,-229.828649
926.151528,-8956.491898,222.061783,383.047749
926.151849,-8438.347739,-148.041188,536.266849
926.152170,-8438.347739,-888.247130,0.000000
926.152490,-9918.759623,-1406.391290,-612.876398
926.152811,-10436.903782,-2072.576638,0.000000
926.153132,-10658.965565,-1332.370696,689.485948
926.153453,-11029.068536,74.020594,1072.533697
926.153773,-10658.965565,296.082377,919.314598
926.154094,-9252.574275,518.144159,919.314598
926.154415,-10510.924376,-518.144159,2451.505594
926.154735,-11399.171507,-1776.494261,2911.162892
926.155056,-11029.068536,-1998.556043,3447.429741
926.155377,-10510.924376,-1850.514855,1378.971896
926.155698,-8438.347739,148.041188,766.095498
926.156018,-9474.636058,296.082377,689.485948
926.156339,-8068.244768,148.041188,0.000000
926.156660,-7476.080014,-1480.411884,-689.485948
926.156980,-7920.203579,-962.267725,-995.924147
926.157301,-9770.718434,-1480.411884,1072.533697
926.157622,-11325.150913,-1480.411884,2681.334243
926.157943,-11843.295072,-1036.288319,3753.867940
926.158263,-11325.150913,-814.226536,3140.991542
926.158584,-9918.759623,-888.247130,1762.019645
926.158905,-9252.574275,-1184.329507,1455.581446
926.159226,-9178.553681,-962.267725,1532.190996
926.159546,-9030.512492,-740.205942,1149.143247
926.159867,-8068.244768,-1628.453072,-612.876398
926.160188,-7550.100608,-888.247130,-1378.971896
926.160508,-7698.141797,-148.041188,-2451.505594
926.160829,-8882.471304,222.061783,383.047749
926.161150,-9400.615463,740.205942,1838.629195
926.161471,-9474.636058,-666.185348,1072.533697
926.161791,-10436.903782,0.000000,1991.848295
926.162112,-11769.274478,-1702.473667,3064.381992
926.162433,-10955.047942,-518.144159,2528.115143
926.162754,-10807.006753,444.123565,766.095498
926.163074,-9400.615463,1776.494261,-766.095498
926.163395,-8882.471304,2294.638420,-1915.238745
926.163716,-9326.594869,1554.432478,-153.219100
926.164036,-9474.636058,592.164754,689.485948
926.164357,-10214.842000,-888.247130,1072.533697
926.164678,-10362.883188,-962.267725,1532.190996
926.164999,-9696.697840,296.082377,1455.581446
926.165319,-10362.883188,1628.453072,2451.505594
926.165640,-9992.780217,1184.329507,3064.381992
926.165961,-8586.388927,740.205942,1685.410096
926.166282,-9474.636058,-592.164754,383.047749
926.166602,-9474.636058,-1036.288319,229.828649
926.166923,-9548.656652,-740.205942,1225.752797
926.167244,-10436.903782,-148.041188,1455.581446
926.167564,-10732.986159,1258.350101,612.876398
926.167885,-9178.553681,1998.556043,1072.533697
926.168206,-9474.636058,296.082377,383.047749
926.168527,-9030.512492,-518.144159,2528.115143
926.168847,-9548.656652,-1036.288319,3294.210641
926.169168,-10436.903782,-1480.411884,1991.848295
926.169489,-9252.574275,0.000000,1608.800546
926.169809,-9252.574275,1332.370696,1685.410096
926.170130,-8512.368333,1036.288319,2068.457845
926.170451,-8512.368333,370.102971,1149.143247
926.170772,-8734.430116,-296.082377,459.657299
926.171092,-9992.780217,-1480.411884,1991.848295
926.171413,-9474.636058,-1998.556043,2068.457845
926.171734,-9104.533087,-1628.453072,2681.334243
926.172055,-10436.903782,-74.020594,1762.019645
926.172375,-9474.636058,1036.288319,1072.533697
926.172696,-8216.285956,74.020594,1072.533697
926.173017,-8512.368333,74.020594,1838.629195
926.173337,-10066.800811,-1480.411884,1685.410096
926.173658,-10288.862594,-2072.576638,1455.581446
926.173979,-10066.800811,-1702.473667,1302.362347
926.174300,-9326.594869,0.000000,689.485948
926.174620,-9252.574275,888.247130,842.705048
926.174941,-9770.718434,666.185348,2068.457845
926.175262,-8808.450710,-888.247130,306.438199
926.175583,-9104.533087,-1998.556043,-1072.533697
926.175903,-9770.718434,-1850.514855,-1838.629195
926.176224,-9770.718434,-1702.473667,0.000000
926.176545,-10732.986159,74.020594,1072.533697
926.176865,-11103.089130,962.267725,1225.752797
926.177186,-9474.636058,1036.288319,536.266849
926.177507,-9622.677246,-888.247130,842.705048
926.177828,-10510.924376,-962.267725,1762.019645
926.178148,-11103.089130,-1850.514855,1225.752797
926.178469,-10066.800811,-1332.370696,842.705048
926.178790,-8956.491898,-1702.473667,-612.876398
926.179111,-8734.430116,296.082377,0.000000
926.179431,-9548.656652,-518.144159,766.095498
926.179752,-8808.450710,-1184.329507,153.219100
926.180073,-8808.450710,-1628.453072,-612.876398
926.180393,-9548.656652,-1776.494261,229.828649
926.180714,-9844.739029,-1702.473667,1149.143247
926.181035,-10362.883188,-1258.350101,1532.190996
926.181356,-10510.924376,-444.123565,1302.362347
926.181676,-9030.512492,0.000000,612.876398
926.181997,-8586.388927,-518.144159,-229.828649
926.182318,-9104.533087,148.041188,1455.581446
926.182638,-10362.883188,-1184.329507,1915.238745
926.182959,-10362.883188,-1628.453072,995.924147
926.183280,-8438.347739,-962.267725,766.095498
926.183601,-8882.471304,0.000000,536.266849
926.183921,-9474.636058,518.144159,2145.067394
926.184242,-9844.739029,888.247130,3217.601092
926.184563,-8512.368333,148.041188,1455.581446
926.184884,-9326.594869,-296.082377,689.485948
926.185204,-9474.636058,-1332.370696,1072.533697
926.185525,-9474.636058,-1184.329507,919.314598
926.185846,-10214.842000,-222.061783,-306.438199
926.186166,-9400.615463,1036.288319,306.438199
926.186487,-8586.388927,1406.391290,306.438199
926.186808,-10066.800811,1036.288319,1378.971896
926.187129,-9178.553681,1850.514855,1838.629195
926.187449,-11177.109724,1480.411884,3677.258390
926.187770,-11029.068536,-666.185348,3294.210641
926.188091,-9622.677246,-592.164754,2068.457845
926.188412,-9474.636058,-444.123565,1149.143247
926.188732,-9252.574275,-888.247130,153.219100
926.189053,-8438.347739,222.061783,1455.581446
926.189374,-9326.594869,-296.082377,229.828649
926.189694,-9770.718434,-296.082377,1378.971896
926.190015,-9844.739029,-962.267725,2145.067394
926.190336,-11251.130318,0.000000,2298.286494
926.190657,-10881.027347,518.144159,1915.238745
926.190977,-9992.780217,1036.288319,1915.238745
926.191298,-9548.656652,1258.350101,1532.190996
926.191619,-9400.615463,222.061783,1762.019645
926.191940,-9992.780217,-888.247130,2221.676944
926.192260,-9548.656652,-1998.556043,919.314598
926.192581,-8808.450710,-666.185348,76.609550
926.192902,-8956.491898,296.082377,-229.828649
926.193222,-9178.553681,1406.391290,76.609550
926.193543,-8882.471304,1110.308913,1072.533697
926.193864,-8586.388927,-666.185348,0.000000
926.194185,-9030.512492,-1184.329507,-383.047749
926.194505,-10362.883188,-1850.514855,1072.533697
926.194826,-10362.883188,-1628.453072,1685.410096
926.195147,-10510.924376,0.000000,1608.800546
926.195467,-10362.883188,518.144159,919.314598
926.195788,-8734.430116,0.000000,76.609550
926.196109,-8660.409521,666.185348,0.000000
926.196430,-10288.862594,-370.102971,1608.800546
926.196750,-9844.739029,-1258.350101,995.924147
926.197071,-9992.780217,-1776.494261,383.047749
926.197392,-8882.471304,-1110.308913,0.000000
926.197713,-9178.553681,222.061783,153.219100
926.198033,-8808.450710,518.144159,766.095498
926.198354,-9030.512492,-148.041188,1072.533697
926.198675,-9030.512492,-518.144159,0.000000
926.198995,-10288.862594,-1110.308913,766.095498
926.199316,-10510.924376,-1850.514855,1455.581446
926.199637,-10140.821405,-888.247130,1991.848295
926.199958,-11103.089130,-888.247130,1685.410096
926.200278,-8808.450710,0.000000,536.266849
926.200599,-9104.533087,-74.020594,459.657299
926.200920,-9992.780217,0.000000,1455.581446
926.201241,-9918.759623,-222.061783,1608.800546
926.201561,-10288.862594,-1628.453072,1302.362347
926.201882,-9178.553681,-1776.494261,76.609550
926.202203,-9178.553681,0.000000,229.828649
926.202523,-9844.739029,148.041188,1455.581446
926.202844,-9178.553681,-370.102971,2298.286494
926.203165,-9400.615463,-740.205942,1302.362347
926.203486,-9474.636058,-2072.576638,383.047749
926.203806,-8734.430116,-1406.391290,612.876398
926.204127,-10214.842000,-1110.308913,1302.362347
926.204448,-9400.615463,222.061783,1225.752797
926.204769,-9474.636058,814.226536,1302.362347
926.205089,-8734.430116,296.082377,842.705048
926.205410,-9104.533087,-962.267725,1302.362347
926.205731,-10732.986159,-1258.350101,2757.943793
926.206051,-11399.171507,-2442.679609,2757.943793
926.206372,-10510.924376,-1924.535449,2604.724693
926.206693,-9622.677246,-1184.329507,1302.362347
926.207014,-9548.656652,-592.164754,842.705048
926.207334,-9030.512492,0.000000,766.095498
926.207655,-8882.471304,0.000000,536.266849
926.207976,-8512.368333,-444.123565,-1149.143247
926.208296,-9326.594869,-1036.288319,-383.047749
926.208617,-9474.636058,-1258.350101,76.609550
926.208938,-9992.780217,592.164754,766.095498
926.209259,-10732.986159,1036.288319,1838.629195
926.209579,-9104.533087,1998.556043,2451.505594
926.209900,-10140.821405,814.226536,2068.457845
926.210221,-10214.842000,0.000000,2681.334243
926.210542,-10658.965565,-1258.350101,2298.286494
926.210862,-9252.574275,-1480.411884,1378.971896
926.211183,-8364.327145,370.102971,-1225.752797
926.211504,-8808.450710,1998.556043,-766.095498
926.211824,-8068.244768,2294.638420,-689.485948
926.212145,-8216.285956,888.247130,0.000000
926.212466,-8956.491898,296.082377,229.828649
926.212787,-10732.986159,-370.102971,1302.362347
926.213107,-11325.150913,-962.267725,3064.381992
926.213428,-11251.130318,-1184.329507,3677.258390
926.213749,-10140.821405,-444.123565,2374.896044
926.214070,-9770.718434,148.041188,1225.752797
926.214390,-7846.182985,1110.308913,0.000000
926.214711,-8734.430116,1776.494261,612.876398
926.215032,-10066.800811,0.000000,1838.629195
926.215352,-10066.800811,-962.267725,1302.362347
926.215673,-9844.739029,-1554.432478,306.438199
926.215994,-9548.656652,-740.205942,383.047749
926.216315,-9252.574275,370.102971,1685.410096
926.216635,-10510.924376,-370.102971,3370.820191
926.216956,-9400.615463,-1184.329507,1378.971896
926.217277,-9252.574275,-1110.308913,766.095498
926.217598,-10066.800811,-962.267725,842.705048
926.217918,-9474.636058,0.000000,1685.410096
926.218239,-10584.944971,296.082377,1991.848295
926.218560,-9178.553681,1184.329507,1455.581446
926.218880,-8512.368333,888.247130,229.828649
926.219201,-9844.739029,0.000000,995.924147
926.219522,-9844.739029,-1332.370696,1991.848295
926.219843,-10436.903782,-2146.597232,2451.505594
926.220163,-10362.883188,-2368.659014,1685.410096
926.220484,-9770.718434,-814.226536,919.314598
926.220805,-9474.636058,0.000000,842.705048
926.221125,-9770.718434,0.000000,1072.533697
926.221446,-9030.512492,592.164754,919.314598
926.221767,-9326.594869,-370.102971,-229.828649
926.222088,-9474.636058,-740.205942,-229.828649
926.222408,-9844.739029,-1776.494261,1149.143247
926.222729,-10362.883188,-1702.473667,1302.362347
926.223050,-10955.047942,-962.267725,1149.143247
926.223371,-9548.656652,444.123565,536.266849
926.223691,-8882.471304,518.144159,76.609550
926.224012,-9548.656652,962.267725,1532.190996
926.224333,-10066.800811,0.000000,2145.067394
926.224653,-10214.842000,-1850.514855,536.266849
926.224974,-9178.553681,-2368.659014,-153.219100
926.225295,-8660.409521,-1406.391290,-1225.752797
926.225616,-9992.780217,0.000000,306.438199
926.225936,-9622.677246,222.061783,1072.533697
926.226257,-9474.636058,-518.144159,153.219100
926.226578,-9400.615463,-666.185348,-306.438199
926.226898,-9844.739029,-1998.556043,306.438199
926.227219,-10140.821405,-2516.700203,1225.752797
926.227540,-10732.986159,-2220.617826,1072.533697
926.227860,-9770.718434,-814.226536,766.095498
926.228181,-8364.327145,-222.061783,459.657299
926.228502,-8068.244768,0.000000,1072.533697
926.228822,-9252.574275,-592.164754,2451.505594
926.229143,-10362.883188,-1184.329507,2068.457845
926.229464,-9844.739029,-1924.535449,1685.410096
926.229784,-8808.450710,-1628.453072,76.609550
926.230105,-9178.553681,-814.226536,-306.438199
926.230426,-9474.636058,666.185348,1072.533697
926.230746,-8882.471304,814.226536,1149.143247
926.231067,-8956.491898,518.144159,153.219100
926.231388,-9918.759623,-222.061783,536.266849
926.231708,-10066.800811,-814.226536,1302.362347
926.232029,-10955.047942,-592.164754,2145.067394
926.232350,-10881.027347,222.061783,2298.286494
926.232670,-9104.533087,1332.370696,1532.190996
926.232991,-8586.388927,1406.391290,2604.724693
926.233312,-9030.512492,1554.432478,2221.676944
926.233632,-10140.821405,814.226536,3064.381992
926.233953,-10436.903782,-592.164754,2757.943793
926.234274,-9030.512492,-1036.288319,459.657299
926.234594,-8660.409521,222.061783,-766.095498
926.234915,-9548.656652,1406.391290,612.876398
926.235236,-9326.594869,1850.514855,1378.971896
926.235556,-9844.739029,1628.453072,1532.190996
926.235877,-9548.656652,148.041188,1378.971896
926.236198,-11251.130318,-2146.597232,1225.752797
926.236518,-10288.862594,-2516.700203,1991.848295
926.236839,-10732.986159,-1998.556043,995.924147
926.237160,-9622.677246,888.247130,1685.410096
926.237480,-8068.244768,1332.370696,-689.485948
926.237801,-8586.388927,1998.556043,459.657299
926.238122,-9252.574275,888.247130,1532.190996
926.238442,-10214.842000,-740.205942,1302.362347
926.238763,-10362.883188,-888.247130,2068.457845
926.239084,-10066.800811,0.000000,1225.752797
926.239404,-10436.903782,592.164754,2068.457845
926.239725,-8882.471304,222.061783,2298.286494
926.240046,-8216.285956,296.082377,1072.533697
926.240366,-8586.388927,-962.267725,-1302.362347
926.240687,-8956.491898,-962.267725,-306.438199
926.241008,-9326.594869,-1258.350101,766.095498
926.241329,-10510.924376,-444.123565,1302.362347
926.241649,-10658.965565,296.082377,1762.019645
926.241970,-9178.553681,1110.308913,1455.581446
926.242291,-9326.594869,74.020594,1915.238745
926.242611,-9696.697840,74.020594,3370.820191
926.242932,-10140.821405,-1406.391290,3830.477490
926.243253,-9548.656652,-2294.638420,2451.505594
926.243573,-8882.471304,-1332.370696,612.876398
926.243894,-7994.224174,370.102971,0.000000
926.244215,-9622.677246,444.123565,76.609550
926.244535,-8882.471304,74.020594,995.924147
926.244856,-8882.471304,-1258.350101,-383.047749
926.245177,-9770.718434,-1554.432478,-383.047749
926.245497,-11177.109724,-1850.514855,1225.752797
926.245818,-11473.192101,-1998.556043,1838.629195
926.246139,-11251.130318,-962.267725,1685.410096
926.246459,-9844.739029,-148.041188,689.485948
926.246780,-8438.347739,370.102971,-536.266849
926.247101,-9178.553681,0.000000,612.876398
926.247421,-9844.739029,-592.164754,1072.533697
926.247742,-9992.780217,-1110.308913,1302.362347
926.248063,-10288.862594,-2146.597232,612.876398
926.248383,-8808.450710,-1480.411884,-229.828649
926.248704,-9844.739029,-740.205942,306.438199
926.249025,-9400.615463,-296.082377,766.095498
926.249345,-9104.533087,0.000000,1072.533697
926.249666,-9548.656652,-1332.370696,-459.657299
926.249987,-9844.739029,-1332.370696,-306.438199
926.250307,-10362.883188,-1332.370696,229.828649
926.250628,-10510.924376,-518.144159,383.047749
926.250949,-10510.924376,592.164754,766.095498
926.251269,-9252.574275,740.205942,459.657299
926.251590,-8512.368333,444.123565,229.828649
926.251911,-9474.636058,0.000000,1608.800546
926.252231,-9696.697840,-1258.350101,2145.067394
926.252552,-10066.800811,-1924.535449,2221.676944
926.252873,-8512.368333,-1184.329507,689.485948
926.253193,-8290.306550,-666.185348,76.609550
926.253514,-8956.491898,74.020594,919.314598
926.253835,-9030.512492,0.000000,842.705048
926.254155,-8734.430116,0.000000,459.657299
926.254476,-9622.677246,-962.267725,536.266849
926.254797,-10436.903782,-1702.473667,1225.752797
926.255117,-10584.944971,-2072.576638,1378.971896
926.255438,-10732.986159,-1332.370696,1072.533697
926.255759,-9252.574275,592.164754,919.314598
926.256079,-8808.450710,2146.597232,1225.752797
926.256400,-9326.594869,2294.638420,1915.238745
926.256721,-10214.842000,2294.638420,4366.744339
926.257041,-10362.883188,-222.061783,2681.334243
926.257362,-10362.883188,-1036.288319,1762.019645
926.257683,-9770.718434,0.000000,1838.629195
926.258003,-9918.759623,1258.350101,2298.286494
926.258324,-9622.677246,1332.370696,3294.210641
926.258645,-9474.636058,814.226536,2681.334243
926.258965,-9474.636058,74.020594,1149.143247
926.259286,-10066.800811,-740.205942,842.705048
926.259607,-9844.739029,-666.185348,383.047749
926.259927,-10584.944971,-222.061783,1302.362347
926.260248,-9548.656652,370.102971,0.000000
926.260569,-8808.450710,592.164754,306.438199
926.260889,-8586.388927,3034.844362,3140.991542
926.261210,-11029.068536,222.061783,4366.744339
926.261531,-10955.047942,-962.267725,4136.915689
926.261851,-10436.903782,-1628.453072,3370.820191
926.262172,-9104.533087,-962.267725,1149.143247
926.262493,-8364.327145,1480.411884,766.095498
926.262814,-8734.430116,1480.411884,766.095498
926.263134,-6513.812290,666.185348,-689.485948
926.263455,-7179.997637,0.000000,-1608.800546
926.263776,-9104.533087,-518.144159,-1455.581446
926.264096,-10066.800811,-1554.432478,0.000000
926.264417,-10732.986159,-1184.329507,1532.190996
926.264738,-11029.068536,444.123565,2374.896044
926.265058,-10436.903782,1184.329507,995.924147
926.265379,-9474.636058,74.020594,1072.533697
926.265700,-9696.697840,-370.102971,1149.143247
926.266020,-9770.718434,-592.164754,1532.190996
926.266341,-9622.677246,-1332.370696,1225.752797
926.266662,-9104.533087,-1184.329507,306.438199
926.266982,-8364.327145,0.000000,-995.924147
926.267303,-8660.409521,1184.329507,153.219100
926.267624,-9178.553681,962.267725,1072.533697
926.267944,-10658.965565,-222.061783,766.095498
926.268265,-10140.821405,-1850.514855,689.485948
926.268586,-10658.965565,-2146.597232,1225.752797
926.268906,-11029.068536,-2294.638420,1991.848295
926.269227,-10881.027347,-962.267725,3294.210641
926.269548,-10436.903782,148.041188,536.266849
926.269868,-8956.491898,1036.288319,-459.657299
926.270189,-8956.491898,1036.288319,-153.219100
926.270510,-9770.718434,0.000000,1378.971896
926.270830,-10732.986159,-1332.370696,2068.457845
926.271151,-10436.903782,-2220.617826,1762.019645
926.271472,-9844.739029,-1850.514855,995.924147
926.271792,-9400.615463,-1036.288319,995.924147
926.272113,-8216.285956,-1036.288319,2145.067394
926.272434,-8586.388927,-962.267725,1149.143247
926.272754,-8512.368333,-1258.350101,-306.438199
926.273075,-9326.594869,-1554.432478,-229.828649
926.273396,-9474.636058,-2442.679609,0.000000
926.273716,-9992.780217,-2664.741391,1149.143247
926.274037,-9474.636058,-888.247130,1149.143247
926.274358,-9548.656652,0.000000,1302.362347
926.274678,-8956.491898,-518.144159,1225.752797
926.274999,-9474.636058,-148.041188,2145.067394
926.275320,-10436.903782,-1332.370696,2528.115143
926.275640,-9992.780217,-1554.432478,1991.848295
926.275961,-8660.409521,-444.123565,1149.143247
926.276282,-8068.244768,0.000000,2068.457845
926.276602,-7920.203579,0.000000,689.485948
926.276923,-8660.409521,0.000000,1225.752797
926.277244,-8438.347739,-666.185348,-153.219100
926.277564,-9104.533087,-740.205942,-459.657299
926.277885,-10732.986159,-1036.288319,1072.533697
926.278206,-9918.759623,-1184.329507,842.705048
926.278526,-10732.986159,370.102971,612.876398
926.278847,-11103.089130,1110.308913,842.705048
926.279168,-9474.636058,1702.473667,383.047749
926.279488,-9474.636058,962.267725,919.314598
926.279809,-10214.842000,0.000000,1608.800546
926.280130,-10807.006753,-148.041188,1378.971896
926.280450,-10658.965565,518.144159,1838.629195
926.280771,-9474.636058,518.144159,459.657299
926.281092,-9030.512492,1850.514855,229.828649
926.281412,-9696.697840,1258.350101,1225.752797
926.281733,-8882.471304,222.061783,1302.362347
926.282054,-9030.512492,-962.267725,-306.438199
926.282374,-9992.780217,-2146.597232,0.000000
926.282695,-9844.739029,-1702.473667,612.876398
926.283016,-10955.047942,-1184.329507,1455.581446
926.283336,-10807.006753,1110.308913,1225.752797
926.283657,-10066.800811,1998.556043,1455.581446
926.283978,-9326.594869,1332.370696,995.924147
926.284299,-9622.677246,666.185348,1915.238745
926.284619,-9622.677246,-518.144159,2451.505594
926.284940,-10288.862594,-814.226536,2298.286494
926.285261,-9548.656652,-296.082377,2145.067394
926.285581,-8734.430116,444.123565,1225.752797
926.285902,-8734.430116,1036.288319,1608.800546
926.286223,-8512.368333,444.123565,1225.752797
926.286543,-8512.368333,-222.061783,766.095498
926.286864,-9030.512492,-666.185348,919.314598
926.287185,-9474.636058,-444.123565,1991.848295
926.287505,-10955.047942,-1110.308913,2451.505594
926.287826,-10362.883188,-814.226536,2145.067394
926.288147,-9696.697840,592.164754,1455.581446
926.288467,-9400.615463,-148.041188,383.047749
926.288788,-8438.347739,666.185348,1532.190996
926.289109,-9992.780217,-518.144159,1455.581446
926.289429,-9474.636058,-1036.288319,1455.581446
926.289750,-9622.677246,-1702.473667,842.705048
926.290071,-9252.574275,0.000000,-306.438199
926.290391,-10362.883188,518.144159,2451.505594
926.290712,-9770.718434,-296.082377,3217.601092
926.291033,-8734.430116,-740.205942,1532.190996
926.291353,-9104.533087,-2072.576638,-1915.238745
926.291674,-7550.100608,-962.267725,-1072.533697
926.291995,-9770.718434,-1850.514855,0.000000
926.292315,-9548.656652,74.020594,383.047749
926.292636,-10436.903782,-296.082377,0.000000
926.292957,-9030.512492,1036.288319,-1378.971896
926.293277,-10436.903782,-148.041188,-229.828649
926.293598,-9992.780217,-740.205942,1225.752797
926.293919,-11547.212695,-666.185348,2451.505594
926.294239,-10436.903782,-1924.535449,689.485948
926.294560,-9104.533087,-1554.432478,153.219100
926.294881,-9326.594869,-296.082377,229.828649
926.295201,-9178.553681,-148.041188,229.828649
926.295522,-8660.409521,-370.102971,229.828649
926.295843,-8734.430116,-444.123565,-612.876398
926.296163,-8882.471304,-592.164754,-1072.533697
926.296484,-10362.883188,-1184.329507,76.609550
926.296805,-10362.883188,-1776.494261,1685.410096
926.297125,-11103.089130,-740.205942,459.657299
926.297446,-10955.047942,-222.061783,1608.800546
926.297767,-9252.574275,0.000000,766.095498
926.298087,-9326.594869,0.000000,1302.362347
926.298408,-9844.739029,444.123565,2681.334243
926.298729,-10066.800811,-1036.288319,1915.238745
926.299049,-8882.471304,-1776.494261,919.314598
926.299370,-9252.574275,-1998.556043,0.000000
926.299691,-9326.594869,-740.205942,919.314598
926.300011,-9400.615463,-518.144159,2298.286494
926.300332,-9474.636058,-962.267725,2757.943793
926.300653,-9104.533087,-1258.350101,1149.143247
926.300973,-9992.780217,-1406.391290,1072.533697
926.301294,-9918.759623,-1702.473667,919.314598
926.301615,-10066.800811,-1036.288319,1455.581446
926.301935,-10288.862594,0.000000,1149.143247
926.302256,-9474.636058,1480.411884,536.266849
926.302577,-8808.450710,1184.329507,0.000000
926.302897,-9622.677246,1110.308913,2298.286494
926.303218,-10584.944971,370.102971,2681.334243
926.303539,-10066.800811,-518.144159,1762.019645
926.303859,-9474.636058,0.000000,1072.533697
926.304180,-9252.574275,222.061783,689.485948
926.304501,-9104.533087,148.041188,1225.752797
926.304821,-9104.533087,518.144159,1378.971896
926.305142,-8586.388927,0.000000,459.657299
926.305463,-9474.636058,0.000000,612.876398
926.305784,-10066.800811,-740.205942,1378.971896
926.306104,-10436.903782,-888.247130,1838.629195
926.306425,-10436.903782,0.000000,1762.019645
926.306746,-9992.780217,666.185348,1072.533697
926.307066,-8438.347739,666.185348,229.828649
926.307387,-8808.450710,666.185348,1225.752797
926.307708,-9844.739029,-296.082377,1455.581446
926.308028,-9400.615463,-370.102971,1685.410096
926.308349,-10288.862594,-1406.391290,612.876398
926.308670,-8808.450710,1110.308913,842.705048
926.308990,-10288.862594,0.000000,1762.019645
926.309311,-8512.368333,666.185348,2145.067394
926.309632,-9770.718434,518.144159,2451.505594
926.309952,-10066.800811,-962.267725,919.314598
926.310273,-10214.842000,-814.226536,1685.410096
926.310594,-10807.006753,-1628.453072,1225.752797
926.310914,-9474.636058,-296.082377,612.876398
926.311235,-9326.594869,2516.700203,1378.971896
926.311556,-10584.944971,-1776.494261,0.000000
926.311876,-6587.832884,1776.494261,-689.485948
926.312197,-10584.944971,-1110.308913,0.000000
926.312518,-9844.739029,-740.205942,2298.286494
926.312838,-9770.718434,-888.247130,2451.505594
926.313159,-11769.274478,-740.205942,2757.943793
926.313480,-8364.327145,-296.082377,689.485948
926.313800,-8660.409521,222.061783,-2298.286494
926.314121,-10066.800811,1332.370696,2374.896044
926.314442,-7105.977043,-962.267725,-1302.362347
926.314762,-9104.533087,0.000000,-1762.019645
926.315083,-9326.594869,-962.267725,0.000000
926.315404,-8364.327145,-666.185348,0.000000
926.315724,-11473.192101,-1332.370696,1838.629195
926.316045,-11177.109724,-592.164754,2451.505594
926.316366,-9104.533087,-1184.329507,1302.362347
926.316686,-10732.986159,-1628.453072,1838.629195
926.317007,-10881.027347,-1110.308913,2068.457845
926.317328,-9696.697840,-296.082377,1838.629195
926.317648,-10214.842000,-1332.370696,919.314598
926.317969,-8512.368333,370.102971,-2068.457845
926.318290,-8438.347739,-296.082377,-995.924147
926.318610,-9474.636058,-1480.411884,0.000000
926.318931,-9104.533087,-666.185348,383.047749
926.319252,-9770.718434,-740.205942,842.705048
926.319572,-11029.068536,-1480.411884,2068.457845
926.319893,-10066.800811,-1110.308913,2604.724693
926.320214,-10807.006753,-1998.556043,1838.629195
926.320534,-10436.903782,-1258.350101,1225.752797
926.320855,-7920.203579,-814.226536,-306.438199
926.321176,-8216.285956,-370.102971,0.000000
926.321496,-9400.615463,0.000000,1838.629195
926.321817,-9548.656652,-1332.370696,1685.410096
926.322138,-9992.780217,-2146.597232,689.485948
926.322458,-9326.594869,-888.247130,536.266849
926.322779,-9548.656652,444.123565,919.314598
926.323100,-10288.862594,148.041188,2451.505594
926.323420,-9030.512492,-1036.288319,1532.190996
926.323741,-8660.409521,-740.205942,306.438199
926.324062,-9844.739029,-1628.453072,536.266849
926.324382,-9696.697840,-1258.350101,919.314598
926.324703,-9696.697840,592.164754,1149.143247
926.325025,-9770.718434,1036.288319,536.266849
926.325345,-8438.347739,2516.700203,612.876398
926.325666,-8512.368333,814.226536,689.485948
926.325987,-9400.615463,-592.164754,919.314598
926.326307,-10732.986159,-1110.308913,3753.867940
926.326628,-10436.903782,-2220.617826,1762.019645
926.326949,-9770.718434,-1480.411884,1455.581446
926.327269,-9474.636058,740.205942,1149.143247
926.327590,-9844.739029,2146.597232,1455.581446
926.327910,-9030.512492,2294.638420,1378.971896
926.328231,-8660.409521,1924.535449,459.657299
926.328552,-9918.759623,370.102971,459.657299
926.328872,-10140.821405,-296.082377,1072.533697
926.329193,-9622.677246,-2146.597232,2221.676944
926.329514,-10214.842000,-740.205942,1991.848295
926.329834,-9844.739029,0.000000,1225.752797
926.330155,-8660.409521,814.226536,1072.533697
926.330476,-9030.512492,444.123565,2145.067394
926.330796,-9474.636058,370.102971,2068.457845
926.331117,-10436.903782,-592.164754,2528.115143
926.331438,-10288.862594,-888.247130,1915.238745
926.331758,-9474.636058,-222.061783,536.266849
926.332079,-9548.656652,1554.432478,1838.629195
926.332399,-9400.615463,1258.350101,1302.362347
926.332720,-9104.533087,518.144159,1455.581446
926.333041,-9030.512492,-592.164754,0.000000
926.333361,-8142.265362,-1480.411884,995.924147
926.333682,-10214.842000,-1480.411884,766.095498
926.334003,-10732.986159,-666.185348,1608.800546
926.334323,-9548.656652,592.164754,1378.971896
926.334644,-9400.615463,592.164754,842.705048
926.334965,-8216.285956,222.061783,383.047749
926.335285,-9178.553681,-518.144159,1378.971896
926.335606,-10140.821405,-1850.514855,2068.457845
926.335926,-9918.759623,-1850.514855,1532.190996
926.336247,-9400.615463,-1036.288319,919.314598
926.336568,-9696.697840,148.041188,766.095498
926.336888,-9326.594869,1184.329507,1302.362347
926.337209,-9622.677246,592.164754,766.095498
926.337530,-9030.512492,592.164754,1302.362347
926.337850,-9548.656652,-666.185348,383.047749
926.338171,-10214.842000,-2812.782580,459.657299
926.338492,-9474.636058,-2368.659014,1072.533697
926.338812,-10658.965565,-962.267725,1685.410096
926.339133,-10658.965565,814.226536,1991.848295
926.339453,-8660.409521,814.226536,919.314598
926.339774,-9252.574275,666.185348,919.314598
926.340095,-9918.759623,-222.061783,689.485948
926.340415,-9770.718434,-1258.350101,-306.438199
926.340736,-9474.636058,-1554.432478,-76.609550
926.341057,-8660.409521,-814.226536,-2068.457845
926.341377,-8660.409521,592.164754,-689.485948
926.341698,-10066.800811,74.020594,383.047749
926.342019,-9474.636058,-222.061783,1838.629195
926.342339,-11251.130318,-2220.617826,2145.067394
926.342660,-11325.150913,-2368.659014,2681.334243
926.342980,-11547.212695,-2886.803174,3064.381992
926.343301,-11177.109724,-1702.473667,2221.676944
926.343622,-9992.780217,0.000000,1302.362347
926.343942,-8882.471304,962.267725,689.485948
926.344263,-7476.080014,444.123565,-306.438199
926.344584,-8216.285956,-370.102971,383.047749
926.344904,-9770.718434,-1184.329507,1302.362347
926.345225,-9474.636058,-1258.350101,2221.676944
926.345546,-10362.883188,-1628.453072,1149.143247
926.345866,-9696.697840,1258.350101,0.000000
926.346187,-10362.883188,0.000000,1378.971896
926.346507,-9696.697840,370.102971,2528.115143
926.346828,-9030.512492,-1628.453072,766.095498
926.347149,-9622.677246,-1480.411884,306.438199
926.347469,-9770.718434,-1850.514855,459.657299
926.347790,-9770.718434,-888.247130,229.828649
926.348111,-10362.883188,444.123565,1991.848295
926.348431,-9770.718434,814.226536,1149.143247
926.348752,-8586.388927,370.102971,2374.896044
926.349073,-9918.759623,370.102971,2374.896044
926.349393,-10066.800811,-296.082377,2528.115143
926.349714,-10955.047942,-1110.308913,2528.115143
926.350035,-9770.718434,0.000000,1608.800546
926.350355,-8808.450710,1628.453072,0.000000
926.350676,-9400.615463,2590.720797,153.219100
926.350996,-9178.553681,1776.494261,689.485948
926.351317,-8586.388927,222.061783,-383.047749
926.351638,-9030.512492,-814.226536,-689.485948
926.351958,-10288.862594,-1184.329507,229.828649
926.352279,-10436.903782,-1036.288319,1455.581446
926.352600,-11547.212695,-888.247130,2298.286494
926.352920,-10436.903782,666.185348,2298.286494
926.353241,-9252.574275,518.144159,1302.362347
926.353562,-8956.491898,-666.185348,766.095498
926.353882,-9178.553681,-888.247130,1455.581446
926.354203,-9548.656652,-1258.350101,1685.410096
926.354523,-9030.512492,-2220.617826,1302.362347
926.354844,-8512.368333,-222.061783,0.000000
926.355165,-8512.368333,222.061783,-383.047749
926.355485,-9252.574275,370.102971,0.000000
926.355806,-8438.347739,1184.329507,2221.676944
926.356127,-9474.636058,-888.247130,0.000000
926.356447,-9474.636058,0.000000,0.000000
926.356768,-10807.006753,-888.247130,1302.362347
926.357089,-10362.883188,-740.205942,995.924147
926.357409,-10362.883188,814.226536,2451.505594
926.357730,-9474.636058,-148.041188,1685.410096
926.358050,-7994.224174,444.123565,612.876398
926.358371,-9844.739029,222.061783,1915.238745
926.358692,-9178.553681,518.144159,2374.896044
926.359012,-9992.780217,-962.267725,2528.115143
926.359333,-9030.512492,-1258.350101,1455.581446
926.359654,-7920.203579,-962.267725,-995.924147
926.359974,-9252.574275,-444.123565,1838.629195
926.360295,-9178.553681,-592.164754,1225.752797
926.360616,-9770.718434,-740.205942,2221.676944
926.360936,-11547.212695,-1406.391290,2145.067394
926.361257,-11399.171507,-1110.308913,2451.505594
926.361577,-12065.356855,-1406.391290,2451.505594
926.361898,-11621.233289,296.082377,2374.896044
926.362219,-10140.821405,1036.288319,919.314598
926.362539,-8364.327145,740.205942,0.000000
926.362860,-7402.059420,-962.267725,-842.705048
926.363181,-7994.224174,-1998.556043,-612.876398
926.363501,-9178.553681,-2220.617826,383.047749
926.363822,-9918.759623,-1850.514855,995.924147
926.364143,-10807.006753,296.082377,842.705048
926.364463,-10066.800811,888.247130,919.314598
926.364784,-10436.903782,1110.308913,1608.800546
926.365104,-9326.594869,0.000000,1838.629195
926.365425,-9178.553681,-1258.350101,383.047749
926.365746,-9918.759623,-2072.576638,0.000000
926.366066,-9622.677246,-2146.597232,-306.438199
926.366387,-9178.553681,-2368.659014,-153.219100
926.366708,-9474.636058,-962.267725,0.000000
926.367028,-9326.594869,592.164754,-153.219100
926.367349,-8956.491898,444.123565,612.876398
926.367670,-9400.615463,0.000000,1991.848295
926.367990,-10214.842000,-1184.329507,2681.334243
926.368311,-11103.089130,-1036.288319,2451.505594
926.368632,-9770.718434,-2146.597232,1915.238745
926.368952,-8586.388927,-518.144159,766.095498
926.369273,-8438.347739,518.144159,383.047749
926.369593,-8068.244768,740.205942,689.485948
926.369914,-8512.368333,-148.041188,0.000000
926.370235,-9030.512492,-888.247130,-459.657299
926.370555,-9992.780217,-1998.556043,-76.609550
926.370876,-10584.944971,-1406.391290,842.705048
926.371197,-10732.986159,-740.205942,1915.238745
926.371517,-11251.130318,1406.391290,2221.676944
926.371838,-9252.574275,3034.844362,3370.820191
926.372159,-11177.109724,-888.247130,612.876398
926.372479,-6957.935855,1850.514855,1532.190996
926.372800,-11325.150913,-888.247130,1225.752797
926.373120,-9400.615463,-370.102971,2681.334243
926.373441,-8808.450710,592.164754,1072.533697
926.373762,-10436.903782,2220.617826,2145.067394
926.374082,-8364.327145,1332.370696,0.000000
926.374403,-9400.615463,1110.308913,612.876398
926.374724,-10214.842000,962.267725,2451.505594
926.375044,-10214.842000,-962.267725,229.828649
926.375365,-10140.821405,-1184.329507,1762.019645
926.375686,-9770.718434,-2072.576638,1532.190996
926.376006,-9474.636058,-888.247130,383.047749
926.376327,-10955.047942,-74.020594,1149.143247
926.376647,-8068.244768,1036.288319,766.095498
926.376968,-8068.244768,1554.432478,919.314598
926.377289,-11325.150913,0.000000,2451.505594
926.377609,-10584.944971,-222.061783,2911.162892
926.377930,-9770.718434,-666.185348,2528.115143
926.378251,-9622.677246,-1480.411884,1072.533697
926.378571,-8586.388927,888.247130,1455.581446
926.378892,-9030.512492,-592.164754,1072.533697
926.379213,-8142.265362,-518.144159,383.047749
926.379533,-8512.368333,-592.164754,-229.828649
926.379854,-9104.533087,-1924.535449,-383.047749
926.380174,-9474.636058,-962.267725,383.047749
926.380495,-10510.924376,-444.123565,842.705048
926.380816,-9844.739029,444.123565,919.314598
926.381136,-9474.636058,592.164754,1378.971896
926.381457,-9400.615463,0.000000,1378.971896
926.381778,-10066.800811,-296.082377,2374.896044
926.382098,-9918.759623,-1554.432478,2757.943793
926.382419,-9030.512492,-1998.556043,1072.533697
926.382740,-9474.636058,-1702.473667,459.657299
926.383060,-8882.471304,222.061783,306.438199
926.383381,-8734.430116,1332.370696,1455.581446
926.383701,-8956.491898,518.144159,995.924147
926.384022,-9400.615463,-370.102971,0.000000
926.384343,-9548.656652,-1258.350101,0.000000
926.384663,-9992.780217,-1998.556043,536.266849
926.384984,-11103.089130,-2294.638420,689.485948
926.385305,-10140.821405,-370.102971,919.314598
926.385625,-10066.800811,-222.061783,0.000000
926.385946,-9474.636058,740.205942,766.095498
926.386267,-10584.944971,740.205942,2068.457845
926.386587,-9918.759623,-814.226536,1915.238745
926.386908,-10584.944971,-2072.576638,1762.019645
926.387228,-9474.636058,-1924.535449,536.266849
926.387549,-8734.430116,-740.205942,536.266849
926.387870,-9400.615463,-444.123565,1072.533697
926.388190,-8586.388927,-296.082377,1225.752797
926.388511,-8808.450710,-592.164754,459.657299
926.388832,-9474.636058,-888.247130,229.828649
926.389152,-10140.821405,-1628.453072,689.485948
926.389473,-11103.089130,-1554.432478,2068.457845
926.389794,-10362.883188,-370.102971,1302.362347
926.390114,-10066.800811,74.020594,612.876398
926.390435,-8956.491898,962.267725,612.876398
926.390756,-9400.615463,296.082377,2068.457845
926.391076,-10362.883188,-370.102971,2528.115143
926.391397,-10140.821405,-1480.411884,2221.676944
926.391717,-9918.759623,-1554.432478,1762.019645
926.392038,-8660.409521,-740.205942,229.828649
926.392359,-7698.141797,518.144159,-459.657299
926.392679,-8290.306550,888.247130,306.438199
926.393000,-7105.977043,-222.061783,-229.828649
926.393321,-7698.141797,-962.267725,-995.924147
926.393641,-9696.697840,-1332.370696,383.047749
926.393962,-10658.965565,-1554.432478,1149.143247
926.394283,-11621.233289,-1036.288319,1915.238745
926.394603,-10732.986159,296.082377,2221.676944
926.394924,-10214.842000,0.000000,1455.581446
926.395244,-9326.594869,296.082377,1532.190996
926.395565,-9696.697840,444.123565,1608.800546
926.395886,-10214.842000,74.020594,2374.896044
926.396206,-9844.739029,0.000000,1455.581446
926.396527,-9178.553681,296.082377,229.828649
926.396848,-8586.388927,1850.514855,229.828649
926.397168,-9474.636058,1924.535449,1072.533697
926.397489,-8808.450710,1110.308913,1991.848295
926.397810,-9030.512492,444.123565,919.314598
926.398130,-10140.821405,-444.123565,842.705048
926.398451,-11621.233289,-1184.329507,2221.676944
926.398771,-10658.965565,-1110.308913,2068.457845
926.399092,-10658.965565,222.061783,1149.143247
926.399413,-9992.780217,1628.453072,689.485948
926.399733,-9030.512492,1850.514855,306.438199
926.400054,-8808.450710,1406.391290,536.266849
926.400375,-9622.677246,888.247130,1685.410096
926.400695,-9844.739029,-1332.370696,1532.190996
926.401016,-9548.656652,-1924.535449,1455.581446
926.401337,-8808.450710,0.000000,766.095498
926.401657,-10066.800811,-518.144159,1685.410096
926.401978,-9844.739029,888.247130,1608.800546
926.402298,-9030.512492,0.000000,1685.410096
926.402619,-8660.409521,-1776.494261,-612.876398
926.402940,-9400.615463,0.000000,-306.438199
926.403260,-11029.068536,-1036.288319,2451.505594
926.403581,-9696.697840,-1036.288319,1225.752797
926.403902,-10066.800811,-518.144159,1072.533697
926.404222,-8512.368333,-962.267725,-383.047749
926.404543,-8216.285956,-148.041188,76.609550
926.404864,-10288.862594,370.102971,2145.067394
926.405184,-10584.944971,-666.185348,3064.381992
926.405505,-9696.697840,-1702.473667,1915.238745
926.405825,-9474.636058,-1850.514855,612.876398
926.406146,-9326.594869,-296.082377,459.657299
926.406467,-9548.656652,518.144159,1838.629195
926.406787,-8956.491898,148.041188,1991.848295
926.407108,-8586.388927,-148.041188,536.266849
926.407429,-9400.615463,-962.267725,-1072.533697
926.407749,-10066.800811,-1332.370696,1532.190996
926.408070,-10658.965565,-888.247130,1915.238745
926.408391,-11103.089130,296.082377,1302.362347
926.408711,-10140.821405,962.267725,919.314598
926.409032,-9326.594869,444.123565,-842.705048
926.409353,-8956.491898,0.000000,-153.219100
926.409673,-10732.986159,-1850.514855,1302.362347
926.409994,-9696.697840,-1924.535449,1072.533697
926.410314,-10658.965565,-814.226536,459.657299
926.410635,-9770.718434,296.082377,0.000000
926.410956,-9622.677246,1628.453072,1225.752797
926.411276,-8882.471304,74.020594,1302.362347
926.411597,-9104.533087,148.041188,2681.334243
926.411918,-9252.574275,-1702.473667,-229.828649
926.412238,-10214.842000,-2368.659014,689.485948
926.412559,-10732.986159,-2368.659014,1838.629195
926.412880,-10881.027347,-1702.473667,1915.238745
926.413200,-10510.924376,-814.226536,995.924147
926.413521,-9178.553681,740.205942,536.266849
926.413841,-9030.512492,74.020594,0.000000
926.414162,-9400.615463,-370.102971,1378.971896
926.414483,-8956.491898,-2664.741391,536.266849
926.414803,-8808.450710,-2368.659014,459.657299
926.415124,-9252.574275,-1628.453072,0.000000
926.415445,-8660.409521,-296.082377,536.266849
926.415765,-9030.512492,962.267725,1685.410096
926.416086,-9474.636058,0.000000,2221.676944
926.416407,-9030.512492,-518.144159,1455.581446
926.416727,-9178.553681,-1776.494261,459.657299
926.417048,-9770.718434,-2072.576638,842.705048
926.417368,-8956.491898,-1776.494261,919.314598
926.417689,-9770.718434,0.000000,1072.533697
926.418010,-8808.450710,1480.411884,612.876398
926.418330,-8216.285956,1110.308913,0.000000
926.418651,-9696.697840,1406.391290,153.219100
926.418972,-10584.944971,-592.164754,2068.457845
926.419292,-10436.903782,-1184.329507,1608.800546
926.419613,-11325.150913,-1480.411884,1455.581446
926.419934,-9770.718434,592.164754,1455.581446
926.420254,-10436.903782,2220.617826,2451.505594
926.420575,-10584.944971,1776.494261,4213.525239
926.420895,-9104.533087,1110.308913,2604.724693
926.421216,-9696.697840,888.247130,1685.410096
926.421537,-10140.821405,-740.205942,536.266849
926.421857,-8512.368333,-370.102971,0.000000
926.422178,-9622.677246,-592.164754,76.609550
926.422499,-9474.636058,666.185348,842.705048
926.422819,-8734.430116,1184.329507,229.828649
926.423140,-9548.656652,0.000000,1608.800546
926.423461,-10214.842000,-592.164754,2451.505594
926.423781,-11917.315666,-2294.638420,2528.115143
926.424102,-11103.089130,-2886.803174,4136.915689
926.424422,-9696.697840,0.000000,1225.752797
926.424743,-9326.594869,1480.411884,612.876398
926.425064,-9030.512492,1628.453072,1378.971896
926.425384,-7846.182985,518.144159,1149.143247
926.425705,-8216.285956,-1036.288319,-229.828649
926.426026,-9178.553681,-2072.576638,-536.266849
926.426346,-9474.636058,-1702.473667,995.924147
926.426667,-10140.821405,-1702.473667,1455.581446
926.426988,-10436.903782,666.185348,1915.238745
926.427308,-9178.553681,1480.411884,1455.581446
926.427629,-8512.368333,518.144159,842.705048
926.427950,-8882.471304,-444.123565,919.314598
926.428271,-9696.697840,-1776.494261,-229.828649
926.428591,-9548.656652,-1702.473667,229.828649
926.428912,-9030.512492,-962.267725,-153.219100
926.429233,-8438.347739,148.041188,-1225.752797
926.429554,-8882.471304,1184.329507,-612.876398
926.429874,-9326.594869,1036.288319,1072.533697
926.430195,-8956.491898,1332.370696,1991.848295
926.430516,-11251.130318,-1998.556043,1302.362347
926.430837,-9548.656652,-1850.514855,1225.752797
926.431157,-9548.656652,-2812.782580,1455.581446
926.431478,-9844.739029,-888.247130,1149.143247
926.431799,-10140.821405,962.267725,1608.800546
926.432120,-8882.471304,518.144159,76.609550
926.432440,-8068.244768,74.020594,-1838.629195
926.432761,-9918.759623,74.020594,76.609550
926.433082,-10955.047942,-814.226536,1302.362347
926.433403,-10955.047942,-1998.556043,1455.581446
926.433723,-10066.800811,-1258.350101,612.876398
926.434044,-9474.636058,-222.061783,-229.828649
926.434365,-10214.842000,-592.164754,459.657299
926.434686,-9622.677246,-296.082377,1532.190996
926.435007,-9474.636058,-444.123565,766.095498
926.435327,-10288.862594,-1332.370696,76.609550
926.435648,-9474.636058,-1184.329507,1302.362347
926.435969,-10362.883188,-1184.329507,1915.238745
926.436290,-10510.924376,0.000000,1685.410096
926.436610,-9622.677246,518.144159,1378.971896
926.436931,-8586.388927,-148.041188,229.828649
926.437252,-8956.491898,-1036.288319,689.485948
926.437573,-9992.780217,-1332.370696,1455.581446
926.437893,-10288.862594,-1554.432478,1915.238745
926.438214,-9474.636058,-1332.370696,995.924147
926.438535,-8586.388927,222.061783,689.485948
926.438856,-9696.697840,148.041188,536.266849
926.439176,-8660.409521,1110.308913,1685.410096
926.439497,-9252.574275,-74.020594,1991.848295
926.439818,-9696.697840,-962.267725,2068.457845
926.440139,-9474.636058,-2516.700203,2145.067394
926.440460,-9696.697840,-2812.782580,1762.019645
926.440780,-9770.718434,-1110.308913,2068.457845
926.441101,-9474.636058,0.000000,1455.581446
926.441422,-8216.285956,962.267725,383.047749
926.441743,-8438.347739,888.247130,229.828649
926.442063,-9252.574275,1110.308913,995.924147
926.442384,-10732.986159,0.000000,1991.848295
926.442705,-10955.047942,-148.041188,2298.286494
926.443026,-10436.903782,518.144159,1915.238745
926.443346,-11029.068536,148.041188,2068.457845
926.443667,-9548.656652,-148.041188,1838.629195
926.443988,-8290.306550,0.000000,0.000000
926.444309,-9104.533087,-740.205942,-1149.143247
926.444629,-8364.327145,740.205942,-1072.533697
926.444950,-8808.450710,0.000000,-1072.533697
926.445271,-8808.450710,888.247130,-1302.362347
926.445592,-9400.615463,1332.370696,-306.438199
926.445912,-10214.842000,1184.329507,842.705048
926.446233,-9622.677246,814.226536,2145.067394
926.446554,-10732.986159,-888.247130,3064.381992
926.446875,-11399.171507,-1406.391290,4366.744339
926.447196,-10658.965565,-2294.638420,3217.601092
926.447516,-10288.862594,-1480.411884,306.438199
926.447837,-9030.512492,1036.288319,-766.095498
926.448158,-8142.265362,2072.576638,-1225.752797
926.448479,-8068.244768,2146.597232,-306.438199
926.448799,-8364.327145,296.082377,-459.657299
926.449120,-9030.512492,-666.185348,-612.876398
926.449441,-10658.965565,-2664.741391,2681.334243
926.449762,-10658.965565,-2516.700203,1225.752797
926.450082,-10732.986159,148.041188,3370.820191
926.450403,-11621.233289,518.144159,3140.991542
926.450724,-8290.306550,2294.638420,1838.629195
926.451045,-10140.821405,296.082377,1762.019645
926.451365,-8512.368333,-222.061783,1532.190996
926.451686,-9474.636058,-1406.391290,1532.190996
926.452007,-10066.800811,-2368.659014,536.266849
926.452328,-9992.780217,0.000000,-383.047749
926.452648,-8586.388927,0.000000,536.266849
926.452969,-8956.491898,-148.041188,1225.752797
926.453290,-9030.512492,-296.082377,1225.752797
926.453611,-9844.739029,-814.226536,1685.410096
926.453932,-9992.780217,-1332.370696,1455.581446
926.454252,-10510.924376,-962.267725,1991.848295
926.454573,-10140.821405,-740.205942,2298.286494
926.454894,-10214.842000,-444.123565,1915.238745
926.455215,-8586.388927,-148.041188,842.705048
926.455535,-7476.080014,-666.185348,153.219100
926.455856,-8956.491898,-296.082377,1685.410096
926.456177,-10140.821405,-1776.494261,2221.676944
926.456498,-9992.780217,-888.247130,2298.286494
926.456818,-10362.883188,-444.123565,919.314598
926.457139,-9474.636058,1036.288319,76.609550
926.457460,-9992.780217,1258.350101,919.314598
926.457781,-9474.636058,814.226536,1685.410096
926.458101,-8438.347739,-1258.350101,-383.047749
926.458422,-9696.697840,-2146.597232,-919.314598
926.458743,-10214.842000,-1850.514855,1149.143247
926.459064,-10955.047942,-2220.617826,1378.971896
926.459385,-10658.965565,148.041188,1685.410096
926.459705,-10288.862594,888.247130,1608.800546
926.460026,-8586.388927,814.226536,153.219100
926.460347,-9178.553681,370.102971,766.095498
926.460668,-9696.697840,-666.185348,1455.581446
926.460988,-9474.636058,-2368.659014,1149.143247
926.461309,-9918.759623,-2886.803174,612.876398
926.461630,-8808.450710,-1480.411884,0.000000
926.461951,-8734.430116,518.144159,-1149.143247
926.462271,-9548.656652,222.061783,1455.581446
926.462592,-8290.306550,-222.061783,229.828649
926.462913,-9104.533087,-1184.329507,0.000000
926.463234,-10436.903782,-1628.453072,306.438199
926.463554,-10214.842000,-1480.411884,1378.971896
926.463875,-11103.089130,-962.267725,2374.896044
926.464196,-10584.944971,0.000000,2298.286494
926.464517,-9104.533087,1258.350101,1608.800546
926.464837,-8882.471304,1776.494261,2604.724693
926.465158,-9326.594869,888.247130,2451.505594
926.465479,-10066.800811,-592.164754,2298.286494
926.465800,-9474.636058,-1332.370696,1455.581446
926.466121,-8068.244768,-1036.288319,-1762.019645
926.466441,-8438.347739,1554.432478,-689.485948
926.466762,-9252.574275,1776.494261,689.485948
926.467083,-9178.553681,1998.556043,2145.067394
926.467404,-9326.594869,518.144159,766.095498
926.467724,-9992.780217,-740.205942,306.438199
926.468045,-11103.089130,-1332.370696,1838.629195
926.468366,-10436.903782,-962.267725,1838.629195
926.468687,-11103.089130,1110.308913,2298.286494
926.469007,-9622.677246,2368.659014,2298.286494
926.469328,-8068.244768,814.226536,612.876398
926.469649,-8586.388927,444.123565,1225.752797
926.469970,-9474.636058,-1110.308913,1685.410096
926.470290,-9326.594869,-1406.391290,1762.019645
926.470611,-9992.780217,-1554.432478,1532.190996
926.470932,-9474.636058,296.082377,76.609550
926.471253,-9844.739029,1332.370696,1072.533697
926.471574,-9548.656652,592.164754,2068.457845
926.471894,-9622.677246,-592.164754,1378.971896
926.472215,-10510.924376,-1406.391290,842.705048
926.472536,-10955.047942,-1628.453072,1532.190996
926.472857,-10658.965565,-888.247130,2451.505594
926.473177,-9326.594869,-1406.391290,842.705048
926.473498,-8290.306550,370.102971,153.219100
926.473819,-8068.244768,2072.576638,-1072.533697
926.474140,-7698.141797,1998.556043,536.266849
926.474460,-9992.780217,-518.144159,842.705048
926.474781,-9474.636058,-592.164754,2911.162892
926.475102,-10140.821405,-3923.091493,1685.410096
926.475423,-9252.574275,-2072.576638,1455.581446
926.475743,-9474.636058,0.000000,1915.238745
926.476064,-9770.718434,740.205942,1991.848295
926.476385,-8956.491898,1184.329507,2068.457845
926.476706,-8438.347739,74.020594,0.000000
926.477026,-9030.512492,-370.102971,-229.828649
926.477347,-10510.924376,-2072.576638,0.000000
926.477668,-9548.656652,-740.205942,1302.362347
926.477989,-10510.924376,-518.144159,1225.752797
926.478310,-9030.512492,1036.288319,536.266849
926.478630,-9326.594869,740.205942,1838.629195
926.478951,-9622.677246,296.082377,1991.848295
926.479272,-10584.944971,-1036.288319,3064.381992
926.479593,-10436.903782,-1702.473667,2298.286494
926.479913,-9548.656652,-1998.556043,842.705048
926.480234,-8882.471304,-444.123565,-153.219100
926.480555,-9178.553681,74.020594,153.219100
926.480876,-8660.409521,74.020594,1149.143247
926.481196,-9252.574275,-1406.391290,-229.828649
926.481517,-8660.409521,-1258.350101,-766.095498
926.481838,-11399.171507,-2146.597232,612.876398
926.482159,-10881.027347,-2220.617826,1149.143247
926.482479,-11103.089130,-888.247130,1225.752797
926.482800,-10658.965565,1406.391290,2834.553343
926.483121,-9622.677246,888.247130,2068.457845
926.483442,-9178.553681,-1036.288319,306.438199
926.483762,-7476.080014,-740.205942,995.924147
926.484083,-11325.150913,-1480.411884,995.924147
926.484404,-9104.533087,-148.041188,2374.896044
926.484725,-9030.512492,-1258.350101,0.000000
926.485046,-10436.903782,1406.391290,1838.629195
926.485366,-8290.306550,-370.102971,-383.047749
926.485687,-9770.718434,-74.020594,1608.800546
926.486008,-8808.450710,-592.164754,612.876398
926.486329,-9918.759623,-1850.514855,-1149.143247
926.486649,-9918.759623,-1776.494261,1225.752797
926.486970,-8586.388927,-518.144159,1225.752797
926.487291,-9844.739029,-444.123565,306.438199
926.487612,-10658.965565,1332.370696,1532.190996
926.487932,-8364.327145,1184.329507,1149.143247
926.488253,-9474.636058,444.123565,1149.143247
926.488574,-11029.068536,-592.164754,2987.772442
926.488895,-9622.677246,-1332.370696,2528.115143
926.489215,-10214.842000,-1406.391290,1532.190996
926.489536,-8808.450710,444.123565,229.828649
926.489857,-8660.409521,2220.617826,612.876398
926.490178,-9030.512492,1406.391290,1072.533697
926.490499,-8808.450710,1332.370696,612.876398
926.490819,-9548.656652,74.020594,229.828649
926.491140,-10584.944971,-1628.453072,536.266849
926.491461,-10658.965565,-814.226536,1762.019645
926.491782,-11029.068536,-370.102971,1991.848295
926.492102,-10510.924376,962.267725,1455.581446
926.492423,-9400.615463,888.247130,1608.800546
926.492744,-9030.512492,888.247130,1302.362347
926.493065,-10584.944971,444.123565,2451.505594
926.493385,-10658.965565,-592.164754,2987.772442
926.493706,-9696.697840,-1184.329507,2451.505594
926.494027,-9622.677246,-1258.350101,842.705048
926.494348,-8586.388927,74.020594,1302.362347
926.494668,-8956.491898,0.000000,1378.971896
926.494989,-8882.471304,0.000000,995.924147
926.495310,-8956.491898,-962.267725,-306.438199
926.495631,-9474.636058,-1554.432478,-919.314598
926.495951,-8586.388927,-1332.370696,-1225.752797
926.496272,-9326.594869,-1332.370696,-1378.971896
926.496593,-8882.471304,1110.308913,-1532.190996
926.496914,-9326.594869,1184.329507,-76.609550
926.497235,-8586.388927,1110.308913,383.047749
926.497555,-10066.800811,666.185348,2834.553343
926.497876,-12287.418637,-1850.514855,4290.134789
926.498197,-10955.047942,-2590.720797,4290.134789
926.498518,-10436.903782,-2664.741391,2604.724693
926.498838,-8660.409521,-888.247130,1072.533697
926.499159,-8734.430116,1628.453072,1302.362347
926.499480,-8438.347739,1406.391290,1378.971896
926.499801,-7328.038826,1110.308913,-383.047749
926.500121,-8660.409521,-740.205942,-612.876398
926.500442,-9992.780217,-2368.659014,306.438199
926.500763,-10584.944971,-3256.906145,536.266849
926.501084,-11547.212695,-666.185348,1685.410096
926.501404,-10807.006753,666.185348,1378.971896
926.501725,-9992.780217,1776.494261,1915.238745
926.502046,-10214.842000,962.267725,1991.848295
926.502367,-10510.924376,-296.082377,1685.410096
926.502688,-10955.047942,-2368.659014,1532.190996
926.503008,-9474.636058,-2220.617826,919.314598
926.503329,-9770.718434,-1480.411884,229.828649
926.503650,-8956.491898,666.185348,153.219100
926.503971,-8586.388927,814.226536,842.705048
926.504291,-8734.430116,0.000000,919.314598
926.504612,-9178.553681,-1184.329507,0.000000
926.504933,-10732.986159,-2664.741391,1838.629195
926.505254,-10807.006753,-2146.597232,1455.581446
926.505574,-10955.047942,-1332.370696,1302.362347
926.505895,-10436.903782,74.020594,1149.143247
926.506216,-9030.512492,1184.329507,76.609550
926.506537,-8364.327145,0.000000,229.828649
926.506857,-8956.491898,-740.205942,153.219100
926.507178,-9622.677246,-1924.535449,1225.752797
926.507499,-9474.636058,-2146.597232,919.314598
926.507820,-9326.594869,-962.267725,689.485948
926.508140,-9326.594869,222.061783,1378.971896
926.508461,-8808.450710,444.123565,1762.019645
926.508782,-8660.409521,-222.061783,2374.896044
926.509103,-8290.306550,-148.041188,3294.210641
926.509424,-9400.615463,-1998.556043,1302.362347
926.509744,-10214.842000,-2590.720797,1455.581446
926.510065,-9326.594869,-2664.741391,766.095498
926.510386,-9178.553681,-592.164754,536.266849
926.510707,-8586.388927,1184.329507,1915.238745
926.511027,-8956.491898,2368.659014,766.095498
926.511348,-9696.697840,1702.473667,1685.410096
926.511669,-9992.780217,296.082377,1762.019645
926.511990,-10436.903782,-1702.473667,2145.067394
926.512310,-9992.780217,-1850.514855,1302.362347
926.512631,-9548.656652,-296.082377,612.876398
926.512952,-9474.636058,1480.411884,1149.143247
926.513273,-8956.491898,2146.597232,1915.238745
926.513593,-8068.244768,1110.308913,689.485948
926.513914,-9474.636058,74.020594,536.266849
926.514235,-10436.903782,-592.164754,766.095498
926.514556,-10362.883188,0.000000,1302.362347
926.514877,-10807.006753,962.267725,3064.381992
926.515197,-11177.109724,1628.453072,2068.457845
926.515518,-10214.842000,1480.411884,1991.848295
926.515839,-9474.636058,222.061783,1302.362347
926.516160,-10510.924376,0.000000,1991.848295
926.516480,-11251.130318,-1406.391290,3217.601092
926.516801,-10510.924376,-1554.432478,1838.629195
926.517122,-9474.636058,-296.082377,612.876398
926.517443,-8660.409521,814.226536,0.000000
926.517763,-8512.368333,1480.411884,612.876398
926.518084,-8660.409521,814.226536,995.924147
926.518405,-8068.244768,-1110.308913,306.438199
926.518726,-9622.677246,-1850.514855,689.485948
926.519046,-9844.739029,-1850.514855,1149.143247
926.519367,-10362.883188,-1480.411884,1838.629195
926.519688,-10362.883188,222.061783,2145.067394
926.520009,-9474.636058,888.247130,1378.971896
926.520329,-8068.244768,518.144159,-995.924147
926.520650,-7994.224174,-222.061783,383.047749
926.520971,-9030.512492,-1406.391290,1072.533697
926.521292,-9252.574275,-2294.638420,995.924147
926.521613,-9252.574275,-1776.494261,919.314598
926.521933,-8586.388927,0.000000,995.924147
926.522254,-8956.491898,1184.329507,1302.362347
926.522575,-9474.636058,444.123565,2068.457845
926.522896,-9474.636058,-370.102971,1838.629195
926.523216,-9178.553681,-2072.576638,153.219100
926.523537,-9844.739029,-2220.617826,76.609550
926.523858,-9770.718434,-1406.391290,689.485948
926.524179,-10140.821405,-740.205942,689.485948
926.524499,-10214.842000,0.000000,-536.266849
926.524820,-8290.306550,888.247130,-153.219100
926.525141,-9548.656652,-888.247130,-306.438199
926.525462,-9992.780217,-222.061783,842.705048
926.525782,-11917.315666,-1110.308913,2298.286494
926.526103,-10510.924376,-1332.370696,2068.457845
926.526424,-10214.842000,-444.123565,1532.190996
926.526745,-9918.759623,-962.267725,995.924147
926.527065,-8882.471304,0.000000,766.095498
926.527386,-10807.006753,-296.082377,766.095498
926.527707,-8808.450710,-296.082377,0.000000
926.528028,-9992.780217,-962.267725,76.609550
926.528349,-10881.027347,-1332.370696,612.876398
926.528669,-10140.821405,-518.144159,1762.019645
926.528990,-11399.171507,-444.123565,1378.971896
926.529311,-9918.759623,222.061783,995.924147
926.529632,-9104.533087,370.102971,1302.362347
926.529952,-10066.800811,-296.082377,1532.190996
926.530273,-9622.677246,-740.205942,1991.848295
926.530594,-10510.924376,-1776.494261,1915.238745
926.530915,-9548.656652,-1480.411884,1838.629195
926.531235,-8882.471304,-814.226536,536.266849
926.531556,-10288.862594,222.061783,919.314598
926.531877,-9030.512492,222.061783,1915.238745
926.532198,-8734.430116,296.082377,1302.362347
926.532518,-9918.759623,-592.164754,1685.410096
926.532839,-10362.883188,-1702.473667,2911.162892
926.533160,-10066.800811,-1480.411884,2145.067394
926.533481,-9474.636058,-1480.411884,536.266849
926.533801,-9030.512492,0.000000,-612.876398
926.534122,-7105.977043,814.226536,-995.924147
926.534443,-7624.121203,888.247130,-1225.752797
926.534764,-8290.306550,1036.288319,1072.533697
926.535084,-10362.883188,-1184.329507,1685.410096
926.535405,-10584.944971,-1702.473667,2145.067394
926.535726,-10732.986159,-1480.411884,536.266849
926.536047,-9918.759623,1258.350101,1838.629195
926.536367,-9844.739029,2516.700203,3447.429741
926.536688,-9918.759623,1406.391290,2757.943793
926.537009,-8512.368333,740.205942,1225.752797
926.537330,-9770.718434,-962.267725,0.000000
926.537650,-8808.450710,-1480.411884,-459.657299
926.537971,-9474.636058,-1036.288319,229.828649
926.538292,-10584.944971,740.205942,1072.533697
926.538613,-9622.677246,2072.576638,1302.362347
926.538934,-8660.409521,1110.308913,459.657299
926.539254,-10510.924376,1258.350101,2068.457845
926.539575,-11621.233289,-296.082377,3140.991542
926.539896,-11029.068536,-2294.638420,2298.286494
926.540217,-10214.842000,-1776.494261,1608.800546
926.540537,-8808.450710,-148.041188,-459.657299
926.540858,-8438.347739,1998.556043,0.000000
926.541179,-8808.450710,1998.556043,3064.381992
926.541500,-7994.224174,1480.411884,1225.752797
926.541820,-9474.636058,-1258.350101,842.705048
926.542141,-9400.615463,-2516.700203,0.000000
926.542462,-10066.800811,-2146.597232,2145.067394
926.542783,-11547.212695,-1776.494261,2298.286494
926.543103,-9696.697840,1332.370696,2757.943793
926.543424,-9104.533087,666.185348,1455.581446
926.543745,-8068.244768,74.020594,459.657299
926.544066,-9252.574275,-962.267725,1378.971896
926.544386,-10288.862594,-1998.556043,1532.190996
926.544707,-9400.615463,-1554.432478,1685.410096
926.545028,-9622.677246,-592.164754,1225.752797
926.545349,-9178.553681,-222.061783,229.828649
926.545669,-8808.450710,370.102971,842.705048
926.545990,-9770.718434,222.061783,1225.752797
926.546311,-9104.533087,-814.226536,842.705048
926.546632,-9326.594869,-1998.556043,-229.828649
926.546952,-9400.615463,-2146.597232,0.000000
926.547273,-9178.553681,-1998.556043,-842.705048
926.547594,-9474.636058,-148.041188,-306.438199
926.547915,-8290.306550,1036.288319,-536.266849
926.548235,-7179.997637,74.020594,-995.924147
926.548556,-9622.677246,814.226536,1378.971896
926.548877,-11769.274478,-1184.329507,3447.429741
926.549198,-11547.212695,-2146.597232,3753.867940
926.549519,-11769.274478,-3108.864956,3524.039291
926.549839,-9918.759623,-1406.391290,1149.143247
926.550160,-9548.656652,-370.102971,766.095498
926.550481,-8808.450710,222.061783,306.438199
926.550802,-8438.347739,518.144159,-689.485948
926.551122,-7624.121203,-222.061783,-1072.533697
926.551443,-9622.677246,-1628.453072,-383.047749
926.551764,-10214.842000,-1332.370696,1149.143247
926.552085,-11177.109724,-962.267725,2298.286494
926.552405,-11177.109724,370.102971,1991.848295
926.552726,-9622.677246,1184.329507,1915.238745
926.553047,-9844.739029,962.267725,1915.238745
926.553368,-10732.986159,592.164754,2987.772442
926.553688,-10881.027347,-1332.370696,2987.772442
926.554009,-9992.780217,-1628.453072,842.705048
926.554330,-8660.409521,-1480.411884,-766.095498
926.554651,-8956.491898,444.123565,-383.047749
926.554971,-9474.636058,888.247130,689.485948
926.555292,-8586.388927,222.061783,1838.629195
926.555613,-9326.594869,74.020594,1838.629195
926.555934,-10658.965565,-2294.638420,2221.676944
926.556254,-10066.800811,-1332.370696,2528.115143
926.556575,-11843.295072,-2294.638420,2911.162892
926.556896,-9622.677246,370.102971,2374.896044
926.557217,-9622.677246,518.144159,1685.410096
926.557537,-7031.956449,-444.123565,-536.266849
926.557858,-7624.121203,-296.082377,-766.095498
926.558179,-9030.512492,-1110.308913,-766.095498
926.558500,-7476.080014,-1554.432478,-1302.362347
926.558820,-8808.450710,-1332.370696,-306.438199
926.559141,-8882.471304,296.082377,0.000000
926.559462,-9918.759623,444.123565,1225.752797
926.559783,-10436.903782,1332.370696,2604.724693
926.560103,-9474.636058,370.102971,1991.848295
926.560424,-10807.006753,-370.102971,1378.971896
926.560745,-10584.944971,-296.082377,2451.505594
926.561066,-9992.780217,-888.247130,995.924147
926.561387,-9844.739029,666.185348,153.219100
926.561707,-8956.491898,1480.411884,306.438199
926.562028,-9178.553681,1628.453072,-1762.019645
926.562349,-9474.636058,1332.370696,612.876398
926.562670,-10066.800811,148.041188,1225.752797
926.562990,-10955.047942,-814.226536,2145.067394
926.563311,-11103.089130,-1702.473667,1838.629195
926.563632,-10510.924376,-1332.370696,612.876398
926.563953,-9622.677246,0.000000,459.657299
926.564273,-9326.594869,814.226536,1149.143247
926.564594,-9622.677246,666.185348,1455.581446
926.564915,-8956.491898,74.020594,2604.724693
926.565236,-10510.924376,-962.267725,1455.581446
926.565556,-10140.821405,-740.205942,1378.971896
926.565877,-10140.821405,-222.061783,1455.581446
926.566198,-9918.759623,-222.061783,919.314598
926.566519,-8734.430116,1258.350101,1302.362347
926.566839,-9178.553681,0.000000,1225.752797
926.567160,-9178.553681,-1258.350101,1991.848295
926.567481,-10362.883188,-3108.864956,2068.457845
926.567802,-10436.903782,-3256.906145,2298.286494
926.568122,-9918.759623,-2368.659014,1302.362347
926.568443,-9474.636058,222.061783,1838.629195
926.568764,-9400.615463,444.123565,1532.190996
926.569085,-8660.409521,1332.370696,1838.629195
926.569405,-8734.430116,-370.102971,459.657299
926.569726,-9030.512492,-1480.411884,153.219100
926.570047,-8734.430116,-2220.617826,459.657299
926.570368,-9252.574275,-3034.844362,229.828649
926.570688,-9918.759623,-296.082377,1072.533697
926.571009,-9622.677246,0.000000,1532.190996
926.571330,-8216.285956,74.020594,1378.971896
926.571651,-9104.533087,-444.123565,1762.019645
926.571972,-9696.697840,-962.267725,1685.410096
926.572292,-11325.150913,-1036.288319,1838.629195
926.572613,-9400.615463,-370.102971,842.705048
926.572934,-8956.491898,370.102971,-229.828649
926.573255,-8660.409521,740.205942,-536.266849
926.573575,-9178.553681,148.041188,-459.657299
926.573896,-8882.471304,-444.123565,0.000000
926.574217,-10955.047942,-1184.329507,383.047749
926.574538,-10214.842000,-1110.308913,2757.943793
926.574858,-11029.068536,-1998.556043,842.705048
926.575179,-11325.150913,74.020594,1225.752797
