#time,accel_x,accel_y,accel_z
1047.559782,-9622.677246,0.000000,1072.533697
1047.560103,-9696.697840,-222.061783,842.705048
1047.560424,-9548.656652,-444.123565,919.314598
1047.560745,-9474.636058,-1036.288319,1608.800546
1047.561066,-9622.677246,-296.082377,919.314598
1047.561387,-9770.718434,-222.061783,1149.143247
1047.561708,-9474.636058,-148.041188,1378.971896
1047.562029,-9474.636058,-740.205942,1302.362347
1047.562350,-9696.697840,-148.041188,995.924147
1047.562671,-9622.677246,-370.102971,842.705048
1047.562992,-9474.636058,-444.123565,536.266849
1047.563313,-9548.656652,-370.102971,612.876398
1047.563634,-9770.718434,0.000000,919.314598
1047.563955,-9770.718434,-592.164754,1072.533697
1047.564276,-9696.697840,-148.041188,1149.143247
1047.564597,-9770.718434,-444.123565,995.924147
1047.564918,-9844.739029,-148.041188,1072.533697
1047.565239,-9696.697840,-740.205942,1149.143247
1047.565560,-9696.697840,-296.082377,1149.143247
1047.565881,-9474.636058,-592.164754,689.485948
1047.566202,-9622.677246,-740.205942,383.047749
1047.566523,-9104.533087,-370.102971,1072.533697
1047.566844,-9770.718434,-518.144159,995.924147
1047.567165,-9696.697840,-814.226536,1149.143247
1047.567486,-9474.636058,-1110.308913,229.828649
1047.567807,-9400.615463,-1110.308913,306.438199
1047.568128,-9474.636058,-814.226536,842.705048
1047.568449,-9770.718434,-962.267725,536.266849
1047.568770,-9474.636058,-962.267725,0.000000
1047.569091,-10881.027347,-296.082377,-383.047749
1047.569412,-9696.697840,-592.164754,-76.609550
1047.569733,-9622.677246,-888.247130,0.000000
1047.570054,-9770.718434,-592.164754,-306.438199
1047.570375,-9622.677246,-888.247130,-536.266849
1047.570696,-9400.615463,-1110.308913,-1072.533697
1047.571017,-9622.677246,-1480.411884,-766.095498
1047.571338,-9474.636058,-1628.453072,-1072.533697
1047.571659,-9474.636058,-1702.473667,-1455.581446
1047.571980,-8512.368333,-1850.514855,-1378.971896
1047.572301,-9400.615463,-1924.535449,-2221.676944
1047.572622,-9474.636058,-1554.432478,-2911.162892
1047.572943,-9696.697840,-1554.432478,-2681.334243
1047.573264,-9992.780217,-1924.535449,-3600.648841
1047.573585,-9548.656652,-2516.700203,-3600.648841
1047.573906,-9474.636058,-2516.700203,-3830.477490
1047.574227,-9918.759623,-2442.679609,-4060.306139
1047.574548,-9918.759623,-2664.741391,-3524.039291
1047.574869,-9770.718434,-2812.782580,-3217.601092
1047.575190,-9474.636058,-3330.926739,-2987.772442
1047.575511,-9474.636058,-4589.276840,-2681.334243
1047.575832,-9474.636058,-5107.421000,-2298.286494
1047.576153,-9030.512492,-5181.441594,-2834.553343
1047.576474,-9474.636058,-5255.462188,-2221.676944
1047.576795,-8882.471304,-5255.462188,-2681.334243
1047.577116,-8956.491898,-4737.318029,-2451.505594
1047.577437,-8512.368333,-4367.215058,-2451.505594
1047.577758,-9252.574275,-3775.050304,-2298.286494
1047.578080,-9178.553681,-3701.029710,-2221.676944
1047.578401,-9474.636058,-3923.091493,-1838.629195
1047.578722,-9918.759623,-4145.153275,-1608.800546
1047.579043,-9992.780217,-3849.070898,-1072.533697
1047.579364,-9548.656652,-4071.132681,-153.219100
1047.579685,-9622.677246,-3775.050304,383.047749
1047.580006,-9918.759623,-3775.050304,1225.752797
1047.580327,-10140.821405,-3923.091493,842.705048
1047.580648,-9844.739029,-3997.112087,1532.190996
1047.580969,-9474.636058,-3775.050304,1302.362347
1047.581290,-9474.636058,-3627.009116,1149.143247
1047.581611,-9030.512492,-3997.112087,-1225.752797
1047.581932,-8956.491898,-3330.926739,0.000000
1047.582253,-8882.471304,-3034.844362,-842.705048
1047.582574,-9400.615463,-3552.988522,-1378.971896
1047.582895,-9844.739029,-3478.967927,-766.095498
1047.583216,-9992.780217,-3552.988522,-612.876398
1047.583537,-10658.965565,-3256.906145,-383.047749
1047.583858,-10732.986159,-3108.864956,-229.828649
1047.584179,-10436.903782,-3552.988522,-612.876398
1047.584500,-9326.594869,-2738.761985,-306.438199
1047.584821,-9696.697840,-3330.926739,-1072.533697
1047.585142,-9178.553681,-2220.617826,-689.485948
1047.585463,-9474.636058,-1924.535449,0.000000
1047.585784,-8808.450710,-1628.453072,1608.800546
1047.586105,-9622.677246,-962.267725,459.657299
1047.586426,-9400.615463,-1036.288319,-306.438199
1047.586747,-9252.574275,-1184.329507,-766.095498
1047.587068,-8512.368333,-1702.473667,-1838.629195
1047.587389,-8660.409521,-1850.514855,-2604.724693
1047.587710,-8660.409521,-2368.659014,-3447.429741
1047.588031,-9252.574275,-1628.453072,-3753.867940
1047.588352,-10066.800811,-1924.535449,-3140.991542
1047.588673,-11029.068536,-2072.576638,-3447.429741
1047.588994,-10807.006753,-1850.514855,-2987.772442
1047.589315,-10510.924376,-1998.556043,-3140.991542
1047.589636,-9918.759623,-1628.453072,-1991.848295
1047.589957,-10140.821405,-1924.535449,-306.438199
1047.590278,-9918.759623,-1850.514855,-842.705048
1047.590599,-9326.594869,-1850.514855,-1455.581446
1047.590920,-8882.471304,-1332.370696,-1991.848295
1047.591241,-8438.347739,-666.185348,-2221.676944
1047.591562,-8438.347739,296.082377,-1838.629195
1047.591883,-8364.327145,592.164754,-2221.676944
1047.592204,-7920.203579,296.082377,-2374.896044
1047.592525,-8956.491898,-1924.535449,-3217.601092
1047.592846,-8808.450710,-1924.535449,-3064.381992
1047.593167,-10881.027347,-2664.741391,-1838.629195
1047.593488,-10807.006753,-1480.411884,76.609550
1047.593809,-11177.109724,-1776.494261,766.095498
1047.594130,-11621.233289,-1702.473667,1685.410096
1047.594451,-11103.089130,-2590.720797,536.266849
1047.594772,-10288.862594,-2960.823768,-229.828649
1047.595093,-9696.697840,-2738.761985,-689.485948
1047.595414,-7920.203579,-1850.514855,-1149.143247
1047.595735,-8438.347739,-2294.638420,-1378.971896
1047.596056,-7698.141797,-2146.597232,-1685.410096
1047.596377,-7402.059420,-2442.679609,-2298.286494
1047.596698,-8808.450710,-2590.720797,-1225.752797
1047.597019,-9844.739029,-1998.556043,76.609550
1047.597340,-11103.089130,-2368.659014,1915.238745
1047.597661,-11325.150913,-2960.823768,1838.629195
1047.597982,-10807.006753,-3256.906145,766.095498
1047.598303,-10066.800811,-2442.679609,459.657299
1047.598624,-10288.862594,-2664.741391,459.657299
1047.598945,-9696.697840,-3182.885551,-995.924147
1047.599266,-8808.450710,-2960.823768,-2374.896044
1047.599587,-8512.368333,-1554.432478,-2604.724693
1047.599908,-8882.471304,-444.123565,-1072.533697
1047.600229,-9622.677246,-1776.494261,689.485948
1047.600550,-9326.594869,-3775.050304,-383.047749
1047.600871,-8586.388927,-4145.153275,-1838.629195
1047.601192,-8290.306550,-3108.864956,-2221.676944
1047.601513,-9400.615463,-3849.070898,-612.876398
1047.601834,-9548.656652,-4145.153275,-766.095498
1047.602155,-9548.656652,-4663.297435,-2834.553343
1047.602476,-8290.306550,-4441.235652,-3907.087040
1047.602797,-9474.636058,-3404.947333,-2834.553343
1047.603118,-11547.212695,-3034.844362,-1072.533697
1047.603439,-11695.253884,-3108.864956,-1608.800546
1047.603760,-9844.739029,-2812.782580,-2757.943793
1047.604081,-9770.718434,-2072.576638,-3830.477490
1047.604402,-8956.491898,-2368.659014,-2451.505594
1047.604723,-9992.780217,-3034.844362,-1915.238745
1047.605044,-8882.471304,-1924.535449,-995.924147
1047.605365,-8956.491898,-2146.597232,-1532.190996
1047.605686,-9326.594869,-2368.659014,-1532.190996
1047.606007,-9696.697840,-1850.514855,-1149.143247
1047.606328,-10436.903782,-1776.494261,-459.657299
1047.606649,-9400.615463,-2072.576638,-1685.410096
1047.606970,-8882.471304,-2516.700203,-1532.190996
1047.607291,-8956.491898,-2886.803174,-2451.505594
1047.607612,-9918.759623,-2368.659014,-2068.457845
1047.607933,-10658.965565,-2368.659014,-1378.971896
1047.608254,-9992.780217,-2516.700203,-1838.629195
1047.608575,-10658.965565,-2738.761985,-3217.601092
1047.608896,-10140.821405,-1776.494261,-2834.553343
1047.609217,-9474.636058,-1776.494261,-2451.505594
1047.609538,-9992.780217,-1406.391290,0.000000
1047.609859,-10584.944971,-2072.576638,2145.067394
1047.610180,-10362.883188,-2738.761985,1455.581446
1047.610501,-9400.615463,-2664.741391,919.314598
1047.610822,-9326.594869,-2146.597232,-689.485948
1047.611143,-9104.533087,-1480.411884,459.657299
1047.611464,-8216.285956,-1036.288319,153.219100
1047.611785,-7772.162391,0.000000,-383.047749
1047.612106,-9178.553681,-2368.659014,-766.095498
1047.612427,-9252.574275,-3849.070898,-1378.971896
1047.612748,-10140.821405,-3997.112087,-306.438199
1047.613069,-10288.862594,-2886.803174,-1455.581446
1047.613390,-10436.903782,-1850.514855,-383.047749
1047.613711,-9326.594869,-1554.432478,-612.876398
1047.614032,-10362.883188,-2294.638420,306.438199
1047.614353,-9770.718434,-3849.070898,-1378.971896
1047.614674,-9474.636058,-3404.947333,-1608.800546
1047.614995,-9696.697840,-3256.906145,-1378.971896
1047.615315,-9030.512492,-1554.432478,-689.485948
1047.615636,-8660.409521,148.041188,76.609550
1047.615957,-9474.636058,370.102971,766.095498
1047.616278,-9622.677246,-1702.473667,-153.219100
1047.616599,-8808.450710,-666.185348,612.876398
1047.616919,-10732.986159,-3701.029710,-2987.772442
1047.617240,-6587.832884,-296.082377,-1685.410096
1047.617561,-10807.006753,-1332.370696,-1608.800546
1047.617882,-8956.491898,888.247130,153.219100
1047.618202,-9474.636058,-1554.432478,-2068.457845
1047.618523,-9548.656652,-2442.679609,-1915.238745
1047.618844,-9252.574275,-3404.947333,-4060.306139
1047.619165,-10288.862594,-2442.679609,-2834.553343
1047.619485,-10658.965565,148.041188,1991.848295
1047.619806,-11251.130318,-4811.338623,-842.705048
1047.620127,-6069.688724,-4293.194464,-2451.505594
1047.620448,-9400.615463,-4737.318029,-4136.915689
1047.620768,-8068.244768,-1776.494261,-2451.505594
1047.621089,-9326.594869,-962.267725,-1608.800546
1047.621410,-11103.089130,-296.082377,1225.752797
1047.621731,-7550.100608,-2886.803174,-2757.943793
1047.622052,-9326.594869,-4219.173869,-5669.106685
1047.622372,-9918.759623,-3701.029710,-1455.581446
1047.622693,-9030.512492,-3108.864956,-2374.896044
1047.623014,-10584.944971,-3627.009116,-536.266849
1047.623335,-8438.347739,-3330.926739,-1149.143247
1047.623655,-8216.285956,-3849.070898,-3983.696590
1047.623976,-11029.068536,-2590.720797,-2528.115143
1047.624297,-9622.677246,-1406.391290,-842.705048
1047.624618,-9178.553681,-518.144159,0.000000
1047.624938,-10807.006753,-1406.391290,459.657299
1047.625259,-8734.430116,-2886.803174,-919.314598
1047.625580,-9770.718434,-3627.009116,-1072.533697
1047.625901,-9918.759623,-1850.514855,1455.581446
1047.626221,-8364.327145,-2294.638420,2757.943793
1047.626542,-9918.759623,-2368.659014,0.000000
1047.626863,-8586.388927,-1554.432478,-1532.190996
1047.627184,-9696.697840,-148.041188,-1532.190996
1047.627505,-9252.574275,370.102971,-153.219100
1047.627825,-10436.903782,-1850.514855,306.438199
1047.628146,-9770.718434,-2368.659014,229.828649
1047.628467,-9918.759623,-4293.194464,-1532.190996
1047.628788,-10436.903782,-3404.947333,-306.438199
1047.629108,-9622.677246,-1702.473667,689.485948
1047.629429,-10955.047942,-2368.659014,2145.067394
1047.629750,-9992.780217,-1184.329507,1532.190996
1047.630071,-8068.244768,0.000000,-306.438199
1047.630391,-9770.718434,-148.041188,536.266849
1047.630712,-9326.594869,-296.082377,3524.039291
1047.631033,-11103.089130,-3182.885551,3140.991542
1047.631354,-9178.553681,-5477.523971,766.095498
1047.631674,-8808.450710,-4145.153275,-1378.971896
1047.631995,-8808.450710,-370.102971,-383.047749
1047.632316,-9104.533087,-518.144159,1532.190996
1047.632637,-10732.986159,-740.205942,995.924147
1047.632957,-9178.553681,-1702.473667,-1225.752797
1047.633278,-8216.285956,-3330.926739,-5286.058936
1047.633599,-8068.244768,-1924.535449,-3294.210641
1047.633920,-8808.450710,-1924.535449,-1838.629195
1047.634241,-9918.759623,-444.123565,-1072.533697
1047.634561,-10510.924376,0.000000,-1532.190996
1047.634882,-9474.636058,962.267725,-766.095498
1047.635203,-12583.501014,296.082377,2451.505594
1047.635524,-11621.233289,-962.267725,2834.553343
1047.635844,-11103.089130,-1924.535449,1532.190996
1047.636165,-8956.491898,-148.041188,-1455.581446
1047.636486,-6439.791695,2294.638420,-1149.143247
1047.636807,-8586.388927,296.082377,0.000000
1047.637127,-9548.656652,-1406.391290,229.828649
1047.637448,-8142.265362,-4219.173869,-2374.896044
1047.637769,-9622.677246,-962.267725,-1608.800546
1047.638090,-9474.636058,1480.411884,689.485948
1047.638410,-12139.377449,-222.061783,2987.772442
1047.638731,-10066.800811,0.000000,1991.848295
1047.639052,-9770.718434,-444.123565,-3140.991542
1047.639373,-8290.306550,1702.473667,-1072.533697
1047.639694,-9178.553681,1036.288319,-229.828649
1047.640014,-10362.883188,-444.123565,1991.848295
1047.640335,-9104.533087,-592.164754,536.266849
1047.640656,-9918.759623,-1258.350101,842.705048
1047.640977,-9252.574275,222.061783,2145.067394
1047.641297,-11177.109724,-592.164754,3370.820191
1047.641618,-11547.212695,-592.164754,2604.724693
1047.641939,-8142.265362,370.102971,536.266849
1047.642260,-9030.512492,1184.329507,1302.362347
1047.642580,-8142.265362,370.102971,766.095498
1047.642901,-9326.594869,-1554.432478,612.876398
1047.643222,-9030.512492,-888.247130,-306.438199
1047.643543,-9918.759623,0.000000,2068.457845
1047.643863,-9770.718434,740.205942,2987.772442
1047.644184,-12805.562797,962.267725,5822.325785
1047.644505,-11399.171507,-592.164754,3600.648841
1047.644826,-9326.594869,-1332.370696,3064.381992
1047.645147,-9252.574275,-666.185348,3064.381992
1047.645467,-7994.224174,-222.061783,2451.505594
1047.645788,-9622.677246,-814.226536,919.314598
1047.646109,-7994.224174,-1184.329507,229.828649
1047.646430,-6587.832884,962.267725,1685.410096
1047.646750,-10807.006753,-3330.926739,2681.334243
1047.647071,-9918.759623,888.247130,3140.991542
1047.647392,-9696.697840,0.000000,1225.752797
1047.647713,-11621.233289,222.061783,2374.896044
1047.648033,-8586.388927,1628.453072,3217.601092
1047.648354,-10658.965565,-1258.350101,2221.676944
1047.648675,-10658.965565,-2442.679609,459.657299
1047.648996,-7402.059420,-2146.597232,-3447.429741
1047.649316,-10807.006753,518.144159,919.314598
1047.649637,-8956.491898,-1628.453072,459.657299
1047.649958,-10510.924376,148.041188,76.609550
1047.650279,-9548.656652,-1776.494261,-995.924147
1047.650599,-8068.244768,-1184.329507,-2221.676944
1047.650920,-9474.636058,888.247130,383.047749
1047.651241,-12435.459826,-296.082377,2374.896044
1047.651562,-9696.697840,-962.267725,689.485948
1047.651883,-9844.739029,-962.267725,-842.705048
1047.652203,-9104.533087,-1036.288319,-919.314598
1047.652524,-10066.800811,-1184.329507,-689.485948
1047.652845,-9548.656652,-148.041188,-306.438199
1047.653166,-10140.821405,-592.164754,-2911.162892
1047.653486,-8068.244768,2294.638420,-1608.800546
1047.653807,-9474.636058,0.000000,-383.047749
1047.654128,-11103.089130,-888.247130,1225.752797
1047.654449,-11473.192101,-1406.391290,383.047749
1047.654769,-10066.800811,444.123565,-536.266849
1047.655090,-9400.615463,2368.659014,1455.581446
1047.655411,-9844.739029,888.247130,0.000000
1047.655732,-11251.130318,148.041188,2145.067394
1047.656052,-8586.388927,-222.061783,0.000000
1047.656373,-8586.388927,0.000000,153.219100
1047.656694,-9622.677246,1258.350101,3370.820191
1047.657015,-11177.109724,0.000000,4596.572988
1047.657336,-10658.965565,-1258.350101,2757.943793
1047.657656,-10066.800811,1332.370696,4596.572988
1047.657977,-9104.533087,-1480.411884,2145.067394
1047.658298,-8142.265362,-888.247130,2298.286494
1047.658619,-9622.677246,-2146.597232,153.219100
1047.658939,-7254.018232,1036.288319,-229.828649
1047.659260,-7772.162391,1998.556043,1532.190996
1047.659581,-9844.739029,-518.144159,2145.067394
1047.659902,-7254.018232,-1036.288319,2145.067394
1047.660222,-9770.718434,-3627.009116,612.876398
1047.660543,-10214.842000,-518.144159,4060.306139
1047.660864,-9770.718434,-592.164754,4596.572988
1047.661185,-11325.150913,0.000000,4979.620737
1047.661505,-9622.677246,-518.144159,2834.553343
1047.661826,-8956.491898,444.123565,383.047749
1047.662147,-9400.615463,-444.123565,1455.581446
1047.662468,-9622.677246,-740.205942,1378.971896
1047.662789,-8216.285956,-2442.679609,-153.219100
1047.663109,-9474.636058,-2516.700203,-536.266849
1047.663430,-10214.842000,-666.185348,0.000000
1047.663751,-10362.883188,962.267725,1915.238745
1047.664072,-12287.418637,1332.370696,2451.505594
1047.664392,-9252.574275,1554.432478,-459.657299
1047.664713,-10066.800811,1332.370696,-919.314598
1047.665034,-9622.677246,1110.308913,0.000000
1047.665355,-9030.512492,518.144159,229.828649
1047.665675,-10214.842000,-2072.576638,-766.095498
1047.665996,-8290.306550,-888.247130,-1149.143247
1047.666317,-9770.718434,740.205942,689.485948
1047.666638,-11399.171507,814.226536,2221.676944
1047.666958,-11769.274478,-888.247130,2987.772442
1047.667279,-9548.656652,0.000000,306.438199
1047.667600,-10288.862594,-518.144159,0.000000
1047.667921,-9252.574275,1702.473667,-153.219100
1047.668241,-9844.739029,148.041188,766.095498
1047.668562,-8882.471304,-222.061783,-995.924147
1047.668883,-7846.182985,666.185348,-2221.676944
1047.669204,-7994.224174,1480.411884,0.000000
1047.669525,-10066.800811,-518.144159,1685.410096
1047.669845,-10584.944971,-1554.432478,1762.019645
1047.670166,-9992.780217,-1850.514855,-306.438199
1047.670487,-9104.533087,-296.082377,536.266849
1047.670808,-9326.594869,2368.659014,1915.238745
1047.671128,-10732.986159,1850.514855,3753.867940
1047.671449,-9252.574275,-148.041188,1302.362347
1047.671770,-7772.162391,-1850.514855,229.828649
1047.672091,-8142.265362,-3478.967927,919.314598
1047.672411,-9992.780217,-4515.256246,1991.848295
1047.672732,-9548.656652,-1702.473667,2374.896044
1047.673053,-10807.006753,1184.329507,2528.115143
1047.673374,-8956.491898,3701.029710,3677.258390
1047.673694,-10510.924376,1480.411884,4060.306139
1047.674015,-10510.924376,-1258.350101,2757.943793
1047.674336,-10658.965565,-3775.050304,-459.657299
1047.674657,-9104.533087,-2072.576638,2068.457845
1047.674978,-10436.903782,-592.164754,4903.011187
1047.675298,-9548.656652,-1702.473667,4060.306139
1047.675619,-9104.533087,-3330.926739,766.095498
1047.675940,-9178.553681,3034.844362,-1685.410096
1047.676261,-9622.677246,2294.638420,612.876398
1047.676581,-8734.430116,2590.720797,1608.800546
1047.676902,-10066.800811,1258.350101,2528.115143
1047.677223,-8586.388927,-2442.679609,-1225.752797
1047.677544,-8364.327145,-2664.741391,0.000000
1047.677864,-10955.047942,-2664.741391,2145.067394
1047.678185,-10807.006753,444.123565,3983.696590
1047.678506,-12213.398043,-296.082377,4443.353888
1047.678827,-10584.944971,296.082377,-995.924147
1047.679147,-5329.482782,2368.659014,0.000000
1047.679468,-11251.130318,-1258.350101,-766.095498
1047.679789,-7550.100608,518.144159,459.657299
1047.680110,-9548.656652,-3182.885551,-2987.772442
1047.680431,-9252.574275,-666.185348,1532.190996
1047.680751,-7031.956449,-2072.576638,-3677.258390
1047.681072,-11399.171507,1036.288319,2451.505594
1047.681393,-10214.842000,222.061783,1685.410096
1047.681714,-9770.718434,666.185348,-1072.533697
1047.682034,-11325.150913,592.164754,1762.019645
1047.682355,-10362.883188,-814.226536,1532.190996
1047.682676,-8734.430116,-2812.782580,-689.485948
1047.682997,-10732.986159,-1998.556043,-153.219100
1047.683317,-7476.080014,148.041188,1532.190996
1047.683638,-8142.265362,2368.659014,536.266849
1047.683959,-11325.150913,1702.473667,1532.190996
1047.684280,-9030.512492,1554.432478,-1149.143247
1047.684600,-10066.800811,1480.411884,1685.410096
1047.684921,-10807.006753,1036.288319,2145.067394
1047.685242,-9622.677246,0.000000,2451.505594
1047.685563,-9918.759623,-1110.308913,1225.752797
1047.685883,-9622.677246,-518.144159,1225.752797
1047.686204,-8956.491898,296.082377,2451.505594
1047.686525,-9548.656652,-1110.308913,2834.553343
1047.686846,-10140.821405,-1480.411884,2221.676944
1047.687167,-9030.512492,-296.082377,459.657299
1047.687487,-10066.800811,370.102971,2068.457845
1047.687808,-9992.780217,74.020594,4903.011187
1047.688129,-9770.718434,-1110.308913,3524.039291
1047.688450,-8586.388927,-2738.761985,0.000000
1047.688770,-8216.285956,-1110.308913,-229.828649
1047.689091,-8586.388927,-1554.432478,2221.676944
1047.689412,-10955.047942,-1480.411884,3524.039291
1047.689733,-9992.780217,-1184.329507,2374.896044
1047.690053,-8882.471304,74.020594,0.000000
1047.690374,-10436.903782,1184.329507,3217.601092
1047.690695,-10584.944971,-888.247130,4749.792088
1047.691016,-10362.883188,-148.041188,5286.058936
1047.691336,-11473.192101,-3701.029710,306.438199
1047.691657,-7624.121203,-1850.514855,-842.705048
1047.691978,-7328.038826,-1554.432478,-1838.629195
1047.692299,-8882.471304,148.041188,0.000000
1047.692620,-7550.100608,1258.350101,-1991.848295
1047.692940,-8142.265362,1184.329507,-2298.286494
1047.693261,-9178.553681,222.061783,76.609550
1047.693582,-10140.821405,-2072.576638,1302.362347
1047.693903,-12953.603985,-3997.112087,2681.334243
1047.694223,-10807.006753,-2590.720797,1149.143247
1047.694544,-9474.636058,518.144159,842.705048
1047.694865,-10881.027347,1776.494261,2298.286494
1047.695186,-10658.965565,1258.350101,2145.067394
1047.695506,-8956.491898,-888.247130,-1915.238745
1047.695827,-8808.450710,-148.041188,-4060.306139
1047.696148,-6513.812290,1480.411884,-2834.553343
1047.696469,-8586.388927,0.000000,-2221.676944
1047.696789,-7105.977043,518.144159,-842.705048
1047.697110,-9178.553681,1554.432478,-1762.019645
1047.697431,-10584.944971,2812.782580,1532.190996
1047.697752,-12065.356855,1776.494261,4136.915689
1047.698073,-12509.480420,666.185348,4979.620737
1047.698393,-11917.315666,-740.205942,1838.629195
1047.698714,-10288.862594,0.000000,2451.505594
1047.699035,-9474.636058,-518.144159,1455.581446
1047.699356,-9770.718434,-1036.288319,1225.752797
1047.699676,-8216.285956,-2146.597232,-1225.752797
1047.699997,-8142.265362,-296.082377,-1149.143247
1047.700318,-8586.388927,-296.082377,0.000000
1047.700639,-8956.491898,740.205942,2604.724693
1047.700959,-11399.171507,518.144159,3524.039291
1047.701280,-10214.842000,-148.041188,2068.457845
1047.701601,-10732.986159,222.061783,4060.306139
1047.701922,-10658.965565,-666.185348,5056.230287
1047.702242,-9400.615463,-2442.679609,2911.162892
1047.702563,-8068.244768,-2516.700203,0.000000
1047.702884,-8142.265362,0.000000,0.000000
1047.703205,-7476.080014,592.164754,76.609550
1047.703525,-9474.636058,-296.082377,2451.505594
1047.703846,-9844.739029,-1258.350101,1378.971896
1047.704167,-9178.553681,-1628.453072,306.438199
1047.704488,-9992.780217,-518.144159,2528.115143
1047.704809,-9992.780217,-1184.329507,3064.381992
1047.705129,-9770.718434,-370.102971,3524.039291
1047.705450,-8808.450710,-370.102971,1225.752797
1047.705771,-7846.182985,0.000000,0.000000
1047.706092,-9104.533087,-222.061783,459.657299
1047.706412,-10510.924376,518.144159,3370.820191
1047.706733,-10066.800811,-962.267725,1762.019645
1047.707054,-10140.821405,148.041188,1762.019645
1047.707375,-10658.965565,148.041188,1762.019645
1047.707695,-11325.150913,814.226536,2145.067394
1047.708016,-11769.274478,-1258.350101,1302.362347
1047.708337,-9178.553681,1036.288319,0.000000
1047.708658,-9696.697840,0.000000,-536.266849
1047.708978,-9252.574275,-1258.350101,0.000000
1047.709299,-8734.430116,-1924.535449,-1225.752797
1047.709620,-9474.636058,74.020594,-2451.505594
1047.709941,-9548.656652,1702.473667,-1532.190996
1047.710262,-8956.491898,2072.576638,0.000000
1047.710582,-11325.150913,666.185348,2145.067394
1047.710903,-8808.450710,-888.247130,1072.533697
1047.711224,-10436.903782,-2516.700203,0.000000
1047.711545,-10066.800811,-592.164754,1608.800546
1047.711865,-11621.233289,-888.247130,2374.896044
1047.712186,-9030.512492,0.000000,1072.533697
1047.712507,-8290.306550,-592.164754,-1532.190996
1047.712828,-7476.080014,2146.597232,-995.924147
1047.713148,-9178.553681,592.164754,689.485948
1047.713469,-9548.656652,-814.226536,459.657299
1047.713790,-9252.574275,-1110.308913,459.657299
1047.714111,-9178.553681,-2368.659014,-842.705048
1047.714431,-8956.491898,222.061783,1302.362347
1047.714752,-10732.986159,1110.308913,4366.744339
1047.715073,-10510.924376,592.164754,3370.820191
1047.715394,-9030.512492,814.226536,0.000000
1047.715714,-8660.409521,1554.432478,1838.629195
1047.716035,-9992.780217,-1628.453072,1838.629195
1047.716356,-10066.800811,-592.164754,2604.724693
1047.716676,-8956.491898,-1258.350101,766.095498
1047.716997,-7550.100608,0.000000,689.485948
1047.717318,-9252.574275,370.102971,1915.238745
1047.717639,-9696.697840,222.061783,3753.867940
1047.717959,-11029.068536,-962.267725,2221.676944
1047.718280,-9474.636058,-740.205942,766.095498
1047.718601,-9178.553681,-296.082377,2145.067394
1047.718921,-11177.109724,-2294.638420,2528.115143
1047.719242,-10066.800811,-2886.803174,1838.629195
1047.719563,-9104.533087,-2442.679609,0.000000
1047.719884,-9030.512492,-1924.535449,536.266849
1047.720204,-8956.491898,-296.082377,536.266849
1047.720525,-11473.192101,666.185348,2528.115143
1047.720846,-10584.944971,1184.329507,1378.971896
1047.721166,-9918.759623,1554.432478,383.047749
1047.721487,-10807.006753,740.205942,2757.943793
1047.721808,-9770.718434,-2294.638420,2298.286494
1047.722129,-9918.759623,-3182.885551,1838.629195
1047.722449,-10214.842000,-2294.638420,306.438199
1047.722770,-7920.203579,-444.123565,-689.485948
1047.723091,-7624.121203,-148.041188,-459.657299
1047.723412,-9844.739029,592.164754,459.657299
1047.723732,-9400.615463,296.082377,-1149.143247
1047.724053,-8586.388927,1628.453072,-2374.896044
1047.724374,-10288.862594,1850.514855,2681.334243
1047.724694,-11177.109724,-2368.659014,1532.190996
1047.725015,-9474.636058,-1332.370696,1455.581446
1047.725336,-10955.047942,-2146.597232,-995.924147
1047.725657,-7105.977043,1036.288319,-1149.143247
1047.725977,-9548.656652,1110.308913,1838.629195
1047.726298,-9326.594869,1702.473667,2145.067394
1047.726619,-8142.265362,296.082377,-689.485948
1047.726939,-8438.347739,1406.391290,0.000000
1047.727260,-8216.285956,1332.370696,1762.019645
1047.727581,-11103.089130,0.000000,2757.943793
1047.727902,-10584.944971,-1332.370696,2451.505594
1047.728222,-8734.430116,-1036.288319,0.000000
1047.728543,-8438.347739,222.061783,-153.219100
1047.728864,-9252.574275,0.000000,306.438199
1047.729184,-9474.636058,1850.514855,1378.971896
1047.729505,-9474.636058,592.164754,-766.095498
1047.729826,-9548.656652,2368.659014,1302.362347
1047.730147,-11991.336260,1036.288319,4903.011187
1047.730467,-11251.130318,-2516.700203,3370.820191
1047.730788,-10807.006753,-2960.823768,1762.019645
1047.731109,-9992.780217,-1036.288319,153.219100
1047.731430,-7772.162391,814.226536,1149.143247
1047.731750,-9252.574275,1480.411884,2987.772442
1047.732071,-10288.862594,-222.061783,2374.896044
1047.732392,-7105.977043,-1850.514855,-1915.238745
1047.732712,-9178.553681,-1184.329507,536.266849
1047.733033,-8808.450710,-1406.391290,1762.019645
1047.733354,-10807.006753,-2146.597232,2604.724693
1047.733675,-10584.944971,-370.102971,1225.752797
1047.733995,-9474.636058,0.000000,1072.533697
1047.734316,-9400.615463,148.041188,1072.533697
1047.734637,-12213.398043,518.144159,4443.353888
1047.734957,-10955.047942,-2220.617826,1685.410096
1047.735278,-8586.388927,-148.041188,-383.047749
1047.735599,-9918.759623,-296.082377,229.828649
1047.735920,-8512.368333,444.123565,1072.533697
1047.736240,-9400.615463,444.123565,995.924147
1047.736561,-9326.594869,-1110.308913,-306.438199
1047.736882,-7105.977043,1258.350101,-689.485948
1047.737202,-9770.718434,-1924.535449,536.266849
1047.737523,-9178.553681,-1702.473667,1762.019645
1047.737844,-9696.697840,-2516.700203,995.924147
1047.738165,-10362.883188,0.000000,1072.533697
1047.738485,-9844.739029,2294.638420,2911.162892
1047.738806,-12287.418637,74.020594,3677.258390
1047.739127,-10436.903782,-1628.453072,2451.505594
1047.739448,-10066.800811,-3701.029710,-1072.533697
1047.739768,-9622.677246,-592.164754,919.314598
1047.740089,-9104.533087,-1258.350101,1149.143247
1047.740410,-9696.697840,-1702.473667,2221.676944
1047.740730,-7846.182985,-2146.597232,-1302.362347
1047.741051,-7476.080014,296.082377,-2528.115143
1047.741372,-9030.512492,370.102971,-919.314598
1047.741693,-9918.759623,1332.370696,2068.457845
1047.742013,-11991.336260,-518.144159,3447.429741
1047.742334,-9918.759623,-1184.329507,459.657299
1047.742655,-8290.306550,370.102971,689.485948
1047.742975,-10658.965565,-222.061783,1915.238745
1047.743296,-10510.924376,740.205942,3447.429741
1047.743617,-10214.842000,-666.185348,919.314598
1047.743938,-8364.327145,296.082377,229.828649
1047.744258,-9474.636058,-592.164754,229.828649
1047.744579,-9474.636058,296.082377,995.924147
1047.744900,-10584.944971,-1110.308913,229.828649
1047.745220,-8808.450710,-222.061783,153.219100
1047.745541,-8882.471304,-1554.432478,1378.971896
1047.745862,-10214.842000,-1998.556043,2145.067394
1047.746183,-11399.171507,-1998.556043,1991.848295
1047.746503,-10066.800811,-1110.308913,842.705048
1047.746824,-9252.574275,1628.453072,1455.581446
1047.747145,-10362.883188,740.205942,2298.286494
1047.747466,-9474.636058,-888.247130,1149.143247
1047.747786,-9252.574275,-1998.556043,76.609550
1047.748107,-8956.491898,-2442.679609,-766.095498
1047.748428,-8142.265362,-1406.391290,0.000000
1047.748748,-10658.965565,-1258.350101,689.485948
1047.749069,-9400.615463,518.144159,459.657299
1047.749390,-9178.553681,1406.391290,-306.438199
1047.749711,-10066.800811,2294.638420,1838.629195
1047.750031,-10584.944971,296.082377,2145.067394
1047.750352,-11399.171507,-74.020594,3217.601092
1047.750673,-10140.821405,-1184.329507,766.095498
1047.750993,-7772.162391,-1036.288319,-153.219100
1047.751314,-9104.533087,-222.061783,766.095498
1047.751635,-10140.821405,444.123565,2145.067394
1047.751956,-8438.347739,0.000000,-1225.752797
1047.752276,-8808.450710,888.247130,-612.876398
1047.752597,-9770.718434,2072.576638,1072.533697
1047.752918,-10288.862594,296.082377,2834.553343
1047.753238,-11177.109724,-296.082377,4213.525239
1047.753559,-8216.285956,370.102971,2298.286494
1047.753880,-10436.903782,1554.432478,2528.115143
1047.754201,-11029.068536,-888.247130,3370.820191
1047.754521,-8512.368333,-444.123565,2834.553343
1047.754842,-9326.594869,-2664.741391,-1302.362347
1047.755163,-6661.853478,1036.288319,-1302.362347
1047.755484,-9104.533087,1776.494261,306.438199
1047.755804,-9474.636058,1332.370696,1762.019645
1047.756125,-10584.944971,-444.123565,1608.800546
1047.756446,-7328.038826,-1110.308913,0.000000
1047.756766,-9178.553681,-1998.556043,1455.581446
1047.757087,-11251.130318,-1480.411884,3064.381992
1047.757408,-12435.459826,-1480.411884,5592.497135
1047.757729,-9548.656652,-2220.617826,1608.800546
1047.758049,-8586.388927,370.102971,919.314598
1047.758370,-8882.471304,222.061783,1455.581446
1047.758691,-9844.739029,0.000000,2451.505594
1047.759011,-9474.636058,-222.061783,689.485948
1047.759332,-9030.512492,518.144159,-689.485948
1047.759653,-9326.594869,1776.494261,1302.362347
1047.759974,-11177.109724,-740.205942,2145.067394
1047.760294,-10362.883188,-1036.288319,2834.553343
1047.760615,-9844.739029,-3108.864956,-1685.410096
1047.760936,-6217.729913,74.020594,-1225.752797
1047.761256,-8882.471304,148.041188,-229.828649
1047.761577,-10140.821405,2442.679609,2451.505594
1047.761898,-11251.130318,-296.082377,1149.143247
1047.762219,-7698.141797,-518.144159,995.924147
1047.762539,-10288.862594,-3034.844362,76.609550
1047.762860,-11547.212695,-2220.617826,2757.943793
1047.763181,-11325.150913,-2442.679609,2068.457845
1047.763502,-9844.739029,-1184.329507,536.266849
1047.763822,-7846.182985,888.247130,-689.485948
1047.764143,-9252.574275,0.000000,306.438199
1047.764464,-10066.800811,-740.205942,153.219100
1047.764784,-9252.574275,-1924.535449,-919.314598
1047.765105,-10214.842000,-592.164754,-153.219100
1047.765426,-8734.430116,370.102971,842.705048
1047.765747,-10288.862594,0.000000,612.876398
1047.766067,-11399.171507,-592.164754,1685.410096
1047.766388,-8364.327145,-222.061783,-612.876398
1047.766709,-9252.574275,-740.205942,1072.533697
1047.767029,-9992.780217,-1628.453072,383.047749
1047.767350,-9252.574275,-1110.308913,0.000000
1047.767671,-9844.739029,-296.082377,-1225.752797
1047.767992,-9178.553681,2146.597232,459.657299
1047.768312,-9104.533087,740.205942,919.314598
1047.768633,-8956.491898,0.000000,2374.896044
1047.768954,-10288.862594,-3108.864956,-536.266849
1047.769274,-8438.347739,-592.164754,-306.438199
1047.769595,-9622.677246,0.000000,2221.676944
1047.769916,-10881.027347,1184.329507,3600.648841
1047.770237,-10584.944971,888.247130,3524.039291
1047.770557,-11325.150913,-370.102971,1532.190996
1047.770878,-9178.553681,1924.535449,2451.505594
1047.771199,-10881.027347,-370.102971,3830.477490
1047.771520,-11103.089130,-888.247130,4519.963438
1047.771840,-9104.533087,-1332.370696,229.828649
1047.772161,-6513.812290,-296.082377,-995.924147
1047.772482,-8290.306550,1406.391290,0.000000
1047.772802,-8660.409521,148.041188,1378.971896
1047.773123,-8216.285956,-1702.473667,-612.876398
1047.773444,-8956.491898,-888.247130,-689.485948
1047.773765,-9326.594869,-148.041188,2145.067394
1047.774085,-11843.295072,-888.247130,6971.469032
1047.774406,-13397.727550,-5625.565159,3830.477490
1047.774727,-6661.853478,-1258.350101,1302.362347
1047.775047,-12731.542202,888.247130,1149.143247
1047.775368,-8438.347739,2886.803174,3830.477490
1047.775689,-7698.141797,-888.247130,842.705048
1047.776010,-10510.924376,-1110.308913,842.705048
1047.776330,-5551.544565,-1184.329507,-2834.553343
1047.776651,-8882.471304,-1554.432478,-306.438199
1047.776972,-10732.986159,-740.205942,2987.772442
1047.777292,-10140.821405,-2516.700203,306.438199
1047.777613,-8882.471304,222.061783,0.000000
1047.777934,-9474.636058,1110.308913,1762.019645
1047.778255,-8956.491898,0.000000,612.876398
1047.778575,-12731.542202,-370.102971,2451.505594
1047.778896,-8808.450710,-740.205942,-1072.533697
1047.779217,-8364.327145,1184.329507,-1302.362347
1047.779538,-10436.903782,0.000000,-229.828649
1047.779858,-9252.574275,0.000000,766.095498
1047.780179,-9918.759623,-1184.329507,-459.657299
1047.780500,-9104.533087,370.102971,-1685.410096
1047.780820,-9696.697840,1480.411884,919.314598
1047.781141,-10140.821405,-74.020594,1455.581446
1047.781462,-10584.944971,-370.102971,2068.457845
1047.781783,-11621.233289,-740.205942,153.219100
1047.782103,-8734.430116,296.082377,0.000000
1047.782424,-9918.759623,-222.061783,995.924147
1047.782745,-10140.821405,-888.247130,2451.505594
1047.783065,-9622.677246,-1332.370696,-995.924147
1047.783386,-9548.656652,0.000000,-612.876398
1047.783707,-8142.265362,1924.535449,459.657299
1047.784028,-11251.130318,740.205942,1455.581446
1047.784348,-10140.821405,666.185348,3524.039291
1047.784669,-9252.574275,-1184.329507,689.485948
1047.784990,-9548.656652,-1036.288319,1915.238745
1047.785310,-10214.842000,-1184.329507,4060.306139
1047.785631,-10362.883188,-1554.432478,3830.477490
1047.785952,-9622.677246,-2368.659014,1532.190996
1047.786273,-7254.018232,444.123565,-536.266849
1047.786593,-7920.203579,1702.473667,1455.581446
1047.786914,-8734.430116,1110.308913,2911.162892
1047.787235,-10732.986159,-1036.288319,1378.971896
1047.787556,-7846.182985,-814.226536,-153.219100
1047.787876,-7920.203579,-518.144159,383.047749
1047.788197,-10214.842000,-370.102971,4136.915689
1047.788518,-11029.068536,-740.205942,4290.134789
1047.788838,-10510.924376,-1702.473667,1532.190996
1047.789159,-8068.244768,148.041188,842.705048
1047.789480,-9178.553681,-962.267725,-612.876398
1047.789801,-9548.656652,-296.082377,2451.505594
1047.790121,-10362.883188,-2146.597232,1838.629195
1047.790442,-7476.080014,-296.082377,-842.705048
1047.790763,-8956.491898,-1332.370696,1225.752797
1047.791083,-9252.574275,-2368.659014,459.657299
1047.791404,-11325.150913,-888.247130,2068.457845
1047.791725,-10955.047942,-518.144159,306.438199
1047.792046,-8142.265362,370.102971,0.000000
1047.792366,-8068.244768,-592.164754,306.438199
1047.792687,-9844.739029,-592.164754,-536.266849
1047.793008,-9326.594869,0.000000,-1762.019645
1047.793328,-10140.821405,1480.411884,-459.657299
1047.793649,-9252.574275,2146.597232,1608.800546
1047.793970,-12287.418637,-518.144159,2451.505594
1047.794291,-11547.212695,-2590.720797,1302.362347
1047.794611,-10214.842000,-1628.453072,229.828649
1047.794932,-10510.924376,-518.144159,1532.190996
1047.795253,-9548.656652,666.185348,1608.800546
1047.795574,-9992.780217,592.164754,76.609550
1047.795894,-8882.471304,1406.391290,-1608.800546
1047.796215,-7328.038826,1776.494261,-1608.800546
1047.796536,-9104.533087,222.061783,1378.971896
1047.796856,-10436.903782,-1998.556043,1991.848295
1047.797177,-9622.677246,-2590.720797,536.266849
1047.797498,-10955.047942,-1258.350101,689.485948
1047.797819,-9474.636058,518.144159,2451.505594
1047.798139,-10436.903782,1036.288319,3064.381992
1047.798460,-10584.944971,148.041188,2451.505594
1047.798781,-8660.409521,-444.123565,-995.924147
1047.799101,-8364.327145,444.123565,-689.485948
1047.799422,-9400.615463,-1110.308913,1072.533697
1047.799743,-8734.430116,-222.061783,2681.334243
1047.800064,-10288.862594,-2886.803174,919.314598
1047.800384,-7550.100608,296.082377,383.047749
1047.800705,-8216.285956,518.144159,2757.943793
1047.801026,-9844.739029,-74.020594,3907.087040
1047.801346,-11769.274478,-1036.288319,4519.963438
1047.801667,-9844.739029,-1480.411884,1762.019645
1047.801988,-8808.450710,-444.123565,3217.601092
1047.802309,-9474.636058,-666.185348,2987.772442
1047.802629,-10584.944971,-518.144159,3907.087040
1047.802950,-9622.677246,-1628.453072,1149.143247
1047.803271,-8882.471304,1110.308913,689.485948
1047.803592,-8882.471304,-222.061783,1455.581446
1047.803912,-9548.656652,814.226536,2374.896044
1047.804233,-12731.542202,-1924.535449,2145.067394
1047.804554,-9918.759623,-444.123565,995.924147
1047.804874,-9696.697840,-2442.679609,1072.533697
1047.805195,-8882.471304,-1702.473667,0.000000
1047.805516,-10584.944971,-888.247130,689.485948
1047.805837,-9400.615463,-1332.370696,-1915.238745
1047.806157,-8512.368333,2368.659014,-229.828649
1047.806478,-9178.553681,1850.514855,612.876398
1047.806799,-9622.677246,1554.432478,1378.971896
1047.807119,-11029.068536,-888.247130,76.609550
1047.807440,-11103.089130,0.000000,0.000000
1047.807761,-8808.450710,-444.123565,0.000000
1047.808082,-10066.800811,-888.247130,612.876398
1047.808402,-9844.739029,-1184.329507,0.000000
1047.808723,-9252.574275,-740.205942,-1762.019645
1047.809044,-7698.141797,1924.535449,-2068.457845
1047.809365,-8808.450710,1702.473667,-76.609550
1047.809685,-9844.739029,1702.473667,995.924147
1047.810006,-10807.006753,0.000000,306.438199
1047.810327,-8586.388927,1554.432478,766.095498
1047.810647,-8512.368333,-1110.308913,1302.362347
1047.810968,-9548.656652,-2220.617826,2374.896044
1047.811289,-9252.574275,-1480.411884,766.095498
1047.811610,-9474.636058,0.000000,0.000000
1047.811930,-8438.347739,3256.906145,2834.553343
1047.812251,-10807.006753,0.000000,2681.334243
1047.812572,-9030.512492,-148.041188,1838.629195
1047.812892,-7994.224174,-3701.029710,-1838.629195
1047.813213,-7550.100608,-962.267725,-229.828649
1047.813534,-9178.553681,-1554.432478,1991.848295
1047.813855,-9770.718434,-666.185348,5056.230287
1047.814175,-9992.780217,-1998.556043,2451.505594
1047.814496,-9400.615463,-666.185348,459.657299
1047.814817,-10288.862594,1406.391290,4213.525239
1047.815137,-10436.903782,740.205942,5132.839837
1047.815458,-10362.883188,-518.144159,2834.553343
1047.815779,-8734.430116,-1332.370696,1149.143247
1047.816100,-6661.853478,-2072.576638,1149.143247
1047.816420,-9104.533087,-2294.638420,1149.143247
1047.816741,-10066.800811,-1776.494261,2451.505594
1047.817062,-8734.430116,-444.123565,612.876398
1047.817383,-9918.759623,2368.659014,1225.752797
1047.817704,-10658.965565,1998.556043,2451.505594
1047.818025,-10510.924376,0.000000,2757.943793
1047.818345,-10955.047942,-2516.700203,2068.457845
1047.818666,-10881.027347,-4071.132681,-536.266849
1047.818987,-8364.327145,-1332.370696,766.095498
1047.819308,-9918.759623,-1110.308913,842.705048
1047.819629,-10881.027347,444.123565,2068.457845
1047.819949,-9622.677246,0.000000,-1072.533697
1047.820270,-9178.553681,1628.453072,842.705048
1047.820591,-10362.883188,592.164754,76.609550
1047.820912,-10955.047942,0.000000,1225.752797
1047.821233,-10658.965565,-1184.329507,383.047749
1047.821554,-9104.533087,-222.061783,-306.438199
1047.821874,-8882.471304,-370.102971,-383.047749
1047.822195,-10658.965565,-814.226536,1838.629195
1047.822516,-10288.862594,-1184.329507,1378.971896
1047.822837,-9992.780217,-2220.617826,-1685.410096
1047.823158,-10362.883188,2294.638420,766.095498
1047.823479,-11399.171507,1850.514855,3370.820191
1047.823799,-10584.944971,592.164754,2068.457845
1047.824120,-9178.553681,-2738.761985,-1838.629195
1047.824441,-5033.400406,-666.185348,-5286.058936
1047.824762,-5625.565159,148.041188,-4519.963438
1047.825083,-7476.080014,1480.411884,-1302.362347
1047.825404,-8956.491898,1332.370696,1225.752797
1047.825724,-9696.697840,-370.102971,-229.828649
1047.826045,-9622.677246,1332.370696,3140.991542
1047.826366,-13989.892304,-1702.473667,5592.497135
1047.826687,-12287.418637,-370.102971,6665.030833
1047.827008,-12361.439231,-1628.453072,3983.696590
1047.827329,-8956.491898,-74.020594,4060.306139
1047.827649,-6883.915261,518.144159,842.705048
1047.827970,-8068.244768,-74.020594,1072.533697
1047.828291,-8364.327145,0.000000,0.000000
1047.828612,-6957.935855,0.000000,-1455.581446
1047.828933,-9622.677246,1480.411884,1915.238745
1047.829254,-10066.800811,1850.514855,4136.915689
1047.829574,-12213.398043,-814.226536,4903.011187
1047.829895,-11399.171507,-1924.535449,3677.258390
1047.830216,-8882.471304,-1036.288319,3294.210641
1047.830537,-9918.759623,-2442.679609,2834.553343
1047.830858,-10288.862594,0.000000,4366.744339
1047.831179,-10066.800811,-1036.288319,2221.676944
1047.831499,-9400.615463,444.123565,-1838.629195
1047.831820,-7402.059420,2664.741391,536.266849
1047.832141,-9474.636058,0.000000,842.705048
1047.832462,-8808.450710,-962.267725,536.266849
1047.832783,-10658.965565,-4737.318029,153.219100
1047.833104,-8586.388927,-2442.679609,1225.752797
1047.833424,-10807.006753,-1480.411884,2374.896044
1047.833745,-13619.789333,-148.041188,5515.887586
1047.834066,-11621.233289,0.000000,2221.676944
1047.834387,-9252.574275,2590.720797,1838.629195
1047.834708,-10214.842000,962.267725,689.485948
1047.835029,-9030.512492,592.164754,76.609550
1047.835349,-9474.636058,0.000000,-2145.067394
1047.835670,-7994.224174,-370.102971,-3217.601092
1047.835991,-6439.791695,1480.411884,-2374.896044
1047.836312,-9992.780217,0.000000,306.438199
1047.836633,-9696.697840,-1480.411884,306.438199
1047.836954,-9844.739029,-592.164754,-1302.362347
1047.837274,-9548.656652,0.000000,766.095498
1047.837595,-10288.862594,518.144159,2374.896044
1047.837916,-10288.862594,370.102971,1915.238745
1047.838237,-8956.491898,-1258.350101,0.000000
1047.838558,-7698.141797,74.020594,-2221.676944
1047.838879,-7031.956449,1850.514855,-689.485948
1047.839199,-9918.759623,-444.123565,766.095498
1047.839520,-8364.327145,296.082377,689.485948
1047.839841,-9474.636058,-1258.350101,-1225.752797
1047.840162,-9474.636058,-740.205942,-459.657299
1047.840483,-10436.903782,370.102971,2987.772442
1047.840804,-12213.398043,-296.082377,4366.744339
1047.841124,-10436.903782,-814.226536,3064.381992
1047.841445,-8734.430116,-1702.473667,689.485948
1047.841766,-7031.956449,-2220.617826,0.000000
1047.842087,-9548.656652,148.041188,-229.828649
1047.842408,-9474.636058,0.000000,919.314598
1047.842729,-7846.182985,148.041188,0.000000
1047.843049,-8512.368333,1258.350101,1838.629195
1047.843370,-10066.800811,-1258.350101,2911.162892
1047.843691,-11399.171507,-1702.473667,4290.134789
1047.844012,-11843.295072,-1258.350101,3447.429741
1047.844333,-10881.027347,740.205942,3907.087040
1047.844654,-10288.862594,1184.329507,3677.258390
1047.844974,-9400.615463,518.144159,3907.087040
1047.845295,-10066.800811,-1850.514855,1225.752797
1047.845616,-7624.121203,888.247130,842.705048
1047.845937,-8734.430116,-666.185348,995.924147
1047.846258,-8956.491898,222.061783,2374.896044
1047.846579,-10658.965565,-592.164754,2068.457845
1047.846899,-10066.800811,-1850.514855,306.438199
1047.847220,-9474.636058,-296.082377,1685.410096
1047.847541,-10214.842000,-1480.411884,1915.238745
1047.847862,-10510.924376,-592.164754,2834.553343
1047.848183,-10732.986159,-1554.432478,536.266849
1047.848504,-8660.409521,518.144159,536.266849
1047.848824,-8660.409521,814.226536,1225.752797
1047.849145,-9474.636058,-962.267725,1455.581446
1047.849466,-7179.997637,-1036.288319,1225.752797
1047.849787,-12287.418637,-6365.771101,-2757.943793
1047.850108,-5699.585753,2738.761985,-1149.143247
1047.850429,-12287.418637,-1036.288319,-1455.581446
1047.850749,-10140.821405,1628.453072,2528.115143
1047.851070,-8808.450710,-962.267725,-1915.238745
1047.851391,-9992.780217,1110.308913,153.219100
1047.851712,-9252.574275,-1554.432478,-153.219100
1047.852033,-8142.265362,-1110.308913,0.000000
1047.852354,-12657.521608,444.123565,2911.162892
1047.852674,-7846.182985,-444.123565,-842.705048
1047.852995,-8882.471304,3182.885551,-612.876398
1047.853316,-10732.986159,1850.514855,2221.676944
1047.853637,-8438.347739,962.267725,842.705048
1047.853958,-11399.171507,444.123565,-229.828649
1047.854279,-10436.903782,74.020594,1915.238745
1047.854599,-8956.491898,0.000000,1302.362347
1047.854920,-11177.109724,-296.082377,1915.238745
1047.855241,-10510.924376,-1184.329507,1149.143247
1047.855562,-6735.874072,222.061783,-1225.752797
1047.855883,-8216.285956,-740.205942,-1532.190996
1047.856204,-8216.285956,1554.432478,-766.095498
1047.856524,-9474.636058,0.000000,0.000000
1047.856845,-8882.471304,296.082377,1991.848295
1047.857166,-10881.027347,148.041188,3524.039291
1047.857487,-11103.089130,-1850.514855,3600.648841
1047.857808,-12583.501014,-2960.823768,4596.572988
1047.858129,-11103.089130,-2664.741391,3370.820191
1047.858449,-9844.739029,-518.144159,2604.724693
1047.858770,-10214.842000,-666.185348,3600.648841
1047.859091,-7698.141797,-592.164754,2374.896044
1047.859412,-8660.409521,-2442.679609,-995.924147
1047.859733,-8882.471304,-1406.391290,-766.095498
1047.860054,-7994.224174,-444.123565,1225.752797
1047.860374,-10362.883188,-1258.350101,2911.162892
1047.860695,-11399.171507,-2146.597232,3140.991542
1047.861016,-9178.553681,-1184.329507,919.314598
1047.861337,-10140.821405,-296.082377,1838.629195
1047.861658,-11325.150913,-1332.370696,2681.334243
1047.861979,-10140.821405,-1184.329507,3600.648841
1047.862299,-9252.574275,-1998.556043,76.609550
1047.862620,-6957.935855,148.041188,-1072.533697
1047.862941,-9474.636058,0.000000,0.000000
1047.863262,-8882.471304,888.247130,2757.943793
1047.863583,-10066.800811,0.000000,995.924147
1047.863904,-8956.491898,1702.473667,-1225.752797
1047.864224,-10214.842000,666.185348,-536.266849
1047.864545,-10066.800811,518.144159,1149.143247
1047.864866,-10955.047942,-740.205942,2528.115143
1047.865187,-11251.130318,-1406.391290,1378.971896
1047.865508,-8882.471304,1036.288319,1149.143247
1047.865829,-10881.027347,-1036.288319,306.438199
1047.866149,-9474.636058,1406.391290,1302.362347
1047.866470,-10658.965565,666.185348,1685.410096
1047.866791,-9474.636058,518.144159,-1225.752797
1047.867112,-7772.162391,3034.844362,-1225.752797
1047.867433,-11251.130318,0.000000,0.000000
1047.867754,-7328.038826,1332.370696,0.000000
1047.868074,-10436.903782,-2220.617826,-612.876398
1047.868395,-9326.594869,-1406.391290,-306.438199
1047.868716,-10288.862594,-370.102971,1302.362347
1047.869037,-11547.212695,-1036.288319,2987.772442
1047.869358,-9844.739029,-1184.329507,1608.800546
1047.869679,-10362.883188,-296.082377,1225.752797
1047.869999,-9030.512492,-444.123565,1149.143247
1047.870320,-8216.285956,370.102971,536.266849
1047.870641,-9992.780217,0.000000,1608.800546
1047.870962,-8586.388927,-666.185348,536.266849
1047.871283,-8364.327145,592.164754,1225.752797
1047.871604,-10214.842000,-888.247130,2068.457845
1047.871924,-9474.636058,-370.102971,2451.505594
1047.872245,-10362.883188,-296.082377,2681.334243
1047.872566,-9178.553681,740.205942,1991.848295
1047.872887,-9474.636058,1258.350101,2987.772442
1047.873208,-10436.903782,1110.308913,4443.353888
1047.873529,-8808.450710,-2072.576638,2604.724693
1047.873849,-8216.285956,-1036.288319,306.438199
1047.874170,-8882.471304,-518.144159,1915.238745
1047.874491,-9992.780217,-1036.288319,2451.505594
1047.874812,-9622.677246,0.000000,2374.896044
1047.875133,-9992.780217,-888.247130,-306.438199
1047.875454,-8290.306550,888.247130,229.828649
1047.875774,-9844.739029,-888.247130,1532.190996
1047.876095,-10658.965565,-1332.370696,2911.162892
1047.876416,-10066.800811,-2516.700203,306.438199
1047.876737,-7920.203579,-814.226536,-766.095498
1047.877058,-9696.697840,-888.247130,842.705048
1047.877379,-9770.718434,0.000000,1838.629195
1047.877699,-10807.006753,-814.226536,1991.848295
1047.878020,-9844.739029,-1184.329507,0.000000
1047.878341,-8290.306550,-444.123565,-1302.362347
1047.878662,-10881.027347,-1776.494261,1685.410096
1047.878983,-11917.315666,-1110.308913,2451.505594
1047.879304,-11843.295072,-370.102971,1838.629195
1047.879624,-10436.903782,-1480.411884,229.828649
1047.879945,-8364.327145,148.041188,0.000000
1047.880266,-9474.636058,-518.144159,-612.876398
1047.880587,-9326.594869,-888.247130,153.219100
1047.880908,-8586.388927,74.020594,-2221.676944
1047.881229,-8438.347739,1850.514855,-1072.533697
1047.881549,-8438.347739,296.082377,-229.828649
1047.881870,-9548.656652,-1702.473667,0.000000
1047.882191,-10140.821405,-962.267725,383.047749
1047.882512,-9918.759623,0.000000,919.314598
1047.882833,-10362.883188,814.226536,2834.553343
1047.883154,-10436.903782,-222.061783,2221.676944
1047.883474,-9622.677246,-1036.288319,1378.971896
1047.883795,-9326.594869,-518.144159,-383.047749
1047.884116,-7698.141797,518.144159,306.438199
1047.884437,-8290.306550,74.020594,2221.676944
1047.884758,-9178.553681,-2368.659014,842.705048
1047.885079,-9178.553681,-1850.514855,0.000000
1047.885399,-9844.739029,1036.288319,2451.505594
1047.885720,-10214.842000,-592.164754,2911.162892
1047.886041,-10066.800811,222.061783,2911.162892
1047.886362,-11251.130318,-1628.453072,2528.115143
1047.886683,-7846.182985,-888.247130,153.219100
1047.887004,-8734.430116,370.102971,1608.800546
1047.887324,-9844.739029,-296.082377,3217.601092
1047.887645,-8216.285956,-740.205942,995.924147
1047.887966,-8734.430116,-444.123565,-995.924147
1047.888287,-9030.512492,1850.514855,1302.362347
1047.888608,-9844.739029,740.205942,2757.943793
1047.888929,-11547.212695,-444.123565,3830.477490
1047.889249,-10288.862594,-1628.453072,689.485948
1047.889570,-8438.347739,-1628.453072,-995.924147
1047.889891,-8586.388927,-518.144159,-1072.533697
1047.890212,-9770.718434,888.247130,1991.848295
1047.890533,-10955.047942,1110.308913,995.924147
1047.890854,-8290.306550,814.226536,919.314598
1047.891174,-10066.800811,-222.061783,2221.676944
1047.891495,-12139.377449,-518.144159,3524.039291
1047.891816,-13545.768739,-1850.514855,2987.772442
1047.892137,-10214.842000,-518.144159,1378.971896
1047.892458,-9400.615463,1998.556043,383.047749
1047.892779,-9696.697840,1036.288319,2374.896044
1047.893099,-9844.739029,-888.247130,2604.724693
1047.893420,-9252.574275,-518.144159,0.000000
1047.893741,-9030.512492,-2368.659014,-2451.505594
1047.894062,-7772.162391,-592.164754,-1302.362347
1047.894383,-9326.594869,296.082377,-1225.752797
1047.894703,-9622.677246,666.185348,229.828649
1047.895024,-9696.697840,962.267725,-383.047749
1047.895345,-8438.347739,962.267725,536.266849
1047.895666,-10510.924376,-1924.535449,1762.019645
1047.895987,-11325.150913,-2664.741391,1072.533697
1047.896308,-11251.130318,-2294.638420,76.609550
1047.896628,-8142.265362,-74.020594,76.609550
1047.896949,-8956.491898,814.226536,383.047749
1047.897270,-9474.636058,1702.473667,1685.410096
1047.897591,-9400.615463,0.000000,0.000000
1047.897912,-8660.409521,-592.164754,-1762.019645
1047.898233,-8586.388927,-1258.350101,689.485948
1047.898553,-8512.368333,-1110.308913,2604.724693
1047.898874,-9696.697840,-370.102971,2374.896044
1047.899195,-9992.780217,-592.164754,919.314598
1047.899516,-8142.265362,740.205942,1225.752797
1047.899837,-9770.718434,-888.247130,1608.800546
1047.900158,-10214.842000,74.020594,3370.820191
1047.900478,-11621.233289,-888.247130,2834.553343
1047.900799,-10288.862594,1406.391290,3064.381992
1047.901120,-10658.965565,1110.308913,4290.134789
1047.901441,-11029.068536,0.000000,3217.601092
1047.901762,-9992.780217,74.020594,2757.943793
1047.902083,-9178.553681,-1702.473667,-766.095498
1047.902403,-6957.935855,1110.308913,76.609550
1047.902724,-9918.759623,-1110.308913,1072.533697
1047.903045,-8364.327145,-962.267725,1302.362347
1047.903366,-10807.006753,-2146.597232,0.000000
1047.903687,-9844.739029,-1480.411884,459.657299
1047.904008,-9696.697840,74.020594,2374.896044
1047.904328,-11029.068536,-1184.329507,2681.334243
1047.904649,-10066.800811,-2146.597232,1532.190996
1047.904970,-9104.533087,-1480.411884,-1072.533697
1047.905291,-8956.491898,-296.082377,153.219100
1047.905612,-9844.739029,0.000000,1072.533697
1047.905933,-9918.759623,370.102971,1455.581446
1047.906253,-9326.594869,-1184.329507,-766.095498
1047.906574,-8660.409521,-296.082377,-306.438199
1047.906895,-8956.491898,-370.102971,2145.067394
1047.907216,-9844.739029,-592.164754,1685.410096
1047.907537,-10584.944971,-814.226536,766.095498
1047.907858,-9326.594869,740.205942,1149.143247
1047.908178,-10214.842000,-370.102971,1455.581446
1047.908499,-9474.636058,0.000000,995.924147
1047.908820,-9770.718434,-814.226536,-229.828649
1047.909141,-8808.450710,1702.473667,-1302.362347
1047.909462,-8956.491898,2960.823768,229.828649
1047.909783,-9844.739029,740.205942,689.485948
1047.910103,-8956.491898,-666.185348,229.828649
1047.910424,-10066.800811,-2294.638420,-1149.143247
1047.910745,-10066.800811,-222.061783,1072.533697
1047.911066,-10510.924376,-518.144159,3677.258390
1047.911387,-9548.656652,-518.144159,3140.991542
1047.911708,-9030.512492,-740.205942,689.485948
1047.912028,-8586.388927,1776.494261,-612.876398
1047.912349,-9400.615463,-1036.288319,2221.676944
1047.912670,-8364.327145,-2368.659014,1685.410096
1047.912991,-7698.141797,222.061783,1915.238745
1047.913312,-11177.109724,-3701.029710,-1378.971896
1047.913633,-6809.894666,1480.411884,1762.019645
1047.913953,-10881.027347,-1184.329507,3907.087040
1047.914274,-11917.315666,592.164754,4213.525239
1047.914595,-9104.533087,-962.267725,1762.019645
1047.914916,-10436.903782,148.041188,1455.581446
1047.915237,-9770.718434,444.123565,2528.115143
1047.915558,-9326.594869,222.061783,2298.286494
1047.915878,-10510.924376,-814.226536,3600.648841
1047.916199,-7994.224174,-1406.391290,-1149.143247
1047.916520,-7698.141797,0.000000,-383.047749
1047.916840,-10140.821405,-592.164754,2068.457845
1047.917161,-9696.697840,1850.514855,3677.258390
1047.917482,-10881.027347,-1628.453072,1072.533697
1047.917802,-9178.553681,0.000000,612.876398
1047.918123,-9844.739029,-148.041188,2298.286494
1047.918444,-11547.212695,-1258.350101,2451.505594
1047.918764,-10362.883188,-1998.556043,2528.115143
1047.919085,-7920.203579,-3108.864956,-1455.581446
1047.919405,-7031.956449,296.082377,-1838.629195
1047.919726,-10288.862594,-222.061783,383.047749
1047.920047,-10066.800811,222.061783,1302.362347
1047.920367,-9474.636058,74.020594,383.047749
1047.920688,-10510.924376,666.185348,306.438199
1047.921009,-9696.697840,296.082377,1225.752797
1047.921329,-12805.562797,-1406.391290,1915.238745
1047.921650,-10288.862594,-2738.761985,1455.581446
1047.921971,-7402.059420,-1628.453072,-2528.115143
1047.922291,-7624.121203,592.164754,-536.266849
1047.922612,-8290.306550,814.226536,459.657299
1047.922932,-10436.903782,444.123565,842.705048
1047.923253,-9548.656652,1184.329507,459.657299
1047.923574,-9622.677246,518.144159,1378.971896
1047.923894,-10214.842000,-296.082377,1302.362347
1047.924215,-12213.398043,1036.288319,5822.325785
1047.924536,-11547.212695,-3478.967927,2681.334243
1047.924856,-6587.832884,-814.226536,1608.800546
1047.925177,-9326.594869,-1332.370696,766.095498
1047.925497,-9474.636058,-1184.329507,0.000000
1047.925818,-7031.956449,-666.185348,-2145.067394
1047.926139,-6809.894666,1406.391290,-2221.676944
1047.926459,-6957.935855,1998.556043,-766.095498
1047.926780,-8142.265362,592.164754,229.828649
1047.927101,-10807.006753,1332.370696,4366.744339
1047.927421,-11843.295072,-1850.514855,3064.381992
1047.927742,-10214.842000,-1554.432478,2834.553343
1047.928063,-10807.006753,-2368.659014,5898.935335
1047.928383,-10140.821405,-814.226536,2757.943793
1047.928704,-10140.821405,444.123565,1991.848295
1047.929024,-8956.491898,2072.576638,766.095498
1047.929345,-7105.977043,2738.761985,536.266849
1047.929666,-9474.636058,74.020594,-1225.752797
1047.929986,-10140.821405,1184.329507,2451.505594
1047.930307,-9104.533087,-1332.370696,-306.438199
1047.930628,-10436.903782,296.082377,1915.238745
1047.930948,-10881.027347,-1110.308913,2681.334243
1047.931269,-9326.594869,-1184.329507,2374.896044
1047.931590,-11917.315666,-1924.535449,2451.505594
1047.931910,-10288.862594,222.061783,2374.896044
1047.932231,-8808.450710,0.000000,3064.381992
1047.932551,-10881.027347,-814.226536,2374.896044
1047.932872,-9474.636058,-444.123565,1149.143247
1047.933193,-10066.800811,-1924.535449,-1685.410096
1047.933513,-7994.224174,1110.308913,459.657299
1047.933834,-8586.388927,444.123565,0.000000
1047.934155,-8956.491898,962.267725,1608.800546
1047.934475,-10362.883188,-3108.864956,-153.219100
1047.934796,-8438.347739,-518.144159,0.000000
1047.935117,-10807.006753,-2664.741391,-229.828649
1047.935437,-10362.883188,-1184.329507,612.876398
1047.935758,-9770.718434,370.102971,1608.800546
1047.936078,-9474.636058,-222.061783,-842.705048
1047.936399,-7994.224174,1702.473667,-995.924147
1047.936720,-9622.677246,740.205942,995.924147
1047.937040,-9104.533087,-296.082377,153.219100
1047.937361,-9622.677246,-296.082377,-612.876398
1047.937682,-8734.430116,888.247130,229.828649
1047.938002,-8808.450710,370.102971,612.876398
1047.938323,-10288.862594,1480.411884,2374.896044
1047.938643,-9770.718434,-1554.432478,766.095498
1047.938964,-9252.574275,-962.267725,229.828649
1047.939285,-9474.636058,-666.185348,1378.971896
1047.939605,-10214.842000,-592.164754,2451.505594
1047.939926,-10955.047942,-1702.473667,2068.457845
1047.940247,-8216.285956,-1184.329507,0.000000
1047.940567,-8660.409521,296.082377,153.219100
1047.940888,-9548.656652,-444.123565,842.705048
1047.941209,-9474.636058,-518.144159,2145.067394
1047.941529,-9844.739029,-814.226536,229.828649
1047.941850,-10955.047942,-962.267725,-229.828649
1047.942170,-10807.006753,222.061783,2834.553343
1047.942491,-11029.068536,222.061783,4596.572988
1047.942812,-9918.759623,-4071.132681,1838.629195
1047.943132,-7179.997637,0.000000,0.000000
1047.943453,-10214.842000,1110.308913,153.219100
1047.943774,-7105.977043,-1036.288319,0.000000
1047.944094,-9252.574275,-592.164754,2145.067394
1047.944415,-9252.574275,-1480.411884,-306.438199
1047.944736,-6883.915261,2812.782580,612.876398
1047.945056,-13101.645173,-3256.906145,689.485948
1047.945377,-7105.977043,1480.411884,2834.553343
1047.945697,-13249.686362,-2812.782580,0.000000
1047.946018,-10955.047942,1480.411884,2374.896044
1047.946339,-7179.997637,370.102971,459.657299
1047.946659,-11769.274478,518.144159,3370.820191
1047.946980,-9474.636058,-888.247130,1378.971896
1047.947301,-9030.512492,-2738.761985,-2068.457845
1047.947621,-8956.491898,592.164754,995.924147
1047.947942,-8142.265362,-1036.288319,-612.876398
1047.948263,-10510.924376,444.123565,2221.676944
1047.948583,-10066.800811,-2294.638420,995.924147
1047.948904,-7328.038826,-1258.350101,-1149.143247
1047.949224,-10658.965565,-296.082377,1838.629195
1047.949545,-11843.295072,-1184.329507,2298.286494
1047.949866,-10214.842000,592.164754,1302.362347
1047.950186,-10510.924376,-518.144159,-766.095498
1047.950507,-7550.100608,518.144159,-383.047749
1047.950828,-9770.718434,814.226536,1915.238745
1047.951148,-10066.800811,-814.226536,1302.362347
1047.951469,-9474.636058,-1184.329507,-1225.752797
1047.951790,-8216.285956,1184.329507,0.000000
1047.952110,-9474.636058,-740.205942,383.047749
1047.952431,-9548.656652,1776.494261,2681.334243
1047.952751,-11547.212695,-1480.411884,1532.190996
1047.953072,-7402.059420,1776.494261,229.828649
1047.953393,-9844.739029,-962.267725,2298.286494
1047.953713,-9622.677246,-1406.391290,1685.410096
1047.954034,-10436.903782,-1702.473667,1225.752797
1047.954355,-7772.162391,-1628.453072,-2451.505594
1047.954675,-5773.606348,2590.720797,-2374.896044
1047.954996,-8586.388927,2294.638420,-306.438199
1047.955316,-10881.027347,3108.864956,3983.696590
1047.955637,-12139.377449,-222.061783,3524.039291
1047.955958,-11843.295072,-2220.617826,4673.182538
1047.956278,-10288.862594,-3034.844362,4903.011187
1047.956599,-11473.192101,-3182.885551,3983.696590
1047.956920,-10436.903782,-1702.473667,2681.334243
1047.957240,-7105.977043,1998.556043,-229.828649
1047.957561,-5995.668130,4293.194464,-536.266849
1047.957882,-7179.997637,1628.453072,-1838.629195
1047.958202,-7179.997637,2664.741391,689.485948
1047.958523,-9696.697840,-1480.411884,-1608.800546
1047.958843,-9474.636058,2590.720797,3370.820191
1047.959164,-12953.603985,-740.205942,4596.572988
1047.959485,-10214.842000,-1184.329507,4290.134789
1047.959805,-11621.233289,-2590.720797,2528.115143
1047.960126,-9992.780217,-1628.453072,2451.505594
1047.960447,-7254.018232,-740.205942,1225.752797
1047.960767,-10584.944971,-518.144159,689.485948
1047.961088,-8438.347739,222.061783,-153.219100
1047.961409,-9104.533087,-740.205942,-3370.820191
1047.961729,-7920.203579,1776.494261,0.000000
1047.962050,-9548.656652,-222.061783,229.828649
1047.962370,-9844.739029,-518.144159,2298.286494
1047.962691,-11473.192101,-3034.844362,1378.971896
1047.963012,-9400.615463,-2442.679609,153.219100
1047.963332,-10288.862594,-1332.370696,1455.581446
1047.963653,-10955.047942,444.123565,3370.820191
1047.963974,-10066.800811,0.000000,1991.848295
1047.964294,-7920.203579,0.000000,-1991.848295
1047.964615,-7772.162391,2072.576638,-1302.362347
1047.964936,-9178.553681,-296.082377,0.000000
1047.965256,-8586.388927,-222.061783,1302.362347
1047.965577,-11103.089130,-2368.659014,842.705048
1047.965897,-8068.244768,148.041188,689.485948
1047.966218,-10510.924376,-1036.288319,1455.581446
1047.966539,-12065.356855,1480.411884,4903.011187
1047.966859,-10955.047942,-888.247130,2451.505594
1047.967180,-10288.862594,-1332.370696,0.000000
1047.967501,-7846.182985,74.020594,0.000000
1047.967821,-7624.121203,-444.123565,-612.876398
1047.968142,-10436.903782,0.000000,2374.896044
1047.968462,-7920.203579,-1406.391290,76.609550
1047.968783,-7624.121203,74.020594,-766.095498
1047.969104,-9400.615463,-2442.679609,536.266849
1047.969424,-9326.594869,-370.102971,2451.505594
1047.969745,-11029.068536,-1850.514855,2757.943793
1047.970066,-10436.903782,-814.226536,1072.533697
1047.970386,-8882.471304,1998.556043,1915.238745
1047.970707,-10584.944971,0.000000,1838.629195
1047.971028,-8586.388927,-518.144159,1302.362347
1047.971348,-9770.718434,-518.144159,689.485948
1047.971669,-8808.450710,222.061783,306.438199
1047.971989,-9474.636058,-518.144159,1072.533697
1047.972310,-10436.903782,0.000000,3524.039291
1047.972631,-9326.594869,-2220.617826,306.438199
1047.972951,-10066.800811,1332.370696,1915.238745
1047.973272,-10584.944971,2072.576638,2987.772442
1047.973593,-9622.677246,962.267725,2298.286494
1047.973913,-11251.130318,-1406.391290,1608.800546
1047.974234,-9770.718434,-1036.288319,1455.581446
1047.974555,-9918.759623,-666.185348,842.705048
1047.974875,-11325.150913,-296.082377,2374.896044
1047.975196,-9474.636058,1628.453072,3447.429741
1047.975516,-10288.862594,-2516.700203,-383.047749
1047.975837,-7698.141797,-444.123565,-919.314598
1047.976158,-9622.677246,0.000000,-1302.362347
1047.976478,-9844.739029,888.247130,76.609550
1047.976799,-9400.615463,518.144159,-383.047749
1047.977120,-10288.862594,666.185348,766.095498
1047.977440,-8364.327145,-1628.453072,0.000000
1047.977761,-11843.295072,-2368.659014,1685.410096
1047.978082,-11473.192101,-814.226536,3677.258390
1047.978402,-9104.533087,-1702.473667,-612.876398
1047.978723,-9252.574275,740.205942,1991.848295
1047.979043,-9400.615463,370.102971,1225.752797
1047.979364,-8734.430116,1036.288319,153.219100
1047.979685,-9178.553681,518.144159,-306.438199
1047.980005,-8290.306550,1258.350101,-919.314598
1047.980326,-9252.574275,-370.102971,306.438199
1047.980647,-8882.471304,370.102971,2145.067394
1047.980967,-9770.718434,-1258.350101,1149.143247
1047.981288,-7920.203579,-740.205942,76.609550
1047.981609,-10066.800811,-518.144159,1915.238745
1047.981929,-9622.677246,0.000000,1685.410096
1047.982250,-10288.862594,370.102971,2145.067394
1047.982570,-9548.656652,1332.370696,1378.971896
1047.982891,-8142.265362,2516.700203,536.266849
1047.983212,-9918.759623,-1110.308913,919.314598
1047.983532,-9178.553681,592.164754,1915.238745
1047.983853,-9474.636058,-888.247130,1762.019645
1047.984174,-9474.636058,-1998.556043,-612.876398
1047.984494,-9030.512492,74.020594,2757.943793
1047.984815,-11177.109724,-962.267725,3217.601092
1047.985135,-10807.006753,-888.247130,3294.210641
1047.985456,-9770.718434,-1924.535449,536.266849
1047.985777,-9326.594869,1036.288319,1225.752797
1047.986097,-10140.821405,1332.370696,2221.676944
1047.986418,-10510.924376,370.102971,2987.772442
1047.986739,-9104.533087,-1406.391290,383.047749
1047.987059,-8660.409521,-740.205942,-1302.362347
1047.987380,-7476.080014,814.226536,-1149.143247
1047.987701,-9400.615463,1332.370696,842.705048
1047.988021,-10732.986159,-370.102971,2528.115143
1047.988342,-9918.759623,592.164754,1838.629195
1047.988662,-11325.150913,-1332.370696,3600.648841
1047.988983,-11621.233289,-3182.885551,4443.353888
1047.989304,-11547.212695,-3108.864956,5515.887586
1047.989624,-12287.418637,-2738.761985,2145.067394
1047.989945,-6661.853478,1110.308913,0.000000
1047.990266,-7846.182985,1776.494261,-1455.581446
1047.990586,-7328.038826,1702.473667,-1838.629195
1047.990907,-7179.997637,-814.226536,-2987.772442
1047.991228,-8438.347739,-1184.329507,-3140.991542
1047.991548,-7994.224174,-1110.308913,-1685.410096
1047.991869,-9918.759623,-1036.288319,229.828649
1047.992189,-11547.212695,-74.020594,3600.648841
1047.992510,-11695.253884,-1850.514855,1685.410096
1047.992831,-10066.800811,444.123565,1838.629195
1047.993151,-10658.965565,-1110.308913,2145.067394
1047.993472,-9474.636058,-1554.432478,459.657299
1047.993793,-9104.533087,-1184.329507,-995.924147
1047.994113,-7476.080014,-444.123565,-2068.457845
1047.994434,-7476.080014,444.123565,-1532.190996
1047.994755,-8956.491898,1332.370696,0.000000
1047.995075,-10436.903782,-444.123565,1455.581446
1047.995396,-9918.759623,-1406.391290,-229.828649
1047.995716,-10955.047942,-592.164754,1608.800546
1047.996037,-11621.233289,-962.267725,2298.286494
1047.996358,-9770.718434,-962.267725,1838.629195
1047.996678,-9622.677246,-1258.350101,1072.533697
1047.996999,-7846.182985,1850.514855,536.266849
1047.997320,-9548.656652,-666.185348,76.609550
1047.997640,-9178.553681,666.185348,1838.629195
1047.997961,-9622.677246,518.144159,689.485948
1047.998281,-11177.109724,-1480.411884,459.657299
1047.998602,-9104.533087,1184.329507,2528.115143
1047.998923,-10584.944971,-592.164754,2681.334243
1047.999243,-9400.615463,0.000000,2604.724693
1047.999564,-9696.697840,0.000000,1302.362347
1047.999885,-9104.533087,1628.453072,2374.896044
1048.000205,-10214.842000,-1406.391290,1455.581446
1048.000526,-8956.491898,-1036.288319,2068.457845
1048.000847,-9030.512492,-2368.659014,1072.533697
1048.001167,-7994.224174,148.041188,-306.438199
1048.001488,-10140.821405,1998.556043,2987.772442
1048.001808,-10510.924376,740.205942,2298.286494
1048.002129,-9992.780217,962.267725,1915.238745
1048.002450,-10066.800811,-1110.308913,0.000000
1048.002770,-8956.491898,0.000000,995.924147
1048.003091,-10807.006753,-666.185348,2604.724693
1048.003412,-9844.739029,-888.247130,2374.896044
1048.003732,-9178.553681,-1776.494261,689.485948
1048.004053,-8586.388927,-592.164754,0.000000
1048.004374,-9548.656652,0.000000,1915.238745
1048.004694,-10362.883188,0.000000,2221.676944
1048.005015,-9548.656652,-370.102971,1532.190996
1048.005335,-8956.491898,-962.267725,153.219100
1048.005656,-9696.697840,296.082377,153.219100
1048.005977,-11769.274478,-518.144159,1608.800546
1048.006297,-11325.150913,222.061783,2834.553343
1048.006618,-10732.986159,-1036.288319,2298.286494
1048.006939,-10288.862594,-2294.638420,-383.047749
1048.007259,-8734.430116,1184.329507,842.705048
1048.007580,-9548.656652,-3108.864956,-1915.238745
1048.007901,-7105.977043,1258.350101,-766.095498
1048.008221,-8364.327145,1702.473667,-2528.115143
1048.008542,-7698.141797,1332.370696,-612.876398
1048.008862,-8290.306550,740.205942,-919.314598
1048.009183,-11843.295072,-740.205942,3830.477490
1048.009504,-10066.800811,-2072.576638,1378.971896
1048.009824,-10436.903782,-2442.679609,2451.505594
1048.010145,-11695.253884,-1258.350101,2911.162892
1048.010466,-10066.800811,518.144159,2911.162892
1048.010786,-9178.553681,-1924.535449,229.828649
1048.011107,-6661.853478,2146.597232,-766.095498
1048.011428,-8808.450710,-666.185348,383.047749
1048.011748,-8586.388927,-1184.329507,0.000000
1048.012069,-10066.800811,-740.205942,1991.848295
1048.012389,-9844.739029,-1258.350101,919.314598
1048.012710,-7476.080014,518.144159,2145.067394
1048.013031,-11251.130318,-1776.494261,2145.067394
1048.013351,-9326.594869,-74.020594,689.485948
1048.013672,-10807.006753,-1554.432478,1378.971896
1048.013993,-8512.368333,444.123565,2451.505594
1048.014313,-9400.615463,-444.123565,1455.581446
1048.014634,-9844.739029,666.185348,2068.457845
1048.014954,-9548.656652,444.123565,1072.533697
1048.015275,-9030.512492,1480.411884,766.095498
1048.015596,-9992.780217,1776.494261,2987.772442
1048.015916,-9844.739029,0.000000,2681.334243
1048.016237,-9770.718434,-444.123565,2145.067394
1048.016558,-10288.862594,-2664.741391,612.876398
1048.016878,-8808.450710,-888.247130,766.095498
1048.017199,-9622.677246,-1480.411884,1532.190996
1048.017520,-9474.636058,0.000000,3677.258390
1048.017840,-9622.677246,-740.205942,-459.657299
1048.018161,-9178.553681,74.020594,306.438199
1048.018481,-9622.677246,1184.329507,1072.533697
1048.018802,-10510.924376,666.185348,1915.238745
1048.019123,-10140.821405,-1110.308913,766.095498
1048.019444,-8586.388927,-1110.308913,-2221.676944
1048.019764,-7920.203579,1850.514855,-919.314598
1048.020085,-10436.903782,814.226536,1838.629195
1048.020406,-10362.883188,1184.329507,4596.572988
1048.020727,-11399.171507,-2368.659014,1072.533697
1048.021047,-8882.471304,-1554.432478,612.876398
1048.021368,-10288.862594,-592.164754,229.828649
1048.021689,-10436.903782,-370.102971,1455.581446
1048.022009,-10140.821405,0.000000,383.047749
1048.022330,-6587.832884,1480.411884,-1915.238745
1048.022651,-7105.977043,740.205942,-1608.800546
1048.022972,-8956.491898,-518.144159,-383.047749
1048.023292,-8956.491898,74.020594,1072.533697
1048.023613,-11399.171507,-1702.473667,76.609550
1048.023934,-9992.780217,370.102971,2068.457845
1048.024255,-10732.986159,74.020594,2528.115143
1048.024575,-12065.356855,-592.164754,2145.067394
1048.024896,-9696.697840,-2072.576638,2834.553343
1048.025217,-7994.224174,-962.267725,383.047749
1048.025537,-10066.800811,-1702.473667,153.219100
1048.025858,-8290.306550,0.000000,229.828649
1048.026179,-9030.512492,-296.082377,1762.019645
1048.026500,-9326.594869,-518.144159,459.657299
1048.026820,-9400.615463,1110.308913,1149.143247
1048.027141,-10066.800811,518.144159,1378.971896
1048.027462,-10658.965565,-1184.329507,3217.601092
1048.027783,-9030.512492,-1998.556043,1378.971896
1048.028103,-9548.656652,-1924.535449,766.095498
1048.028424,-8956.491898,-962.267725,1072.533697
1048.028745,-9104.533087,-518.144159,995.924147
1048.029065,-9400.615463,-962.267725,919.314598
1048.029386,-9400.615463,-518.144159,-153.219100
1048.029707,-8956.491898,1110.308913,2681.334243
1048.030028,-11843.295072,518.144159,3753.867940
1048.030348,-10881.027347,370.102971,4519.963438
1048.030669,-11843.295072,-2664.741391,2528.115143
1048.030990,-9548.656652,-1258.350101,1302.362347
1048.031311,-10436.903782,-1924.535449,76.609550
1048.031631,-9252.574275,370.102971,536.266849
1048.031952,-7846.182985,-1036.288319,-1149.143247
1048.032273,-7772.162391,-888.247130,-2298.286494
1048.032593,-8216.285956,148.041188,-1378.971896
1048.032914,-9844.739029,-962.267725,0.000000
1048.033235,-10955.047942,-666.185348,1225.752797
1048.033556,-10955.047942,-1184.329507,383.047749
1048.033876,-9770.718434,-444.123565,1455.581446
1048.034197,-10658.965565,-1258.350101,842.705048
1048.034518,-10288.862594,4515.256246,5209.449386
1048.034839,-14211.954086,-3034.844362,-1302.362347
1048.035159,-2886.803174,148.041188,-612.876398
1048.035480,-11843.295072,-1702.473667,-1378.971896
1048.035801,-8216.285956,1036.288319,1838.629195
1048.036121,-9104.533087,-1406.391290,-766.095498
1048.036442,-11621.233289,2516.700203,3447.429741
1048.036763,-8142.265362,-1184.329507,-2221.676944
1048.037084,-7920.203579,-296.082377,1532.190996
1048.037404,-11843.295072,444.123565,4596.572988
1048.037725,-9844.739029,-2294.638420,-306.438199
1048.038046,-9622.677246,1702.473667,1762.019645
1048.038367,-9400.615463,-222.061783,1838.629195
1048.038687,-6587.832884,1480.411884,-383.047749
1048.039008,-12213.398043,-740.205942,2145.067394
1048.039329,-7624.121203,222.061783,306.438199
1048.039649,-7476.080014,1110.308913,919.314598
1048.039970,-10510.924376,-518.144159,2068.457845
1048.040291,-8956.491898,0.000000,2834.553343
1048.040612,-9770.718434,-1036.288319,1149.143247
1048.040932,-10066.800811,518.144159,2451.505594
1048.041253,-8586.388927,592.164754,3447.429741
1048.041574,-9548.656652,-296.082377,1991.848295
1048.041895,-9474.636058,-592.164754,1532.190996
1048.042215,-9622.677246,1480.411884,1378.971896
1048.042536,-9400.615463,222.061783,1455.581446
1048.042857,-10288.862594,740.205942,2374.896044
1048.043177,-8660.409521,-370.102971,1149.143247
1048.043498,-9918.759623,-1110.308913,-536.266849
1048.043819,-9474.636058,666.185348,2451.505594
1048.044140,-9918.759623,-296.082377,1302.362347
1048.044460,-10658.965565,-740.205942,919.314598
1048.044781,-8364.327145,1406.391290,995.924147
1048.045102,-9400.615463,-1406.391290,-76.609550
1048.045422,-7772.162391,-962.267725,-1149.143247
1048.045743,-10214.842000,-666.185348,1838.629195
1048.046064,-9252.574275,-1036.288319,0.000000
1048.046385,-9178.553681,-740.205942,-459.657299
1048.046705,-10214.842000,0.000000,1532.190996
1048.047026,-9992.780217,-222.061783,1149.143247
1048.047347,-10732.986159,-1332.370696,2374.896044
1048.047668,-9400.615463,-2590.720797,-1149.143247
1048.047988,-8364.327145,-740.205942,-766.095498
1048.048309,-12583.501014,-1184.329507,536.266849
1048.048630,-8216.285956,962.267725,1608.800546
1048.048950,-10436.903782,-1850.514855,-612.876398
1048.049271,-9400.615463,0.000000,-612.876398
1048.049592,-9178.553681,0.000000,1378.971896
1048.049913,-11547.212695,-814.226536,995.924147
1048.050233,-9474.636058,666.185348,2068.457845
1048.050554,-9770.718434,148.041188,-229.828649
1048.050875,-9178.553681,592.164754,383.047749
1048.051196,-9622.677246,-518.144159,153.219100
1048.051516,-9252.574275,222.061783,1608.800546
1048.051837,-9622.677246,-2886.803174,-766.095498
1048.052158,-8660.409521,0.000000,76.609550
1048.052478,-10362.883188,-1702.473667,383.047749
1048.052799,-8216.285956,-1184.329507,-383.047749
1048.053120,-8660.409521,-370.102971,-306.438199
1048.053441,-9400.615463,222.061783,76.609550
1048.053761,-9326.594869,518.144159,3753.867940
1048.054082,-10732.986159,-370.102971,4443.353888
1048.054403,-10658.965565,-1554.432478,4290.134789
1048.054724,-10140.821405,-3034.844362,2145.067394
1048.055044,-9992.780217,-1406.391290,3217.601092
1048.055365,-9918.759623,-666.185348,3064.381992
1048.055686,-8512.368333,888.247130,2298.286494
1048.056006,-7254.018232,444.123565,536.266849
1048.056327,-8290.306550,962.267725,0.000000
1048.056648,-8586.388927,1184.329507,1532.190996
1048.056969,-10140.821405,-888.247130,2298.286494
1048.057289,-9844.739029,-1776.494261,2681.334243
1048.057610,-9918.759623,-2960.823768,612.876398
1048.057931,-8068.244768,-592.164754,1455.581446
1048.058252,-11251.130318,592.164754,3447.429741
1048.058572,-10658.965565,1628.453072,3064.381992
1048.058893,-10140.821405,888.247130,1915.238745
1048.059214,-9178.553681,814.226536,306.438199
1048.059534,-9400.615463,-296.082377,689.485948
1048.059855,-8882.471304,-296.082377,1532.190996
1048.060176,-10140.821405,-1110.308913,612.876398
1048.060497,-7550.100608,0.000000,-1915.238745
1048.060817,-8216.285956,2738.761985,-76.609550
1048.061138,-10807.006753,962.267725,1838.629195
1048.061459,-10362.883188,222.061783,1302.362347
1048.061780,-10807.006753,74.020594,2298.286494
1048.062100,-9474.636058,-1184.329507,1378.971896
1048.062421,-11029.068536,-296.082377,2911.162892
1048.062742,-13101.645173,222.061783,4290.134789
1048.063062,-9178.553681,0.000000,1532.190996
1048.063383,-9474.636058,1110.308913,153.219100
1048.063704,-8734.430116,740.205942,153.219100
1048.064025,-9104.533087,370.102971,689.485948
1048.064345,-10214.842000,296.082377,2145.067394
1048.064666,-10362.883188,-814.226536,1149.143247
1048.064987,-8364.327145,1480.411884,842.705048
1048.065308,-10510.924376,-296.082377,689.485948
1048.065628,-8438.347739,1554.432478,1455.581446
1048.065949,-10436.903782,0.000000,1225.752797
1048.066270,-8290.306550,1036.288319,-383.047749
1048.066590,-9178.553681,1036.288319,1378.971896
1048.066911,-9844.739029,-444.123565,995.924147
1048.067232,-8586.388927,814.226536,1838.629195
1048.067553,-11029.068536,296.082377,1991.848295
1048.067873,-8438.347739,2812.782580,2528.115143
1048.068194,-11029.068536,1776.494261,2987.772442
1048.068515,-9474.636058,2146.597232,4366.744339
1048.068836,-9252.574275,-444.123565,995.924147
1048.069156,-10362.883188,1554.432478,2451.505594
1048.069477,-8808.450710,2590.720797,3294.210641
1048.069798,-8364.327145,-296.082377,4136.915689
1048.070118,-10510.924376,0.000000,4749.792088
1048.070439,-9252.574275,-222.061783,3447.429741
1048.070760,-9844.739029,1628.453072,3753.867940
1048.071081,-9400.615463,3182.885551,6205.373534
1048.071401,-10881.027347,2368.659014,5209.449386
1048.071722,-9918.759623,2664.741391,5209.449386
1048.072043,-10362.883188,666.185348,3217.601092
1048.072364,-9622.677246,2960.823768,3600.648841
1048.072684,-9770.718434,814.226536,4060.306139
1048.073005,-9400.615463,1036.288319,3830.477490
1048.073326,-8808.450710,740.205942,3907.087040
1048.073646,-7624.121203,962.267725,1532.190996
1048.073967,-10066.800811,-296.082377,2987.772442
1048.074288,-8808.450710,888.247130,4290.134789
1048.074609,-11621.233289,666.185348,5362.668486
1048.074929,-9696.697840,-740.205942,3907.087040
1048.075250,-9252.574275,222.061783,1838.629195
1048.075571,-9696.697840,1776.494261,3294.210641
1048.075892,-8956.491898,2146.597232,3524.039291
1048.076212,-9844.739029,2220.617826,4443.353888
1048.076533,-9178.553681,1184.329507,2374.896044
1048.076854,-8734.430116,1776.494261,919.314598
1048.077174,-8882.471304,2294.638420,1762.019645
1048.077495,-9178.553681,2960.823768,3447.429741
1048.077816,-10658.965565,4293.194464,5898.935335
1048.078137,-9992.780217,1628.453072,2911.162892
1048.078457,-8586.388927,1406.391290,919.314598
1048.078778,-9770.718434,740.205942,1838.629195
1048.079099,-8882.471304,1184.329507,3140.991542
1048.079420,-11547.212695,2220.617826,4979.620737
1048.079740,-9326.594869,2368.659014,2987.772442
1048.080061,-8956.491898,1628.453072,0.000000
1048.080382,-10066.800811,3997.112087,842.705048
1048.080702,-9548.656652,3552.988522,2528.115143
1048.081023,-11399.171507,3182.885551,4673.182538
1048.081344,-9770.718434,3997.112087,4366.744339
1048.081665,-9104.533087,-370.102971,536.266849
1048.081985,-8882.471304,296.082377,1302.362347
1048.082306,-9252.574275,1776.494261,3217.601092
1048.082627,-10658.965565,2442.679609,4749.792088
1048.082947,-9696.697840,4737.318029,6435.202183
1048.083268,-9844.739029,962.267725,5362.668486
1048.083589,-9326.594869,-592.164754,3217.601092
1048.083910,-10362.883188,888.247130,3677.258390
1048.084230,-10955.047942,666.185348,3983.696590
1048.084551,-7920.203579,2738.761985,2451.505594
1048.084872,-8512.368333,3627.009116,3600.648841
1048.085193,-8808.450710,1628.453072,2451.505594
1048.085513,-9104.533087,1628.453072,2221.676944
1048.085834,-10214.842000,888.247130,5362.668486
1048.086155,-9474.636058,1110.308913,3753.867940
1048.086475,-8882.471304,2368.659014,3447.429741
1048.086796,-10658.965565,2442.679609,6052.154434
1048.087117,-10214.842000,1776.494261,6511.811733
1048.087438,-10362.883188,222.061783,5209.449386
1048.087758,-9844.739029,-740.205942,3064.381992
1048.088079,-8068.244768,888.247130,1225.752797
1048.088400,-8956.491898,1702.473667,1225.752797
1048.088721,-8586.388927,3330.926739,2604.724693
1048.089041,-7994.224174,5403.503377,3294.210641
1048.089362,-9918.759623,1998.556043,1608.800546
1048.089683,-9918.759623,1998.556043,3524.039291
1048.090003,-10584.944971,222.061783,5439.278036
1048.090324,-11399.171507,-518.144159,4290.134789
1048.090645,-10955.047942,888.247130,5132.839837
1048.090966,-9030.512492,2442.679609,4903.011187
1048.091286,-9770.718434,1480.411884,4443.353888
1048.091607,-10140.821405,1702.473667,4213.525239
1048.091928,-9178.553681,1036.288319,2451.505594
1048.092249,-9104.533087,888.247130,76.609550
1048.092569,-8956.491898,2442.679609,1225.752797
1048.092890,-9030.512492,1184.329507,919.314598
1048.093211,-9030.512492,1332.370696,1762.019645
1048.093531,-10066.800811,370.102971,2145.067394
1048.093852,-10214.842000,814.226536,2604.724693
1048.094173,-10214.842000,222.061783,4749.792088
1048.094494,-10510.924376,222.061783,3830.477490
1048.094814,-11177.109724,814.226536,3753.867940
1048.095135,-9622.677246,1776.494261,3447.429741
1048.095456,-8364.327145,1480.411884,1838.629195
1048.095777,-7920.203579,3182.885551,1991.848295
1048.096097,-9548.656652,2368.659014,2604.724693
1048.096418,-9696.697840,2146.597232,4443.353888
1048.096739,-9992.780217,296.082377,2911.162892
1048.097059,-9696.697840,2146.597232,3217.601092
1048.097380,-10288.862594,1776.494261,3600.648841
1048.097701,-9770.718434,1998.556043,4213.525239
1048.098022,-9918.759623,2072.576638,3907.087040
1048.098342,-8290.306550,2072.576638,2145.067394
1048.098663,-9474.636058,2738.761985,2834.553343
1048.098984,-10955.047942,1998.556043,3983.696590
1048.099305,-10288.862594,1776.494261,4749.792088
1048.099625,-10140.821405,1776.494261,3677.258390
1048.099946,-9252.574275,2664.741391,3524.039291
1048.100267,-9548.656652,2072.576638,4136.915689
1048.100587,-9474.636058,2220.617826,4213.525239
1048.100908,-9474.636058,1628.453072,3753.867940
1048.101229,-9548.656652,1480.411884,3064.381992
1048.101550,-9770.718434,1850.514855,4519.963438
1048.101870,-10214.842000,1702.473667,4903.011187
1048.102191,-10066.800811,1406.391290,3830.477490
1048.102512,-9474.636058,814.226536,3064.381992
1048.102833,-8956.491898,1850.514855,2451.505594
1048.103153,-8586.388927,1554.432478,2221.676944
1048.103474,-9622.677246,1332.370696,2604.724693
1048.103795,-9918.759623,592.164754,2528.115143
1048.104115,-9622.677246,1258.350101,1685.410096
1048.104436,-9918.759623,2590.720797,2987.772442
1048.104757,-10362.883188,2812.782580,4213.525239
1048.105078,-10584.944971,2812.782580,5056.230287
1048.105398,-10066.800811,1998.556043,4903.011187
1048.105719,-9030.512492,1554.432478,3830.477490
1048.106040,-8882.471304,1406.391290,3370.820191
1048.106361,-9252.574275,1406.391290,3983.696590
1048.106681,-8364.327145,962.267725,3600.648841
1048.107002,-8290.306550,1110.308913,1991.848295
1048.107323,-8660.409521,1998.556043,1225.752797
1048.107643,-9474.636058,2960.823768,2068.457845
1048.107964,-10881.027347,2738.761985,3907.087040
1048.108285,-11621.233289,2220.617826,5439.278036
1048.108606,-11103.089130,1332.370696,4826.401637
1048.108926,-10584.944971,148.041188,3294.210641
1048.109247,-10066.800811,962.267725,2911.162892
1048.109568,-9770.718434,1406.391290,2451.505594
1048.109889,-8734.430116,2368.659014,1991.848295
1048.110209,-8808.450710,2442.679609,1455.581446
1048.110530,-8216.285956,1998.556043,383.047749
1048.110851,-9104.533087,888.247130,76.609550
1048.111171,-9696.697840,888.247130,2221.676944
1048.111492,-9918.759623,814.226536,3064.381992
1048.111813,-10066.800811,1480.411884,3830.477490
1048.112134,-9770.718434,1702.473667,4443.353888
1048.112454,-10288.862594,1850.514855,4826.401637
1048.112775,-10732.986159,1332.370696,5362.668486
1048.113096,-9918.759623,1110.308913,4290.134789
1048.113417,-9474.636058,1628.453072,2757.943793
1048.113737,-9622.677246,2294.638420,2374.896044
1048.114058,-9104.533087,2738.761985,1991.848295
1048.114379,-9030.512492,1998.556043,1762.019645
1048.114699,-9104.533087,1554.432478,1685.410096
1048.115020,-9474.636058,370.102971,1838.629195
1048.115341,-9770.718434,74.020594,2374.896044
1048.115662,-10436.903782,296.082377,3140.991542
1048.115982,-10732.986159,1406.391290,4443.353888
1048.116303,-10140.821405,2220.617826,4443.353888
1048.116624,-9992.780217,2812.782580,4673.182538
1048.116945,-9992.780217,2516.700203,4596.572988
1048.117265,-9770.718434,1628.453072,4903.011187
1048.117586,-10214.842000,1702.473667,5439.278036
1048.117907,-10066.800811,2072.576638,5515.887586
1048.118227,-9992.780217,1998.556043,4749.792088
1048.118548,-9326.594869,2590.720797,4673.182538
1048.118869,-8956.491898,2368.659014,3677.258390
1048.119190,-9178.553681,2146.597232,2911.162892
1048.119510,-8956.491898,1036.288319,2068.457845
1048.119831,-8808.450710,518.144159,689.485948
1048.120152,-9474.636058,74.020594,306.438199
1048.120473,-9696.697840,592.164754,766.095498
1048.120793,-9992.780217,1406.391290,1762.019645
1048.121114,-10510.924376,1184.329507,2298.286494
1048.121435,-10584.944971,1110.308913,3064.381992
1048.121756,-10436.903782,814.226536,3447.429741
1048.122076,-10362.883188,222.061783,3983.696590
1048.122397,-9770.718434,0.000000,4443.353888
1048.122718,-9400.615463,666.185348,4519.963438
1048.123039,-8364.327145,1184.329507,3907.087040
1048.123359,-8438.347739,1332.370696,3294.210641
1048.123680,-8216.285956,1480.411884,3294.210641
1048.124001,-9030.512492,1924.535449,2987.772442
1048.124321,-9326.594869,2072.576638,2987.772442
1048.124642,-9622.677246,2220.617826,3370.820191
1048.124963,-10066.800811,2368.659014,3064.381992
1048.125284,-10732.986159,2738.761985,3140.991542
1048.125604,-10436.903782,2664.741391,3524.039291
1048.125925,-10066.800811,2516.700203,3370.820191
1048.126246,-9770.718434,2590.720797,3447.429741
1048.126567,-9474.636058,1776.494261,4443.353888
1048.126887,-9474.636058,2146.597232,4060.306139
1048.127208,-9548.656652,1776.494261,4136.915689
1048.127529,-9474.636058,2146.597232,4519.963438
1048.127850,-9474.636058,1850.514855,4366.744339
1048.128170,-9622.677246,1406.391290,4213.525239
1048.128491,-9548.656652,1332.370696,3753.867940
1048.128812,-9696.697840,1258.350101,3447.429741
1048.129133,-9622.677246,1480.411884,2834.553343
1048.129453,-10066.800811,1776.494261,2068.457845
1048.129774,-9622.677246,1702.473667,1915.238745
1048.130095,-9770.718434,1554.432478,1532.190996
1048.130416,-9770.718434,1702.473667,1762.019645
1048.130736,-9104.533087,1332.370696,1838.629195
1048.131057,-9696.697840,1702.473667,2145.067394
1048.131378,-9992.780217,1258.350101,2298.286494
1048.131698,-9474.636058,1184.329507,2757.943793
1048.132019,-9474.636058,1258.350101,2834.553343
1048.132340,-9252.574275,1036.288319,3217.601092
1048.132661,-9326.594869,740.205942,2451.505594
1048.132981,-9104.533087,740.205942,2451.505594
1048.133302,-9252.574275,74.020594,2145.067394
1048.133623,-8956.491898,0.000000,919.314598
1048.133944,-9178.553681,0.000000,1302.362347
1048.134264,-9696.697840,0.000000,995.924147
1048.134585,-10066.800811,444.123565,1608.800546
1048.134906,-10732.986159,814.226536,2451.505594
1048.135227,-10288.862594,1184.329507,2221.676944
1048.135547,-9992.780217,1036.288319,1532.190996
1048.135868,-10066.800811,1258.350101,1685.410096
1048.136189,-9104.533087,962.267725,1072.533697
1048.136510,-8956.491898,1406.391290,766.095498
1048.136830,-8956.491898,1110.308913,1225.752797
1048.137151,-8734.430116,1036.288319,1225.752797
1048.137472,-9696.697840,888.247130,2145.067394
1048.137793,-10066.800811,888.247130,2298.286494
1048.138113,-9548.656652,814.226536,2911.162892
1048.138434,-10214.842000,370.102971,2911.162892
1048.138755,-9770.718434,518.144159,3140.991542
1048.139075,-9770.718434,740.205942,3294.210641
1048.139396,-9844.739029,444.123565,3140.991542
1048.139717,-9548.656652,962.267725,3447.429741
1048.140038,-9622.677246,962.267725,3064.381992
1048.140358,-9918.759623,1332.370696,3753.867940
1048.140679,-9770.718434,1628.453072,4903.011187
1048.141000,-9918.759623,1776.494261,4979.620737
1048.141321,-9992.780217,1776.494261,5592.497135
1048.141641,-9992.780217,1776.494261,5439.278036
1048.141962,-9030.512492,2220.617826,5745.716235
1048.142283,-9770.718434,1776.494261,6128.763984
1048.142604,-9474.636058,2146.597232,6052.154434
1048.142924,-9400.615463,2368.659014,5669.106685
1048.143245,-9326.594869,2590.720797,5898.935335
1048.143566,-9104.533087,2738.761985,5822.325785
1048.143887,-9622.677246,2886.803174,6205.373534
1048.144207,-9770.718434,3256.906145,6511.811733
1048.144528,-9844.739029,3034.844362,6511.811733
1048.144849,-9178.553681,3256.906145,7048.078582
1048.145170,-10140.821405,3627.009116,7124.688131
1048.145490,-9844.739029,3701.029710,7048.078582
1048.145811,-9918.759623,4219.173869,6741.640382
1048.146132,-9918.759623,3923.091493,5592.497135
1048.146452,-9326.594869,3627.009116,5515.887586
1048.146773,-9104.533087,3701.029710,5286.058936
1048.147094,-9252.574275,3552.988522,4749.792088
1048.147415,-9400.615463,3182.885551,4749.792088
1048.147735,-9252.574275,2738.761985,4136.915689
1048.148056,-9474.636058,2442.679609,3600.648841
1048.148377,-9474.636058,2072.576638,2757.943793
1048.148698,-9474.636058,1480.411884,1762.019645
1048.149018,-8882.471304,2590.720797,2068.457845
1048.149339,-9844.739029,1776.494261,306.438199
1048.149660,-8364.327145,2072.576638,-536.266849
1048.149981,-8956.491898,1480.411884,-995.924147
1048.150301,-9252.574275,2368.659014,-536.266849
1048.150622,-9400.615463,1480.411884,0.000000
1048.150943,-10066.800811,2146.597232,1225.752797
1048.151264,-10436.903782,2516.700203,2528.115143
1048.151584,-10066.800811,2294.638420,2374.896044
1048.151905,-10510.924376,2516.700203,2834.553343
1048.152226,-9474.636058,2146.597232,2374.896044
1048.152547,-9030.512492,2516.700203,1608.800546
1048.152867,-9326.594869,2590.720797,1838.629195
1048.153188,-8216.285956,2664.741391,2068.457845
1048.153509,-9400.615463,2442.679609,1225.752797
1048.153829,-9844.739029,1998.556043,766.095498
1048.154150,-9326.594869,1628.453072,229.828649
1048.154471,-9992.780217,1628.453072,-766.095498
1048.154792,-10288.862594,1776.494261,612.876398
1048.155112,-10436.903782,1776.494261,1685.410096
1048.155433,-10436.903782,1110.308913,2834.553343
1048.155754,-10584.944971,1036.288319,4060.306139
1048.156075,-11029.068536,444.123565,5056.230287
1048.156395,-10807.006753,888.247130,6128.763984
1048.156716,-10807.006753,1258.350101,6971.469032
1048.157037,-9696.697840,1628.453072,7507.735880
1048.157358,-9400.615463,962.267725,8044.002729
1048.157678,-9400.615463,222.061783,7354.516781
1048.157999,-8956.491898,-888.247130,5515.887586
1048.158320,-8956.491898,-1406.391290,3524.039291
1048.158641,-8290.306550,296.082377,4519.963438
1048.158961,-8956.491898,-296.082377,2834.553343
1048.159282,-9474.636058,-222.061783,3140.991542
1048.159603,-9770.718434,-1184.329507,2911.162892
1048.159924,-9918.759623,-1184.329507,2681.334243
1048.160244,-10584.944971,-1332.370696,2757.943793
1048.160565,-10066.800811,74.020594,4136.915689
1048.160886,-10140.821405,1036.288319,6052.154434
1048.161206,-9992.780217,1406.391290,6741.640382
1048.161527,-8586.388927,444.123565,6818.249932
1048.161848,-8660.409521,-518.144159,5132.839837
1048.162169,-8142.265362,-592.164754,3830.477490
1048.162489,-8068.244768,444.123565,3370.820191
1048.162810,-8512.368333,1480.411884,4443.353888
1048.163131,-8364.327145,1776.494261,3600.648841
1048.163452,-8808.450710,1850.514855,2604.724693
1048.163772,-9696.697840,1406.391290,2374.896044
1048.164093,-9252.574275,2590.720797,1838.629195
1048.164414,-11769.274478,3108.864956,3524.039291
1048.164735,-11325.150913,2590.720797,2298.286494
1048.165055,-9474.636058,2442.679609,76.609550
1048.165376,-10362.883188,2072.576638,-689.485948
1048.165697,-9326.594869,2516.700203,536.266849
1048.166018,-9400.615463,1702.473667,229.828649
1048.166338,-10807.006753,2368.659014,2451.505594
1048.166659,-8068.244768,1850.514855,306.438199
1048.166980,-9918.759623,3478.967927,612.876398
1048.167301,-10140.821405,3108.864956,4749.792088
1048.167621,-10658.965565,2664.741391,4060.306139
1048.167942,-10288.862594,2590.720797,3064.381992
1048.168263,-9326.594869,2442.679609,1455.581446
1048.168583,-8586.388927,3552.988522,1378.971896
1048.168904,-10955.047942,3478.967927,3447.429741
1048.169225,-10140.821405,3775.050304,3983.696590
1048.169546,-10214.842000,3404.947333,2757.943793
1048.169866,-10584.944971,3849.070898,2298.286494
1048.170187,-10807.006753,3849.070898,2987.772442
1048.170508,-10288.862594,3552.988522,3524.039291
1048.170829,-9918.759623,3034.844362,3217.601092
1048.171149,-9030.512492,2590.720797,2068.457845
1048.171470,-8956.491898,1628.453072,2604.724693
1048.171791,-9104.533087,1480.411884,3524.039291
1048.172112,-10140.821405,2072.576638,5209.449386
1048.172432,-10362.883188,2072.576638,6052.154434
1048.172753,-10732.986159,1702.473667,5975.544884
1048.173074,-9030.512492,1924.535449,5056.230287
1048.173395,-9178.553681,1480.411884,4673.182538
1048.173715,-9992.780217,1998.556043,6281.983084
1048.174036,-10140.821405,2368.659014,6052.154434
1048.174357,-9474.636058,1776.494261,5515.887586
1048.174678,-9770.718434,666.185348,4903.011187
1048.174998,-8956.491898,1702.473667,4749.792088
1048.175319,-9400.615463,814.226536,5975.544884
1048.175640,-9696.697840,2664.741391,4673.182538
1048.175960,-9104.533087,4071.132681,4826.401637
1048.176281,-9104.533087,1776.494261,3370.820191
1048.176602,-7698.141797,1776.494261,2757.943793
1048.176923,-9474.636058,296.082377,3524.039291
1048.177243,-9474.636058,-1258.350101,2911.162892
1048.177564,-8142.265362,-888.247130,1532.190996
1048.177885,-8068.244768,-888.247130,612.876398
1048.178206,-9030.512492,814.226536,689.485948
1048.178526,-9474.636058,2590.720797,3600.648841
1048.178847,-11103.089130,2072.576638,5362.668486
1048.179168,-11399.171507,888.247130,4213.525239
1048.179489,-9918.759623,-296.082377,3140.991542
1048.179809,-9474.636058,148.041188,2911.162892
1048.180130,-10807.006753,814.226536,2604.724693
1048.180451,-9400.615463,2664.741391,2451.505594
1048.180772,-7920.203579,2960.823768,1608.800546
1048.181092,-7624.121203,1332.370696,-612.876398
1048.181413,-8068.244768,222.061783,-1685.410096
1048.181734,-9622.677246,1110.308913,-229.828649
1048.182055,-10214.842000,2738.761985,1225.752797
1048.182375,-11473.192101,2368.659014,2987.772442
1048.182696,-10362.883188,1332.370696,4290.134789
1048.183017,-11325.150913,-962.267725,3830.477490
1048.183337,-11769.274478,-222.061783,2451.505594
1048.183658,-12065.356855,1554.432478,5669.106685
1048.183979,-9770.718434,1998.556043,3217.601092
1048.184300,-9104.533087,2442.679609,2681.334243
1048.184620,-9178.553681,3034.844362,1991.848295
1048.184941,-8438.347739,888.247130,766.095498
1048.185262,-7772.162391,1406.391290,76.609550
1048.185583,-9548.656652,666.185348,1838.629195
1048.185903,-9548.656652,1776.494261,3600.648841
1048.186224,-10288.862594,1332.370696,4826.401637
1048.186545,-11695.253884,370.102971,5822.325785
1048.186866,-10214.842000,296.082377,4979.620737
1048.187186,-9252.574275,-740.205942,3370.820191
1048.187507,-9622.677246,2368.659014,4519.963438
1048.187828,-9326.594869,3108.864956,5898.935335
1048.188149,-9104.533087,1776.494261,4060.306139
1048.188469,-8734.430116,0.000000,3140.991542
1048.188790,-8290.306550,-2072.576638,1608.800546
1048.189111,-7476.080014,518.144159,2604.724693
1048.189432,-11621.233289,1406.391290,6358.592633
1048.189752,-9178.553681,2294.638420,6818.249932
1048.190073,-10584.944971,2072.576638,6052.154434
1048.190394,-9474.636058,1110.308913,4979.620737
1048.190714,-8438.347739,1702.473667,2757.943793
1048.191035,-11325.150913,2516.700203,5898.935335
1048.191356,-8734.430116,2220.617826,4136.915689
1048.191677,-7550.100608,3182.885551,1991.848295
1048.191997,-9326.594869,1924.535449,1991.848295
1048.192318,-8142.265362,2812.782580,1915.238745
1048.192639,-10955.047942,3627.009116,4366.744339
1048.192960,-11103.089130,1850.514855,4979.620737
1048.193280,-9622.677246,2220.617826,3677.258390
1048.193601,-10288.862594,2738.761985,3217.601092
1048.193922,-9992.780217,2294.638420,2298.286494
1048.194243,-10288.862594,5255.462188,4903.011187
1048.194563,-10436.903782,2886.803174,4673.182538
1048.194884,-9252.574275,2442.679609,2221.676944
1048.195205,-9474.636058,814.226536,1455.581446
1048.195526,-8068.244768,1628.453072,76.609550
1048.195846,-10807.006753,3034.844362,3064.381992
1048.196167,-10732.986159,1850.514855,3907.087040
1048.196488,-9178.553681,3330.926739,1302.362347
1048.196809,-9622.677246,1850.514855,459.657299
1048.197129,-7994.224174,1332.370696,-1378.971896
1048.197450,-11029.068536,3034.844362,1762.019645
1048.197771,-9474.636058,-296.082377,459.657299
1048.198091,-6661.853478,148.041188,-3064.381992
1048.198412,-8290.306550,296.082377,-2911.162892
1048.198733,-8882.471304,888.247130,306.438199
1048.199054,-10510.924376,2072.576638,5515.887586
1048.199374,-12657.521608,0.000000,5592.497135
1048.199695,-9474.636058,296.082377,2987.772442
1048.200016,-10362.883188,-592.164754,1455.581446
1048.200337,-10066.800811,2516.700203,1991.848295
1048.200657,-10214.842000,592.164754,4903.011187
1048.200978,-7328.038826,-222.061783,1149.143247
1048.201299,-5995.668130,-888.247130,-1915.238745
1048.201620,-6217.729913,-814.226536,-1838.629195
1048.201940,-9622.677246,74.020594,2145.067394
1048.202261,-10510.924376,-1702.473667,4366.744339
1048.202582,-9474.636058,370.102971,3140.991542
1048.202903,-10732.986159,-222.061783,919.314598
1048.203223,-9178.553681,2960.823768,2374.896044
1048.203544,-11843.295072,1702.473667,5592.497135
1048.203865,-11843.295072,74.020594,4596.572988
1048.204186,-9400.615463,-1258.350101,2145.067394
1048.204506,-8586.388927,-2664.741391,-153.219100
1048.204827,-8216.285956,-1998.556043,1838.629195
1048.205148,-10658.965565,-3330.926739,2221.676944
1048.205468,-8290.306550,592.164754,2911.162892
1048.205789,-9030.512492,-814.226536,0.000000
1048.206110,-9104.533087,1554.432478,1838.629195
1048.206431,-11177.109724,-2220.617826,2911.162892
1048.206751,-10955.047942,-2886.803174,2068.457845
1048.207072,-11029.068536,-1702.473667,1608.800546
1048.207393,-9770.718434,814.226536,0.000000
1048.207714,-10066.800811,1924.535449,2298.286494
1048.208034,-10955.047942,-1554.432478,1149.143247
1048.208355,-9548.656652,-370.102971,0.000000
1048.208676,-9770.718434,-2442.679609,-1378.971896
1048.208997,-8734.430116,-518.144159,-766.095498
1048.209317,-10214.842000,-2368.659014,536.266849
1048.209638,-10140.821405,-2220.617826,306.438199
1048.209959,-9474.636058,-2516.700203,229.828649
1048.210280,-9178.553681,-1702.473667,919.314598
1048.210600,-9548.656652,-1406.391290,995.924147
1048.210921,-10288.862594,-2516.700203,536.266849
1048.211242,-9474.636058,0.000000,0.000000
1048.211563,-9918.759623,74.020594,0.000000
1048.211883,-8512.368333,2368.659014,1532.190996
1048.212204,-10732.986159,148.041188,1072.533697
1048.212525,-8808.450710,-592.164754,-1149.143247
1048.212845,-9770.718434,0.000000,-2221.676944
1048.213166,-9104.533087,2960.823768,76.609550
1048.213487,-8882.471304,518.144159,766.095498
1048.213808,-9030.512492,222.061783,-536.266849
1048.214128,-8512.368333,-2146.597232,-1762.019645
1048.214449,-7624.121203,-2812.782580,-3140.991542
1048.214770,-7846.182985,222.061783,1608.800546
1048.215091,-11177.109724,-2590.720797,2528.115143
1048.215411,-8956.491898,1480.411884,2757.943793
1048.215732,-12805.562797,-3849.070898,-229.828649
1048.216053,-6143.709319,3997.112087,4366.744339
1048.216374,-16802.674883,-666.185348,3370.820191
1048.216694,-8734.430116,2072.576638,5132.839837
1048.217015,-10732.986159,-740.205942,-1302.362347
1048.217336,-9696.697840,444.123565,1149.143247
1048.217657,-5329.482782,-2072.576638,-2681.334243
1048.217977,-12213.398043,-1554.432478,2987.772442
1048.218298,-7476.080014,518.144159,995.924147
1048.218619,-8438.347739,0.000000,-1762.019645
1048.218939,-10955.047942,3182.885551,4596.572988
1048.219260,-10881.027347,444.123565,3830.477490
1048.219581,-11917.315666,-666.185348,3294.210641
1048.219901,-11473.192101,518.144159,4673.182538
1048.220222,-7179.997637,0.000000,919.314598
1048.220543,-11251.130318,1480.411884,3064.381992
1048.220863,-10436.903782,-666.185348,1685.410096
1048.221184,-7550.100608,814.226536,995.924147
1048.221505,-9548.656652,1110.308913,153.219100
1048.221825,-8216.285956,1628.453072,1915.238745
1048.222146,-10362.883188,370.102971,2145.067394
1048.222467,-10881.027347,-592.164754,2451.505594
1048.222787,-10362.883188,-1332.370696,1302.362347
1048.223108,-8512.368333,592.164754,1838.629195
1048.223429,-10881.027347,-2220.617826,919.314598
1048.223750,-9770.718434,-444.123565,1149.143247
1048.224070,-8586.388927,-296.082377,229.828649
1048.224391,-9548.656652,-592.164754,-766.095498
1048.224712,-8660.409521,1258.350101,2145.067394
1048.225032,-10140.821405,-2442.679609,-919.314598
1048.225353,-9030.512492,-814.226536,-612.876398
1048.225674,-8660.409521,-1332.370696,-1149.143247
1048.225994,-8734.430116,-888.247130,153.219100
1048.226315,-9918.759623,-2516.700203,0.000000
1048.226636,-8882.471304,-666.185348,-306.438199
1048.226956,-9326.594869,-666.185348,-1225.752797
1048.227277,-8956.491898,740.205942,229.828649
1048.227598,-8512.368333,1480.411884,2604.724693
1048.227918,-10658.965565,-1924.535449,-459.657299
1048.228239,-9400.615463,-518.144159,-842.705048
1048.228560,-9104.533087,-1184.329507,-1685.410096
1048.228880,-9178.553681,-296.082377,536.266849
1048.229201,-11177.109724,-1036.288319,1072.533697
1048.229522,-9696.697840,-444.123565,76.609550
1048.229843,-9326.594869,-666.185348,-229.828649
1048.230163,-9326.594869,-444.123565,612.876398
1048.230484,-9696.697840,-1332.370696,1685.410096
1048.230805,-10658.965565,-1110.308913,1762.019645
1048.231125,-9474.636058,-592.164754,1225.752797
1048.231446,-8808.450710,-1332.370696,766.095498
1048.231767,-9104.533087,-1628.453072,3677.258390
1048.232087,-11325.150913,-4737.318029,2374.896044
1048.232408,-9326.594869,-1924.535449,1378.971896
1048.232729,-10140.821405,-1332.370696,1608.800546
1048.233049,-8956.491898,1258.350101,3140.991542
1048.233370,-10732.986159,-888.247130,3983.696590
1048.233691,-9178.553681,296.082377,2221.676944
1048.234011,-9474.636058,-518.144159,1608.800546
1048.234332,-9104.533087,222.061783,1685.410096
1048.234653,-10732.986159,-814.226536,2757.943793
1048.234973,-10288.862594,-1628.453072,2298.286494
1048.235294,-9252.574275,-296.082377,1608.800546
1048.235615,-9548.656652,444.123565,1762.019645
1048.235936,-10066.800811,4071.132681,7354.516781
1048.236256,-12361.439231,-1554.432478,6358.592633
1048.236577,-12361.439231,-1110.308913,4596.572988
1048.236898,-10214.842000,-2516.700203,995.924147
1048.237218,-7179.997637,0.000000,-995.924147
1048.237539,-8216.285956,2072.576638,0.000000
1048.237860,-8290.306550,1110.308913,-689.485948
1048.238180,-6439.791695,1850.514855,-1915.238745
1048.238501,-8216.285956,888.247130,-2221.676944
1048.238822,-7624.121203,814.226536,536.266849
1048.239142,-12287.418637,-2072.576638,1608.800546
1048.239463,-12139.377449,148.041188,2681.334243
1048.239784,-10807.006753,-148.041188,1072.533697
1048.240104,-9474.636058,1332.370696,1149.143247
1048.240425,-9474.636058,-296.082377,1532.190996
1048.240746,-9548.656652,-1480.411884,-612.876398
1048.241066,-9474.636058,-148.041188,-2068.457845
1048.241387,-7772.162391,740.205942,-2451.505594
1048.241708,-8808.450710,1850.514855,-306.438199
1048.242029,-10436.903782,148.041188,-306.438199
1048.242349,-8882.471304,1184.329507,536.266849
1048.242670,-10732.986159,-1702.473667,0.000000
1048.242991,-8956.491898,-1184.329507,1762.019645
1048.243311,-10436.903782,-1480.411884,1302.362347
1048.243632,-11621.233289,-1480.411884,1532.190996
1048.243953,-9326.594869,1924.535449,919.314598
1048.244273,-9844.739029,888.247130,919.314598
1048.244594,-7031.956449,1480.411884,0.000000
1048.244915,-8438.347739,-814.226536,-1225.752797
1048.245235,-9030.512492,-1554.432478,-1608.800546
1048.245556,-7994.224174,-592.164754,-1302.362347
1048.245877,-10584.944971,-296.082377,1762.019645
1048.246197,-10288.862594,-444.123565,3370.820191
1048.246518,-9992.780217,-444.123565,2911.162892
1048.246839,-11029.068536,-666.185348,2604.724693
1048.247159,-11103.089130,2294.638420,4826.401637
1048.247480,-11843.295072,-1184.329507,4596.572988
1048.247801,-9844.739029,-1480.411884,1608.800546
1048.248122,-8142.265362,-740.205942,76.609550
1048.248442,-7476.080014,-296.082377,1302.362347
1048.248763,-8586.388927,1332.370696,2757.943793
1048.249084,-10214.842000,74.020594,2451.505594
1048.249404,-8586.388927,888.247130,612.876398
1048.249725,-9918.759623,666.185348,995.924147
1048.250046,-10584.944971,1850.514855,4060.306139
1048.250366,-12213.398043,-1110.308913,4903.011187
1048.250687,-11177.109724,-1406.391290,3064.381992
1048.251008,-9030.512492,-2220.617826,842.705048
1048.251328,-8660.409521,-1332.370696,306.438199
1048.251649,-10066.800811,-2368.659014,2528.115143
1048.251970,-9622.677246,-2294.638420,1072.533697
1048.252290,-9104.533087,-1406.391290,689.485948
1048.252611,-7624.121203,-74.020594,-842.705048
1048.252932,-8364.327145,1702.473667,1532.190996
1048.253252,-12287.418637,-1850.514855,2528.115143
1048.253573,-9252.574275,-518.144159,1532.190996
1048.253894,-10066.800811,-2368.659014,0.000000
1048.254215,-8364.327145,-444.123565,-1072.533697
1048.254535,-9622.677246,-1702.473667,689.485948
1048.254856,-10288.862594,-1110.308913,919.314598
1048.255177,-8956.491898,-814.226536,-306.438199
1048.255497,-7328.038826,74.020594,-766.095498
1048.255818,-9030.512492,518.144159,536.266849
1048.256139,-10510.924376,-888.247130,689.485948
1048.256459,-10955.047942,0.000000,1149.143247
1048.256780,-9474.636058,-222.061783,-229.828649
1048.257101,-8290.306550,74.020594,153.219100
1048.257421,-9104.533087,-1184.329507,-536.266849
1048.257742,-9178.553681,-1850.514855,-1608.800546
1048.258063,-7105.977043,-962.267725,-2911.162892
1048.258383,-8364.327145,1184.329507,-1072.533697
1048.258704,-10362.883188,222.061783,3600.648841
1048.259025,-11917.315666,-2516.700203,3600.648841
1048.259345,-11547.212695,-2220.617826,3294.210641
1048.259666,-10955.047942,-2220.617826,1838.629195
1048.259987,-8956.491898,740.205942,3524.039291
1048.260308,-10436.903782,-592.164754,3064.381992
1048.260628,-8142.265362,-148.041188,842.705048
1048.260949,-7254.018232,-518.144159,153.219100
1048.261270,-7328.038826,666.185348,0.000000
1048.261590,-9622.677246,-814.226536,1915.238745
1048.261911,-10881.027347,0.000000,3064.381992
1048.262232,-10955.047942,222.061783,2987.772442
1048.262552,-10436.903782,592.164754,2451.505594
1048.262873,-10584.944971,1554.432478,4903.011187
1048.263194,-12213.398043,-1258.350101,3600.648841
1048.263514,-10140.821405,0.000000,2221.676944
1048.263835,-9770.718434,-74.020594,-459.657299
1048.264156,-8808.450710,1776.494261,1072.533697
1048.264476,-9474.636058,1776.494261,1608.800546
1048.264797,-10214.842000,1036.288319,1532.190996
1048.265118,-9474.636058,666.185348,1608.800546
1048.265438,-9400.615463,1406.391290,612.876398
1048.265759,-10881.027347,888.247130,2604.724693
1048.266080,-11325.150913,222.061783,2374.896044
1048.266401,-10140.821405,0.000000,1838.629195
1048.266721,-10510.924376,-222.061783,995.924147
1048.267042,-8660.409521,592.164754,995.924147
1048.267363,-10658.965565,-962.267725,383.047749
1048.267683,-9474.636058,74.020594,76.609550
1048.268004,-8882.471304,222.061783,-766.095498
1048.268325,-9770.718434,2368.659014,1762.019645
1048.268645,-10584.944971,296.082377,3447.429741
1048.268966,-10362.883188,-2886.803174,1608.800546
1048.269287,-8364.327145,-3330.926739,459.657299
1048.269607,-9252.574275,-1702.473667,-1838.629195
1048.269928,-7772.162391,222.061783,0.000000
1048.270249,-8586.388927,-1258.350101,-383.047749
1048.270569,-6439.791695,740.205942,-1532.190996
1048.270890,-9400.615463,-2072.576638,-1455.581446
1048.271211,-8290.306550,-1554.432478,-229.828649
1048.271531,-9696.697840,-1554.432478,1915.238745
1048.271852,-11103.089130,-2738.761985,1378.971896
1048.272173,-9030.512492,592.164754,1225.752797
1048.272494,-10362.883188,0.000000,2298.286494
1048.272814,-8586.388927,-296.082377,2451.505594
1048.273135,-10288.862594,-2812.782580,842.705048
1048.273456,-8882.471304,-1924.535449,689.485948
1048.273776,-8068.244768,-1184.329507,-2528.115143
1048.274097,-9474.636058,740.205942,766.095498
1048.274418,-9474.636058,-148.041188,1455.581446
1048.274738,-8438.347739,222.061783,229.828649
1048.275059,-11325.150913,-1702.473667,306.438199
1048.275380,-9178.553681,1406.391290,1302.362347
1048.275700,-12213.398043,-1480.411884,4443.353888
1048.276021,-10436.903782,-962.267725,2604.724693
1048.276342,-9030.512492,-740.205942,2451.505594
1048.276662,-10510.924376,-1554.432478,0.000000
1048.276983,-7920.203579,3108.864956,2298.286494
1048.277304,-12435.459826,-666.185348,2451.505594
1048.277624,-8586.388927,444.123565,1225.752797
1048.277945,-9252.574275,444.123565,689.485948
1048.278266,-10510.924376,-444.123565,1915.238745
1048.278587,-10807.006753,0.000000,3294.210641
1048.278907,-13027.624579,-1702.473667,3140.991542
1048.279228,-9326.594869,-1332.370696,153.219100
1048.279549,-9104.533087,-370.102971,842.705048
1048.279869,-10436.903782,-962.267725,2681.334243
1048.280190,-8956.491898,-2220.617826,689.485948
1048.280511,-8956.491898,-1110.308913,-842.705048
1048.280831,-8956.491898,-740.205942,-1149.143247
1048.281152,-8364.327145,1924.535449,2145.067394
1048.281473,-11843.295072,-1406.391290,2911.162892
1048.281793,-8364.327145,-1480.411884,1685.410096
1048.282114,-9992.780217,-1776.494261,-383.047749
1048.282435,-7994.224174,-592.164754,-153.219100
1048.282755,-9178.553681,-296.082377,1455.581446
1048.283076,-9992.780217,-1258.350101,1532.190996
1048.283397,-7846.182985,-962.267725,76.609550
1048.283717,-8216.285956,-370.102971,-1608.800546
1048.284038,-7994.224174,1110.308913,229.828649
1048.284359,-9548.656652,-296.082377,1149.143247
1048.284680,-10732.986159,-148.041188,1455.581446
1048.285000,-8660.409521,-518.144159,-306.438199
1048.285321,-9030.512492,518.144159,229.828649
1048.285642,-10140.821405,0.000000,2451.505594
1048.285962,-9770.718434,-444.123565,1532.190996
1048.286283,-9178.553681,-740.205942,-306.438199
1048.286604,-7772.162391,518.144159,-1072.533697
1048.286924,-8512.368333,1184.329507,612.876398
1048.287245,-10955.047942,814.226536,2145.067394
1048.287566,-9770.718434,888.247130,2221.676944
1048.287886,-10362.883188,-444.123565,-306.438199
1048.288207,-9104.533087,296.082377,1072.533697
1048.288528,-10807.006753,-370.102971,2068.457845
1048.288848,-10436.903782,-962.267725,2987.772442
1048.289169,-9918.759623,-2516.700203,-153.219100
1048.289490,-7105.977043,222.061783,-1072.533697
1048.289810,-8586.388927,370.102971,-459.657299
1048.290131,-9770.718434,666.185348,306.438199
1048.290452,-11029.068536,1924.535449,3294.210641
1048.290773,-11843.295072,-444.123565,2757.943793
1048.291093,-10510.924376,444.123565,3907.087040
1048.291414,-11991.336260,-2442.679609,3677.258390
1048.291735,-10807.006753,-444.123565,3447.429741
1048.292055,-10436.903782,-148.041188,2221.676944
1048.292376,-9178.553681,1776.494261,1532.190996
1048.292697,-7846.182985,1924.535449,689.485948
1048.293017,-8216.285956,888.247130,-842.705048
1048.293338,-9252.574275,518.144159,-842.705048
1048.293659,-8438.347739,888.247130,0.000000
1048.293979,-9474.636058,148.041188,2451.505594
1048.294300,-11325.150913,-1776.494261,2451.505594
1048.294621,-9548.656652,-1776.494261,1915.238745
1048.294941,-10510.924376,-1332.370696,1991.848295
1048.295262,-10510.924376,592.164754,3677.258390
1048.295583,-10436.903782,-740.205942,1915.238745
1048.295903,-8956.491898,1036.288319,0.000000
1048.296224,-8734.430116,0.000000,-919.314598
1048.296545,-8290.306550,814.226536,-1149.143247
1048.296866,-9104.533087,0.000000,842.705048
1048.297186,-9252.574275,-1332.370696,-76.609550
1048.297507,-8438.347739,-888.247130,-1762.019645
1048.297828,-8586.388927,222.061783,153.219100
1048.298148,-11177.109724,0.000000,3140.991542
1048.298469,-11029.068536,-296.082377,2451.505594
1048.298790,-9918.759623,222.061783,1532.190996
1048.299110,-9770.718434,-1998.556043,-153.219100
1048.299431,-7698.141797,-518.144159,-459.657299
1048.299752,-10658.965565,148.041188,2834.553343
1048.300072,-10658.965565,-1554.432478,2145.067394
1048.300393,-8734.430116,-1628.453072,153.219100
1048.300714,-9992.780217,-2072.576638,995.924147
1048.301034,-9178.553681,-962.267725,1072.533697
1048.301355,-10436.903782,-1554.432478,689.485948
1048.301676,-9918.759623,0.000000,1455.581446
1048.301996,-7328.038826,-814.226536,-1302.362347
1048.302317,-7772.162391,-740.205942,-919.314598
1048.302638,-9918.759623,-1184.329507,1149.143247
1048.302959,-10066.800811,-1628.453072,1302.362347
1048.303279,-9918.759623,-1628.453072,766.095498
1048.303600,-8808.450710,296.082377,2451.505594
1048.303921,-11177.109724,-592.164754,3370.820191
1048.304241,-11843.295072,-518.144159,2298.286494
1048.304562,-11029.068536,296.082377,3217.601092
1048.304883,-8438.347739,592.164754,0.000000
1048.305203,-8808.450710,1850.514855,1302.362347
1048.305524,-10807.006753,-962.267725,76.609550
1048.305845,-8364.327145,-296.082377,-459.657299
1048.306165,-9104.533087,-518.144159,-383.047749
1048.306486,-8512.368333,1110.308913,1685.410096
1048.306807,-11251.130318,-222.061783,2757.943793
1048.307127,-11473.192101,-1258.350101,1685.410096
1048.307448,-9178.553681,-370.102971,1302.362347
1048.307769,-9770.718434,222.061783,1149.143247
1048.308089,-10584.944971,222.061783,2528.115143
1048.308410,-10140.821405,-1184.329507,1915.238745
1048.308731,-9474.636058,-1554.432478,-1072.533697
1048.309052,-9252.574275,518.144159,-995.924147
1048.309372,-9548.656652,2294.638420,842.705048
1048.309693,-9770.718434,444.123565,2604.724693
1048.310014,-9918.759623,-1702.473667,1532.190996
1048.310334,-8956.491898,-1924.535449,-919.314598
1048.310655,-9104.533087,-1554.432478,0.000000
1048.310976,-9030.512492,222.061783,1072.533697
1048.311296,-9992.780217,148.041188,1072.533697
1048.311617,-8586.388927,-370.102971,-536.266849
1048.311938,-8438.347739,1036.288319,76.609550
1048.312258,-9770.718434,0.000000,1608.800546
1048.312579,-10436.903782,-1184.329507,1455.581446
1048.312900,-10436.903782,-444.123565,2145.067394
1048.313220,-9992.780217,-1036.288319,-229.828649
1048.313541,-7624.121203,1332.370696,459.657299
1048.313862,-9252.574275,370.102971,3064.381992
1048.314182,-9400.615463,-814.226536,842.705048
1048.314503,-8956.491898,-1110.308913,-1149.143247
1048.314824,-8882.471304,962.267725,0.000000
1048.315145,-9548.656652,1258.350101,2834.553343
1048.315465,-11325.150913,-1480.411884,3064.381992
1048.315786,-9696.697840,-296.082377,2451.505594
1048.316107,-9326.594869,-1406.391290,0.000000
1048.316427,-8882.471304,296.082377,1302.362347
1048.316748,-10214.842000,-962.267725,2911.162892
1048.317069,-9622.677246,-2368.659014,1149.143247
1048.317389,-8216.285956,-1702.473667,-536.266849
1048.317710,-8882.471304,222.061783,0.000000
1048.318031,-9918.759623,-444.123565,2221.676944
1048.318351,-10732.986159,-370.102971,2298.286494
1048.318672,-9992.780217,-148.041188,2374.896044
1048.318993,-8808.450710,-296.082377,383.047749
1048.319313,-9622.677246,0.000000,2451.505594
1048.319634,-10955.047942,-1776.494261,2987.772442
1048.319955,-9844.739029,-962.267725,1302.362347
1048.320276,-9696.697840,-740.205942,306.438199
1048.320596,-8660.409521,2294.638420,995.924147
1048.320917,-8586.388927,148.041188,153.219100
1048.321238,-9252.574275,-1480.411884,-1225.752797
1048.321558,-8438.347739,2220.617826,-1149.143247
1048.321879,-11103.089130,888.247130,689.485948
1048.322200,-9992.780217,592.164754,2911.162892
1048.322521,-13175.665768,-2146.597232,5209.449386
1048.322841,-11251.130318,-2738.761985,1608.800546
1048.323162,-9770.718434,-1850.514855,153.219100
1048.323483,-9918.759623,962.267725,2221.676944
1048.323804,-9474.636058,740.205942,1685.410096
1048.324124,-9400.615463,1850.514855,-1072.533697
1048.324445,-7698.141797,1776.494261,-2604.724693
1048.324766,-7402.059420,518.144159,-2604.724693
1048.325087,-9918.759623,444.123565,2374.896044
1048.325407,-11547.212695,-2516.700203,1302.362347
1048.325728,-9400.615463,-1184.329507,689.485948
1048.326049,-10510.924376,-1406.391290,0.000000
1048.326370,-8956.491898,1776.494261,2757.943793
1048.326690,-11769.274478,-1406.391290,2451.505594
1048.327011,-9400.615463,0.000000,689.485948
1048.327332,-9548.656652,-1332.370696,-1991.848295
1048.327652,-6661.853478,518.144159,-1225.752797
1048.327973,-9178.553681,-2294.638420,1072.533697
1048.328294,-10140.821405,-2886.803174,1532.190996
1048.328615,-8734.430116,-2516.700203,153.219100
1048.328935,-8808.450710,-2220.617826,0.000000
1048.329256,-9622.677246,2072.576638,2757.943793
1048.329577,-12287.418637,-592.164754,3140.991542
1048.329898,-10881.027347,1332.370696,3217.601092
1048.330218,-9030.512492,-888.247130,766.095498
1048.330539,-8438.347739,-1332.370696,919.314598
1048.330860,-8586.388927,-1406.391290,1072.533697
1048.331181,-9622.677246,-2442.679609,383.047749
1048.331501,-7550.100608,-148.041188,-1608.800546
1048.331822,-8438.347739,2664.741391,536.266849
1048.332143,-10288.862594,592.164754,2681.334243
1048.332464,-9622.677246,-666.185348,1915.238745
1048.332784,-13101.645173,-2294.638420,2528.115143
1048.333105,-7920.203579,-296.082377,1302.362347
1048.333426,-9474.636058,0.000000,3294.210641
1048.333746,-11843.295072,222.061783,5745.716235
1048.334067,-9992.780217,-222.061783,4136.915689
1048.334388,-9844.739029,-814.226536,1532.190996
1048.334709,-8956.491898,296.082377,3217.601092
1048.335029,-9696.697840,74.020594,1838.629195
1048.335350,-9696.697840,-592.164754,-153.219100
1048.335671,-8142.265362,444.123565,0.000000
1048.335992,-7846.182985,370.102971,-2145.067394
1048.336312,-9030.512492,1258.350101,1072.533697
1048.336633,-11177.109724,-3256.906145,229.828649
1048.336954,-9252.574275,-1776.494261,842.705048
1048.337275,-10955.047942,-2664.741391,0.000000
1048.337595,-9548.656652,-740.205942,1455.581446
1048.337916,-10436.903782,-518.144159,2374.896044
1048.338237,-10807.006753,-296.082377,1225.752797
1048.338558,-9548.656652,370.102971,689.485948
1048.338878,-8734.430116,1776.494261,2298.286494
1048.339199,-9104.533087,-1406.391290,1532.190996
1048.339520,-9696.697840,-2442.679609,0.000000
1048.339840,-8290.306550,-518.144159,-1225.752797
1048.340161,-8364.327145,-814.226536,-2451.505594
1048.340482,-6809.894666,3108.864956,153.219100
1048.340803,-10658.965565,1110.308913,612.876398
1048.341123,-8956.491898,1702.473667,1302.362347
1048.341444,-11843.295072,-1110.308913,995.924147
1048.341765,-10732.986159,1258.350101,2068.457845
1048.342086,-12361.439231,0.000000,3907.087040
1048.342406,-11029.068536,666.185348,2528.115143
1048.342727,-8808.450710,518.144159,306.438199
1048.343048,-7846.182985,-888.247130,-2604.724693
1048.343369,-5477.523971,740.205942,-842.705048
1048.343689,-8586.388927,-1998.556043,-2374.896044
