#time,accel_x,accel_y,accel_z
822.153745,-8956.491898,-2886.803174,-995.924147
822.154066,-9992.780217,-2442.679609,-306.438199
822.154387,-10140.821405,-1998.556043,-612.876398
822.154708,-9918.759623,-1332.370696,0.000000
822.155028,-9622.677246,-1776.494261,995.924147
822.155349,-10140.821405,-1628.453072,612.876398
822.155670,-9474.636058,-1184.329507,459.657299
822.155991,-9844.739029,-888.247130,306.438199
822.156312,-9474.636058,0.000000,766.095498
822.156633,-9474.636058,370.102971,1072.533697
822.156954,-9474.636058,-222.061783,1455.581446
822.157275,-9178.553681,-814.226536,306.438199
822.157596,-9992.780217,-962.267725,459.657299
822.157916,-9474.636058,-814.226536,-995.924147
822.158237,-9770.718434,0.000000,229.828649
822.158558,-9992.780217,-148.041188,383.047749
822.158879,-9992.780217,-444.123565,0.000000
822.159200,-9844.739029,-1554.432478,-153.219100
822.159521,-10066.800811,-1998.556043,0.000000
822.159842,-9622.677246,-2664.741391,-306.438199
822.160163,-9548.656652,-2738.761985,0.000000
822.160483,-9252.574275,-2960.823768,-459.657299
822.160804,-8512.368333,-2886.803174,-383.047749
822.161125,-8512.368333,-3330.926739,-459.657299
822.161446,-8734.430116,-3478.967927,-919.314598
822.161767,-8808.450710,-3923.091493,-1072.533697
822.162088,-8660.409521,-4145.153275,-1762.019645
822.162409,-9178.553681,-3775.050304,-1915.238745
822.162730,-9178.553681,-3701.029710,-2145.067394
822.163051,-9252.574275,-3701.029710,-2911.162892
822.163371,-9474.636058,-3404.947333,-2757.943793
822.163692,-9178.553681,-3404.947333,-3983.696590
822.164013,-9474.636058,-3330.926739,-4366.744339
822.164334,-9474.636058,-3330.926739,-3907.087040
822.164655,-9770.718434,-3478.967927,-4213.525239
822.164976,-9844.739029,-3478.967927,-4596.572988
822.165297,-9844.739029,-3552.988522,-3983.696590
822.165618,-9474.636058,-3478.967927,-4060.306139
822.165938,-9548.656652,-3775.050304,-3753.867940
822.166259,-7550.100608,-3923.091493,-3983.696590
822.166580,-9548.656652,-3627.009116,-3524.039291
822.166901,-9696.697840,-3034.844362,-3677.258390
822.167222,-9622.677246,-3478.967927,-3370.820191
822.167543,-9770.718434,-3404.947333,-3140.991542
822.167864,-9992.780217,-3034.844362,-2681.334243
822.168185,-10584.944971,-2812.782580,-1915.238745
822.168506,-9992.780217,-2516.700203,-459.657299
822.168826,-10510.924376,-2738.761985,0.000000
822.169147,-10288.862594,-2516.700203,689.485948
822.169468,-10436.903782,-2886.803174,229.828649
822.169789,-9992.780217,-2886.803174,536.266849
822.170110,-9400.615463,-3034.844362,229.828649
822.170431,-9326.594869,-3256.906145,-2068.457845
822.170752,-9030.512492,-3256.906145,-995.924147
822.171073,-8734.430116,-3627.009116,-1378.971896
822.171394,-8956.491898,-3478.967927,-1072.533697
822.171714,-9474.636058,-3256.906145,-689.485948
822.172035,-9178.553681,-3404.947333,0.000000
822.172356,-10066.800811,-2738.761985,0.000000
822.172677,-10140.821405,-2146.597232,1225.752797
822.172998,-10066.800811,-1702.473667,2068.457845
822.173319,-9992.780217,-1850.514855,2298.286494
822.173640,-9548.656652,-2220.617826,2298.286494
822.173961,-9030.512492,-1702.473667,1608.800546
822.174281,-8956.491898,-814.226536,1455.581446
822.174602,-8142.265362,444.123565,3600.648841
822.174923,-8808.450710,666.185348,2221.676944
822.175244,-8956.491898,962.267725,2528.115143
822.175565,-9178.553681,962.267725,2834.553343
822.175886,-9474.636058,592.164754,3600.648841
822.176207,-9474.636058,296.082377,2221.676944
822.176528,-9474.636058,-518.144159,1225.752797
822.176849,-9252.574275,-444.123565,76.609550
822.177169,-9696.697840,-222.061783,153.219100
822.177490,-9696.697840,296.082377,383.047749
822.177811,-10436.903782,148.041188,229.828649
822.178132,-10584.944971,222.061783,0.000000
822.178453,-10436.903782,814.226536,153.219100
822.178774,-9992.780217,1850.514855,1762.019645
822.179095,-10658.965565,1998.556043,1532.190996
822.179415,-9770.718434,2072.576638,1378.971896
822.179736,-9548.656652,2368.659014,1072.533697
822.180056,-9474.636058,2368.659014,2068.457845
822.180377,-9622.677246,2146.597232,1762.019645
822.180698,-9474.636058,2220.617826,1762.019645
822.181018,-9474.636058,1924.535449,1225.752797
822.181339,-9400.615463,2220.617826,-306.438199
822.181659,-9252.574275,888.247130,-459.657299
822.181980,-9104.533087,444.123565,-1608.800546
822.182300,-9104.533087,-222.061783,-2221.676944
822.182621,-9104.533087,-370.102971,-3217.601092
822.182941,-9326.594869,-888.247130,-1991.848295
822.183262,-10362.883188,-370.102971,-1072.533697
822.183583,-10584.944971,-666.185348,-383.047749
822.183903,-10362.883188,-666.185348,459.657299
822.184224,-10510.924376,-1110.308913,1532.190996
822.184544,-9770.718434,-888.247130,1838.629195
822.184865,-9770.718434,-888.247130,2911.162892
822.185185,-9030.512492,-814.226536,3447.429741
822.185506,-8142.265362,-962.267725,2987.772442
822.185826,-8586.388927,0.000000,2451.505594
822.186147,-8068.244768,0.000000,2987.772442
822.186468,-8364.327145,666.185348,2221.676944
822.186788,-8882.471304,518.144159,2145.067394
822.187109,-8734.430116,814.226536,1225.752797
822.187429,-9326.594869,-962.267725,536.266849
822.187750,-9918.759623,-1850.514855,612.876398
822.188070,-10362.883188,-2146.597232,1149.143247
822.188391,-10510.924376,-2442.679609,1378.971896
822.188711,-10955.047942,-2368.659014,1225.752797
822.189032,-10584.944971,-1554.432478,1378.971896
822.189352,-10584.944971,-1554.432478,1302.362347
822.189673,-9844.739029,-1184.329507,1838.629195
822.189994,-8364.327145,-592.164754,1991.848295
822.190314,-9400.615463,-1480.411884,2528.115143
822.190635,-9252.574275,-1406.391290,3064.381992
822.190955,-9030.512492,-1036.288319,2834.553343
822.191276,-9400.615463,-296.082377,3370.820191
822.191596,-9178.553681,148.041188,2834.553343
822.191917,-9326.594869,888.247130,1915.238745
822.192237,-9474.636058,148.041188,536.266849
822.192558,-9400.615463,-888.247130,-842.705048
822.192879,-9326.594869,-1998.556043,-2374.896044
822.193199,-9474.636058,-2220.617826,-2528.115143
822.193520,-9918.759623,-1924.535449,-1685.410096
822.193840,-10362.883188,-1628.453072,-995.924147
822.194161,-10584.944971,-1628.453072,-995.924147
822.194481,-10436.903782,-1110.308913,0.000000
822.194802,-10214.842000,-1036.288319,536.266849
822.195122,-10214.842000,-740.205942,1225.752797
822.195443,-9770.718434,-148.041188,1838.629195
822.195764,-8882.471304,444.123565,2528.115143
822.196084,-9178.553681,296.082377,2528.115143
822.196405,-8068.244768,1110.308913,2681.334243
822.196725,-8586.388927,1110.308913,2221.676944
822.197046,-8734.430116,1332.370696,1685.410096
822.197366,-8734.430116,1332.370696,766.095498
822.197687,-9030.512492,296.082377,0.000000
822.198007,-9178.553681,0.000000,-766.095498
822.198328,-10658.965565,592.164754,-1225.752797
822.198649,-10066.800811,-518.144159,-229.828649
822.198969,-10732.986159,-592.164754,0.000000
822.199290,-10807.006753,-814.226536,76.609550
822.199610,-10658.965565,-74.020594,459.657299
822.199931,-10510.924376,518.144159,842.705048
822.200251,-10288.862594,888.247130,2145.067394
822.200572,-10066.800811,1258.350101,2681.334243
822.200892,-9400.615463,1628.453072,3370.820191
822.201213,-9252.574275,1258.350101,3140.991542
822.201534,-9178.553681,1036.288319,3830.477490
822.201854,-9030.512492,814.226536,3370.820191
822.202175,-8956.491898,1110.308913,2604.724693
822.202495,-9326.594869,1628.453072,1149.143247
822.202816,-9326.594869,814.226536,766.095498
822.203136,-9474.636058,148.041188,0.000000
822.203457,-9622.677246,-592.164754,-842.705048
822.203777,-10362.883188,-1184.329507,-1455.581446
822.204098,-10732.986159,-1258.350101,0.000000
822.204419,-10881.027347,-1776.494261,153.219100
822.204739,-10955.047942,-1036.288319,689.485948
822.205060,-10807.006753,-444.123565,1225.752797
822.205380,-10510.924376,296.082377,2145.067394
822.205701,-9918.759623,222.061783,3370.820191
822.206021,-9622.677246,296.082377,3677.258390
822.206342,-9030.512492,148.041188,3600.648841
822.206662,-8882.471304,1258.350101,3524.039291
822.206983,-8438.347739,0.000000,3677.258390
822.207304,-8290.306550,0.000000,2451.505594
822.207624,-7772.162391,74.020594,1378.971896
822.207945,-8438.347739,0.000000,306.438199
822.208265,-9030.512492,-370.102971,-383.047749
822.208586,-9400.615463,-888.247130,-995.924147
822.208906,-9844.739029,-1406.391290,-1532.190996
822.209227,-10214.842000,-1554.432478,-1225.752797
822.209547,-11325.150913,-1184.329507,-536.266849
822.209868,-10807.006753,-1554.432478,-306.438199
822.210189,-10584.944971,-1258.350101,76.609550
822.210509,-10436.903782,-1184.329507,383.047749
822.210830,-9622.677246,-814.226536,306.438199
822.211150,-9548.656652,-962.267725,2145.067394
822.211471,-9104.533087,-888.247130,2145.067394
822.211791,-8216.285956,-740.205942,2145.067394
822.212112,-8216.285956,-370.102971,2451.505594
822.212432,-8290.306550,-296.082377,1302.362347
822.212753,-8438.347739,148.041188,1225.752797
822.213074,-9104.533087,0.000000,766.095498
822.213394,-9252.574275,-888.247130,-306.438199
822.213715,-9770.718434,-1850.514855,-766.095498
822.214035,-9918.759623,-2516.700203,-1685.410096
822.214356,-10658.965565,-2442.679609,-1685.410096
822.214676,-10658.965565,-2368.659014,-919.314598
822.214997,-10955.047942,-2294.638420,-919.314598
822.215317,-10584.944971,-1406.391290,0.000000
822.215638,-10584.944971,-1110.308913,689.485948
822.215959,-9992.780217,-740.205942,1915.238745
822.216279,-9770.718434,-222.061783,2987.772442
822.216600,-9622.677246,0.000000,4060.306139
822.216920,-9252.574275,74.020594,4519.963438
822.217241,-8660.409521,0.000000,4213.525239
822.217561,-8586.388927,444.123565,4060.306139
822.217882,-8660.409521,666.185348,2681.334243
822.218202,-8808.450710,1406.391290,1991.848295
822.218523,-8882.471304,518.144159,919.314598
822.218844,-9622.677246,-296.082377,-536.266849
822.219164,-8290.306550,74.020594,-842.705048
822.219485,-10066.800811,-1258.350101,-1072.533697
822.219805,-10288.862594,-1776.494261,-229.828649
822.220126,-10955.047942,-1406.391290,229.828649
822.220446,-11251.130318,-1184.329507,-1149.143247
822.220767,-10510.924376,-444.123565,766.095498
822.221087,-10436.903782,0.000000,1838.629195
822.221408,-9622.677246,0.000000,2528.115143
822.221729,-9474.636058,0.000000,3064.381992
822.222049,-8734.430116,74.020594,3600.648841
822.222370,-8586.388927,222.061783,3294.210641
822.222690,-8364.327145,296.082377,2911.162892
822.223011,-8364.327145,888.247130,2298.286494
822.223331,-8364.327145,1850.514855,1685.410096
822.223652,-8882.471304,592.164754,383.047749
822.223972,-9030.512492,-296.082377,-612.876398
822.224293,-9844.739029,-1110.308913,-2298.286494
822.224613,-9696.697840,-962.267725,-2528.115143
822.224934,-10510.924376,-962.267725,-1762.019645
822.225255,-11251.130318,-666.185348,-459.657299
822.225575,-10807.006753,-222.061783,0.000000
822.225896,-11103.089130,0.000000,459.657299
822.226216,-10732.986159,370.102971,1149.143247
822.226537,-10362.883188,518.144159,2451.505594
822.226857,-10066.800811,592.164754,3370.820191
822.227178,-9104.533087,666.185348,3447.429741
822.227498,-8290.306550,148.041188,3217.601092
822.227819,-8734.430116,962.267725,3294.210641
822.228140,-8142.265362,962.267725,2528.115143
822.228460,-8882.471304,1332.370696,1838.629195
822.228781,-8956.491898,1036.288319,3217.601092
822.229101,-9252.574275,0.000000,0.000000
822.229422,-9622.677246,-740.205942,-612.876398
822.229742,-10288.862594,-1184.329507,-1225.752797
822.230063,-10362.883188,-1332.370696,-1225.752797
822.230383,-10436.903782,-1702.473667,-459.657299
822.230704,-10584.944971,-1480.411884,-1149.143247
822.231025,-10436.903782,-962.267725,-919.314598
822.231345,-10214.842000,-888.247130,76.609550
822.231666,-9992.780217,0.000000,1915.238745
822.231986,-9030.512492,-962.267725,1991.848295
822.232307,-9326.594869,-1406.391290,2451.505594
822.232627,-8586.388927,-592.164754,2834.553343
822.232948,-8290.306550,-370.102971,2987.772442
822.233268,-8512.368333,-222.061783,2604.724693
822.233589,-7920.203579,148.041188,1838.629195
822.233910,-8142.265362,74.020594,1149.143247
822.234230,-8956.491898,74.020594,383.047749
822.234551,-9326.594869,-962.267725,-383.047749
822.234871,-9400.615463,-1776.494261,-1149.143247
822.235192,-10066.800811,-1924.535449,-1225.752797
822.235512,-10510.924376,-2294.638420,-383.047749
822.235833,-10584.944971,-1850.514855,536.266849
822.236153,-10955.047942,-1850.514855,919.314598
822.236474,-10658.965565,-666.185348,1225.752797
822.236795,-10584.944971,0.000000,2604.724693
822.237115,-10362.883188,0.000000,4213.525239
822.237436,-9918.759623,-444.123565,4136.915689
822.237756,-8734.430116,0.000000,4060.306139
822.238077,-8956.491898,-370.102971,3677.258390
822.238397,-8068.244768,444.123565,3370.820191
822.238718,-8660.409521,222.061783,2374.896044
822.239038,-9252.574275,740.205942,2145.067394
822.239359,-8882.471304,148.041188,306.438199
822.239680,-9548.656652,0.000000,-766.095498
822.240000,-10214.842000,-444.123565,-1225.752797
822.240321,-10214.842000,-148.041188,-1685.410096
822.240641,-11103.089130,-740.205942,-1532.190996
822.240962,-10584.944971,-1480.411884,-1225.752797
822.241282,-10510.924376,-1924.535449,-1991.848295
822.241603,-10881.027347,-1480.411884,-689.485948
822.241923,-10214.842000,-666.185348,229.828649
822.242244,-9622.677246,0.000000,1532.190996
822.242565,-9770.718434,74.020594,2374.896044
822.242885,-8586.388927,518.144159,2834.553343
822.243206,-8586.388927,370.102971,2757.943793
822.243526,-8808.450710,370.102971,3140.991542
822.243847,-8512.368333,444.123565,2757.943793
822.244167,-7846.182985,222.061783,1378.971896
822.244488,-8660.409521,740.205942,1455.581446
822.244808,-9030.512492,518.144159,383.047749
822.245129,-9104.533087,-296.082377,-842.705048
822.245450,-9474.636058,-370.102971,-1915.238745
822.245770,-9844.739029,-888.247130,-1991.848295
822.246091,-10288.862594,-1184.329507,-995.924147
822.246411,-10732.986159,-1480.411884,0.000000
822.246732,-10510.924376,-1110.308913,536.266849
822.247052,-10658.965565,-814.226536,995.924147
822.247373,-10288.862594,296.082377,2604.724693
822.247693,-10214.842000,222.061783,3447.429741
822.248014,-9844.739029,592.164754,3983.696590
822.248335,-8660.409521,370.102971,4903.011187
822.248655,-8956.491898,666.185348,4213.525239
822.248976,-8882.471304,962.267725,3753.867940
822.249296,-8586.388927,1036.288319,2681.334243
822.249617,-8734.430116,888.247130,842.705048
822.249937,-8808.450710,148.041188,612.876398
822.250258,-9252.574275,-592.164754,-306.438199
822.250578,-9918.759623,-666.185348,-1072.533697
822.250899,-10510.924376,-814.226536,-689.485948
822.251220,-10955.047942,-518.144159,-459.657299
822.251540,-11177.109724,-814.226536,0.000000
822.251861,-11177.109724,-962.267725,306.438199
822.252181,-10955.047942,-740.205942,1149.143247
822.252502,-9622.677246,-666.185348,2068.457845
822.252822,-9918.759623,-444.123565,2757.943793
822.253143,-9548.656652,-370.102971,3140.991542
822.253463,-9178.553681,0.000000,3370.820191
822.253784,-7772.162391,0.000000,5056.230287
822.254105,-8586.388927,222.061783,3370.820191
822.254425,-8438.347739,370.102971,3140.991542
822.254746,-8512.368333,444.123565,1838.629195
822.255066,-8586.388927,0.000000,689.485948
822.255387,-9326.594869,-518.144159,-306.438199
822.255707,-9252.574275,-1184.329507,-1762.019645
822.256028,-9622.677246,-1258.350101,-2145.067394
822.256348,-9770.718434,-1036.288319,-2298.286494
822.256669,-10066.800811,-888.247130,-1915.238745
822.256990,-10362.883188,-1628.453072,-1149.143247
822.257310,-10436.903782,-1480.411884,-229.828649
822.257631,-10066.800811,-1258.350101,459.657299
822.257951,-9992.780217,-74.020594,1532.190996
822.258272,-9474.636058,-888.247130,2987.772442
822.258592,-9252.574275,0.000000,3600.648841
822.258913,-9030.512492,-148.041188,3600.648841
822.259233,-8438.347739,74.020594,3370.820191
822.259554,-8438.347739,0.000000,2604.724693
822.259874,-8142.265362,74.020594,1608.800546
822.260195,-8808.450710,-148.041188,459.657299
822.260516,-8586.388927,-592.164754,-612.876398
822.260836,-8586.388927,-1036.288319,-306.438199
822.261157,-9474.636058,-444.123565,-1838.629195
822.261477,-10510.924376,-740.205942,-1302.362347
822.261798,-11029.068536,-1184.329507,-766.095498
822.262118,-11473.192101,-1480.411884,-919.314598
822.262439,-11103.089130,-1332.370696,-229.828649
822.262759,-11103.089130,-962.267725,995.924147
822.263080,-10584.944971,-444.123565,2451.505594
822.263401,-10288.862594,0.000000,3217.601092
822.263721,-9326.594869,296.082377,3983.696590
822.264042,-8882.471304,740.205942,3983.696590
822.264362,-9030.512492,814.226536,3983.696590
822.264683,-8956.491898,1184.329507,3600.648841
822.265003,-8956.491898,1406.391290,3064.381992
822.265324,-8660.409521,888.247130,1915.238745
822.265644,-8956.491898,370.102971,766.095498
822.265965,-9400.615463,-740.205942,-306.438199
822.266286,-8808.450710,-1776.494261,-612.876398
822.266606,-9992.780217,-1554.432478,-1608.800546
822.266927,-10510.924376,-1258.350101,-1532.190996
822.267247,-10658.965565,-1480.411884,-612.876398
822.267568,-10732.986159,-1332.370696,0.000000
822.267888,-10362.883188,-1480.411884,919.314598
822.268209,-10214.842000,-962.267725,1378.971896
822.268529,-9622.677246,-814.226536,2528.115143
822.268850,-9252.574275,-740.205942,3217.601092
822.269171,-9030.512492,0.000000,3677.258390
822.269491,-8512.368333,-74.020594,3830.477490
822.269812,-8142.265362,0.000000,3217.601092
822.270132,-8290.306550,444.123565,1991.848295
822.270453,-8512.368333,666.185348,1225.752797
822.270773,-8660.409521,148.041188,536.266849
822.271094,-8808.450710,0.000000,-383.047749
822.271414,-9548.656652,-592.164754,-1685.410096
822.271735,-9918.759623,-222.061783,-1838.629195
822.272056,-10436.903782,-814.226536,-689.485948
822.272376,-11103.089130,-370.102971,-689.485948
822.272697,-11029.068536,-518.144159,-536.266849
822.273017,-10732.986159,-148.041188,0.000000
822.273338,-10732.986159,0.000000,689.485948
822.273658,-10362.883188,148.041188,2145.067394
822.273979,-9844.739029,0.000000,2681.334243
822.274299,-9400.615463,370.102971,2911.162892
822.274620,-9178.553681,592.164754,3140.991542
822.274941,-8956.491898,740.205942,3217.601092
822.275261,-8808.450710,666.185348,2681.334243
822.275582,-8734.430116,444.123565,1455.581446
822.275902,-9178.553681,592.164754,919.314598
822.276223,-9326.594869,-444.123565,0.000000
822.276543,-9474.636058,-1554.432478,-995.924147
822.276864,-9918.759623,-1776.494261,-1762.019645
822.277184,-9992.780217,-1628.453072,-2068.457845
822.277505,-9992.780217,-1480.411884,-1225.752797
822.277826,-10584.944971,-1406.391290,766.095498
822.278146,-10584.944971,-1184.329507,153.219100
822.278467,-10288.862594,-1110.308913,842.705048
822.278787,-10140.821405,-814.226536,2145.067394
822.279108,-9770.718434,-592.164754,3370.820191
822.279428,-9770.718434,74.020594,4366.744339
822.279749,-9178.553681,-296.082377,4519.963438
822.280069,-8364.327145,0.000000,4136.915689
822.280390,-8216.285956,-74.020594,3677.258390
822.280711,-7994.224174,-222.061783,2451.505594
822.281031,-8290.306550,0.000000,1762.019645
822.281352,-8512.368333,0.000000,153.219100
822.281672,-8882.471304,0.000000,-459.657299
822.281987,-9474.636058,-592.164754,-1225.752797
822.282308,-9918.759623,-518.144159,-766.095498
822.282628,-10732.986159,-962.267725,-766.095498
822.282949,-10881.027347,-1184.329507,-766.095498
822.283270,-10807.006753,-1110.308913,-153.219100
822.283590,-11029.068536,-814.226536,459.657299
822.283911,-10732.986159,74.020594,1378.971896
822.284231,-10436.903782,0.000000,2681.334243
822.284552,-9548.656652,74.020594,3370.820191
822.284873,-9400.615463,444.123565,3447.429741
822.285193,-9252.574275,518.144159,4136.915689
822.285514,-8956.491898,444.123565,3217.601092
822.285835,-8882.471304,0.000000,2528.115143
822.286155,-8438.347739,222.061783,1455.581446
822.286476,-8808.450710,296.082377,383.047749
822.286796,-9400.615463,-1036.288319,-689.485948
822.287117,-9696.697840,-740.205942,-1762.019645
822.287438,-9918.759623,-1184.329507,-2145.067394
822.287758,-10362.883188,-888.247130,-1991.848295
822.288079,-11103.089130,-1110.308913,-995.924147
822.288399,-11177.109724,-1184.329507,-229.828649
822.288720,-11029.068536,-1110.308913,0.000000
822.289041,-10658.965565,-592.164754,766.095498
822.289361,-9992.780217,-222.061783,2221.676944
822.289682,-10066.800811,-370.102971,2757.943793
822.290003,-9178.553681,0.000000,4060.306139
822.290323,-8660.409521,0.000000,3677.258390
822.290644,-8290.306550,74.020594,3447.429741
822.290964,-8216.285956,444.123565,2834.553343
822.291285,-8512.368333,814.226536,2451.505594
822.291606,-8660.409521,518.144159,1072.533697
822.291926,-8586.388927,74.020594,76.609550
822.292247,-9104.533087,-592.164754,-1149.143247
822.292567,-9622.677246,-740.205942,-1532.190996
822.292888,-9992.780217,-1110.308913,-1225.752797
822.293209,-10732.986159,-1480.411884,-689.485948
822.293529,-10510.924376,-1776.494261,-612.876398
822.293850,-11029.068536,0.000000,0.000000
822.294171,-10955.047942,-592.164754,995.924147
822.294491,-10436.903782,148.041188,2298.286494
822.294812,-10510.924376,-148.041188,3294.210641
822.295132,-9474.636058,-148.041188,3370.820191
822.295453,-8660.409521,-296.082377,3294.210641
822.295774,-8956.491898,74.020594,3677.258390
822.296094,-8660.409521,518.144159,3217.601092
822.296415,-8586.388927,1036.288319,2298.286494
822.296735,-8438.347739,1702.473667,306.438199
822.297056,-8808.450710,888.247130,76.609550
822.297377,-9326.594869,0.000000,-612.876398
822.297697,-9770.718434,-518.144159,-1455.581446
822.298018,-10066.800811,-1036.288319,-1608.800546
822.298339,-10362.883188,-1332.370696,-1532.190996
822.298659,-10436.903782,-1110.308913,-766.095498
822.298980,-10881.027347,-1258.350101,-153.219100
822.299300,-10584.944971,-962.267725,995.924147
822.299621,-10732.986159,-296.082377,2374.896044
822.299942,-9992.780217,-444.123565,3217.601092
822.300262,-9622.677246,-222.061783,4213.525239
822.300583,-9548.656652,74.020594,4596.572988
822.300904,-9326.594869,518.144159,3140.991542
822.301224,-8290.306550,-222.061783,3524.039291
822.301545,-7920.203579,-370.102971,2911.162892
822.301865,-8142.265362,-222.061783,1378.971896
822.302186,-8734.430116,-370.102971,459.657299
822.302507,-8882.471304,0.000000,-689.485948
822.302827,-9326.594869,74.020594,-1378.971896
822.303148,-9622.677246,-222.061783,-1378.971896
822.303468,-10584.944971,-888.247130,-1225.752797
822.303789,-10436.903782,-1258.350101,0.000000
822.304110,-10881.027347,-1332.370696,-306.438199
822.304430,-10881.027347,-1332.370696,536.266849
822.304751,-10510.924376,-1110.308913,1378.971896
822.305072,-9252.574275,0.000000,2604.724693
822.305392,-9770.718434,0.000000,3370.820191
822.305713,-9030.512492,148.041188,3677.258390
822.306033,-9252.574275,0.000000,3447.429741
822.306354,-8586.388927,148.041188,3064.381992
822.306675,-8364.327145,0.000000,2145.067394
822.306995,-8438.347739,0.000000,1838.629195
822.307316,-8438.347739,74.020594,766.095498
822.307636,-9178.553681,-592.164754,-536.266849
822.307957,-9474.636058,-962.267725,-1225.752797
822.308278,-10066.800811,-1110.308913,-1991.848295
822.308598,-10436.903782,-814.226536,-2221.676944
822.308919,-11251.130318,-666.185348,-1378.971896
822.309240,-9918.759623,-1850.514855,-995.924147
822.309560,-11103.089130,-962.267725,0.000000
822.309881,-10955.047942,-740.205942,536.266849
822.310201,-10436.903782,-518.144159,2068.457845
822.310522,-9918.759623,0.000000,3140.991542
822.310843,-9844.739029,222.061783,3677.258390
822.311163,-9178.553681,444.123565,3907.087040
822.311484,-9030.512492,444.123565,3677.258390
822.311804,-8142.265362,666.185348,2911.162892
822.312125,-8438.347739,962.267725,2451.505594
822.312446,-8734.430116,814.226536,1072.533697
822.312766,-8734.430116,296.082377,-153.219100
822.313087,-9030.512492,0.000000,-1378.971896
822.313408,-9474.636058,222.061783,-2221.676944
822.313728,-9918.759623,-296.082377,-1455.581446
822.314049,-10955.047942,-370.102971,-536.266849
822.314369,-11029.068536,-592.164754,0.000000
822.314690,-11029.068536,-666.185348,383.047749
822.315011,-11029.068536,-814.226536,1532.190996
822.315331,-10362.883188,-740.205942,2528.115143
822.315652,-10140.821405,-518.144159,3447.429741
822.315972,-9252.574275,-222.061783,3524.039291
822.316293,-8808.450710,-518.144159,3217.601092
822.316614,-8142.265362,0.000000,3677.258390
822.316934,-8660.409521,-370.102971,3370.820191
822.317255,-8142.265362,148.041188,2451.505594
822.317576,-8586.388927,-148.041188,995.924147
822.317896,-8142.265362,148.041188,459.657299
822.318217,-9104.533087,-370.102971,-306.438199
822.318537,-9326.594869,-1480.411884,-1302.362347
822.318858,-9474.636058,-1480.411884,-2221.676944
822.319179,-10214.842000,-1554.432478,-1838.629195
822.319499,-10510.924376,-1702.473667,-995.924147
822.319820,-11029.068536,-1480.411884,-153.219100
822.320140,-10881.027347,-1036.288319,153.219100
822.320461,-10584.944971,-222.061783,1838.629195
822.320782,-9992.780217,0.000000,2451.505594
822.321102,-10214.842000,0.000000,3370.820191
822.321423,-9252.574275,0.000000,3447.429741
822.321744,-8734.430116,-444.123565,3294.210641
822.322064,-8216.285956,0.000000,2834.553343
822.322385,-8142.265362,296.082377,2451.505594
822.322705,-8512.368333,592.164754,1762.019645
822.323026,-9030.512492,740.205942,995.924147
822.323347,-8956.491898,518.144159,-459.657299
822.323667,-9474.636058,-148.041188,-1302.362347
822.323988,-9918.759623,-666.185348,-1455.581446
822.324308,-10732.986159,-814.226536,-1532.190996
822.324629,-10807.006753,-1554.432478,-1225.752797
822.324950,-10955.047942,-1776.494261,-612.876398
822.325270,-10362.883188,-518.144159,153.219100
822.325591,-11843.295072,-2368.659014,842.705048
822.325912,-9400.615463,-666.185348,1685.410096
822.326232,-10510.924376,-1036.288319,2528.115143
822.326553,-9474.636058,74.020594,3830.477490
822.326873,-8808.450710,370.102971,3370.820191
822.327194,-9178.553681,296.082377,4213.525239
822.327515,-8512.368333,222.061783,2987.772442
822.327835,-7846.182985,0.000000,1685.410096
822.328156,-9252.574275,518.144159,1838.629195
822.328476,-8068.244768,0.000000,-229.828649
822.328797,-9400.615463,-444.123565,-1072.533697
822.329118,-9474.636058,-1184.329507,-1455.581446
822.329438,-9474.636058,-1184.329507,-2528.115143
822.329759,-10658.965565,-1036.288319,-1532.190996
822.330080,-11029.068536,-2368.659014,-919.314598
822.330400,-10584.944971,-888.247130,0.000000
822.330721,-11029.068536,-962.267725,689.485948
822.331041,-10288.862594,-370.102971,1532.190996
822.331362,-9696.697840,148.041188,3447.429741
822.331683,-9844.739029,-296.082377,3677.258390
822.332003,-8734.430116,-222.061783,3753.867940
822.332324,-8956.491898,-148.041188,3677.258390
822.332644,-7994.224174,296.082377,3064.381992
822.332965,-9030.512492,1110.308913,2681.334243
822.333286,-8660.409521,1480.411884,1915.238745
822.333606,-8660.409521,666.185348,306.438199
822.333927,-8882.471304,592.164754,-459.657299
822.334248,-9030.512492,-814.226536,-1378.971896
822.334568,-10214.842000,-444.123565,-1149.143247
822.334889,-10288.862594,-444.123565,-1225.752797
822.335209,-11177.109724,-888.247130,-919.314598
822.335530,-11399.171507,-592.164754,-76.609550
822.335851,-10955.047942,-296.082377,383.047749
822.336171,-10955.047942,-740.205942,1455.581446
822.336492,-10436.903782,148.041188,2911.162892
822.336812,-10140.821405,0.000000,3600.648841
822.337133,-9104.533087,0.000000,4366.744339
822.337454,-9104.533087,592.164754,3983.696590
822.337774,-8734.430116,814.226536,3753.867940
822.338095,-8512.368333,666.185348,2757.943793
822.338416,-6661.853478,222.061783,919.314598
822.338736,-8364.327145,666.185348,306.438199
822.339057,-8512.368333,-148.041188,-536.266849
822.339377,-9252.574275,-222.061783,-1225.752797
822.339698,-9770.718434,-1332.370696,-1762.019645
822.340019,-10140.821405,-962.267725,-1762.019645
822.340339,-10807.006753,-1480.411884,-995.924147
822.340660,-11103.089130,-1554.432478,-153.219100
822.340981,-11251.130318,-1850.514855,229.828649
822.341301,-10140.821405,-1702.473667,842.705048
822.341622,-9992.780217,-740.205942,2068.457845
822.341942,-9474.636058,-740.205942,2987.772442
822.342263,-9178.553681,-518.144159,3370.820191
822.342584,-8882.471304,-222.061783,3753.867940
822.342904,-8216.285956,222.061783,3600.648841
822.343225,-8216.285956,148.041188,3064.381992
822.343545,-8068.244768,444.123565,2068.457845
822.343866,-8882.471304,296.082377,1455.581446
822.344187,-9030.512492,370.102971,383.047749
822.344507,-9252.574275,-370.102971,-383.047749
822.344828,-9770.718434,-592.164754,-1149.143247
822.345149,-10288.862594,-888.247130,-1149.143247
822.345469,-10658.965565,-1332.370696,-383.047749
822.345790,-11103.089130,-1332.370696,-459.657299
822.346110,-10955.047942,-1480.411884,0.000000
822.346431,-10732.986159,-1480.411884,919.314598
822.346752,-10510.924376,444.123565,2298.286494
822.347072,-10214.842000,-444.123565,2834.553343
822.347393,-9548.656652,-296.082377,3370.820191
822.347713,-9030.512492,148.041188,3370.820191
822.348034,-8512.368333,592.164754,3370.820191
822.348355,-8364.327145,518.144159,2757.943793
822.348675,-8586.388927,666.185348,2451.505594
822.348996,-8586.388927,518.144159,1762.019645
822.349317,-8660.409521,-74.020594,306.438199
822.349637,-9178.553681,-1258.350101,-536.266849
822.349958,-9696.697840,-1850.514855,-1762.019645
822.350278,-9844.739029,-1332.370696,-2604.724693
822.350599,-10362.883188,-888.247130,-2451.505594
822.350920,-10510.924376,-370.102971,-689.485948
822.351240,-11029.068536,-1036.288319,-383.047749
822.351561,-10732.986159,-962.267725,-153.219100
822.351881,-10732.986159,-814.226536,612.876398
822.352202,-10140.821405,-740.205942,2528.115143
822.352523,-10140.821405,-1110.308913,3753.867940
822.352843,-9622.677246,-592.164754,4366.744339
822.353164,-9178.553681,-592.164754,4213.525239
822.353485,-8290.306550,0.000000,3830.477490
822.353805,-8290.306550,518.144159,3064.381992
822.354126,-8734.430116,666.185348,2681.334243
822.354446,-8290.306550,740.205942,1149.143247
822.354767,-8216.285956,296.082377,-306.438199
822.355088,-8660.409521,-592.164754,-1225.752797
822.355408,-9400.615463,-740.205942,-1685.410096
822.355729,-10510.924376,-888.247130,-1149.143247
822.356049,-11103.089130,-888.247130,-536.266849
822.356370,-11251.130318,-962.267725,-383.047749
822.356691,-11325.150913,-740.205942,153.219100
822.357011,-11251.130318,-518.144159,1532.190996
822.357332,-10362.883188,-148.041188,2987.772442
822.357653,-10066.800811,0.000000,3677.258390
822.357973,-9696.697840,0.000000,3753.867940
822.358294,-8660.409521,-222.061783,3600.648841
822.358614,-8660.409521,74.020594,3600.648841
822.358935,-8438.347739,518.144159,3064.381992
822.359256,-7994.224174,592.164754,1608.800546
822.359576,-8216.285956,1110.308913,1455.581446
822.359897,-8660.409521,74.020594,0.000000
822.360217,-8956.491898,-444.123565,-1072.533697
822.360538,-9918.759623,-1480.411884,-1838.629195
822.360859,-9992.780217,-888.247130,-2145.067394
822.361179,-10807.006753,-592.164754,-1378.971896
822.361500,-10881.027347,-962.267725,-995.924147
822.361821,-10807.006753,-962.267725,-612.876398
822.362141,-10288.862594,-1554.432478,0.000000
822.362462,-10288.862594,-1184.329507,766.095498
822.362782,-9548.656652,-1110.308913,1915.238745
822.363103,-9548.656652,-1332.370696,3140.991542
822.363424,-9252.574275,-962.267725,3370.820191
822.363744,-8512.368333,-592.164754,3524.039291
822.364065,-8142.265362,-74.020594,2834.553343
822.364385,-7994.224174,0.000000,2451.505594
822.364706,-8512.368333,148.041188,1532.190996
822.365027,-8586.388927,296.082377,995.924147
822.365347,-9104.533087,518.144159,-383.047749
822.365668,-9622.677246,-296.082377,-1225.752797
822.365989,-9918.759623,-666.185348,-1915.238745
822.366309,-10955.047942,-592.164754,-766.095498
822.366630,-10807.006753,-1110.308913,-919.314598
822.366950,-10955.047942,-1258.350101,-766.095498
822.367271,-10732.986159,-1406.391290,0.000000
822.367592,-10807.006753,-740.205942,2681.334243
822.367912,-10140.821405,0.000000,2681.334243
822.368233,-10510.924376,-296.082377,3983.696590
822.368553,-9548.656652,0.000000,4366.744339
822.368874,-9104.533087,-148.041188,4060.306139
822.369195,-8660.409521,74.020594,3907.087040
822.369515,-8660.409521,148.041188,3140.991542
822.369836,-8586.388927,444.123565,2145.067394
822.370157,-8586.388927,666.185348,919.314598
822.370477,-8438.347739,0.000000,0.000000
822.370798,-9252.574275,-1332.370696,-1072.533697
822.371118,-9622.677246,-1406.391290,-2221.676944
822.371439,-10584.944971,-1258.350101,-2298.286494
822.371760,-10658.965565,-1110.308913,-1302.362347
822.372080,-11251.130318,-1258.350101,-612.876398
822.372401,-11399.171507,-740.205942,383.047749
822.372721,-10955.047942,-1184.329507,919.314598
822.373042,-10436.903782,-592.164754,2451.505594
822.373363,-9622.677246,-592.164754,3064.381992
822.373683,-9474.636058,0.000000,3983.696590
822.374004,-8882.471304,0.000000,4213.525239
822.374325,-8142.265362,296.082377,3600.648841
822.374645,-7846.182985,1036.288319,2987.772442
822.374966,-8068.244768,814.226536,2298.286494
822.375286,-8142.265362,1110.308913,1685.410096
822.375607,-8808.450710,888.247130,0.000000
822.375928,-8882.471304,370.102971,-1225.752797
822.376248,-9474.636058,-222.061783,-2221.676944
822.376569,-9696.697840,-592.164754,-2068.457845
822.376890,-10584.944971,-962.267725,-1532.190996
822.377210,-10807.006753,-1036.288319,-995.924147
822.377531,-10658.965565,-1184.329507,-459.657299
822.377851,-10807.006753,-1110.308913,229.828649
822.378172,-10436.903782,-222.061783,1685.410096
822.378493,-10214.842000,0.000000,2987.772442
822.378813,-9770.718434,-370.102971,4136.915689
822.379134,-9252.574275,222.061783,4366.744339
822.379454,-8956.491898,222.061783,3830.477490
822.379775,-8586.388927,518.144159,3830.477490
822.380096,-8512.368333,1184.329507,2604.724693
822.380416,-8438.347739,1406.391290,1685.410096
822.380737,-8660.409521,1110.308913,536.266849
822.381058,-9474.636058,148.041188,-995.924147
822.381378,-9770.718434,-444.123565,-1915.238745
822.381699,-10214.842000,-592.164754,-2528.115143
822.382019,-10732.986159,-444.123565,-1991.848295
822.382340,-11103.089130,-740.205942,-1378.971896
822.382661,-11029.068536,-1332.370696,-536.266849
822.382981,-11177.109724,-1184.329507,229.828649
822.383302,-10140.821405,-1406.391290,995.924147
822.383622,-10066.800811,-740.205942,2451.505594
822.383943,-9622.677246,-740.205942,3370.820191
822.384264,-9030.512492,-296.082377,5132.839837
822.384584,-8660.409521,-74.020594,3907.087040
822.384905,-8290.306550,0.000000,3524.039291
822.385225,-8364.327145,0.000000,3447.429741
822.385546,-8438.347739,148.041188,1991.848295
822.385867,-8586.388927,296.082377,1838.629195
822.386187,-8660.409521,148.041188,0.000000
822.386508,-8956.491898,-148.041188,-995.924147
822.386828,-9474.636058,-518.144159,-2068.457845
822.387149,-10066.800811,-296.082377,-766.095498
822.387470,-10807.006753,-962.267725,-689.485948
822.387790,-10658.965565,-962.267725,-459.657299
822.388111,-11029.068536,-1480.411884,153.219100
822.388431,-10807.006753,-962.267725,1225.752797
822.388752,-10362.883188,-888.247130,2681.334243
822.389073,-9918.759623,-518.144159,4136.915689
822.389393,-9400.615463,-296.082377,4213.525239
822.389714,-9030.512492,0.000000,3830.477490
822.390034,-8808.450710,0.000000,3217.601092
822.390355,-8660.409521,444.123565,3217.601092
822.390676,-8512.368333,518.144159,2145.067394
822.390996,-8438.347739,592.164754,766.095498
822.391317,-8956.491898,814.226536,1072.533697
822.391637,-9400.615463,-666.185348,-995.924147
822.391958,-9992.780217,-1184.329507,-2451.505594
822.392279,-10362.883188,-1184.329507,-2451.505594
822.392599,-10807.006753,-1258.350101,-1838.629195
822.392920,-10955.047942,-1036.288319,-842.705048
822.393240,-11547.212695,-1702.473667,0.000000
822.393561,-10732.986159,-1702.473667,383.047749
822.393882,-10362.883188,-1258.350101,1225.752797
822.394202,-9992.780217,0.000000,2451.505594
822.394523,-9918.759623,-148.041188,3217.601092
822.394843,-9178.553681,518.144159,3830.477490
822.395164,-8586.388927,74.020594,3370.820191
822.395485,-8438.347739,1776.494261,2681.334243
822.395805,-8364.327145,518.144159,2451.505594
822.396126,-8586.388927,666.185348,1991.848295
822.396447,-8808.450710,296.082377,383.047749
822.396767,-8956.491898,74.020594,-842.705048
822.397088,-9252.574275,-740.205942,-1915.238745
822.397408,-9548.656652,-222.061783,-1762.019645
822.397729,-10658.965565,-592.164754,-1302.362347
822.398050,-10955.047942,-1036.288319,-689.485948
822.398370,-10584.944971,-1776.494261,-459.657299
822.398691,-10658.965565,-1554.432478,0.000000
822.399011,-10436.903782,-1332.370696,1608.800546
822.399332,-9844.739029,-962.267725,2604.724693
822.399653,-10362.883188,0.000000,4596.572988
822.399973,-8956.491898,-296.082377,3753.867940
822.400294,-8586.388927,222.061783,3907.087040
822.400614,-9030.512492,518.144159,4136.915689
822.400935,-8512.368333,666.185348,3600.648841
822.401256,-8734.430116,1110.308913,2528.115143
822.401576,-8586.388927,888.247130,1302.362347
822.401897,-8956.491898,0.000000,0.000000
822.402217,-9474.636058,-888.247130,-1225.752797
822.402538,-9918.759623,-814.226536,-1991.848295
822.402859,-10140.821405,-1258.350101,-2298.286494
822.403179,-10881.027347,-962.267725,-1149.143247
822.403500,-10955.047942,-1332.370696,-383.047749
822.403820,-11251.130318,-1036.288319,1149.143247
822.404141,-11029.068536,-666.185348,1225.752797
822.404462,-10436.903782,-444.123565,2451.505594
822.404782,-10288.862594,-370.102971,3600.648841
822.405103,-9622.677246,-296.082377,4213.525239
822.405423,-9178.553681,-296.082377,4749.792088
822.405744,-8734.430116,74.020594,4290.134789
822.406065,-8290.306550,296.082377,3370.820191
822.406385,-8142.265362,592.164754,2451.505594
822.406706,-8586.388927,1110.308913,612.876398
822.407026,-8438.347739,814.226536,229.828649
822.407347,-9178.553681,0.000000,-1072.533697
822.407668,-9474.636058,-666.185348,-1685.410096
822.407988,-10584.944971,-888.247130,-2681.334243
822.408309,-10510.924376,-814.226536,-1608.800546
822.408629,-11103.089130,-962.267725,-1149.143247
822.408950,-11029.068536,-740.205942,-153.219100
822.409271,-10584.944971,-666.185348,459.657299
822.409591,-10288.862594,-740.205942,1302.362347
822.409912,-9696.697840,-592.164754,2298.286494
822.410232,-9548.656652,-444.123565,3217.601092
822.410553,-9326.594869,-222.061783,3753.867940
822.410874,-8512.368333,-296.082377,3370.820191
822.411194,-8512.368333,0.000000,3140.991542
822.411515,-8290.306550,296.082377,2221.676944
822.411835,-8290.306550,740.205942,1455.581446
822.412156,-8660.409521,1184.329507,-153.219100
822.412477,-9030.512492,148.041188,-689.485948
822.412797,-9622.677246,-740.205942,-1915.238745
822.413118,-9622.677246,-740.205942,-2451.505594
822.413439,-10807.006753,-1258.350101,-2145.067394
822.413759,-11029.068536,-1184.329507,-1302.362347
822.414080,-11177.109724,-1554.432478,-383.047749
822.414400,-10732.986159,-1110.308913,459.657299
822.414721,-10732.986159,-740.205942,1378.971896
822.415042,-10732.986159,-222.061783,2451.505594
822.415362,-10066.800811,-518.144159,3677.258390
822.415683,-9178.553681,74.020594,3907.087040
822.416003,-8882.471304,0.000000,3447.429741
822.416324,-7994.224174,296.082377,2528.115143
822.416645,-8142.265362,74.020594,2298.286494
822.416965,-8660.409521,666.185348,2298.286494
822.417286,-8364.327145,592.164754,842.705048
822.417606,-8808.450710,518.144159,0.000000
822.417927,-9770.718434,-222.061783,-1149.143247
822.418248,-10066.800811,-148.041188,-1838.629195
822.418568,-10214.842000,-518.144159,-1225.752797
822.418889,-10732.986159,-1184.329507,-995.924147
822.419209,-10362.883188,-1850.514855,-995.924147
822.419530,-10955.047942,-1628.453072,-612.876398
822.419851,-10436.903782,-1036.288319,1072.533697
822.420171,-10066.800811,-444.123565,2068.457845
822.420492,-9696.697840,-666.185348,2145.067394
822.420812,-9178.553681,-222.061783,3524.039291
822.421133,-8956.491898,0.000000,4136.915689
822.421454,-8734.430116,-370.102971,3677.258390
822.421774,-8586.388927,-592.164754,2987.772442
822.422095,-8068.244768,222.061783,1915.238745
822.422415,-8438.347739,666.185348,1149.143247
822.422736,-9030.512492,518.144159,689.485948
822.423057,-9030.512492,-370.102971,-1149.143247
822.423377,-9030.512492,-1480.411884,-2834.553343
822.423698,-9844.739029,-1332.370696,-2298.286494
822.424018,-10807.006753,-1628.453072,-1225.752797
822.424339,-11177.109724,-1480.411884,-459.657299
822.424660,-11177.109724,-1554.432478,766.095498
822.424980,-10955.047942,-1110.308913,612.876398
822.425301,-10584.944971,-814.226536,1991.848295
822.425621,-10510.924376,-518.144159,3370.820191
822.425942,-9696.697840,-370.102971,3753.867940
822.426263,-9030.512492,0.000000,3983.696590
822.426583,-8808.450710,296.082377,3294.210641
822.426904,-8364.327145,518.144159,3140.991542
822.427224,-8364.327145,296.082377,2681.334243
822.427545,-8586.388927,1110.308913,306.438199
822.427866,-8808.450710,740.205942,0.000000
822.428186,-9252.574275,148.041188,-1455.581446
822.428507,-9770.718434,-444.123565,-1762.019645
822.428828,-9400.615463,-666.185348,-1072.533697
822.429148,-10510.924376,-296.082377,-1685.410096
822.429469,-11325.150913,-814.226536,-919.314598
822.429789,-11029.068536,-740.205942,-536.266849
822.430110,-11177.109724,-370.102971,689.485948
822.430431,-11177.109724,-148.041188,1378.971896
822.430751,-10066.800811,-148.041188,2451.505594
822.431072,-9474.636058,0.000000,3217.601092
822.431392,-9104.533087,0.000000,3370.820191
822.431713,-8586.388927,592.164754,4213.525239
822.432034,-8438.347739,148.041188,3600.648841
822.432354,-8216.285956,296.082377,2604.724693
822.432675,-8142.265362,592.164754,1685.410096
822.432995,-8290.306550,740.205942,612.876398
822.433316,-8882.471304,444.123565,-76.609550
822.433637,-9474.636058,-518.144159,-1072.533697
822.433957,-9474.636058,-1110.308913,-2221.676944
822.434278,-9992.780217,-1184.329507,-1991.848295
822.434598,-9918.759623,-1480.411884,-842.705048
822.434919,-10658.965565,-1776.494261,-229.828649
822.435240,-10807.006753,-962.267725,306.438199
822.435560,-10362.883188,-1036.288319,842.705048
822.435881,-10584.944971,0.000000,2374.896044
822.436201,-10066.800811,0.000000,3600.648841
822.436522,-9770.718434,148.041188,4060.306139
822.436843,-9474.636058,296.082377,3830.477490
822.437163,-9400.615463,1258.350101,3524.039291
822.437484,-8512.368333,518.144159,3064.381992
822.437804,-8882.471304,740.205942,2528.115143
822.438125,-8808.450710,962.267725,1225.752797
822.438446,-8882.471304,1332.370696,-306.438199
822.438766,-9252.574275,370.102971,-1149.143247
822.439087,-9622.677246,148.041188,-1915.238745
822.439407,-10510.924376,-592.164754,-1455.581446
822.439728,-10584.944971,-962.267725,-995.924147
822.440049,-10732.986159,-1480.411884,-536.266849
822.440369,-10807.006753,-1702.473667,0.000000
822.440690,-10584.944971,-1110.308913,919.314598
822.441010,-10510.924376,-666.185348,2451.505594
822.441331,-10140.821405,-148.041188,4519.963438
822.441652,-9474.636058,0.000000,4136.915689
822.441972,-9326.594869,-444.123565,4136.915689
822.442293,-8734.430116,222.061783,3983.696590
822.442613,-8882.471304,518.144159,3677.258390
822.442934,-8660.409521,888.247130,3370.820191
822.443255,-8068.244768,444.123565,1685.410096
822.443575,-8660.409521,148.041188,536.266849
822.443896,-9030.512492,-518.144159,-459.657299
822.444217,-9104.533087,-1702.473667,-2298.286494
822.444537,-9326.594869,-1480.411884,-2298.286494
822.444858,-10288.862594,-1554.432478,-1378.971896
822.445178,-10436.903782,-1258.350101,-689.485948
822.445499,-11029.068536,-2294.638420,0.000000
822.445820,-10658.965565,-1554.432478,842.705048
822.446140,-10288.862594,-1776.494261,1608.800546
822.446461,-10066.800811,-888.247130,2604.724693
822.446781,-9696.697840,-740.205942,3600.648841
822.447102,-9030.512492,-370.102971,3983.696590
822.447423,-8734.430116,-370.102971,3370.820191
822.447743,-8364.327145,0.000000,2987.772442
822.448064,-8142.265362,592.164754,2068.457845
822.448384,-7846.182985,444.123565,919.314598
822.448705,-8586.388927,962.267725,536.266849
822.449026,-8956.491898,222.061783,-766.095498
822.449346,-9696.697840,-296.082377,-1378.971896
822.449667,-9400.615463,-814.226536,-2374.896044
822.449987,-10658.965565,-666.185348,-1532.190996
822.450308,-11029.068536,-666.185348,-1072.533697
822.450629,-11103.089130,-592.164754,-766.095498
822.450949,-11177.109724,-962.267725,-153.219100
822.451270,-10881.027347,-370.102971,689.485948
822.451590,-10436.903782,-740.205942,1915.238745
822.451911,-9992.780217,-740.205942,2451.505594
822.452232,-9770.718434,-518.144159,3294.210641
822.452552,-8808.450710,0.000000,3677.258390
822.452873,-8956.491898,518.144159,3600.648841
822.453193,-8808.450710,962.267725,3447.429741
822.453514,-8512.368333,1110.308913,2221.676944
822.453835,-8586.388927,962.267725,1838.629195
822.454155,-8882.471304,518.144159,0.000000
822.454476,-9178.553681,-888.247130,-766.095498
822.454796,-9178.553681,-1036.288319,-1991.848295
822.455117,-9696.697840,-962.267725,-1838.629195
822.455438,-10066.800811,-1258.350101,-1072.533697
822.455758,-10658.965565,-888.247130,-153.219100
822.456079,-10881.027347,-1036.288319,536.266849
822.456399,-10732.986159,-1406.391290,1225.752797
822.456720,-10362.883188,-1258.350101,2374.896044
822.457041,-9918.759623,-1110.308913,3524.039291
822.457361,-9770.718434,-518.144159,4519.963438
822.457682,-9030.512492,0.000000,4443.353888
822.458002,-8216.285956,518.144159,3907.087040
822.458323,-8216.285956,222.061783,3677.258390
822.458644,-7994.224174,444.123565,2757.943793
822.458964,-8438.347739,592.164754,1685.410096
822.459285,-8734.430116,444.123565,612.876398
822.459605,-8734.430116,296.082377,-842.705048
822.459926,-9326.594869,-148.041188,-1762.019645
822.460247,-10066.800811,-370.102971,-1378.971896
822.460567,-10658.965565,-592.164754,-842.705048
822.460888,-11103.089130,-888.247130,-1149.143247
822.461209,-11029.068536,-1480.411884,0.000000
822.461529,-10955.047942,-1554.432478,689.485948
822.461850,-10955.047942,-592.164754,1378.971896
822.462170,-10362.883188,0.000000,2374.896044
822.462491,-9992.780217,148.041188,3370.820191
822.462812,-9474.636058,74.020594,3524.039291
822.463132,-9104.533087,222.061783,3370.820191
822.463453,-8808.450710,518.144159,2528.115143
822.463773,-8586.388927,888.247130,2145.067394
822.464094,-8808.450710,1258.350101,919.314598
822.464415,-8290.306550,1406.391290,0.000000
822.464735,-8956.491898,222.061783,-1149.143247
822.465056,-8438.347739,-444.123565,-2757.943793
822.465376,-9844.739029,-1110.308913,-2987.772442
822.465697,-10362.883188,-1480.411884,-2451.505594
822.466018,-10658.965565,-666.185348,-1915.238745
822.466338,-10881.027347,-1110.308913,-1072.533697
822.466659,-10881.027347,-888.247130,-383.047749
822.466979,-10807.006753,-814.226536,612.876398
822.467300,-10288.862594,-666.185348,2068.457845
822.467621,-9696.697840,-1036.288319,3294.210641
822.467941,-9474.636058,-962.267725,3983.696590
822.468262,-8956.491898,-518.144159,4519.963438
822.468582,-8438.347739,-592.164754,4136.915689
822.468903,-8290.306550,-296.082377,3830.477490
822.469224,-7772.162391,-592.164754,2604.724693
822.469544,-8068.244768,296.082377,1225.752797
822.469865,-8364.327145,74.020594,0.000000
822.470185,-8808.450710,0.000000,-766.095498
822.470506,-9474.636058,-666.185348,-1302.362347
822.470827,-9844.739029,-518.144159,-1685.410096
822.471147,-10584.944971,-1110.308913,-536.266849
822.471468,-11251.130318,-1850.514855,153.219100
822.471788,-10955.047942,-1924.535449,383.047749
822.472109,-11177.109724,-1480.411884,1378.971896
822.472430,-10881.027347,-1036.288319,2757.943793
822.472750,-10214.842000,-666.185348,3677.258390
822.473071,-9696.697840,-370.102971,4290.134789
822.473391,-10140.821405,-370.102971,3907.087040
822.473712,-8734.430116,-148.041188,3677.258390
822.474033,-8734.430116,0.000000,3600.648841
822.474353,-8364.327145,0.000000,2604.724693
822.474674,-8660.409521,444.123565,1455.581446
822.474994,-9104.533087,296.082377,766.095498
822.475315,-9252.574275,148.041188,-995.924147
822.475636,-9770.718434,-296.082377,-2145.067394
822.475956,-10510.924376,-222.061783,-2068.457845
822.476277,-11103.089130,-666.185348,-1685.410096
822.476598,-11177.109724,-1184.329507,-842.705048
822.476918,-11325.150913,-1924.535449,-383.047749
822.477239,-10881.027347,-1628.453072,153.219100
822.477559,-11769.274478,-1332.370696,1838.629195
822.477880,-10362.883188,-740.205942,2221.676944
822.478201,-9474.636058,-148.041188,2987.772442
822.478521,-8956.491898,0.000000,3140.991542
822.478842,-8142.265362,0.000000,4596.572988
822.479162,-8216.285956,222.061783,2834.553343
822.479483,-7994.224174,666.185348,1838.629195
822.479804,-8290.306550,1110.308913,1149.143247
822.480124,-8364.327145,1036.288319,229.828649
822.480445,-8882.471304,296.082377,-995.924147
822.480765,-9252.574275,0.000000,-2145.067394
822.481086,-9548.656652,-222.061783,-2451.505594
822.481407,-9918.759623,-444.123565,-2068.457845
822.481727,-10732.986159,-518.144159,-1225.752797
822.482048,-10732.986159,-962.267725,-689.485948
822.482368,-10881.027347,-666.185348,0.000000
822.482689,-10436.903782,-740.205942,995.924147
822.483010,-10140.821405,-370.102971,2374.896044
822.483330,-10140.821405,-296.082377,3524.039291
822.483651,-9400.615463,-518.144159,4519.963438
822.483971,-8734.430116,-370.102971,3983.696590
822.484292,-8438.347739,592.164754,3677.258390
822.484613,-8660.409521,740.205942,3217.601092
822.484933,-8512.368333,1184.329507,2681.334243
822.485254,-8660.409521,1110.308913,1685.410096
822.485574,-8586.388927,370.102971,153.219100
822.485895,-9030.512492,-1406.391290,-2528.115143
822.486216,-9474.636058,-1184.329507,-1532.190996
822.486536,-10732.986159,-1036.288319,-1072.533697
822.486857,-11103.089130,-1036.288319,-306.438199
822.487177,-11177.109724,-1110.308913,459.657299
822.487498,-11251.130318,-1702.473667,766.095498
822.487819,-11177.109724,-1184.329507,1762.019645
822.488139,-10658.965565,-962.267725,2681.334243
822.488460,-10214.842000,-740.205942,4290.134789
822.488780,-9400.615463,-1036.288319,4213.525239
822.489101,-9178.553681,-888.247130,4443.353888
822.489422,-8438.347739,-1036.288319,3907.087040
822.489742,-8364.327145,0.000000,3600.648841
822.490063,-7994.224174,518.144159,689.485948
822.490383,-8438.347739,1184.329507,1225.752797
822.490704,-8142.265362,1258.350101,0.000000
822.491025,-8956.491898,740.205942,-995.924147
822.491345,-9770.718434,0.000000,-1532.190996
822.491666,-10510.924376,-296.082377,-1991.848295
822.491986,-10955.047942,-592.164754,-1378.971896
822.492307,-11177.109724,-888.247130,-689.485948
822.492628,-10584.944971,-1110.308913,-1072.533697
822.492948,-9252.574275,-1702.473667,536.266849
822.493269,-9918.759623,-592.164754,76.609550
822.493589,-9474.636058,-518.144159,842.705048
822.493910,-9474.636058,-222.061783,1991.848295
822.494231,-9104.533087,-666.185348,3907.087040
822.494551,-8660.409521,-296.082377,2911.162892
822.494872,-8808.450710,-222.061783,3064.381992
822.495192,-8586.388927,-296.082377,2451.505594
822.495513,-8290.306550,74.020594,1378.971896
822.495834,-9178.553681,222.061783,306.438199
822.496154,-9252.574275,222.061783,229.828649
822.496475,-9770.718434,-444.123565,-1532.190996
822.496795,-9770.718434,-148.041188,-1762.019645
822.497116,-10362.883188,-814.226536,-2528.115143
822.497437,-10732.986159,-592.164754,-1378.971896
822.497757,-11177.109724,-962.267725,-689.485948
822.498078,-10584.944971,-1258.350101,383.047749
822.498398,-10584.944971,-1628.453072,1149.143247
822.498719,-10288.862594,-1480.411884,2451.505594
822.499040,-10066.800811,-962.267725,3677.258390
822.499360,-9770.718434,74.020594,4443.353888
822.499681,-9252.574275,962.267725,4366.744339
822.500001,-8364.327145,814.226536,4290.134789
822.500322,-8438.347739,740.205942,3600.648841
822.500643,-8586.388927,814.226536,2451.505594
822.500963,-8586.388927,296.082377,1302.362347
822.501284,-8586.388927,-370.102971,-306.438199
822.501604,-9030.512492,-296.082377,-995.924147
822.501925,-9474.636058,-444.123565,-1302.362347
822.502246,-10066.800811,-740.205942,-1532.190996
822.502566,-10510.924376,-1110.308913,-919.314598
822.502887,-10510.924376,-1554.432478,-459.657299
822.503207,-10881.027347,-1850.514855,306.438199
822.503528,-10881.027347,-1480.411884,995.924147
822.503849,-10436.903782,-962.267725,2145.067394
822.504169,-9918.759623,-444.123565,3294.210641
822.504490,-9474.636058,74.020594,4136.915689
822.504811,-9252.574275,370.102971,4290.134789
822.505131,-9104.533087,518.144159,4213.525239
822.505452,-7772.162391,-296.082377,4979.620737
822.505772,-8290.306550,518.144159,2451.505594
822.506093,-8438.347739,888.247130,1685.410096
822.506414,-8512.368333,518.144159,0.000000
822.506734,-9178.553681,74.020594,229.828649
822.507055,-9326.594869,-888.247130,-2451.505594
822.507375,-9770.718434,-962.267725,-2298.286494
822.507696,-10807.006753,-1258.350101,-1915.238745
822.508017,-10955.047942,-1332.370696,-1072.533697
822.508337,-11177.109724,-1554.432478,0.000000
822.508658,-10955.047942,-1258.350101,612.876398
822.508978,-10510.924376,-962.267725,1685.410096
822.509299,-10140.821405,-592.164754,2528.115143
822.509620,-9918.759623,-518.144159,3064.381992
822.509940,-9252.574275,-296.082377,3907.087040
822.510261,-8660.409521,370.102971,3447.429741
822.510581,-8586.388927,592.164754,3294.210641
822.510902,-8290.306550,1036.288319,2757.943793
822.511223,-8364.327145,1184.329507,1532.190996
822.511543,-8808.450710,666.185348,689.485948
822.511864,-8808.450710,74.020594,-459.657299
822.512184,-9548.656652,-666.185348,-1225.752797
822.512505,-9622.677246,-888.247130,-1685.410096
822.512826,-10510.924376,-1110.308913,-1532.190996
822.513146,-10140.821405,-1184.329507,-1762.019645
822.513467,-10881.027347,-1258.350101,-842.705048
822.513787,-10732.986159,-222.061783,-1378.971896
822.514108,-10732.986159,-888.247130,919.314598
822.514429,-10140.821405,-1184.329507,1762.019645
822.514749,-9474.636058,-814.226536,2604.724693
822.515070,-9326.594869,-518.144159,3524.039291
822.515390,-9104.533087,148.041188,3600.648841
822.515711,-8808.450710,370.102971,3907.087040
822.516032,-8734.430116,1036.288319,3140.991542
822.516352,-8290.306550,888.247130,2068.457845
822.516673,-8660.409521,962.267725,153.219100
822.516993,-9104.533087,666.185348,306.438199
822.517314,-9252.574275,-148.041188,-1532.190996
822.517635,-9326.594869,-592.164754,-2145.067394
822.517955,-9104.533087,-666.185348,-1072.533697
822.518276,-10510.924376,-1110.308913,-1762.019645
822.518596,-11029.068536,-1258.350101,-383.047749
822.518917,-10807.006753,-1184.329507,536.266849
822.519238,-10732.986159,-1406.391290,2145.067394
822.519558,-10658.965565,-1332.370696,2068.457845
822.519879,-10140.821405,-888.247130,3600.648841
822.520199,-9918.759623,-740.205942,4213.525239
822.520520,-9178.553681,0.000000,4519.963438
822.520841,-8956.491898,444.123565,4673.182538
822.521161,-8586.388927,222.061783,3600.648841
822.521482,-8364.327145,592.164754,2681.334243
822.521802,-8512.368333,148.041188,2068.457845
822.522123,-8586.388927,148.041188,229.828649
822.522444,-8808.450710,-444.123565,-766.095498
822.522764,-9474.636058,-444.123565,-1991.848295
822.523085,-9918.759623,-296.082377,-1149.143247
822.523405,-10584.944971,-592.164754,-1072.533697
822.523726,-10807.006753,-1924.535449,-689.485948
822.524047,-11103.089130,-1924.535449,-153.219100
822.524367,-11103.089130,-2072.576638,689.485948
822.524688,-10436.903782,-1480.411884,1149.143247
822.525008,-9918.759623,-740.205942,2604.724693
822.525329,-9474.636058,-444.123565,3294.210641
822.525650,-8956.491898,-148.041188,3370.820191
822.525970,-8660.409521,-222.061783,3600.648841
822.526291,-8734.430116,0.000000,3524.039291
822.526611,-8364.327145,296.082377,2298.286494
822.526932,-8660.409521,518.144159,1455.581446
822.527253,-8956.491898,592.164754,689.485948
822.527573,-9030.512492,370.102971,-459.657299
822.527894,-9474.636058,-888.247130,-1302.362347
822.528214,-9992.780217,-1258.350101,-2451.505594
822.528535,-10436.903782,-1332.370696,-2528.115143
822.528856,-10584.944971,-1110.308913,-1762.019645
822.529176,-10955.047942,-1184.329507,-766.095498
822.529497,-10807.006753,-1406.391290,-153.219100
822.529817,-10658.965565,-1036.288319,612.876398
822.530138,-10436.903782,-962.267725,2145.067394
822.530459,-9992.780217,-518.144159,3217.601092
822.530779,-9770.718434,0.000000,3830.477490
822.531100,-9178.553681,740.205942,4290.134789
822.531420,-8882.471304,518.144159,3983.696590
822.531741,-8512.368333,1184.329507,3217.601092
822.532062,-8808.450710,1036.288319,2374.896044
822.532382,-8734.430116,1036.288319,1072.533697
822.532703,-9104.533087,296.082377,-383.047749
822.533023,-9252.574275,0.000000,-1378.971896
822.533344,-9844.739029,-222.061783,-1685.410096
822.533665,-10288.862594,-592.164754,-1762.019645
822.533985,-10658.965565,-518.144159,-995.924147
822.534306,-10732.986159,-888.247130,-689.485948
822.534626,-10807.006753,-962.267725,306.438199
822.534947,-11029.068536,-1036.288319,1378.971896
822.535268,-10362.883188,-592.164754,2221.676944
822.535588,-9326.594869,-740.205942,3753.867940
822.535909,-9252.574275,-222.061783,3830.477490
822.536230,-8956.491898,222.061783,4136.915689
822.536550,-8512.368333,518.144159,3907.087040
822.536871,-8438.347739,-148.041188,5132.839837
822.537191,-8216.285956,666.185348,2374.896044
822.537512,-8586.388927,1036.288319,1455.581446
822.537833,-9104.533087,592.164754,536.266849
822.538153,-8956.491898,-222.061783,-612.876398
822.538474,-9400.615463,-888.247130,-1762.019645
822.538794,-9474.636058,-1036.288319,-2298.286494
822.539115,-10288.862594,-1184.329507,-1915.238745
822.539436,-10584.944971,-962.267725,-842.705048
822.539756,-10436.903782,-1554.432478,-536.266849
822.540077,-10436.903782,-962.267725,229.828649
822.540397,-10214.842000,-518.144159,1455.581446
822.540718,-9992.780217,-518.144159,2911.162892
822.541039,-9770.718434,-444.123565,2221.676944
822.541359,-9178.553681,-370.102971,3753.867940
822.541680,-8734.430116,0.000000,3677.258390
822.542000,-8586.388927,518.144159,3524.039291
822.542321,-8660.409521,962.267725,2911.162892
822.542642,-8734.430116,1406.391290,1762.019645
822.542962,-8882.471304,1628.453072,766.095498
822.543283,-9030.512492,1036.288319,-1072.533697
822.543603,-9622.677246,296.082377,-1532.190996
822.543924,-10807.006753,0.000000,-1991.848295
822.544245,-10658.965565,-962.267725,-1378.971896
822.544565,-11177.109724,-1554.432478,-689.485948
822.544886,-10955.047942,-1924.535449,-459.657299
822.545206,-11103.089130,-1480.411884,-229.828649
822.545527,-10807.006753,-962.267725,1225.752797
822.545848,-10436.903782,-296.082377,2757.943793
822.546168,-9696.697840,-370.102971,3140.991542
822.546489,-9400.615463,0.000000,3524.039291
822.546809,-8734.430116,-962.267725,4060.306139
822.547130,-8586.388927,-444.123565,3907.087040
822.547451,-8438.347739,-296.082377,3294.210641
822.547771,-8290.306550,74.020594,2221.676944
822.548092,-8586.388927,592.164754,1072.533697
822.548412,-8956.491898,296.082377,0.000000
822.548733,-9178.553681,-666.185348,-995.924147
822.549054,-9400.615463,-1036.288319,-2221.676944
822.549374,-9622.677246,-962.267725,-2298.286494
822.549695,-10436.903782,-888.247130,-1302.362347
822.550015,-10658.965565,-1258.350101,-383.047749
822.550336,-10510.924376,-1258.350101,0.000000
822.550657,-10807.006753,-1332.370696,612.876398
822.550977,-9252.574275,-592.164754,3140.991542
822.551298,-9992.780217,-888.247130,3294.210641
822.551618,-9548.656652,-814.226536,3294.210641
822.551939,-8734.430116,-444.123565,3447.429741
822.552260,-8512.368333,-222.061783,3370.820191
822.552580,-8956.491898,962.267725,3217.601092
822.552901,-8660.409521,740.205942,2374.896044
822.553221,-9030.512492,962.267725,1302.362347
822.553542,-8808.450710,666.185348,0.000000
822.553863,-9474.636058,-222.061783,-842.705048
822.554183,-9918.759623,-814.226536,-1378.971896
822.554504,-10214.842000,-1036.288319,-1685.410096
822.554824,-10955.047942,-1702.473667,-1532.190996
822.555145,-10658.965565,-888.247130,-919.314598
822.555466,-11251.130318,-1110.308913,-919.314598
822.555786,-10584.944971,-888.247130,153.219100
822.556107,-10658.965565,-592.164754,1762.019645
822.556427,-10066.800811,-740.205942,2681.334243
822.556748,-9548.656652,-592.164754,3217.601092
822.557069,-9178.553681,-148.041188,3524.039291
822.557389,-8586.388927,296.082377,3753.867940
822.557710,-8882.471304,296.082377,3370.820191
822.558030,-8660.409521,888.247130,3064.381992
822.558351,-8586.388927,1258.350101,2068.457845
822.558672,-9104.533087,1184.329507,842.705048
822.558992,-8808.450710,222.061783,-842.705048
822.559313,-9696.697840,-814.226536,-1608.800546
822.559633,-9918.759623,-1110.308913,-2068.457845
822.559954,-9548.656652,-888.247130,-2145.067394
822.560275,-10732.986159,-1110.308913,-459.657299
822.560595,-10584.944971,-1258.350101,153.219100
822.560916,-10658.965565,-814.226536,842.705048
822.561236,-10584.944971,-370.102971,1915.238745
822.561557,-9992.780217,-222.061783,2834.553343
822.561878,-9548.656652,-148.041188,4136.915689
822.562198,-9400.615463,-370.102971,4366.744339
822.562519,-8734.430116,-222.061783,3983.696590
822.562839,-8882.471304,-296.082377,2987.772442
822.563160,-7846.182985,74.020594,2911.162892
822.563481,-8068.244768,444.123565,1991.848295
822.563801,-8586.388927,666.185348,536.266849
822.564122,-8364.327145,518.144159,0.000000
822.564442,-9252.574275,148.041188,-1149.143247
822.564763,-9844.739029,-148.041188,-1608.800546
822.565084,-10288.862594,-888.247130,-995.924147
822.565404,-10881.027347,-1406.391290,-766.095498
822.565725,-10584.944971,-1554.432478,459.657299
822.566045,-10807.006753,-1554.432478,229.828649
822.566366,-10732.986159,-1554.432478,995.924147
822.566687,-10214.842000,-1258.350101,1762.019645
822.567007,-9696.697840,0.000000,4826.401637
822.567328,-9474.636058,222.061783,3064.381992
822.567648,-9252.574275,740.205942,3677.258390
822.567969,-9030.512492,444.123565,3830.477490
822.568290,-8882.471304,592.164754,2987.772442
822.568610,-8216.285956,296.082377,2451.505594
822.568931,-8808.450710,814.226536,766.095498
822.569252,-9252.574275,592.164754,153.219100
822.569572,-9326.594869,0.000000,-919.314598
822.569893,-9770.718434,-296.082377,-2145.067394
822.570213,-9844.739029,-296.082377,-2451.505594
822.570534,-10881.027347,-592.164754,-2068.457845
822.570855,-10955.047942,-666.185348,-1225.752797
822.571175,-11177.109724,-1480.411884,-459.657299
822.571496,-10955.047942,-740.205942,0.000000
822.571816,-10436.903782,-1480.411884,1455.581446
822.572137,-9992.780217,-1110.308913,2451.505594
822.572458,-9622.677246,-1110.308913,3600.648841
822.572778,-9252.574275,-518.144159,4290.134789
822.573099,-8808.450710,-222.061783,4213.525239
822.573419,-8364.327145,222.061783,3370.820191
822.573740,-8586.388927,592.164754,2681.334243
822.574061,-8586.388927,888.247130,1532.190996
822.574381,-7772.162391,666.185348,842.705048
822.574702,-8808.450710,666.185348,-612.876398
822.575022,-9326.594869,-74.020594,-1149.143247
822.575343,-9474.636058,-888.247130,-1838.629195
822.575664,-10362.883188,-1406.391290,-1378.971896
822.575984,-10436.903782,-1554.432478,-383.047749
822.576305,-10955.047942,-1702.473667,0.000000
822.576625,-10584.944971,-1480.411884,536.266849
822.576946,-10436.903782,-1036.288319,1838.629195
822.577267,-10066.800811,0.000000,2681.334243
822.577587,-9918.759623,-592.164754,3830.477490
822.577908,-9178.553681,-370.102971,4213.525239
822.578228,-8808.450710,-518.144159,3830.477490
822.578549,-8660.409521,-148.041188,3830.477490
822.578870,-8586.388927,74.020594,2987.772442
822.579190,-8364.327145,296.082377,2145.067394
822.579511,-8956.491898,740.205942,1149.143247
822.579831,-8882.471304,592.164754,0.000000
822.580152,-9622.677246,-518.144159,-1149.143247
822.580473,-9918.759623,-1110.308913,-1762.019645
822.580794,-10362.883188,-1406.391290,-2451.505594
822.581114,-10881.027347,-1110.308913,-1915.238745
822.581435,-10732.986159,-888.247130,-995.924147
822.581756,-10955.047942,-1332.370696,-536.266849
822.582077,-9992.780217,-740.205942,306.438199
822.582397,-10066.800811,-1110.308913,612.876398
822.582718,-9696.697840,-740.205942,2451.505594
822.583039,-9548.656652,-888.247130,2604.724693
822.583360,-9104.533087,148.041188,3064.381992
822.583680,-8734.430116,370.102971,3524.039291
822.584001,-8956.491898,888.247130,3524.039291
822.584322,-8808.450710,1036.288319,2528.115143
822.584643,-9104.533087,1554.432478,1762.019645
822.584963,-9104.533087,888.247130,153.219100
822.585284,-9030.512492,0.000000,-766.095498
822.585605,-9770.718434,-370.102971,-1225.752797
822.585925,-9992.780217,-296.082377,-1225.752797
822.586246,-10881.027347,-296.082377,-689.485948
822.586567,-10658.965565,-962.267725,76.609550
822.586888,-10732.986159,-666.185348,536.266849
822.587208,-11177.109724,-592.164754,1532.190996
822.587529,-11325.150913,-518.144159,2911.162892
822.587850,-10140.821405,-296.082377,3677.258390
822.588171,-9548.656652,-592.164754,3677.258390
822.588491,-8586.388927,0.000000,3830.477490
822.588812,-8734.430116,0.000000,3830.477490
822.589133,-8808.450710,148.041188,3830.477490
822.589454,-8364.327145,518.144159,2451.505594
822.589774,-8808.450710,1332.370696,1685.410096
822.590095,-9104.533087,1184.329507,306.438199
822.590416,-9252.574275,962.267725,612.876398
822.590737,-9770.718434,-444.123565,-1532.190996
822.591057,-9474.636058,-740.205942,-2068.457845
822.591378,-10510.924376,-1036.288319,-1915.238745
822.591699,-10732.986159,-1110.308913,-1149.143247
822.592020,-10881.027347,-1480.411884,-306.438199
822.592340,-10807.006753,-1036.288319,306.438199
822.592661,-10362.883188,-740.205942,1532.190996
822.592982,-10140.821405,-666.185348,2834.553343
822.593303,-9622.677246,-1554.432478,3524.039291
822.593623,-9326.594869,-592.164754,3753.867940
822.593944,-9326.594869,-518.144159,3753.867940
822.594265,-8438.347739,0.000000,3830.477490
822.594586,-8808.450710,0.000000,2604.724693
822.594906,-8660.409521,370.102971,1991.848295
822.595227,-8586.388927,740.205942,689.485948
822.595548,-8882.471304,592.164754,-766.095498
822.595869,-9178.553681,-222.061783,-2068.457845
822.596189,-9622.677246,-222.061783,-2221.676944
822.596510,-10658.965565,-740.205942,-1915.238745
822.596831,-10436.903782,-888.247130,-995.924147
822.597151,-11251.130318,-1110.308913,-766.095498
822.597472,-11177.109724,-1184.329507,-76.609550
822.597793,-10955.047942,-814.226536,842.705048
822.598114,-10807.006753,-740.205942,2221.676944
822.598434,-9844.739029,-518.144159,2528.115143
822.598755,-9548.656652,-74.020594,2834.553343
822.599076,-9030.512492,444.123565,3830.477490
822.599397,-8808.450710,148.041188,3677.258390
822.599717,-8660.409521,148.041188,2911.162892
822.600038,-8290.306550,222.061783,2834.553343
822.600359,-8364.327145,296.082377,842.705048
822.600680,-8734.430116,74.020594,459.657299
822.601000,-9030.512492,-74.020594,-766.095498
822.601321,-9474.636058,-666.185348,-1838.629195
822.601642,-9548.656652,-666.185348,-1991.848295
822.601963,-10584.944971,-1184.329507,-1225.752797
822.602283,-10807.006753,-1480.411884,-536.266849
822.602604,-11103.089130,-1998.556043,0.000000
822.602925,-11177.109724,-592.164754,229.828649
822.603246,-10066.800811,-1184.329507,1915.238745
822.603566,-9918.759623,-1184.329507,2987.772442
822.603887,-9548.656652,-518.144159,3907.087040
822.604208,-9178.553681,-296.082377,3830.477490
822.604529,-8586.388927,-148.041188,4519.963438
822.604849,-8734.430116,0.000000,4060.306139
822.605170,-8586.388927,518.144159,3140.991542
822.605491,-8586.388927,888.247130,2145.067394
822.605812,-8586.388927,666.185348,1149.143247
822.606132,-9030.512492,444.123565,-306.438199
822.606453,-9474.636058,0.000000,-919.314598
822.606774,-9770.718434,0.000000,-1225.752797
822.607095,-11325.150913,0.000000,-689.485948
822.607415,-11029.068536,-814.226536,-689.485948
822.607736,-11103.089130,-1110.308913,0.000000
822.608057,-11103.089130,-222.061783,536.266849
822.608377,-10807.006753,74.020594,1685.410096
822.608698,-10362.883188,0.000000,2911.162892
822.609019,-9548.656652,0.000000,3217.601092
822.609340,-9326.594869,0.000000,3447.429741
822.609660,-8808.450710,0.000000,3370.820191
822.609981,-8734.430116,74.020594,3600.648841
822.610302,-8512.368333,370.102971,2757.943793
822.610623,-7920.203579,1036.288319,1072.533697
822.610943,-8142.265362,1110.308913,0.000000
822.611264,-8660.409521,518.144159,-766.095498
822.611585,-9474.636058,-666.185348,-1532.190996
822.611906,-9474.636058,-1332.370696,-2528.115143
822.612226,-10140.821405,-1554.432478,-2451.505594
822.612547,-10658.965565,-1702.473667,-1378.971896
822.612868,-10732.986159,-1702.473667,-689.485948
822.613189,-11029.068536,-1554.432478,0.000000
822.613509,-10732.986159,-1036.288319,766.095498
822.613830,-10288.862594,-740.205942,1838.629195
822.614151,-9918.759623,-296.082377,2451.505594
822.614472,-9474.636058,-814.226536,3447.429741
822.614792,-9178.553681,-296.082377,3983.696590
822.615113,-8660.409521,0.000000,3677.258390
822.615434,-8586.388927,296.082377,3217.601092
822.615755,-8512.368333,666.185348,2528.115143
822.616075,-8734.430116,814.226536,1302.362347
822.616396,-8734.430116,962.267725,76.609550
822.616717,-9252.574275,296.082377,-1378.971896
822.617038,-9474.636058,-592.164754,-2451.505594
822.617358,-9918.759623,-740.205942,-2221.676944
822.617679,-10658.965565,-1184.329507,-1608.800546
822.618000,-10584.944971,-1258.350101,-995.924147
822.618321,-9696.697840,-1554.432478,689.485948
822.618641,-10658.965565,-814.226536,689.485948
822.618962,-10510.924376,-518.144159,2221.676944
822.619283,-10288.862594,-222.061783,3370.820191
822.619603,-9770.718434,0.000000,4443.353888
822.619924,-9252.574275,0.000000,4443.353888
822.620245,-8808.450710,0.000000,4673.182538
822.620566,-8586.388927,-222.061783,4596.572988
822.620886,-8364.327145,0.000000,3294.210641
822.621207,-9252.574275,1036.288319,1608.800546
822.621528,-8734.430116,370.102971,919.314598
822.621849,-8808.450710,0.000000,-306.438199
822.622169,-9400.615463,-888.247130,-1838.629195
822.622490,-9696.697840,-1332.370696,-689.485948
822.622811,-10732.986159,-1406.391290,-1991.848295
822.623132,-10510.924376,-1480.411884,-1149.143247
822.623452,-11103.089130,-2294.638420,-153.219100
822.623773,-10584.944971,-1480.411884,229.828649
822.624094,-11103.089130,-1036.288319,1302.362347
822.624415,-9918.759623,-740.205942,2757.943793
822.624735,-9992.780217,0.000000,3677.258390
822.625056,-9474.636058,0.000000,3983.696590
822.625377,-8216.285956,0.000000,3064.381992
822.625698,-8364.327145,296.082377,3524.039291
822.626018,-8364.327145,592.164754,2528.115143
822.626339,-8068.244768,1110.308913,1991.848295
822.626660,-8734.430116,1036.288319,689.485948
822.626981,-8734.430116,1036.288319,-306.438199
822.627301,-9474.636058,74.020594,-1608.800546
822.627622,-9918.759623,-518.144159,-2374.896044
822.627943,-10066.800811,-1036.288319,-1991.848295
822.628264,-10362.883188,-1184.329507,-1762.019645
822.628584,-10807.006753,-1406.391290,-919.314598
822.628905,-10807.006753,-1406.391290,0.000000
822.629226,-10362.883188,-1110.308913,842.705048
822.629547,-8956.491898,-1110.308913,2451.505594
822.629867,-9770.718434,-370.102971,2834.553343
822.630188,-9474.636058,-222.061783,3447.429741
822.630509,-9030.512492,0.000000,3907.087040
822.630830,-8882.471304,-74.020594,3524.039291
822.631150,-8882.471304,74.020594,2451.505594
822.631471,-8734.430116,222.061783,1991.848295
822.631792,-8734.430116,518.144159,1378.971896
822.632112,-9104.533087,444.123565,383.047749
822.632433,-9030.512492,-148.041188,-306.438199
822.632754,-9548.656652,-888.247130,-2068.457845
822.633075,-9992.780217,-962.267725,-2451.505594
822.633395,-10510.924376,-1480.411884,-1838.629195
822.633716,-10807.006753,-1628.453072,-842.705048
822.634037,-10955.047942,-1998.556043,-383.047749
822.634358,-10288.862594,-1406.391290,153.219100
822.634678,-10436.903782,-666.185348,1762.019645
822.634999,-9918.759623,-296.082377,3217.601092
822.635320,-9696.697840,-592.164754,4366.744339
822.635641,-9252.574275,-296.082377,4673.182538
822.635961,-9104.533087,0.000000,4136.915689
822.636282,-8512.368333,0.000000,3830.477490
822.636603,-9400.615463,962.267725,3064.381992
822.636924,-8512.368333,592.164754,2068.457845
822.637244,-8586.388927,740.205942,459.657299
822.637565,-8808.450710,518.144159,-689.485948
822.637886,-9548.656652,-222.061783,-1685.410096
822.638207,-9474.636058,-518.144159,-2068.457845
822.638527,-10807.006753,-962.267725,-1149.143247
822.638848,-10732.986159,-1406.391290,-536.266849
822.639169,-10955.047942,-1702.473667,-153.219100
822.639490,-10288.862594,-1184.329507,1149.143247
822.639810,-10658.965565,-1110.308913,1685.410096
822.640131,-9844.739029,-814.226536,2451.505594
822.640452,-9548.656652,-666.185348,3370.820191
822.640773,-9104.533087,-222.061783,3370.820191
822.641093,-8956.491898,444.123565,3370.820191
822.641414,-8882.471304,592.164754,3600.648841
822.641735,-8660.409521,888.247130,2681.334243
822.642056,-8808.450710,1184.329507,1762.019645
822.642376,-8512.368333,1184.329507,766.095498
822.642697,-9104.533087,0.000000,-536.266849
822.643018,-9474.636058,-962.267725,-1685.410096
822.643338,-9548.656652,-814.226536,-2604.724693
822.643659,-10288.862594,148.041188,-1838.629195
822.643980,-10807.006753,-296.082377,-1762.019645
822.644301,-10732.986159,-518.144159,-689.485948
822.644621,-10955.047942,-1184.329507,-459.657299
822.644942,-10362.883188,-1258.350101,383.047749
822.645263,-10732.986159,-1332.370696,1608.800546
822.645584,-9844.739029,-1036.288319,3140.991542
822.645904,-9622.677246,-666.185348,3830.477490
822.646225,-8956.491898,0.000000,3677.258390
822.646546,-8586.388927,1036.288319,3907.087040
822.646867,-8660.409521,1480.411884,3217.601092
822.647187,-8882.471304,2146.597232,2604.724693
822.647508,-9030.512492,2072.576638,1685.410096
822.647829,-9252.574275,2368.659014,1378.971896
822.648150,-9104.533087,740.205942,-1072.533697
822.648470,-9474.636058,-888.247130,-1685.410096
822.648791,-9548.656652,-296.082377,-1838.629195
822.649112,-10732.986159,-1776.494261,-1149.143247
822.649433,-10288.862594,-1258.350101,-995.924147
822.649753,-10732.986159,-962.267725,153.219100
822.650074,-10436.903782,-518.144159,1302.362347
822.650395,-10584.944971,-888.247130,2374.896044
822.650716,-9548.656652,-592.164754,3830.477490
822.651036,-9400.615463,-666.185348,3600.648841
822.651357,-8882.471304,-444.123565,3983.696590
822.651678,-8586.388927,-740.205942,4366.744339
822.651999,-8364.327145,-666.185348,3907.087040
822.652319,-8438.347739,444.123565,2834.553343
822.652640,-8216.285956,370.102971,1685.410096
822.652961,-8364.327145,444.123565,536.266849
822.653282,-9178.553681,-148.041188,-229.828649
822.653602,-9326.594869,-1036.288319,-1762.019645
822.653923,-9474.636058,-1332.370696,-2374.896044
822.654244,-9918.759623,-1850.514855,-2068.457845
822.654564,-10214.842000,-1480.411884,-1149.143247
822.654885,-10732.986159,-1480.411884,0.000000
822.655206,-10658.965565,-1332.370696,306.438199
822.655527,-10362.883188,-1110.308913,1072.533697
822.655847,-9992.780217,-148.041188,2298.286494
822.656168,-9400.615463,148.041188,5132.839837
822.656489,-9844.739029,-296.082377,4136.915689
822.656810,-8808.450710,148.041188,4060.306139
822.657130,-8956.491898,0.000000,3524.039291
822.657451,-8734.430116,666.185348,2987.772442
822.657772,-9178.553681,740.205942,2145.067394
822.658093,-9326.594869,666.185348,842.705048
822.658413,-8808.450710,740.205942,-612.876398
822.658734,-9770.718434,222.061783,-1838.629195
822.659055,-9474.636058,148.041188,-2834.553343
822.659376,-10732.986159,-888.247130,-1991.848295
822.659696,-10732.986159,-1554.432478,-1225.752797
822.660017,-10584.944971,-1554.432478,-1532.190996
822.660338,-10214.842000,-1850.514855,-153.219100
822.660659,-10658.965565,-1036.288319,612.876398
822.660979,-10436.903782,-888.247130,1915.238745
822.661300,-9918.759623,-370.102971,2681.334243
822.661621,-9474.636058,-518.144159,3370.820191
822.661942,-8882.471304,-592.164754,3677.258390
822.662262,-8808.450710,-592.164754,3830.477490
822.662583,-8882.471304,-518.144159,3447.429741
822.662904,-8142.265362,0.000000,2528.115143
822.663225,-7328.038826,222.061783,612.876398
822.663545,-8660.409521,592.164754,306.438199
822.663866,-8956.491898,0.000000,-1072.533697
822.664187,-9474.636058,-296.082377,-1915.238745
822.664508,-9770.718434,0.000000,-1608.800546
822.664828,-10288.862594,-888.247130,-1685.410096
822.665149,-10362.883188,-592.164754,-766.095498
822.665470,-10658.965565,-1332.370696,76.609550
822.665790,-9918.759623,-1184.329507,842.705048
822.666111,-10214.842000,-740.205942,1762.019645
822.666432,-9770.718434,-592.164754,3677.258390
822.666753,-9992.780217,-444.123565,3907.087040
822.667073,-9252.574275,148.041188,4060.306139
822.667394,-8956.491898,-74.020594,4136.915689
822.667715,-8586.388927,518.144159,3830.477490
822.668036,-8882.471304,888.247130,3140.991542
822.668356,-8882.471304,1184.329507,1991.848295
822.668677,-9104.533087,1110.308913,1149.143247
822.668998,-9104.533087,814.226536,-459.657299
822.669319,-9548.656652,444.123565,-1532.190996
822.669639,-10214.842000,148.041188,-1455.581446
822.669960,-10658.965565,-740.205942,-1608.800546
822.670281,-10510.924376,-1258.350101,-689.485948
822.670602,-11029.068536,-1776.494261,-919.314598
822.670922,-10881.027347,-518.144159,766.095498
822.671243,-10732.986159,-666.185348,1685.410096
822.671564,-10362.883188,-296.082377,3064.381992
822.671885,-9844.739029,-444.123565,3524.039291
822.672205,-9696.697840,0.000000,3447.429741
822.672526,-9400.615463,222.061783,3907.087040
822.672847,-9474.636058,0.000000,3447.429741
822.673168,-8586.388927,444.123565,2757.943793
822.673488,-8364.327145,962.267725,1532.190996
822.673809,-8660.409521,888.247130,536.266849
822.674130,-8512.368333,592.164754,-383.047749
822.674451,-9326.594869,-740.205942,-1915.238745
822.674771,-9030.512492,-666.185348,-2528.115143
822.675092,-10140.821405,-592.164754,-1991.848295
822.675413,-10658.965565,-814.226536,-689.485948
822.675734,-10362.883188,-1702.473667,306.438199
822.676054,-10732.986159,-1702.473667,383.047749
822.676375,-10510.924376,-1924.535449,1149.143247
822.676696,-9844.739029,-1850.514855,1685.410096
822.677016,-10066.800811,-444.123565,3217.601092
822.677337,-9548.656652,-518.144159,3447.429741
822.677658,-8586.388927,-444.123565,3983.696590
822.677979,-8586.388927,74.020594,3983.696590
822.678299,-8586.388927,666.185348,2834.553343
822.678620,-8808.450710,1110.308913,2221.676944
822.678941,-8660.409521,1036.288319,1225.752797
822.679262,-8660.409521,1184.329507,76.609550
822.679582,-8882.471304,444.123565,-1225.752797
822.679903,-9400.615463,-666.185348,-1225.752797
822.680224,-10066.800811,-666.185348,-1532.190996
822.680545,-10658.965565,-1554.432478,-1378.971896
822.680865,-10584.944971,-1554.432478,-842.705048
822.681186,-10881.027347,-1406.391290,-536.266849
822.681507,-10584.944971,-518.144159,459.657299
822.681828,-10436.903782,-222.061783,1685.410096
822.682148,-9992.780217,-222.061783,2757.943793
822.682469,-9770.718434,-740.205942,3677.258390
822.682790,-9104.533087,-1036.288319,4290.134789
822.683111,-9400.615463,-814.226536,4136.915689
822.683431,-9104.533087,-370.102971,3907.087040
822.683752,-8808.450710,0.000000,2221.676944
822.684073,-8512.368333,592.164754,1608.800546
822.684394,-8882.471304,740.205942,306.438199
822.684714,-8808.450710,222.061783,-383.047749
822.685035,-9474.636058,-740.205942,-1991.848295
822.685356,-9548.656652,-666.185348,-2298.286494
822.685676,-10214.842000,-1184.329507,-2145.067394
822.685997,-10288.862594,-1110.308913,-842.705048
822.686318,-10881.027347,-1406.391290,153.219100
822.686639,-10584.944971,-1110.308913,536.266849
822.686959,-10807.006753,-1332.370696,1378.971896
822.687280,-9770.718434,-1332.370696,2374.896044
822.687601,-9770.718434,-962.267725,3370.820191
822.687922,-9252.574275,-518.144159,3294.210641
822.688242,-8808.450710,0.000000,2911.162892
822.688563,-8512.368333,74.020594,3447.429741
822.688884,-8438.347739,370.102971,3217.601092
822.689205,-8882.471304,444.123565,2374.896044
822.689525,-8882.471304,666.185348,919.314598
822.689846,-8586.388927,74.020594,-306.438199
822.690167,-9326.594869,-370.102971,-1225.752797
822.690488,-9622.677246,-518.144159,-2068.457845
822.690808,-9992.780217,-888.247130,-1991.848295
822.691129,-10807.006753,-740.205942,-1685.410096
822.691450,-10807.006753,-1554.432478,-1149.143247
822.691770,-10732.986159,-1554.432478,-536.266849
822.692091,-10807.006753,-1110.308913,689.485948
822.692412,-10658.965565,-740.205942,2068.457845
822.692733,-10066.800811,-962.267725,3217.601092
822.693053,-9622.677246,-592.164754,3677.258390
822.693374,-9252.574275,-370.102971,4366.744339
822.693695,-9104.533087,-74.020594,4136.915689
822.694016,-8734.430116,296.082377,3524.039291
822.694336,-8734.430116,888.247130,2451.505594
822.694657,-8586.388927,1110.308913,1685.410096
822.694978,-8808.450710,1036.288319,306.438199
822.695299,-8882.471304,518.144159,-383.047749
822.695619,-9548.656652,-444.123565,-2145.067394
822.695940,-9918.759623,-296.082377,-2221.676944
822.696261,-10510.924376,-444.123565,-1608.800546
822.696582,-10510.924376,-444.123565,-1225.752797
822.696902,-10584.944971,-444.123565,-689.485948
822.697223,-10436.903782,-740.205942,0.000000
822.697544,-9844.739029,-962.267725,689.485948
822.697865,-9548.656652,-1036.288319,1762.019645
822.698185,-9770.718434,-666.185348,2757.943793
822.698506,-9326.594869,-74.020594,3447.429741
822.698827,-9178.553681,-296.082377,3907.087040
822.699147,-8660.409521,0.000000,3983.696590
822.699468,-8586.388927,296.082377,4136.915689
822.699789,-8660.409521,444.123565,2374.896044
822.700110,-8586.388927,148.041188,1072.533697
822.700430,-8734.430116,0.000000,0.000000
822.700751,-8956.491898,-518.144159,76.609550
822.701072,-9400.615463,-444.123565,-1455.581446
822.701393,-10214.842000,-444.123565,-1225.752797
822.701713,-10288.862594,-592.164754,-153.219100
822.702034,-11177.109724,-1258.350101,0.000000
822.702355,-10584.944971,-740.205942,1072.533697
822.702676,-11029.068536,-518.144159,1915.238745
822.702996,-10584.944971,74.020594,3294.210641
822.703317,-10214.842000,0.000000,3907.087040
822.703638,-9030.512492,-518.144159,4213.525239
822.703959,-9030.512492,74.020594,4290.134789
822.704279,-8808.450710,0.000000,3677.258390
822.704600,-8882.471304,444.123565,2987.772442
822.704921,-8438.347739,518.144159,2451.505594
822.705242,-8808.450710,592.164754,766.095498
822.705562,-8956.491898,74.020594,76.609550
822.705883,-9104.533087,-370.102971,-1455.581446
822.706204,-9770.718434,-962.267725,-1762.019645
822.706524,-9992.780217,-1258.350101,-1762.019645
822.706845,-10510.924376,-1332.370696,-995.924147
822.707166,-10732.986159,-1776.494261,-766.095498
822.707487,-10436.903782,-1480.411884,0.000000
822.707807,-9918.759623,-1776.494261,919.314598
822.708128,-10362.883188,-888.247130,1991.848295
822.708449,-9992.780217,-962.267725,2987.772442
822.708770,-9622.677246,-592.164754,3524.039291
822.709090,-9178.553681,-592.164754,1991.848295
822.709411,-8660.409521,0.000000,3370.820191
822.709732,-8364.327145,370.102971,3140.991542
822.710053,-8808.450710,740.205942,2681.334243
822.710373,-8512.368333,370.102971,1072.533697
822.710694,-8142.265362,444.123565,-459.657299
822.711015,-8956.491898,148.041188,-1915.238745
822.711336,-9178.553681,592.164754,-2604.724693
822.711656,-9474.636058,0.000000,-2145.067394
822.711977,-11103.089130,370.102971,-1455.581446
822.712298,-10732.986159,-962.267725,-1685.410096
822.712618,-11251.130318,-1406.391290,-306.438199
822.712939,-10881.027347,-1184.329507,612.876398
822.713260,-10510.924376,-518.144159,995.924147
822.713581,-10288.862594,-444.123565,2604.724693
822.713901,-9326.594869,-370.102971,2757.943793
822.714222,-8734.430116,0.000000,2911.162892
822.714543,-9252.574275,0.000000,3830.477490
822.714864,-8882.471304,74.020594,3830.477490
822.715184,-8882.471304,0.000000,2757.943793
822.715505,-9104.533087,370.102971,1685.410096
822.715826,-8512.368333,592.164754,536.266849
822.716147,-9844.739029,370.102971,-919.314598
822.716467,-9622.677246,-592.164754,-1302.362347
822.716788,-9696.697840,-592.164754,-1915.238745
822.717109,-10140.821405,-1184.329507,-1991.848295
822.717430,-10658.965565,-1258.350101,-1608.800546
822.717750,-11029.068536,-1332.370696,76.609550
822.718071,-10807.006753,-666.185348,995.924147
822.718392,-10807.006753,-814.226536,1608.800546
822.718713,-10066.800811,-666.185348,2911.162892
822.719033,-10140.821405,-888.247130,4060.306139
822.719354,-9696.697840,-666.185348,4903.011187
822.719675,-9104.533087,0.000000,4749.792088
822.719995,-8364.327145,148.041188,4136.915689
822.720316,-7772.162391,666.185348,3370.820191
822.720637,-8512.368333,1184.329507,2757.943793
822.720958,-8660.409521,888.247130,1762.019645
822.721278,-8660.409521,370.102971,153.219100
822.721599,-8438.347739,148.041188,-536.266849
822.721920,-9770.718434,-444.123565,-1532.190996
822.722241,-10288.862594,-592.164754,-1225.752797
822.722561,-10140.821405,-1036.288319,-689.485948
822.722882,-10584.944971,-592.164754,-689.485948
822.723203,-10436.903782,-814.226536,0.000000
822.723524,-10584.944971,-1110.308913,383.047749
822.723844,-9844.739029,-814.226536,1608.800546
822.724165,-9548.656652,-888.247130,2451.505594
822.724486,-9326.594869,-148.041188,2987.772442
822.724807,-8956.491898,0.000000,3524.039291
822.725127,-8660.409521,-296.082377,3600.648841
822.725448,-8586.388927,0.000000,3064.381992
822.725769,-7698.141797,0.000000,1838.629195
822.726090,-8882.471304,370.102971,1378.971896
822.726410,-9178.553681,444.123565,-76.609550
822.726731,-9178.553681,0.000000,-1378.971896
822.727052,-9400.615463,-592.164754,-2604.724693
822.727372,-9400.615463,-592.164754,-3370.820191
822.727693,-10436.903782,-888.247130,-2681.334243
822.728014,-10584.944971,-740.205942,-1532.190996
822.728335,-10955.047942,-1258.350101,-842.705048
822.728655,-11177.109724,-444.123565,-153.219100
822.728976,-10881.027347,-740.205942,1302.362347
822.729297,-10362.883188,-444.123565,3140.991542
822.729618,-10362.883188,-444.123565,3983.696590
822.729938,-9252.574275,296.082377,4979.620737
822.730259,-9326.594869,-370.102971,4443.353888
822.730580,-8808.450710,0.000000,4136.915689
822.730901,-8734.430116,222.061783,2834.553343
822.731221,-8586.388927,814.226536,2451.505594
822.731542,-8882.471304,962.267725,919.314598
822.731863,-9252.574275,518.144159,-689.485948
822.732184,-9474.636058,0.000000,-2145.067394
822.732504,-9844.739029,0.000000,-1915.238745
822.732825,-10584.944971,-740.205942,-1302.362347
822.733146,-10732.986159,-1628.453072,-919.314598
822.733467,-10658.965565,-1924.535449,-383.047749
822.733787,-10436.903782,-1924.535449,0.000000
822.734108,-9548.656652,-1332.370696,1991.848295
822.734429,-9844.739029,-962.267725,2221.676944
822.734749,-9326.594869,-962.267725,3064.381992
822.735070,-9252.574275,-592.164754,3677.258390
822.735391,-8734.430116,-518.144159,5898.935335
822.735712,-8808.450710,-444.123565,4213.525239
822.736032,-8512.368333,0.000000,3677.258390
822.736353,-8956.491898,444.123565,2604.724693
822.736674,-8882.471304,666.185348,1762.019645
822.736995,-8586.388927,222.061783,229.828649
822.737315,-9178.553681,-740.205942,-1302.362347
822.737636,-9252.574275,-370.102971,-2068.457845
822.737957,-10214.842000,-370.102971,-2451.505594
822.738278,-10362.883188,-592.164754,-1378.971896
822.738598,-10807.006753,-592.164754,-766.095498
822.738919,-10658.965565,-740.205942,0.000000
822.739240,-10658.965565,-888.247130,1072.533697
822.739561,-10584.944971,-888.247130,2451.505594
822.739881,-10140.821405,-888.247130,3600.648841
822.740202,-9918.759623,-666.185348,3753.867940
822.740523,-9400.615463,0.000000,4136.915689
822.740843,-9104.533087,740.205942,4290.134789
822.741164,-8438.347739,814.226536,3830.477490
822.741485,-8882.471304,1110.308913,2374.896044
822.741806,-8956.491898,1184.329507,1378.971896
822.742126,-8660.409521,518.144159,153.219100
822.742447,-8438.347739,296.082377,-1838.629195
822.742768,-9474.636058,-518.144159,-1685.410096
822.743089,-9770.718434,-444.123565,-2145.067394
822.743409,-10584.944971,-1110.308913,-1302.362347
822.743730,-10584.944971,-296.082377,76.609550
822.744051,-10658.965565,-1702.473667,-459.657299
822.744372,-10584.944971,-1110.308913,76.609550
822.744692,-10436.903782,-888.247130,1455.581446
822.745013,-9770.718434,-370.102971,2681.334243
822.745334,-9622.677246,-518.144159,3753.867940
822.745655,-8882.471304,-296.082377,3600.648841
822.745975,-9030.512492,-370.102971,3983.696590
822.746296,-8808.450710,0.000000,3600.648841
822.746617,-8142.265362,74.020594,4136.915689
822.746938,-8734.430116,444.123565,2068.457845
822.747258,-8660.409521,1036.288319,536.266849
822.747579,-8882.471304,74.020594,-766.095498
822.747900,-9400.615463,-370.102971,-919.314598
822.748220,-9474.636058,-592.164754,-2528.115143
822.748541,-10288.862594,-666.185348,-2068.457845
822.748862,-10436.903782,-888.247130,-1455.581446
822.749183,-10658.965565,-1110.308913,-536.266849
822.749503,-10510.924376,-740.205942,76.609550
822.749824,-10584.944971,-592.164754,1302.362347
822.750145,-10214.842000,0.000000,2528.115143
822.750466,-9844.739029,0.000000,3830.477490
822.750786,-9474.636058,74.020594,4596.572988
822.751107,-9326.594869,296.082377,4596.572988
822.751428,-9030.512492,222.061783,4136.915689
822.751749,-8660.409521,444.123565,3677.258390
822.752069,-8364.327145,1258.350101,4060.306139
822.752390,-8882.471304,592.164754,1225.752797
822.752711,-9030.512492,666.185348,0.000000
822.753032,-9474.636058,0.000000,-1532.190996
822.753352,-9844.739029,-296.082377,-1991.848295
822.753673,-9918.759623,0.000000,-1991.848295
822.753994,-10881.027347,-666.185348,-1608.800546
822.754315,-10732.986159,-1554.432478,-689.485948
822.754635,-10584.944971,-1702.473667,-306.438199
822.754956,-10066.800811,-1850.514855,1225.752797
822.755277,-9770.718434,-814.226536,1762.019645
822.755597,-10362.883188,0.000000,3600.648841
822.755918,-9474.636058,0.000000,4519.963438
822.756239,-8660.409521,0.000000,5822.325785
822.756560,-8956.491898,370.102971,4290.134789
822.756880,-8438.347739,0.000000,3294.210641
822.757201,-8364.327145,222.061783,2451.505594
822.757522,-8438.347739,592.164754,1532.190996
822.757843,-8660.409521,592.164754,-153.219100
822.758163,-9104.533087,222.061783,-1072.533697
822.758484,-8956.491898,-444.123565,-1991.848295
822.758805,-9844.739029,-814.226536,-1838.629195
822.759126,-10658.965565,-296.082377,-1378.971896
822.759446,-10732.986159,-1332.370696,-919.314598
822.759767,-10732.986159,-1924.535449,-306.438199
822.760088,-10436.903782,-1554.432478,229.828649
822.760409,-10807.006753,-1850.514855,1378.971896
822.760729,-9622.677246,-962.267725,2681.334243
822.761050,-9622.677246,-962.267725,3600.648841
822.761371,-9178.553681,0.000000,3983.696590
822.761691,-8660.409521,0.000000,3983.696590
822.762012,-8882.471304,296.082377,3600.648841
822.762333,-8808.450710,444.123565,3217.601092
822.762654,-8882.471304,666.185348,1838.629195
822.762974,-8808.450710,444.123565,383.047749
822.763295,-8956.491898,518.144159,-153.219100
822.763616,-9696.697840,-444.123565,-1608.800546
822.763937,-9918.759623,-148.041188,-2298.286494
822.764257,-10510.924376,-814.226536,-2068.457845
822.764578,-10510.924376,-1036.288319,-306.438199
822.764899,-10732.986159,-1776.494261,-1149.143247
822.765220,-10807.006753,-1702.473667,0.000000
822.765540,-10658.965565,-1480.411884,306.438199
822.765861,-10140.821405,-888.247130,2451.505594
822.766182,-9992.780217,-962.267725,3370.820191
822.766503,-9474.636058,-666.185348,4136.915689
822.766823,-9400.615463,-74.020594,4290.134789
822.767144,-8882.471304,0.000000,4366.744339
822.767465,-8882.471304,74.020594,2451.505594
822.767786,-8586.388927,592.164754,2068.457845
822.768106,-8512.368333,814.226536,919.314598
822.768427,-8734.430116,518.144159,0.000000
822.768748,-8660.409521,-296.082377,-1225.752797
822.769068,-9326.594869,-814.226536,-2221.676944
822.769389,-9696.697840,-296.082377,-2221.676944
822.769710,-10510.924376,-888.247130,-1685.410096
822.770031,-10658.965565,-666.185348,-306.438199
822.770351,-10732.986159,-1554.432478,153.219100
822.770672,-10140.821405,-1406.391290,612.876398
822.770993,-9992.780217,-888.247130,1991.848295
822.771314,-10140.821405,-592.164754,3677.258390
822.771634,-9474.636058,-148.041188,5286.058936
822.771955,-8956.491898,0.000000,4596.572988
822.772276,-9030.512492,74.020594,4519.963438
822.772597,-8364.327145,296.082377,3753.867940
822.772917,-8734.430116,814.226536,3064.381992
822.773238,-9030.512492,1036.288319,2374.896044
822.773559,-8586.388927,296.082377,536.266849
822.773880,-8808.450710,0.000000,-689.485948
822.774200,-9326.594869,-296.082377,-1762.019645
822.774521,-9474.636058,0.000000,-919.314598
822.774842,-10140.821405,-1036.288319,-1838.629195
822.775163,-10658.965565,-1406.391290,-689.485948
822.775483,-10658.965565,-1480.411884,-612.876398
822.775804,-10658.965565,-740.205942,459.657299
822.776125,-10658.965565,0.000000,1685.410096
822.776445,-10066.800811,0.000000,2681.334243
822.776766,-9622.677246,0.000000,3600.648841
822.777087,-9326.594869,222.061783,3600.648841
822.777408,-9252.574275,444.123565,4596.572988
822.777728,-9474.636058,74.020594,3600.648841
822.778049,-8808.450710,592.164754,3064.381992
822.778370,-8882.471304,962.267725,1685.410096
822.778691,-8882.471304,1036.288319,612.876398
822.779011,-9474.636058,740.205942,-612.876398
822.779332,-9474.636058,-666.185348,-1915.238745
822.779653,-9696.697840,-370.102971,-2451.505594
822.779974,-10140.821405,-592.164754,-2374.896044
822.780294,-9770.718434,-666.185348,-1532.190996
822.780615,-10658.965565,-888.247130,-689.485948
822.780936,-10436.903782,-1110.308913,153.219100
822.781257,-10214.842000,-1332.370696,919.314598
822.781577,-10140.821405,-1036.288319,2145.067394
822.781898,-9844.739029,-740.205942,3447.429741
822.782219,-9400.615463,-370.102971,3677.258390
822.782540,-9104.533087,0.000000,4596.572988
822.782860,-8512.368333,74.020594,3830.477490
822.783181,-8290.306550,74.020594,3140.991542
822.783502,-7772.162391,0.000000,1991.848295
822.783823,-8660.409521,74.020594,995.924147
822.784143,-8808.450710,0.000000,-306.438199
822.784464,-9326.594869,-666.185348,-1378.971896
822.784785,-9326.594869,-148.041188,-1532.190996
822.785106,-10140.821405,-814.226536,-1378.971896
822.785427,-10436.903782,-1184.329507,-1378.971896
822.785747,-10807.006753,-1850.514855,-689.485948
822.786068,-10807.006753,-1924.535449,-306.438199
822.786389,-9474.636058,-1850.514855,842.705048
822.786710,-10066.800811,-1258.350101,2145.067394
822.787030,-9992.780217,-1036.288319,2911.162892
822.787351,-9326.594869,-962.267725,3907.087040
822.787672,-8956.491898,-814.226536,3983.696590
822.787993,-8808.450710,-888.247130,3983.696590
822.788314,-8808.450710,-740.205942,3753.867940
822.788634,-8808.450710,74.020594,2987.772442
822.788955,-9030.512492,444.123565,1762.019645
822.789276,-9474.636058,1184.329507,0.000000
822.789597,-9252.574275,74.020594,-766.095498
822.789917,-9770.718434,-666.185348,-1915.238745
822.790238,-9844.739029,-814.226536,-2604.724693
822.790559,-10510.924376,-1110.308913,-2068.457845
822.790880,-9992.780217,-666.185348,-1225.752797
822.791201,-10881.027347,-1258.350101,-1072.533697
822.791521,-10510.924376,-1184.329507,0.000000
822.791842,-10362.883188,-1036.288319,995.924147
822.792163,-9548.656652,-592.164754,1991.848295
822.792484,-9844.739029,-518.144159,3370.820191
822.792804,-9400.615463,0.000000,4290.134789
822.793125,-9178.553681,0.000000,4366.744339
822.793446,-8660.409521,148.041188,3907.087040
822.793767,-8660.409521,444.123565,3140.991542
822.794088,-8512.368333,370.102971,1991.848295
822.794408,-8512.368333,444.123565,689.485948
822.794729,-8956.491898,740.205942,-919.314598
822.795050,-9178.553681,222.061783,-1455.581446
822.795371,-9696.697840,0.000000,-2068.457845
822.795691,-10140.821405,0.000000,-1762.019645
822.796012,-10955.047942,-888.247130,-1378.971896
822.796333,-11473.192101,-666.185348,-1149.143247
822.796654,-10807.006753,-1702.473667,153.219100
822.796975,-10288.862594,-1258.350101,766.095498
822.797295,-9992.780217,-814.226536,2374.896044
822.797616,-9474.636058,-370.102971,3753.867940
822.797937,-9104.533087,-296.082377,3753.867940
822.798258,-8956.491898,0.000000,3753.867940
822.798578,-8956.491898,444.123565,3830.477490
822.798899,-8660.409521,222.061783,3600.648841
822.799220,-9104.533087,888.247130,2911.162892
822.799541,-8882.471304,814.226536,1302.362347
822.799862,-8808.450710,814.226536,383.047749
822.800182,-9474.636058,0.000000,-1302.362347
822.800503,-9992.780217,148.041188,-1149.143247
822.800824,-10362.883188,-370.102971,-1915.238745
822.801145,-10214.842000,-444.123565,-1915.238745
822.801465,-10510.924376,-814.226536,-1072.533697
822.801786,-10436.903782,-1184.329507,-1302.362347
822.802107,-10288.862594,-962.267725,306.438199
822.802428,-10658.965565,-296.082377,2374.896044
822.802748,-10214.842000,0.000000,4060.306139
822.803069,-9844.739029,0.000000,4366.744339
822.803390,-9770.718434,0.000000,4979.620737
822.803711,-8956.491898,296.082377,4673.182538
822.804032,-9178.553681,296.082377,4136.915689
822.804352,-8660.409521,296.082377,2987.772442
822.804673,-7550.100608,222.061783,2298.286494
822.804994,-8734.430116,148.041188,0.000000
822.805315,-9252.574275,74.020594,-1072.533697
822.805635,-9622.677246,0.000000,-1532.190996
822.805956,-10066.800811,0.000000,-229.828649
822.806277,-10807.006753,-444.123565,-1378.971896
822.806598,-10881.027347,-444.123565,-1149.143247
822.806919,-10881.027347,-1480.411884,-536.266849
822.807239,-10584.944971,-1258.350101,383.047749
822.807560,-10066.800811,-1702.473667,1149.143247
822.807881,-9548.656652,-814.226536,2528.115143
822.808202,-9474.636058,-888.247130,3600.648841
822.808522,-9030.512492,-370.102971,3753.867940
822.808843,-8586.388927,0.000000,5132.839837
822.809164,-8734.430116,-222.061783,3600.648841
822.809485,-8660.409521,0.000000,2911.162892
822.809806,-8660.409521,-296.082377,2068.457845
822.810126,-8586.388927,444.123565,766.095498
822.810447,-9104.533087,74.020594,-229.828649
822.810768,-9400.615463,-74.020594,-1762.019645
822.811089,-9104.533087,-444.123565,-2757.943793
822.811409,-10288.862594,-1184.329507,-2757.943793
822.811730,-9992.780217,-1036.288319,-2528.115143
822.812051,-10510.924376,-1480.411884,-1915.238745
822.812372,-10140.821405,-1258.350101,-1225.752797
822.812693,-10288.862594,-740.205942,0.000000
822.813013,-9918.759623,-222.061783,1532.190996
822.813334,-9844.739029,-666.185348,3064.381992
822.813655,-9696.697840,0.000000,3524.039291
822.813976,-9474.636058,74.020594,4060.306139
822.814296,-8808.450710,592.164754,3217.601092
822.814617,-8734.430116,592.164754,3064.381992
822.814938,-8882.471304,1110.308913,2451.505594
822.815259,-8956.491898,1036.288319,1072.533697
822.815580,-9030.512492,814.226536,76.609550
822.815900,-9474.636058,518.144159,-1378.971896
822.816221,-9548.656652,74.020594,-1915.238745
822.816542,-10288.862594,-444.123565,-842.705048
822.816863,-10658.965565,-962.267725,-536.266849
822.817183,-10584.944971,-1554.432478,459.657299
822.817504,-10658.965565,-2294.638420,459.657299
822.817825,-10732.986159,-1332.370696,1915.238745
822.818146,-10658.965565,-1258.350101,3294.210641
822.818467,-10066.800811,-962.267725,4826.401637
822.818787,-8808.450710,-1184.329507,4673.182538
822.819108,-9178.553681,-814.226536,4749.792088
822.819429,-8882.471304,-592.164754,4903.011187
822.819750,-8660.409521,-222.061783,4213.525239
822.820070,-8808.450710,222.061783,2987.772442
822.820391,-8364.327145,444.123565,1302.362347
822.820712,-8808.450710,444.123565,306.438199
822.821033,-9474.636058,0.000000,-536.266849
822.821354,-9474.636058,-518.144159,-2757.943793
822.821674,-10214.842000,74.020594,-2451.505594
822.821995,-10807.006753,-222.061783,-1685.410096
822.822316,-10881.027347,-296.082377,-1532.190996
822.822637,-11177.109724,-888.247130,-229.828649
822.822957,-10732.986159,-666.185348,306.438199
822.823278,-10436.903782,-370.102971,1149.143247
822.823599,-10066.800811,0.000000,2987.772442
822.823920,-9918.759623,0.000000,3370.820191
822.824241,-9178.553681,518.144159,3600.648841
822.824561,-9104.533087,444.123565,3370.820191
822.824882,-8512.368333,444.123565,3370.820191
822.825203,-8290.306550,296.082377,2221.676944
822.825524,-7105.977043,0.000000,1149.143247
822.825844,-8290.306550,0.000000,229.828649
822.826165,-8586.388927,-148.041188,-1532.190996
822.826486,-9400.615463,-222.061783,-1915.238745
822.826807,-9844.739029,-148.041188,-1915.238745
822.827128,-10584.944971,-296.082377,-1915.238745
822.827448,-11029.068536,-740.205942,-1225.752797
822.827769,-10881.027347,-1110.308913,-766.095498
822.828090,-10362.883188,-1554.432478,-153.219100
822.828411,-10658.965565,-1184.329507,1072.533697
822.828731,-9918.759623,-1258.350101,2528.115143
822.829052,-9474.636058,-1036.288319,3140.991542
822.829373,-9178.553681,-296.082377,4213.525239
822.829694,-8364.327145,0.000000,4443.353888
822.830015,-8956.491898,0.000000,4213.525239
822.830335,-8660.409521,74.020594,2987.772442
822.830656,-8512.368333,222.061783,1991.848295
822.830977,-8586.388927,518.144159,995.924147
822.831298,-8808.450710,74.020594,0.000000
822.831618,-9252.574275,-444.123565,-1608.800546
822.831939,-9474.636058,-370.102971,-2145.067394
822.832260,-10066.800811,-592.164754,-2374.896044
822.832581,-10955.047942,-296.082377,-1455.581446
822.832901,-11103.089130,-740.205942,-995.924147
822.833222,-10955.047942,-962.267725,153.219100
822.833543,-10658.965565,-962.267725,1149.143247
822.833864,-10362.883188,-518.144159,2145.067394
822.834185,-9992.780217,-888.247130,3830.477490
822.834505,-9770.718434,-592.164754,4443.353888
822.834826,-9400.615463,-444.123565,4596.572988
822.835147,-9104.533087,0.000000,4596.572988
822.835468,-8808.450710,74.020594,3677.258390
822.835788,-8734.430116,444.123565,2911.162892
822.836109,-8882.471304,296.082377,1762.019645
822.836430,-8660.409521,0.000000,76.609550
822.836751,-8956.491898,-222.061783,-1225.752797
822.837072,-9474.636058,-444.123565,-1991.848295
822.837392,-9918.759623,-444.123565,-1915.238745
822.837713,-10214.842000,-370.102971,-1762.019645
822.838034,-10362.883188,-814.226536,459.657299
822.838355,-10510.924376,-962.267725,-689.485948
822.838675,-10510.924376,-1332.370696,536.266849
822.838996,-10584.944971,-1184.329507,1685.410096
822.839317,-9992.780217,-1110.308913,2987.772442
822.839638,-9548.656652,-1480.411884,3907.087040
822.839959,-9104.533087,-888.247130,3677.258390
822.840279,-8882.471304,-740.205942,3600.648841
822.840600,-8660.409521,-296.082377,3294.210641
822.840921,-8364.327145,0.000000,2834.553343
822.841242,-8364.327145,296.082377,1149.143247
822.841562,-8586.388927,222.061783,0.000000
822.841883,-8956.491898,-370.102971,-995.924147
822.842204,-9104.533087,-1924.535449,-536.266849
822.842525,-9474.636058,-222.061783,-2451.505594
822.842846,-10510.924376,-444.123565,-2145.067394
822.843166,-10807.006753,-74.020594,-1378.971896
822.843487,-11399.171507,-444.123565,-842.705048
822.843808,-10584.944971,-296.082377,0.000000
822.844129,-10288.862594,-518.144159,536.266849
822.844449,-9992.780217,-666.185348,2221.676944
822.844770,-9770.718434,-1184.329507,2911.162892
822.845091,-9474.636058,-296.082377,3524.039291
822.845412,-9178.553681,0.000000,4366.744339
822.845733,-8586.388927,296.082377,4596.572988
822.846053,-9030.512492,666.185348,4060.306139
822.846374,-10214.842000,814.226536,3677.258390
822.846695,-9548.656652,814.226536,2298.286494
822.847016,-9104.533087,592.164754,536.266849
822.847336,-9770.718434,0.000000,-1072.533697
822.847657,-9696.697840,74.020594,-1532.190996
822.847978,-9992.780217,-296.082377,-1608.800546
822.848299,-10066.800811,-444.123565,-1762.019645
822.848620,-10288.862594,-1258.350101,-1762.019645
822.848940,-10214.842000,-1258.350101,-842.705048
822.849261,-10732.986159,-518.144159,153.219100
822.849582,-10362.883188,-370.102971,2528.115143
822.849903,-9844.739029,-296.082377,3064.381992
822.850223,-9548.656652,-370.102971,3753.867940
822.850544,-9030.512492,-296.082377,4749.792088
822.850865,-9104.533087,0.000000,4136.915689
822.851186,-8586.388927,222.061783,3600.648841
822.851507,-8438.347739,222.061783,2451.505594
822.851827,-8438.347739,592.164754,995.924147
822.852148,-8734.430116,370.102971,-229.828649
822.852469,-8882.471304,-148.041188,-995.924147
822.852790,-9474.636058,-1110.308913,-2374.896044
822.853110,-9474.636058,-962.267725,-2757.943793
822.853431,-10214.842000,-962.267725,-2757.943793
822.853752,-10214.842000,-1036.288319,-1608.800546
822.854073,-11029.068536,-1406.391290,-612.876398
822.854394,-10436.903782,-1184.329507,536.266849
822.854714,-10214.842000,-1332.370696,995.924147
822.855035,-9770.718434,-518.144159,2451.505594
822.855356,-9770.718434,-518.144159,3983.696590
822.855677,-9474.636058,0.000000,4903.011187
822.855997,-9030.512492,222.061783,4673.182538
822.856318,-8956.491898,74.020594,3907.087040
822.856639,-8882.471304,222.061783,3064.381992
822.856960,-8808.450710,74.020594,2145.067394
822.857281,-8734.430116,370.102971,689.485948
822.857601,-9178.553681,444.123565,-766.095498
822.857922,-9622.677246,222.061783,-1915.238745
822.858243,-9696.697840,-296.082377,-1608.800546
822.858564,-10436.903782,-814.226536,-1915.238745
822.858884,-10510.924376,-888.247130,-2221.676944
822.859205,-10658.965565,-1702.473667,-689.485948
822.859526,-10955.047942,-1406.391290,153.219100
822.859847,-10881.027347,-666.185348,1762.019645
822.860167,-10510.924376,-962.267725,3983.696590
822.860488,-9548.656652,-888.247130,4596.572988
822.860809,-9622.677246,-666.185348,4366.744339
822.861130,-9104.533087,-296.082377,4290.134789
822.861451,-9104.533087,0.000000,4443.353888
822.861771,-8586.388927,222.061783,4060.306139
822.862092,-8438.347739,740.205942,1915.238745
822.862413,-8438.347739,740.205942,995.924147
822.862734,-8734.430116,518.144159,-612.876398
822.863054,-8364.327145,-666.185348,-1149.143247
822.863375,-9696.697840,-74.020594,-2374.896044
822.863696,-10436.903782,-148.041188,-2298.286494
822.864017,-10436.903782,0.000000,-1532.190996
822.864338,-10807.006753,-592.164754,-1532.190996
822.864658,-10436.903782,-1184.329507,-689.485948
822.864979,-10436.903782,-1110.308913,459.657299
822.865300,-10214.842000,-1110.308913,1838.629195
822.865621,-9696.697840,-814.226536,2528.115143
822.865941,-9770.718434,-370.102971,3830.477490
822.866262,-8956.491898,74.020594,3983.696590
822.866583,-8660.409521,444.123565,4136.915689
822.866904,-8734.430116,444.123565,3600.648841
822.867225,-8364.327145,0.000000,2451.505594
822.867545,-8660.409521,0.000000,1225.752797
822.867866,-8586.388927,74.020594,0.000000
822.868187,-9178.553681,-74.020594,-1532.190996
822.868508,-9104.533087,74.020594,-2681.334243
822.868828,-9696.697840,0.000000,-2145.067394
822.869149,-10140.821405,-370.102971,-1915.238745
822.869470,-10510.924376,-1258.350101,-1225.752797
822.869791,-10658.965565,-1702.473667,-995.924147
822.870112,-10955.047942,-740.205942,536.266849
822.870432,-10436.903782,-962.267725,1685.410096
822.870753,-10066.800811,-592.164754,3294.210641
822.871074,-9622.677246,-222.061783,4366.744339
822.871395,-9030.512492,0.000000,5362.668486
822.871715,-9178.553681,0.000000,4826.401637
822.872036,-9178.553681,296.082377,4366.744339
822.872357,-9030.512492,518.144159,3140.991542
822.872678,-8660.409521,1332.370696,2604.724693
822.872999,-8956.491898,1406.391290,536.266849
822.873319,-9326.594869,888.247130,-383.047749
822.873640,-9548.656652,-148.041188,-1915.238745
822.873961,-9548.656652,0.000000,-2451.505594
822.874282,-10732.986159,-962.267725,-2528.115143
822.874602,-10362.883188,-518.144159,-1378.971896
822.874923,-11473.192101,-1332.370696,0.000000
822.875244,-10807.006753,-1332.370696,459.657299
822.875565,-10288.862594,-2072.576638,1302.362347
822.875886,-10066.800811,-1332.370696,2604.724693
822.876206,-9548.656652,-592.164754,3753.867940
822.876527,-9474.636058,-296.082377,4060.306139
822.876848,-8808.450710,592.164754,4290.134789
822.877169,-8438.347739,518.144159,3524.039291
822.877489,-8438.347739,370.102971,2604.724693
822.877810,-8364.327145,740.205942,1838.629195
822.878131,-8734.430116,518.144159,919.314598
822.878452,-7772.162391,444.123565,0.000000
822.878773,-9178.553681,0.000000,-1915.238745
822.879093,-9474.636058,-518.144159,-2298.286494
822.879414,-9770.718434,-592.164754,-2911.162892
822.879735,-10066.800811,-814.226536,-2145.067394
822.880056,-10288.862594,-1480.411884,-1762.019645
822.880376,-10140.821405,-1406.391290,-689.485948
822.880697,-10288.862594,-1110.308913,459.657299
822.881018,-9844.739029,-1110.308913,1685.410096
822.881339,-9770.718434,0.000000,4749.792088
822.881659,-9622.677246,-814.226536,4673.182538
822.881980,-9400.615463,-740.205942,4673.182538
822.882301,-9178.553681,-518.144159,4596.572988
822.882622,-8882.471304,0.000000,3983.696590
822.882942,-8882.471304,888.247130,2834.553343
822.883263,-8882.471304,888.247130,1378.971896
822.883584,-8586.388927,740.205942,0.000000
822.883904,-9030.512492,74.020594,-2068.457845
822.884225,-9992.780217,222.061783,-2604.724693
822.884546,-9844.739029,-518.144159,-2757.943793
822.884866,-10584.944971,-888.247130,-2298.286494
822.885187,-10658.965565,-1554.432478,-1455.581446
822.885508,-10955.047942,-2294.638420,-459.657299
822.885829,-10510.924376,-1702.473667,306.438199
822.886149,-10807.006753,-1776.494261,1685.410096
822.886470,-10140.821405,-1036.288319,3217.601092
822.886791,-9992.780217,-592.164754,3983.696590
822.887111,-9770.718434,296.082377,4673.182538
822.887432,-9400.615463,444.123565,4749.792088
822.887753,-9030.512492,592.164754,4443.353888
822.888073,-8956.491898,370.102971,3294.210641
822.888394,-8660.409521,666.185348,2451.505594
822.888715,-8808.450710,888.247130,306.438199
822.889036,-8734.430116,1036.288319,-842.705048
822.889356,-9696.697840,740.205942,-1378.971896
822.889677,-9696.697840,0.000000,-1532.190996
822.889998,-10214.842000,-518.144159,-1685.410096
822.890318,-10140.821405,-1258.350101,-1378.971896
822.890639,-10881.027347,-1628.453072,-919.314598
822.890960,-10510.924376,-1628.453072,612.876398
822.891280,-10658.965565,-1628.453072,1149.143247
822.891601,-9844.739029,-1406.391290,2681.334243
822.891922,-9622.677246,-1480.411884,3983.696590
822.892243,-9178.553681,-1184.329507,4213.525239
822.892563,-9104.533087,-740.205942,4443.353888
822.892884,-8956.491898,-444.123565,4366.744339
822.893205,-8734.430116,0.000000,3447.429741
822.893525,-8142.265362,518.144159,1838.629195
822.893846,-8438.347739,444.123565,459.657299
822.894167,-8660.409521,666.185348,-995.924147
822.894487,-9474.636058,-296.082377,-1991.848295
822.894808,-9474.636058,-148.041188,-2604.724693
822.895129,-9992.780217,-518.144159,-2834.553343
822.895449,-9548.656652,-1110.308913,-2987.772442
822.895770,-10658.965565,-888.247130,-1685.410096
822.896091,-10881.027347,-1184.329507,-995.924147
822.896412,-10362.883188,-888.247130,459.657299
822.896732,-10214.842000,-1258.350101,1762.019645
822.897053,-10140.821405,-592.164754,2911.162892
822.897374,-9844.739029,-444.123565,3677.258390
822.897694,-9474.636058,222.061783,4290.134789
822.898015,-9104.533087,666.185348,4213.525239
822.898336,-8142.265362,370.102971,3753.867940
822.898656,-9030.512492,740.205942,2528.115143
822.898977,-8660.409521,888.247130,1225.752797
822.899298,-8882.471304,814.226536,-459.657299
822.899619,-8734.430116,0.000000,-1991.848295
822.899939,-9474.636058,0.000000,-2068.457845
822.900260,-9770.718434,-666.185348,-2068.457845
822.900581,-10362.883188,-888.247130,-1532.190996
822.900901,-10658.965565,-1776.494261,-689.485948
822.901222,-10732.986159,-1850.514855,-459.657299
822.901543,-10584.944971,-1480.411884,689.485948
822.901863,-10214.842000,-1480.411884,1838.629195
822.902184,-9622.677246,-1258.350101,2911.162892
822.902505,-9400.615463,-962.267725,3983.696590
822.902826,-9400.615463,-1036.288319,4826.401637
822.903146,-9030.512492,-592.164754,5286.058936
822.903467,-8956.491898,-222.061783,4903.011187
822.903788,-8660.409521,0.000000,4519.963438
822.904108,-8364.327145,444.123565,2298.286494
822.904429,-8364.327145,592.164754,919.314598
822.904750,-8882.471304,370.102971,-383.047749
822.905070,-9104.533087,-518.144159,-1532.190996
822.905391,-9252.574275,0.000000,-2834.553343
822.905712,-10214.842000,-148.041188,-2221.676944
822.906033,-10288.862594,-370.102971,-1608.800546
822.906353,-11029.068536,-962.267725,-842.705048
822.906674,-10214.842000,-1184.329507,0.000000
822.906995,-10436.903782,-1554.432478,536.266849
822.907315,-10066.800811,-1184.329507,2145.067394
822.907636,-10066.800811,-1184.329507,3600.648841
822.907957,-8882.471304,-962.267725,3677.258390
822.908277,-9474.636058,-296.082377,4596.572988
822.908598,-8956.491898,222.061783,4213.525239
822.908919,-8808.450710,0.000000,3370.820191
822.909240,-8882.471304,444.123565,2221.676944
822.909560,-8438.347739,444.123565,306.438199
822.909881,-8586.388927,444.123565,-1225.752797
822.910202,-9400.615463,444.123565,-1991.848295
822.910522,-9622.677246,370.102971,-2604.724693
822.910843,-10436.903782,74.020594,-2528.115143
822.911164,-10658.965565,-592.164754,-1915.238745
822.911484,-10955.047942,-1258.350101,-1762.019645
822.911805,-10584.944971,-1406.391290,-536.266849
822.912126,-10807.006753,-1110.308913,2757.943793
822.912447,-10140.821405,-888.247130,2451.505594
822.912767,-9992.780217,-740.205942,3217.601092
822.913088,-9326.594869,-740.205942,4060.306139
822.913409,-9178.553681,-814.226536,4290.134789
822.913729,-9178.553681,0.000000,4673.182538
822.914050,-9030.512492,0.000000,3907.087040
822.914371,-8512.368333,518.144159,2604.724693
822.914691,-8438.347739,740.205942,995.924147
822.915012,-8586.388927,740.205942,766.095498
822.915333,-9326.594869,222.061783,-1072.533697
822.915654,-9844.739029,-592.164754,-1991.848295
822.915974,-9844.739029,-444.123565,-2374.896044
822.916295,-10584.944971,-1628.453072,-995.924147
822.916616,-10732.986159,-1480.411884,-995.924147
822.916936,-10584.944971,-1480.411884,-459.657299
822.917257,-10288.862594,-1554.432478,0.000000
822.917578,-9992.780217,-1110.308913,1225.752797
822.917898,-10066.800811,-666.185348,3294.210641
822.918219,-9770.718434,-888.247130,3753.867940
822.918540,-9474.636058,0.000000,4826.401637
822.918860,-9326.594869,222.061783,4903.011187
822.919181,-9252.574275,666.185348,4903.011187
822.919502,-8808.450710,1184.329507,3677.258390
822.919823,-8882.471304,1258.350101,2068.457845
822.920143,-8882.471304,1332.370696,459.657299
822.920464,-8364.327145,1258.350101,383.047749
822.920785,-9474.636058,74.020594,-2145.067394
822.921105,-9548.656652,0.000000,-1838.629195
822.921426,-10584.944971,-370.102971,-1302.362347
822.921747,-10732.986159,-518.144159,-1072.533697
822.922067,-10510.924376,-1110.308913,-612.876398
822.922388,-10362.883188,-1036.288319,0.000000
822.922709,-10658.965565,-666.185348,1532.190996
822.923030,-10214.842000,-962.267725,2604.724693
822.923350,-9474.636058,-1036.288319,3753.867940
822.923671,-9326.594869,-740.205942,4136.915689
822.923992,-9178.553681,0.000000,4519.963438
822.924312,-9326.594869,0.000000,4519.963438
822.924633,-7698.141797,148.041188,3370.820191
822.924954,-8438.347739,518.144159,1991.848295
822.925274,-8364.327145,740.205942,612.876398
822.925595,-8734.430116,740.205942,-689.485948
822.925916,-9326.594869,0.000000,-1915.238745
822.926237,-9400.615463,0.000000,-2604.724693
822.926557,-10140.821405,-148.041188,-2068.457845
822.926878,-10658.965565,-592.164754,-1762.019645
822.927199,-10807.006753,-962.267725,-536.266849
822.927519,-10732.986159,-962.267725,-919.314598
822.927840,-10584.944971,-814.226536,536.266849
822.928161,-9844.739029,-888.247130,1685.410096
822.928481,-9770.718434,-666.185348,2757.943793
822.928802,-10584.944971,666.185348,2298.286494
822.929123,-9252.574275,0.000000,4060.306139
822.929444,-8734.430116,0.000000,3983.696590
822.929764,-8808.450710,370.102971,3447.429741
822.930085,-8882.471304,740.205942,2451.505594
822.930406,-8808.450710,1036.288319,1225.752797
822.930726,-8808.450710,370.102971,0.000000
822.931047,-8882.471304,148.041188,-1225.752797
822.931368,-9622.677246,-814.226536,-2374.896044
822.931688,-10066.800811,-518.144159,-2221.676944
822.932009,-10510.924376,-1184.329507,-1532.190996
822.932330,-9918.759623,-1184.329507,-1149.143247
822.932651,-10288.862594,-1110.308913,-383.047749
822.932971,-9400.615463,-1036.288319,1838.629195
822.933292,-10510.924376,-1036.288319,2298.286494
822.933613,-9992.780217,-740.205942,3600.648841
822.933933,-9844.739029,-370.102971,5132.839837
822.934254,-9844.739029,-814.226536,6281.983084
822.934575,-9252.574275,0.000000,5362.668486
822.934895,-9400.615463,-740.205942,4749.792088
822.935216,-8586.388927,-222.061783,3447.429741
822.935537,-8438.347739,222.061783,1685.410096
822.935858,-8290.306550,0.000000,0.000000
822.936178,-8734.430116,0.000000,-1072.533697
822.936499,-9474.636058,-814.226536,-2145.067394
822.936820,-9844.739029,-296.082377,-2298.286494
822.937140,-10436.903782,-740.205942,-1991.848295
822.937461,-11029.068536,-296.082377,-766.095498
822.937782,-10955.047942,-740.205942,-306.438199
822.938102,-10807.006753,-1184.329507,0.000000
822.938423,-10584.944971,-740.205942,1072.533697
822.938744,-10436.903782,-1258.350101,2145.067394
822.939065,-9918.759623,-1110.308913,3294.210641
822.939385,-9770.718434,-1110.308913,3983.696590
822.939706,-9400.615463,-296.082377,4136.915689
822.940027,-8956.491898,296.082377,4749.792088
822.940347,-8956.491898,592.164754,3447.429741
822.940668,-9030.512492,740.205942,2221.676944
822.940989,-8142.265362,740.205942,306.438199
822.941309,-9030.512492,0.000000,-612.876398
822.941630,-9400.615463,-296.082377,-1072.533697
822.941951,-10066.800811,-370.102971,-1991.848295
822.942272,-9696.697840,-1110.308913,-2145.067394
822.942592,-9844.739029,-518.144159,-1762.019645
822.942913,-10436.903782,-518.144159,-1378.971896
822.943234,-10510.924376,-518.144159,0.000000
822.943554,-10140.821405,-592.164754,1072.533697
822.943875,-10436.903782,-518.144159,2374.896044
822.944196,-9622.677246,-1258.350101,3983.696590
822.944516,-9622.677246,-1110.308913,4366.744339
822.944837,-9474.636058,-1110.308913,4596.572988
822.945158,-9326.594869,-814.226536,4519.963438
822.945478,-8068.244768,-222.061783,3064.381992
822.945799,-8290.306550,518.144159,1685.410096
822.946120,-8512.368333,1258.350101,766.095498
822.946441,-8216.285956,1332.370696,-459.657299
822.946761,-9474.636058,592.164754,-1608.800546
822.947082,-9622.677246,222.061783,-2451.505594
822.947403,-10066.800811,-518.144159,-2298.286494
822.947723,-10584.944971,-1406.391290,-1762.019645
822.948044,-10807.006753,-1480.411884,-842.705048
822.948365,-10881.027347,-1554.432478,-1149.143247
822.948685,-10362.883188,-1036.288319,-306.438199
822.949006,-10066.800811,-518.144159,536.266849
822.949327,-10066.800811,0.000000,2374.896044
822.949648,-9918.759623,-592.164754,4519.963438
822.949968,-9622.677246,-296.082377,3830.477490
822.950289,-9474.636058,-592.164754,3830.477490
822.950610,-9252.574275,74.020594,3907.087040
822.950930,-9030.512492,222.061783,1762.019645
822.951251,-8882.471304,740.205942,2221.676944
822.951572,-8586.388927,1036.288319,229.828649
822.951892,-8660.409521,1184.329507,-1302.362347
822.952213,-9474.636058,370.102971,-1991.848295
822.952534,-9474.636058,222.061783,-1378.971896
822.952855,-10658.965565,-666.185348,-1455.581446
822.953175,-10214.842000,-1036.288319,-1378.971896
822.953496,-10584.944971,-1998.556043,-1072.533697
822.953817,-9326.594869,-666.185348,-306.438199
822.954137,-10510.924376,-1480.411884,1378.971896
822.954458,-9770.718434,-592.164754,3140.991542
822.954779,-9770.718434,-740.205942,3753.867940
822.955099,-9474.636058,148.041188,5056.230287
822.955420,-9178.553681,74.020594,3907.087040
