#time,accel_x,accel_y,accel_z
912.217869,-9622.677246,-148.041188,1378.971896
912.218190,-9622.677246,-222.061783,1072.533697
912.218510,-9548.656652,-444.123565,1149.143247
912.218831,-9548.656652,-296.082377,919.314598
912.219152,-9474.636058,0.000000,842.705048
912.219472,-9474.636058,-370.102971,919.314598
912.219793,-9474.636058,-370.102971,919.314598
912.220114,-9474.636058,0.000000,919.314598
912.220434,-9548.656652,-296.082377,1225.752797
912.220755,-9844.739029,-296.082377,1072.533697
912.221076,-9770.718434,-296.082377,1072.533697
912.221396,-9326.594869,-296.082377,1149.143247
912.221717,-9474.636058,-296.082377,919.314598
912.222038,-9474.636058,-370.102971,1149.143247
912.222358,-9474.636058,-444.123565,1149.143247
912.222679,-9548.656652,-296.082377,1072.533697
912.223000,-9622.677246,-444.123565,1072.533697
912.223320,-9548.656652,-444.123565,842.705048
912.223641,-9548.656652,-370.102971,919.314598
912.223962,-9844.739029,-592.164754,536.266849
912.224282,-9252.574275,-370.102971,1072.533697
912.224603,-9844.739029,-814.226536,919.314598
912.224924,-9400.615463,-222.061783,1072.533697
912.225244,-9770.718434,-370.102971,919.314598
912.225565,-9548.656652,-962.267725,536.266849
912.225886,-9548.656652,-814.226536,995.924147
912.226206,-9770.718434,-740.205942,1072.533697
912.226527,-9548.656652,-518.144159,1149.143247
912.226848,-9474.636058,-592.164754,1072.533697
912.227168,-9326.594869,0.000000,1378.971896
912.227489,-9696.697840,-370.102971,842.705048
912.227810,-9400.615463,-814.226536,612.876398
912.228130,-9474.636058,-1184.329507,306.438199
912.228451,-9474.636058,-1258.350101,153.219100
912.228772,-9696.697840,-962.267725,229.828649
912.229092,-9770.718434,-888.247130,536.266849
912.229413,-9474.636058,-1036.288319,383.047749
912.229734,-10362.883188,0.000000,-459.657299
912.230054,-9696.697840,-1110.308913,-536.266849
912.230375,-9696.697840,-1110.308913,0.000000
912.230696,-9770.718434,-1184.329507,0.000000
912.231016,-9622.677246,-1554.432478,-383.047749
912.231337,-9400.615463,-1554.432478,-1149.143247
912.231658,-9474.636058,-1628.453072,-689.485948
912.231978,-9474.636058,-1924.535449,-689.485948
912.232299,-9104.533087,-2368.659014,-1225.752797
912.232620,-9252.574275,-2442.679609,-1455.581446
912.232940,-9252.574275,-2960.823768,-1762.019645
912.233261,-9252.574275,-3256.906145,-2451.505594
912.233582,-9400.615463,-3108.864956,-2604.724693
912.233902,-9474.636058,-3404.947333,-3217.601092
912.234223,-9474.636058,-3478.967927,-3524.039291
912.234544,-9474.636058,-3552.988522,-4136.915689
912.234864,-9474.636058,-3701.029710,-4213.525239
912.235185,-9696.697840,-3997.112087,-4060.306139
912.235506,-9696.697840,-3552.988522,-3600.648841
912.235826,-9622.677246,-3849.070898,-3753.867940
912.236147,-9844.739029,-4219.173869,-2911.162892
912.236468,-9548.656652,-4441.235652,-2987.772442
912.236788,-9770.718434,-4219.173869,-2987.772442
912.237109,-9474.636058,-3923.091493,-2298.286494
912.237430,-9918.759623,-3552.988522,-2451.505594
912.237750,-9474.636058,-3552.988522,-2221.676944
912.238071,-10140.821405,-2516.700203,-2604.724693
912.238391,-9474.636058,-2812.782580,-2604.724693
912.238712,-9622.677246,-2812.782580,-2145.067394
912.239033,-9918.759623,-2664.741391,-2068.457845
912.239353,-9400.615463,-1998.556043,-1915.238745
912.239674,-9918.759623,-2738.761985,-1225.752797
912.239995,-10436.903782,-2664.741391,-153.219100
912.240315,-10584.944971,-2738.761985,536.266849
912.240636,-10732.986159,-3330.926739,1685.410096
912.240957,-10584.944971,-3404.947333,1762.019645
912.241277,-10214.842000,-3627.009116,2221.676944
912.241598,-9622.677246,-3256.906145,1915.238745
912.241919,-9178.553681,-2960.823768,1072.533697
912.242239,-9030.512492,-3182.885551,153.219100
912.242560,-8808.450710,-2738.761985,229.828649
912.242881,-8808.450710,-3404.947333,-919.314598
912.243201,-8882.471304,-3256.906145,-1149.143247
912.243522,-9770.718434,-2590.720797,-1455.581446
912.243843,-9918.759623,-3627.009116,-612.876398
912.244163,-9918.759623,-3923.091493,-153.219100
912.244484,-10066.800811,-3701.029710,-536.266849
912.244805,-10066.800811,-3256.906145,-306.438199
912.245125,-9992.780217,-2886.803174,0.000000
912.245446,-9770.718434,-1776.494261,536.266849
912.245767,-9844.739029,-1850.514855,383.047749
912.246087,-9030.512492,-1480.411884,612.876398
912.246408,-9326.594869,-1332.370696,229.828649
912.246729,-9252.574275,-962.267725,919.314598
912.247049,-9400.615463,-518.144159,689.485948
912.247370,-9030.512492,-592.164754,0.000000
912.247691,-8586.388927,-592.164754,-1455.581446
912.248011,-8808.450710,-1258.350101,-2681.334243
912.248332,-8882.471304,-1480.411884,-3217.601092
912.248653,-9326.594869,-2146.597232,-3600.648841
912.248973,-9770.718434,-1554.432478,-3983.696590
912.249294,-10362.883188,-2146.597232,-3753.867940
912.249615,-10732.986159,-1776.494261,-4136.915689
912.249935,-10436.903782,-1554.432478,-3524.039291
912.250256,-10807.006753,-814.226536,-1915.238745
912.250577,-10288.862594,-1628.453072,-995.924147
912.250897,-10510.924376,-1702.473667,-229.828649
912.251218,-9918.759623,-2146.597232,-689.485948
912.251539,-8956.491898,-2220.617826,-1532.190996
912.251859,-8882.471304,-666.185348,-3140.991542
912.252180,-8142.265362,-148.041188,-2451.505594
912.252501,-7920.203579,74.020594,-2451.505594
912.252821,-7846.182985,-148.041188,-2987.772442
912.253142,-8660.409521,-1406.391290,-2834.553343
912.253463,-9400.615463,-2664.741391,-2068.457845
912.253783,-10955.047942,-2664.741391,-1685.410096
912.254104,-11325.150913,-2146.597232,-153.219100
912.254425,-11473.192101,-1776.494261,689.485948
912.254745,-11325.150913,-1776.494261,995.924147
912.255066,-11177.109724,-2220.617826,383.047749
912.255387,-9918.759623,-2516.700203,-612.876398
912.255707,-9252.574275,-2664.741391,-1149.143247
912.256028,-8956.491898,-2294.638420,-1608.800546
912.256349,-7846.182985,-3627.009116,-1608.800546
912.256669,-7920.203579,-3923.091493,-2068.457845
912.256990,-7994.224174,-3478.967927,-2451.505594
912.257311,-8438.347739,-3108.864956,-1072.533697
912.257631,-9326.594869,-2960.823768,0.000000
912.257952,-10288.862594,-2960.823768,1532.190996
912.258273,-10732.986159,-3478.967927,1685.410096
912.258593,-10584.944971,-4071.132681,229.828649
912.258914,-10584.944971,-3701.029710,-383.047749
912.259235,-10436.903782,-2960.823768,229.828649
912.259555,-9918.759623,-3256.906145,76.609550
912.259876,-8882.471304,-3034.844362,-1149.143247
912.260197,-7624.121203,-2960.823768,-2068.457845
912.260517,-9030.512492,-1036.288319,-689.485948
912.260838,-10066.800811,-888.247130,1532.190996
912.261159,-10658.965565,-1850.514855,2374.896044
912.261479,-9474.636058,-2960.823768,383.047749
912.261800,-8586.388927,-2738.761985,-306.438199
912.262121,-9252.574275,-2590.720797,-229.828649
912.262441,-9474.636058,-2368.659014,612.876398
912.262762,-9992.780217,-2812.782580,-1072.533697
912.263083,-8660.409521,-2146.597232,-2911.162892
912.263403,-9474.636058,-1480.411884,-2604.724693
912.263724,-10510.924376,-1036.288319,-612.876398
912.264045,-11251.130318,-2368.659014,0.000000
912.264365,-10436.903782,-1850.514855,-2298.286494
912.264686,-9474.636058,-2442.679609,-2221.676944
912.265007,-9252.574275,-1924.535449,-2068.457845
912.265327,-9474.636058,-1036.288319,-153.219100
912.265648,-10066.800811,-592.164754,-612.876398
912.265969,-9030.512492,444.123565,536.266849
912.266289,-9474.636058,370.102971,995.924147
912.266610,-9770.718434,0.000000,1838.629195
912.266931,-10140.821405,-962.267725,1378.971896
912.267251,-9622.677246,-814.226536,612.876398
912.267572,-8586.388927,-740.205942,229.828649
912.267892,-8142.265362,-1036.288319,-766.095498
912.268213,-9178.553681,-1110.308913,-536.266849
912.268534,-9178.553681,-222.061783,-612.876398
912.268854,-9992.780217,0.000000,-612.876398
912.269175,-10436.903782,666.185348,153.219100
912.269496,-11103.089130,666.185348,459.657299
912.269816,-11029.068536,1332.370696,689.485948
912.270137,-10807.006753,444.123565,2298.286494
912.270458,-9770.718434,-148.041188,2604.724693
912.270778,-9474.636058,0.000000,2451.505594
912.271099,-9400.615463,1110.308913,3294.210641
912.271420,-9622.677246,1184.329507,3907.087040
912.271740,-8956.491898,666.185348,3447.429741
912.272061,-8512.368333,740.205942,1378.971896
912.272382,-8438.347739,1776.494261,766.095498
912.272702,-9326.594869,1110.308913,1149.143247
912.273023,-8808.450710,-222.061783,1149.143247
912.273344,-9400.615463,-1628.453072,153.219100
912.273664,-9474.636058,-962.267725,306.438199
912.273985,-10881.027347,-518.144159,1608.800546
912.274306,-11399.171507,-370.102971,2451.505594
912.274626,-11029.068536,74.020594,2451.505594
912.274947,-10362.883188,592.164754,1532.190996
912.275264,-9918.759623,1036.288319,2145.067394
912.275585,-9474.636058,-222.061783,2374.896044
912.275906,-9030.512492,-592.164754,2681.334243
912.276227,-8438.347739,-296.082377,3064.381992
912.276547,-8734.430116,-1332.370696,3140.991542
912.276868,-8290.306550,-370.102971,3447.429741
912.277189,-9548.656652,0.000000,1302.362347
912.277510,-8512.368333,1850.514855,842.705048
912.277830,-9252.574275,1850.514855,766.095498
912.278151,-9104.533087,444.123565,-153.219100
912.278472,-9918.759623,-1258.350101,-1455.581446
912.278792,-9992.780217,-962.267725,-995.924147
912.279113,-10658.965565,-1480.411884,76.609550
912.279434,-10658.965565,-1332.370696,919.314598
912.279755,-10881.027347,-740.205942,995.924147
912.280075,-10288.862594,0.000000,612.876398
912.280396,-9474.636058,0.000000,842.705048
912.280717,-8660.409521,-962.267725,766.095498
912.281038,-8734.430116,-1184.329507,1072.533697
912.281358,-9030.512492,-222.061783,1838.629195
912.281679,-8882.471304,-740.205942,2145.067394
912.282000,-8660.409521,-1110.308913,1378.971896
912.282320,-9326.594869,74.020594,306.438199
912.282641,-9474.636058,1406.391290,536.266849
912.282962,-10658.965565,0.000000,1149.143247
912.283283,-9696.697840,-1998.556043,0.000000
912.283603,-9474.636058,-2294.638420,-919.314598
912.283924,-9844.739029,-1850.514855,0.000000
912.284245,-10436.903782,-1702.473667,383.047749
912.284566,-11399.171507,-1554.432478,1149.143247
912.284886,-9622.677246,-296.082377,0.000000
912.285207,-9474.636058,-370.102971,0.000000
912.285528,-9178.553681,-962.267725,1072.533697
912.285848,-9474.636058,-1998.556043,1915.238745
912.286169,-9474.636058,-1036.288319,2604.724693
912.286490,-9474.636058,-592.164754,3524.039291
912.286811,-8586.388927,-518.144159,4060.306139
912.287131,-9474.636058,-1332.370696,3217.601092
912.287452,-9770.718434,-740.205942,1991.848295
912.287773,-9252.574275,-444.123565,1455.581446
912.288094,-8438.347739,-1628.453072,536.266849
912.288414,-9252.574275,-2146.597232,-459.657299
912.288735,-9474.636058,-1036.288319,-612.876398
912.289056,-10881.027347,0.000000,1072.533697
912.289376,-11029.068536,-592.164754,2451.505594
912.289697,-10584.944971,-1480.411884,1378.971896
912.290018,-10214.842000,-888.247130,689.485948
912.290339,-9992.780217,74.020594,1532.190996
912.290659,-9326.594869,-222.061783,1991.848295
912.290980,-8142.265362,-370.102971,1149.143247
912.291301,-7624.121203,962.267725,459.657299
912.291622,-8586.388927,1850.514855,1302.362347
912.291942,-9030.512492,1110.308913,2604.724693
912.292263,-8068.244768,-592.164754,2145.067394
912.292584,-9474.636058,-370.102971,1225.752797
912.292904,-9548.656652,0.000000,612.876398
912.293225,-10066.800811,-148.041188,842.705048
912.293546,-10066.800811,-592.164754,-76.609550
912.293867,-9992.780217,370.102971,229.828649
912.294187,-10288.862594,1258.350101,612.876398
912.294508,-10658.965565,666.185348,766.095498
912.294829,-10955.047942,1036.288319,153.219100
912.295150,-10584.944971,1480.411884,306.438199
912.295470,-9474.636058,1554.432478,536.266849
912.295791,-9844.739029,444.123565,689.485948
912.296112,-9548.656652,740.205942,1302.362347
912.296432,-9992.780217,2368.659014,1915.238745
912.296753,-10066.800811,2368.659014,3600.648841
912.297074,-9918.759623,962.267725,3217.601092
912.297395,-9474.636058,0.000000,1072.533697
912.297715,-9030.512492,740.205942,-383.047749
912.298036,-8808.450710,-296.082377,0.000000
912.298357,-8364.327145,-370.102971,306.438199
912.298678,-10436.903782,-2442.679609,-919.314598
912.298998,-8956.491898,222.061783,-153.219100
912.299319,-10510.924376,-1036.288319,995.924147
912.299640,-10288.862594,-222.061783,2451.505594
912.299960,-9844.739029,-1480.411884,1225.752797
912.300281,-10288.862594,-888.247130,1149.143247
912.300602,-8808.450710,-888.247130,76.609550
912.300923,-8586.388927,-1702.473667,919.314598
912.301243,-8660.409521,-740.205942,2987.772442
912.301564,-8290.306550,-370.102971,2681.334243
912.301885,-8808.450710,-296.082377,3064.381992
912.302206,-8660.409521,-370.102971,2451.505594
912.302526,-8068.244768,0.000000,842.705048
912.302847,-9400.615463,740.205942,766.095498
912.303168,-8808.450710,74.020594,842.705048
912.303488,-8586.388927,-1258.350101,76.609550
912.303809,-9548.656652,-1628.453072,-536.266849
912.304130,-9770.718434,-1184.329507,-76.609550
912.304451,-10584.944971,-1184.329507,1532.190996
912.304771,-11103.089130,-1554.432478,1225.752797
912.305092,-10214.842000,-518.144159,229.828649
912.305413,-9548.656652,518.144159,-153.219100
912.305734,-8734.430116,-296.082377,-306.438199
912.306054,-9474.636058,-518.144159,1149.143247
912.306375,-8734.430116,-592.164754,919.314598
912.306696,-9696.697840,-296.082377,2451.505594
912.307016,-10510.924376,-888.247130,3600.648841
912.307337,-10436.903782,-2146.597232,2221.676944
912.307658,-10436.903782,-1258.350101,1302.362347
912.307979,-10362.883188,-444.123565,612.876398
912.308299,-9548.656652,-592.164754,536.266849
912.308620,-9770.718434,-1998.556043,-229.828649
912.308941,-9104.533087,-1850.514855,-1685.410096
912.309262,-9770.718434,-1702.473667,-1072.533697
912.309582,-10584.944971,-1332.370696,612.876398
912.309903,-10510.924376,-1110.308913,919.314598
912.310224,-10510.924376,-148.041188,1302.362347
912.310544,-10436.903782,-222.061783,1302.362347
912.310865,-9252.574275,-888.247130,1915.238745
912.311186,-9400.615463,-1480.411884,1762.019645
912.311507,-9252.574275,-296.082377,2145.067394
912.311827,-9104.533087,-222.061783,2911.162892
912.312148,-8808.450710,-962.267725,2374.896044
912.312469,-8660.409521,-518.144159,76.609550
912.312790,-8734.430116,888.247130,-459.657299
912.313110,-10066.800811,1554.432478,-689.485948
912.313431,-9104.533087,74.020594,0.000000
912.313752,-9622.677246,-1406.391290,-153.219100
912.314072,-9844.739029,-1480.411884,76.609550
912.314393,-10436.903782,-962.267725,919.314598
912.314714,-10955.047942,-592.164754,2451.505594
912.315035,-10807.006753,-518.144159,1838.629195
912.315355,-9770.718434,888.247130,1608.800546
912.315676,-9400.615463,74.020594,153.219100
912.315997,-7846.182985,888.247130,-1149.143247
912.316318,-8734.430116,0.000000,612.876398
912.316638,-8586.388927,666.185348,1915.238745
912.316959,-8956.491898,0.000000,2451.505594
912.317280,-9696.697840,-1184.329507,1762.019645
912.317600,-9252.574275,-518.144159,2221.676944
912.317921,-9844.739029,814.226536,306.438199
912.318242,-10214.842000,1110.308913,1225.752797
912.318563,-10658.965565,222.061783,1915.238745
912.318883,-10807.006753,-296.082377,842.705048
912.319204,-11029.068536,-296.082377,1149.143247
912.319525,-11177.109724,-518.144159,2298.286494
912.319846,-10955.047942,-814.226536,2528.115143
912.320166,-10140.821405,888.247130,1762.019645
912.320487,-9178.553681,1258.350101,0.000000
912.320808,-8438.347739,962.267725,0.000000
912.321128,-7624.121203,888.247130,-536.266849
912.321449,-8512.368333,740.205942,-153.219100
912.321770,-9326.594869,962.267725,1685.410096
912.322091,-9622.677246,-666.185348,2987.772442
912.322411,-9770.718434,-1554.432478,2298.286494
912.322732,-9696.697840,-1036.288319,995.924147
912.323053,-10658.965565,222.061783,1762.019645
912.323374,-10288.862594,592.164754,1762.019645
912.323694,-9696.697840,-148.041188,919.314598
912.324015,-9252.574275,-962.267725,-536.266849
912.324336,-8808.450710,-814.226536,-842.705048
912.324656,-9178.553681,-962.267725,1608.800546
912.324977,-9548.656652,-2146.597232,306.438199
912.325298,-8734.430116,518.144159,919.314598
912.325619,-9918.759623,-296.082377,1302.362347
912.325939,-8882.471304,-1258.350101,3600.648841
912.326260,-10140.821405,-1036.288319,2374.896044
912.326581,-9696.697840,0.000000,3294.210641
912.326902,-9918.759623,0.000000,3370.820191
912.327222,-10362.883188,222.061783,3524.039291
912.327543,-10584.944971,148.041188,1608.800546
912.327864,-9252.574275,1036.288319,-306.438199
912.328184,-9326.594869,888.247130,-919.314598
912.328505,-8142.265362,592.164754,-1302.362347
912.328826,-8808.450710,-518.144159,-1991.848295
912.329147,-8808.450710,-814.226536,-1532.190996
912.329467,-9696.697840,-1036.288319,153.219100
912.329788,-10658.965565,-1628.453072,2068.457845
912.330109,-10881.027347,-1850.514855,2451.505594
912.330430,-10436.903782,-740.205942,1762.019645
912.330750,-9622.677246,-370.102971,1225.752797
912.331071,-8512.368333,-148.041188,995.924147
912.331392,-8734.430116,-814.226536,459.657299
912.331712,-8734.430116,-740.205942,1149.143247
912.332033,-8882.471304,-1480.411884,1455.581446
912.332354,-8882.471304,-2812.782580,1378.971896
912.332675,-9474.636058,-2886.803174,0.000000
912.332995,-9696.697840,-740.205942,153.219100
912.333316,-10436.903782,-370.102971,-306.438199
912.333637,-8734.430116,592.164754,612.876398
912.333958,-9474.636058,-1110.308913,0.000000
912.334278,-9474.636058,-2146.597232,-689.485948
912.334599,-10066.800811,-2516.700203,766.095498
912.334920,-10436.903782,-2072.576638,1685.410096
912.335240,-9770.718434,-444.123565,1532.190996
912.335561,-10214.842000,1110.308913,1685.410096
912.335882,-9622.677246,1110.308913,1838.629195
912.336203,-9178.553681,518.144159,1225.752797
912.336523,-9622.677246,-296.082377,1685.410096
912.336844,-9548.656652,222.061783,2451.505594
912.337165,-10436.903782,-1184.329507,1762.019645
912.337486,-10066.800811,-814.226536,2757.943793
912.337806,-9770.718434,-888.247130,842.705048
912.338127,-9030.512492,370.102971,459.657299
912.338448,-9178.553681,-222.061783,-1072.533697
912.338768,-9030.512492,0.000000,0.000000
912.339089,-9844.739029,-370.102971,-383.047749
912.339410,-10066.800811,0.000000,306.438199
912.339731,-10955.047942,-962.267725,1838.629195
912.340051,-10732.986159,-1776.494261,2298.286494
912.340372,-10436.903782,-814.226536,2145.067394
912.340693,-10140.821405,296.082377,1991.848295
912.341014,-9474.636058,222.061783,1762.019645
912.341334,-9104.533087,370.102971,2068.457845
912.341655,-8808.450710,740.205942,1455.581446
912.341976,-9252.574275,518.144159,1762.019645
912.342296,-9252.574275,444.123565,2451.505594
912.342617,-9178.553681,-444.123565,1532.190996
912.342938,-9030.512492,-296.082377,76.609550
912.343259,-9992.780217,1184.329507,229.828649
912.343579,-9548.656652,370.102971,536.266849
912.343900,-9548.656652,-370.102971,0.000000
912.344221,-10214.842000,-148.041188,-766.095498
912.344542,-9770.718434,666.185348,153.219100
912.344862,-10807.006753,0.000000,1762.019645
912.345183,-10436.903782,0.000000,2604.724693
912.345504,-9474.636058,148.041188,1685.410096
912.345824,-9400.615463,74.020594,1072.533697
912.346145,-8068.244768,296.082377,842.705048
912.346466,-8808.450710,-148.041188,1302.362347
912.346787,-9030.512492,888.247130,2145.067394
912.347107,-9474.636058,1036.288319,2681.334243
912.347428,-10066.800811,148.041188,3140.991542
912.347749,-9474.636058,-1258.350101,1225.752797
912.348070,-9622.677246,0.000000,766.095498
912.348390,-10362.883188,814.226536,153.219100
912.348711,-9104.533087,-666.185348,0.000000
912.349032,-9622.677246,-1924.535449,-459.657299
912.349353,-9474.636058,-1332.370696,-995.924147
912.349673,-10807.006753,0.000000,-689.485948
912.349994,-11621.233289,-592.164754,2298.286494
912.350315,-11251.130318,-666.185348,2604.724693
912.350635,-10732.986159,-666.185348,2068.457845
912.350956,-9918.759623,-592.164754,1838.629195
912.351277,-9326.594869,-1184.329507,2145.067394
912.351598,-8882.471304,-888.247130,1762.019645
912.351918,-7624.121203,-222.061783,459.657299
912.352239,-8290.306550,296.082377,1225.752797
912.352560,-9104.533087,74.020594,306.438199
912.352881,-9030.512492,-518.144159,153.219100
912.353201,-9400.615463,518.144159,-306.438199
912.353522,-9622.677246,666.185348,0.000000
912.353843,-9622.677246,-1258.350101,-919.314598
912.354163,-10658.965565,-1628.453072,306.438199
912.354484,-9400.615463,-962.267725,229.828649
912.354805,-10732.986159,-1924.535449,1455.581446
912.355126,-10066.800811,-1998.556043,1991.848295
912.355446,-9548.656652,-1776.494261,1685.410096
912.355767,-9474.636058,0.000000,1072.533697
912.356088,-8882.471304,222.061783,2068.457845
912.356409,-8290.306550,-222.061783,1455.581446
912.356729,-9030.512492,-666.185348,612.876398
912.357050,-8956.491898,0.000000,1762.019645
912.357371,-9178.553681,-370.102971,2987.772442
912.357691,-9326.594869,-1628.453072,2451.505594
912.358012,-9992.780217,-148.041188,229.828649
912.358333,-9548.656652,-444.123565,0.000000
912.358654,-9474.636058,-296.082377,-153.219100
912.358974,-9178.553681,-888.247130,-842.705048
912.359295,-9622.677246,-1480.411884,-1455.581446
912.359616,-9918.759623,-1110.308913,-919.314598
912.359937,-10510.924376,-814.226536,995.924147
912.360257,-10881.027347,-2072.576638,2068.457845
912.360578,-10584.944971,-1924.535449,1302.362347
912.360899,-9548.656652,-666.185348,612.876398
912.361219,-9252.574275,0.000000,306.438199
912.361540,-8882.471304,296.082377,995.924147
912.361861,-8364.327145,1184.329507,1225.752797
912.362182,-9104.533087,740.205942,2221.676944
912.362502,-9474.636058,74.020594,2604.724693
912.362823,-10510.924376,-1850.514855,1685.410096
912.363144,-9770.718434,-592.164754,1225.752797
912.363465,-11103.089130,148.041188,1302.362347
912.363785,-10362.883188,666.185348,1378.971896
912.364106,-9992.780217,-74.020594,689.485948
912.364427,-9622.677246,-370.102971,-1072.533697
912.364747,-9622.677246,148.041188,-689.485948
912.365068,-10732.986159,74.020594,919.314598
912.365389,-10510.924376,-518.144159,1685.410096
912.365710,-9770.718434,222.061783,1225.752797
912.366030,-9918.759623,1184.329507,1838.629195
912.366351,-9030.512492,-740.205942,2451.505594
912.366672,-9992.780217,-740.205942,3294.210641
912.366993,-9030.512492,222.061783,3447.429741
912.367313,-9696.697840,296.082377,3370.820191
912.367634,-9548.656652,666.185348,3830.477490
912.367955,-9104.533087,-444.123565,2068.457845
912.368275,-8956.491898,370.102971,229.828649
912.368596,-8216.285956,962.267725,-536.266849
912.368917,-9030.512492,-296.082377,-536.266849
912.369238,-9326.594869,-1184.329507,-459.657299
912.369558,-9474.636058,-1850.514855,-1378.971896
912.369879,-10362.883188,-740.205942,153.219100
912.370200,-11251.130318,-888.247130,1838.629195
912.370521,-10214.842000,444.123565,1225.752797
912.370841,-11103.089130,74.020594,1762.019645
912.371162,-9548.656652,370.102971,1762.019645
912.371483,-8512.368333,-148.041188,1225.752797
912.371803,-8734.430116,-740.205942,1302.362347
912.372124,-8512.368333,370.102971,1378.971896
912.372445,-8882.471304,296.082377,2528.115143
912.372766,-9400.615463,-518.144159,2451.505594
912.373086,-8882.471304,-1110.308913,612.876398
912.373407,-8882.471304,-518.144159,229.828649
912.373728,-9548.656652,148.041188,-306.438199
912.374049,-9622.677246,-296.082377,0.000000
912.374369,-9474.636058,-1480.411884,-766.095498
912.374690,-9696.697840,-1332.370696,995.924147
912.375011,-10140.821405,-1110.308913,-153.219100
912.375332,-11029.068536,-1258.350101,1378.971896
912.375653,-11177.109724,-1258.350101,1608.800546
912.375974,-9992.780217,74.020594,919.314598
912.376295,-10288.862594,962.267725,459.657299
912.376616,-9770.718434,1110.308913,2068.457845
912.376937,-9770.718434,740.205942,2757.943793
912.377258,-9548.656652,666.185348,3140.991542
912.377578,-8660.409521,222.061783,3677.258390
912.377899,-9030.512492,-962.267725,1915.238745
912.378220,-9178.553681,-592.164754,536.266849
912.378541,-9326.594869,592.164754,383.047749
912.378862,-9400.615463,370.102971,229.828649
912.379183,-8660.409521,518.144159,1532.190996
912.379504,-11325.150913,-3108.864956,-1838.629195
912.379825,-6735.874072,1036.288319,229.828649
912.380146,-13323.706956,-2294.638420,1378.971896
912.380467,-10140.821405,0.000000,4903.011187
912.380788,-9474.636058,-2220.617826,842.705048
912.381109,-10214.842000,-1036.288319,2068.457845
912.381429,-7624.121203,-1258.350101,0.000000
912.381750,-8956.491898,-518.144159,689.485948
912.382071,-8586.388927,0.000000,3064.381992
912.382392,-8364.327145,222.061783,1991.848295
912.382713,-9400.615463,444.123565,3524.039291
912.383034,-9326.594869,-814.226536,2757.943793
912.383355,-8290.306550,-518.144159,229.828649
912.383676,-10584.944971,-148.041188,842.705048
912.383997,-8438.347739,-518.144159,76.609550
912.384318,-8734.430116,-1184.329507,-995.924147
912.384639,-9474.636058,-1110.308913,-1991.848295
912.384959,-9252.574275,0.000000,-1149.143247
912.385280,-10436.903782,74.020594,459.657299
912.385601,-11103.089130,-1036.288319,919.314598
912.385922,-10214.842000,-518.144159,919.314598
912.386243,-10214.842000,-592.164754,766.095498
912.386564,-9178.553681,0.000000,766.095498
912.386885,-9770.718434,888.247130,1915.238745
912.387206,-9252.574275,1184.329507,2221.676944
912.387527,-9770.718434,1554.432478,2987.772442
912.387848,-9400.615463,444.123565,2528.115143
912.388169,-9918.759623,-1110.308913,919.314598
912.388490,-9548.656652,0.000000,612.876398
912.388810,-8956.491898,148.041188,0.000000
912.389131,-9548.656652,74.020594,-306.438199
912.389452,-9326.594869,-74.020594,-1225.752797
912.389773,-9474.636058,0.000000,-1532.190996
912.390094,-11029.068536,888.247130,612.876398
912.390415,-11251.130318,222.061783,1455.581446
912.390736,-10955.047942,-518.144159,1072.533697
912.391057,-10658.965565,0.000000,612.876398
912.391378,-9918.759623,1036.288319,995.924147
912.391699,-9474.636058,740.205942,1762.019645
912.392020,-9474.636058,444.123565,2681.334243
912.392341,-9326.594869,666.185348,3140.991542
912.392661,-9104.533087,-296.082377,3524.039291
912.392982,-9030.512492,-1332.370696,3983.696590
912.393303,-9104.533087,-1258.350101,2068.457845
912.393624,-8512.368333,222.061783,919.314598
912.393945,-8364.327145,740.205942,459.657299
912.394266,-8438.347739,0.000000,1915.238745
912.394587,-9104.533087,-1628.453072,-153.219100
912.394908,-9030.512492,-1480.411884,-995.924147
912.395229,-10214.842000,-888.247130,459.657299
912.395550,-10807.006753,74.020594,2068.457845
912.395871,-11251.130318,-296.082377,2451.505594
912.396192,-9844.739029,-222.061783,1838.629195
912.396512,-9474.636058,-296.082377,1532.190996
912.396833,-9104.533087,-1036.288319,1838.629195
912.397154,-9178.553681,-1110.308913,2145.067394
912.397475,-8512.368333,-1036.288319,2757.943793
912.397796,-8586.388927,148.041188,3140.991542
912.398117,-9030.512492,-888.247130,2451.505594
912.398438,-8808.450710,74.020594,1149.143247
912.398759,-9400.615463,0.000000,919.314598
912.399080,-9474.636058,-296.082377,919.314598
912.399401,-9622.677246,-1110.308913,766.095498
912.399722,-9696.697840,-1924.535449,-459.657299
912.400043,-10066.800811,-888.247130,0.000000
912.400363,-11399.171507,-814.226536,229.828649
912.400684,-10807.006753,-1258.350101,1149.143247
912.401005,-10436.903782,-1036.288319,0.000000
912.401326,-9918.759623,-296.082377,-229.828649
912.401647,-9252.574275,814.226536,153.219100
912.401968,-9696.697840,370.102971,1608.800546
912.402289,-9622.677246,0.000000,2451.505594
912.402610,-9992.780217,148.041188,1991.848295
912.402931,-9696.697840,-962.267725,2987.772442
912.403252,-9474.636058,-1554.432478,2221.676944
912.403573,-9548.656652,-1110.308913,1225.752797
912.403894,-9696.697840,148.041188,1072.533697
912.404214,-9178.553681,518.144159,153.219100
912.404535,-9326.594869,-666.185348,-766.095498
912.404856,-9844.739029,-1332.370696,-1532.190996
912.405177,-9400.615463,-518.144159,-1302.362347
912.405498,-10436.903782,-296.082377,689.485948
912.405819,-10881.027347,0.000000,766.095498
912.406140,-10362.883188,-296.082377,766.095498
912.406461,-9844.739029,-296.082377,306.438199
912.406782,-8956.491898,-814.226536,0.000000
912.407103,-8660.409521,-1406.391290,766.095498
912.407424,-8956.491898,-518.144159,2298.286494
912.407745,-8586.388927,-296.082377,2451.505594
912.408065,-9030.512492,0.000000,2911.162892
912.408386,-8734.430116,-1258.350101,2145.067394
912.408707,-8660.409521,444.123565,1302.362347
912.409028,-9548.656652,222.061783,1149.143247
912.409349,-8660.409521,-518.144159,842.705048
912.409670,-8882.471304,-1776.494261,-153.219100
912.409991,-9252.574275,-1258.350101,-766.095498
912.410312,-9844.739029,-444.123565,-153.219100
912.410633,-10807.006753,-222.061783,1302.362347
912.410954,-10436.903782,-1036.288319,536.266849
912.411275,-10140.821405,0.000000,0.000000
912.411596,-9696.697840,592.164754,0.000000
912.411916,-9548.656652,-296.082377,612.876398
912.412237,-9844.739029,-222.061783,2068.457845
912.412558,-9770.718434,814.226536,3370.820191
912.412879,-10140.821405,-740.205942,3294.210641
912.413200,-9844.739029,-962.267725,3217.601092
912.413521,-10140.821405,-666.185348,1685.410096
912.413842,-9696.697840,1776.494261,536.266849
912.414163,-9844.739029,1332.370696,1072.533697
912.414484,-9252.574275,740.205942,536.266849
912.414805,-9474.636058,-592.164754,-1072.533697
912.415126,-10140.821405,-962.267725,-689.485948
912.415447,-10362.883188,-444.123565,612.876398
912.415767,-10955.047942,-1258.350101,1455.581446
912.416088,-10510.924376,-444.123565,536.266849
912.416409,-10362.883188,814.226536,76.609550
912.416730,-9918.759623,1184.329507,1149.143247
912.417051,-9474.636058,0.000000,1532.190996
912.417372,-9474.636058,-518.144159,2451.505594
912.417693,-9030.512492,-296.082377,2221.676944
912.418014,-9400.615463,-666.185348,2911.162892
912.418335,-8734.430116,-740.205942,2068.457845
912.418656,-8364.327145,-666.185348,383.047749
912.418977,-7550.100608,1110.308913,0.000000
912.419298,-8290.306550,1332.370696,842.705048
912.419618,-8660.409521,148.041188,153.219100
912.419939,-9326.594869,-1258.350101,0.000000
912.420260,-9992.780217,-740.205942,536.266849
912.420581,-10955.047942,-1036.288319,2068.457845
912.420902,-11769.274478,-962.267725,2298.286494
912.421223,-10510.924376,-666.185348,2374.896044
912.421544,-9474.636058,0.000000,1225.752797
912.421865,-9474.636058,-962.267725,76.609550
912.422186,-8734.430116,-1776.494261,689.485948
912.422507,-8882.471304,-518.144159,1302.362347
912.422828,-9104.533087,-296.082377,2528.115143
912.423149,-9030.512492,-222.061783,2757.943793
912.423469,-9178.553681,-518.144159,3677.258390
912.423790,-9770.718434,-148.041188,1378.971896
912.424111,-9918.759623,666.185348,1455.581446
912.424432,-9844.739029,0.000000,2145.067394
912.424753,-9918.759623,-1110.308913,842.705048
912.425074,-9696.697840,-1554.432478,-536.266849
912.425395,-10955.047942,148.041188,-306.438199
912.425716,-10658.965565,814.226536,919.314598
912.426037,-10436.903782,444.123565,842.705048
912.426358,-10510.924376,444.123565,-536.266849
912.426679,-9696.697840,-74.020594,0.000000
912.427000,-9548.656652,-962.267725,459.657299
912.427320,-9696.697840,-1702.473667,1225.752797
912.427641,-9844.739029,-740.205942,2145.067394
912.427962,-10066.800811,-148.041188,3217.601092
912.428283,-9622.677246,-148.041188,3524.039291
912.428604,-9844.739029,-592.164754,2374.896044
912.428925,-8734.430116,444.123565,1378.971896
912.429246,-9548.656652,222.061783,536.266849
912.429567,-8586.388927,0.000000,459.657299
912.429888,-8882.471304,-1480.411884,-612.876398
912.430209,-8512.368333,-1184.329507,-1302.362347
912.430530,-9992.780217,-592.164754,-1225.752797
912.430851,-9992.780217,-370.102971,766.095498
912.431171,-10584.944971,-1110.308913,995.924147
912.431492,-9844.739029,-296.082377,689.485948
912.431813,-9770.718434,518.144159,2068.457845
912.432134,-9696.697840,-962.267725,1072.533697
912.432455,-9622.677246,-592.164754,2145.067394
912.432776,-9770.718434,74.020594,3064.381992
912.433097,-9622.677246,-1184.329507,2757.943793
912.433418,-7772.162391,-1036.288319,1991.848295
912.433739,-8290.306550,-1480.411884,76.609550
912.434060,-7698.141797,1110.308913,-1149.143247
912.434381,-8956.491898,1554.432478,-153.219100
912.434702,-7328.038826,740.205942,-1685.410096
912.435022,-8586.388927,-296.082377,-1225.752797
912.435343,-9992.780217,-888.247130,-306.438199
912.435664,-10288.862594,-1480.411884,1072.533697
912.435985,-12805.562797,740.205942,2374.896044
912.436306,-10881.027347,-296.082377,2221.676944
912.436627,-10362.883188,962.267725,1455.581446
912.436948,-10436.903782,1480.411884,1302.362347
912.437269,-9030.512492,370.102971,1225.752797
912.437590,-9178.553681,-296.082377,536.266849
912.437911,-9326.594869,-518.144159,1532.190996
912.438232,-9770.718434,-1184.329507,2068.457845
912.438553,-10732.986159,-1628.453072,3217.601092
912.438873,-10362.883188,-1110.308913,2528.115143
912.439194,-10066.800811,1110.308913,1608.800546
912.439515,-10881.027347,1406.391290,1762.019645
912.439836,-10140.821405,888.247130,1685.410096
912.440157,-10214.842000,-296.082377,1072.533697
912.440478,-9030.512492,-1036.288319,-842.705048
912.440799,-9104.533087,-1406.391290,0.000000
912.441120,-9326.594869,-1850.514855,612.876398
912.441441,-9326.594869,-666.185348,0.000000
912.441762,-9622.677246,1480.411884,536.266849
912.442083,-9326.594869,2072.576638,1455.581446
912.442404,-9622.677246,888.247130,2068.457845
912.442724,-9918.759623,592.164754,2604.724693
912.443045,-10288.862594,518.144159,2681.334243
912.443366,-9474.636058,-1554.432478,3217.601092
912.443687,-8586.388927,-2146.597232,2145.067394
912.444008,-8586.388927,-592.164754,689.485948
912.444329,-9030.512492,962.267725,0.000000
912.444650,-8438.347739,2516.700203,1072.533697
912.444971,-9252.574275,740.205942,766.095498
912.445292,-8956.491898,148.041188,-153.219100
912.445613,-9622.677246,-518.144159,0.000000
912.445934,-10288.862594,-962.267725,1378.971896
912.446255,-10140.821405,-1406.391290,1532.190996
912.446575,-9252.574275,-444.123565,612.876398
912.446896,-9400.615463,74.020594,229.828649
912.447217,-8808.450710,0.000000,383.047749
912.447538,-8956.491898,-814.226536,612.876398
912.447859,-9104.533087,-666.185348,1072.533697
912.448180,-9770.718434,-740.205942,1685.410096
912.448501,-10140.821405,-444.123565,3753.867940
912.448822,-10510.924376,-1998.556043,2068.457845
912.449143,-9770.718434,-1258.350101,1225.752797
912.449464,-9992.780217,-740.205942,766.095498
912.449785,-9400.615463,-296.082377,766.095498
912.450106,-9844.739029,-814.226536,76.609550
912.450426,-9622.677246,148.041188,0.000000
912.450747,-10955.047942,444.123565,459.657299
912.451068,-9918.759623,814.226536,1225.752797
912.451389,-9770.718434,-814.226536,1838.629195
912.451710,-10140.821405,0.000000,1532.190996
912.452031,-9770.718434,0.000000,1838.629195
912.452352,-9548.656652,-444.123565,1455.581446
912.452673,-9104.533087,1036.288319,2451.505594
912.452994,-9474.636058,740.205942,2145.067394
912.453315,-9844.739029,296.082377,2528.115143
912.453636,-9474.636058,-296.082377,2145.067394
912.453957,-9474.636058,-1184.329507,1225.752797
912.454277,-9474.636058,-592.164754,383.047749
912.454598,-9548.656652,0.000000,536.266849
912.454919,-9474.636058,-592.164754,689.485948
912.455240,-9030.512492,-1110.308913,306.438199
912.455561,-9474.636058,-370.102971,229.828649
912.455882,-10140.821405,-1184.329507,1149.143247
912.456203,-10510.924376,-962.267725,1991.848295
912.456524,-9918.759623,-1628.453072,2068.457845
912.456845,-9400.615463,-222.061783,3217.601092
912.457166,-9326.594869,-370.102971,919.314598
912.457487,-8808.450710,-962.267725,919.314598
912.457808,-8660.409521,0.000000,919.314598
912.458128,-9030.512492,444.123565,1455.581446
912.458449,-8364.327145,-666.185348,1149.143247
912.458770,-9104.533087,-1480.411884,766.095498
912.459091,-9030.512492,-962.267725,-76.609550
912.459412,-9326.594869,518.144159,-536.266849
912.459733,-9474.636058,1258.350101,-306.438199
912.460054,-9326.594869,148.041188,0.000000
912.460375,-9474.636058,-962.267725,-842.705048
912.460696,-9918.759623,-592.164754,-153.219100
912.461017,-9918.759623,-1332.370696,1455.581446
912.461338,-10807.006753,-1036.288319,1991.848295
912.461659,-10510.924376,-1036.288319,1225.752797
912.461979,-9474.636058,1036.288319,689.485948
912.462300,-9918.759623,592.164754,1302.362347
912.462621,-9474.636058,-222.061783,1455.581446
912.462942,-9548.656652,-666.185348,689.485948
912.463263,-9474.636058,444.123565,1532.190996
912.463584,-10658.965565,-370.102971,2145.067394
912.463905,-9548.656652,-296.082377,2834.553343
912.464226,-9696.697840,-444.123565,536.266849
912.464547,-9622.677246,592.164754,76.609550
912.464868,-9622.677246,592.164754,0.000000
912.465189,-9770.718434,74.020594,459.657299
912.465510,-9918.759623,-1110.308913,-536.266849
912.465830,-9770.718434,222.061783,383.047749
912.466151,-10658.965565,-296.082377,2068.457845
912.466472,-10362.883188,-222.061783,2451.505594
912.466793,-10510.924376,-592.164754,2068.457845
912.467114,-9770.718434,74.020594,1378.971896
912.467435,-8512.368333,444.123565,1685.410096
912.467756,-8956.491898,-518.144159,1608.800546
912.468077,-9030.512492,518.144159,2145.067394
912.468398,-9030.512492,518.144159,2221.676944
912.468719,-9474.636058,0.000000,2757.943793
912.469040,-9400.615463,-1184.329507,1762.019645
912.469361,-9548.656652,-148.041188,536.266849
912.469681,-9252.574275,-444.123565,383.047749
912.470002,-8734.430116,-370.102971,536.266849
912.470323,-9030.512492,-1110.308913,0.000000
912.470644,-8882.471304,-962.267725,0.000000
912.470965,-9770.718434,-740.205942,306.438199
912.471286,-10066.800811,-370.102971,2298.286494
912.471607,-10436.903782,-1258.350101,2068.457845
912.471928,-9622.677246,148.041188,1838.629195
912.472249,-10288.862594,0.000000,2145.067394
912.472570,-9252.574275,370.102971,1762.019645
912.472891,-8882.471304,-666.185348,1225.752797
912.473211,-9252.574275,148.041188,2145.067394
912.473532,-9400.615463,444.123565,2834.553343
912.473853,-10214.842000,-814.226536,2145.067394
912.474174,-9696.697840,-1036.288319,919.314598
912.474495,-9474.636058,-666.185348,-766.095498
912.474816,-9474.636058,518.144159,-383.047749
912.475137,-9252.574275,0.000000,0.000000
912.475458,-9326.594869,-1332.370696,-1072.533697
912.475779,-9474.636058,-1406.391290,-1225.752797
912.476100,-10510.924376,-814.226536,-766.095498
912.476421,-10732.986159,-296.082377,2298.286494
912.476742,-10732.986159,74.020594,1378.971896
912.477062,-11029.068536,740.205942,1838.629195
912.477383,-10066.800811,518.144159,1455.581446
912.477704,-9918.759623,0.000000,1915.238745
912.478025,-10214.842000,296.082377,2068.457845
912.478346,-9992.780217,814.226536,2528.115143
912.478667,-9770.718434,666.185348,2145.067394
912.478988,-9400.615463,296.082377,1915.238745
912.479309,-8808.450710,-444.123565,-689.485948
912.479630,-8290.306550,296.082377,-766.095498
912.479951,-9030.512492,0.000000,-766.095498
912.480271,-8882.471304,-1110.308913,-306.438199
912.480592,-10066.800811,-2294.638420,1149.143247
912.480913,-9622.677246,-1332.370696,0.000000
912.481234,-10658.965565,-1554.432478,2068.457845
912.481555,-11029.068536,-1184.329507,3447.429741
912.481876,-10362.883188,-740.205942,3140.991542
912.482197,-9548.656652,148.041188,1762.019645
912.482518,-8734.430116,-222.061783,1532.190996
912.482839,-7994.224174,-1036.288319,1149.143247
912.483159,-7846.182985,-518.144159,1302.362347
912.483480,-8660.409521,-814.226536,1302.362347
912.483801,-8512.368333,-296.082377,2604.724693
912.484122,-9178.553681,-1110.308913,1838.629195
912.484443,-9622.677246,-888.247130,612.876398
912.484764,-9622.677246,0.000000,-536.266849
912.485085,-9992.780217,666.185348,229.828649
912.485406,-9474.636058,74.020594,689.485948
912.485727,-9918.759623,-1850.514855,-229.828649
912.486047,-9252.574275,-370.102971,0.000000
912.486368,-11103.089130,-1480.411884,1072.533697
912.486689,-10140.821405,-888.247130,689.485948
912.487010,-10658.965565,-222.061783,1302.362347
912.487331,-10066.800811,1110.308913,689.485948
912.487652,-9548.656652,1184.329507,1072.533697
912.487973,-9992.780217,814.226536,1991.848295
912.488294,-9918.759623,518.144159,2298.286494
912.488615,-10584.944971,148.041188,2681.334243
912.488935,-10510.924376,-370.102971,5209.449386
912.489256,-9696.697840,-1110.308913,2068.457845
912.489577,-9252.574275,-1258.350101,-842.705048
912.489898,-8364.327145,0.000000,-1225.752797
912.490219,-8290.306550,1924.535449,-2221.676944
912.490540,-9326.594869,814.226536,-1532.190996
912.490861,-9474.636058,296.082377,-1838.629195
912.491182,-10288.862594,-296.082377,0.000000
912.491503,-10881.027347,-1924.535449,1455.581446
912.491824,-11547.212695,-2590.720797,2451.505594
912.492144,-10288.862594,-888.247130,2911.162892
912.492465,-10807.006753,222.061783,2604.724693
912.492786,-9178.553681,740.205942,2911.162892
912.493107,-8586.388927,444.123565,2221.676944
912.493428,-8068.244768,0.000000,2298.286494
912.493749,-8216.285956,-962.267725,1838.629195
912.494070,-7846.182985,-1184.329507,1838.629195
912.494391,-9104.533087,-2146.597232,1302.362347
912.494712,-8660.409521,74.020594,1302.362347
912.495032,-9844.739029,0.000000,1685.410096
912.495353,-9992.780217,148.041188,2451.505594
912.495674,-10658.965565,-518.144159,1149.143247
912.495995,-10807.006753,0.000000,995.924147
912.496316,-10658.965565,444.123565,1225.752797
912.496637,-10658.965565,962.267725,1685.410096
912.496958,-9992.780217,370.102971,1302.362347
912.497279,-9622.677246,1036.288319,-1072.533697
912.497600,-8586.388927,0.000000,0.000000
912.497920,-8290.306550,-1110.308913,306.438199
912.498241,-9474.636058,-1184.329507,1685.410096
912.498562,-9844.739029,-148.041188,3064.381992
912.498883,-9992.780217,0.000000,3447.429741
912.499204,-9622.677246,-444.123565,2757.943793
912.499525,-9622.677246,-370.102971,1455.581446
912.499846,-9474.636058,-518.144159,306.438199
912.500167,-8660.409521,-666.185348,-766.095498
912.500488,-8586.388927,-2072.576638,-1608.800546
912.500808,-8734.430116,-2146.597232,-2528.115143
912.501129,-9622.677246,-1258.350101,-1991.848295
912.501450,-11399.171507,-518.144159,0.000000
912.501771,-11769.274478,-370.102971,2221.676944
912.502092,-11473.192101,-666.185348,2604.724693
912.502413,-10732.986159,-1776.494261,229.828649
912.502734,-8068.244768,-740.205942,612.876398
912.503055,-11029.068536,-666.185348,1455.581446
912.503376,-8142.265362,370.102971,2911.162892
912.503697,-8586.388927,-148.041188,1838.629195
912.504017,-9844.739029,1406.391290,3447.429741
912.504338,-8438.347739,-370.102971,153.219100
912.504659,-10658.965565,222.061783,1149.143247
912.504980,-9178.553681,1036.288319,689.485948
912.505301,-9474.636058,444.123565,-612.876398
912.505622,-10066.800811,-1554.432478,-229.828649
912.505943,-8734.430116,-1702.473667,-1762.019645
912.506264,-9844.739029,-962.267725,-689.485948
912.506585,-12139.377449,-962.267725,1991.848295
912.506905,-9918.759623,-296.082377,1532.190996
912.507226,-10732.986159,148.041188,766.095498
912.507547,-10436.903782,814.226536,842.705048
912.507868,-8438.347739,0.000000,1685.410096
912.508189,-9030.512492,-1850.514855,2221.676944
912.508510,-8438.347739,-2516.700203,1991.848295
912.508831,-8290.306550,-1332.370696,2451.505594
912.509152,-9548.656652,-1924.535449,3064.381992
912.509473,-8512.368333,-814.226536,1838.629195
912.509793,-9178.553681,888.247130,995.924147
912.510114,-9030.512492,888.247130,229.828649
912.510435,-9252.574275,962.267725,383.047749
912.510756,-9104.533087,-1628.453072,-995.924147
912.511077,-9696.697840,-1850.514855,-1302.362347
912.511398,-10510.924376,-1258.350101,-153.219100
912.511719,-10658.965565,-370.102971,1302.362347
912.512040,-11029.068536,148.041188,1302.362347
912.512361,-10066.800811,2146.597232,1378.971896
912.512681,-9770.718434,962.267725,919.314598
912.513002,-9622.677246,444.123565,2298.286494
912.513323,-9474.636058,-888.247130,2298.286494
912.513644,-9252.574275,-370.102971,3294.210641
912.513965,-10362.883188,-592.164754,4366.744339
912.514286,-8882.471304,-518.144159,3600.648841
912.514607,-9622.677246,-592.164754,1915.238745
912.514928,-8364.327145,296.082377,459.657299
912.515249,-8290.306550,1480.411884,-995.924147
912.515570,-9178.553681,296.082377,-1378.971896
912.515890,-9400.615463,-148.041188,-2298.286494
912.516211,-9104.533087,370.102971,-2068.457845
912.516532,-10955.047942,444.123565,0.000000
912.516853,-10066.800811,0.000000,1915.238745
912.517174,-11621.233289,-962.267725,1685.410096
912.517495,-10436.903782,-888.247130,766.095498
912.517816,-9622.677246,74.020594,1762.019645
912.518137,-10214.842000,222.061783,2757.943793
912.518458,-9474.636058,148.041188,3294.210641
912.518778,-9992.780217,1036.288319,3294.210641
912.519099,-8512.368333,1406.391290,4060.306139
912.519420,-9400.615463,-1406.391290,2451.505594
912.519741,-7772.162391,-1332.370696,383.047749
912.520062,-8956.491898,-444.123565,-612.876398
912.520383,-8438.347739,814.226536,-306.438199
912.520704,-8734.430116,1110.308913,-306.438199
912.521025,-10510.924376,-222.061783,-459.657299
912.521346,-10066.800811,0.000000,-383.047749
912.521666,-11251.130318,-1110.308913,995.924147
912.521987,-11103.089130,-1332.370696,2451.505594
912.522308,-10807.006753,-1924.535449,2604.724693
912.522629,-10288.862594,-888.247130,1072.533697
912.522950,-9474.636058,-296.082377,919.314598
912.523271,-8438.347739,-592.164754,1225.752797
912.523592,-8882.471304,-444.123565,2068.457845
912.523913,-8512.368333,-222.061783,2451.505594
912.524234,-8956.491898,-666.185348,2528.115143
912.524554,-9104.533087,-1554.432478,1838.629195
912.524875,-9030.512492,-962.267725,1378.971896
912.525196,-9474.636058,518.144159,1072.533697
912.525517,-9400.615463,-222.061783,766.095498
912.525838,-9326.594869,-888.247130,-229.828649
912.526159,-9770.718434,-1258.350101,-1149.143247
912.526480,-9918.759623,-1110.308913,-1302.362347
912.526801,-9844.739029,-740.205942,306.438199
912.527122,-10732.986159,-1554.432478,1378.971896
912.527443,-10214.842000,-1924.535449,459.657299
912.527763,-9548.656652,-814.226536,306.438199
912.528084,-9622.677246,-814.226536,1302.362347
912.528405,-9178.553681,-1184.329507,2221.676944
912.528726,-9622.677246,-740.205942,2681.334243
912.529047,-10214.842000,-222.061783,3370.820191
912.529368,-9474.636058,-148.041188,2757.943793
912.529689,-9770.718434,-592.164754,2374.896044
912.530010,-9400.615463,296.082377,1149.143247
912.530331,-9474.636058,1406.391290,306.438199
912.530651,-8808.450710,962.267725,-612.876398
912.530972,-9326.594869,518.144159,-995.924147
912.531293,-9400.615463,-296.082377,-2298.286494
912.531614,-10288.862594,148.041188,-536.266849
912.531935,-11325.150913,-740.205942,1072.533697
912.532256,-10436.903782,-592.164754,536.266849
912.532577,-10658.965565,-222.061783,0.000000
912.532898,-9474.636058,0.000000,-459.657299
912.533219,-8438.347739,74.020594,-229.828649
912.533539,-8660.409521,370.102971,842.705048
912.533860,-8512.368333,518.144159,1608.800546
912.534181,-8956.491898,-518.144159,1762.019645
912.534502,-9030.512492,-592.164754,2604.724693
912.534823,-9178.553681,-1406.391290,1378.971896
912.535144,-9770.718434,-1036.288319,2068.457845
912.535465,-9622.677246,0.000000,2068.457845
912.535786,-9252.574275,-666.185348,1455.581446
912.536107,-9474.636058,-1332.370696,0.000000
912.536427,-9252.574275,-1332.370696,-306.438199
912.536748,-9918.759623,-888.247130,0.000000
912.537069,-10066.800811,-518.144159,689.485948
912.537390,-9548.656652,370.102971,536.266849
912.537711,-10362.883188,740.205942,229.828649
912.538032,-8216.285956,2368.659014,1685.410096
912.538353,-10510.924376,0.000000,2221.676944
912.538674,-9992.780217,1036.288319,3524.039291
912.538995,-10436.903782,1184.329507,4749.792088
912.539316,-10066.800811,-2368.659014,3524.039291
912.539636,-8882.471304,-1332.370696,3294.210641
912.539957,-9474.636058,-1184.329507,1455.581446
912.540278,-8660.409521,1332.370696,842.705048
912.540599,-9178.553681,1628.453072,0.000000
912.540920,-8956.491898,814.226536,153.219100
912.541241,-9326.594869,-444.123565,-1302.362347
912.541562,-10362.883188,-592.164754,-1072.533697
912.541883,-10955.047942,-888.247130,1302.362347
912.542204,-11399.171507,-1850.514855,1455.581446
912.542524,-10881.027347,-1332.370696,766.095498
912.542845,-10288.862594,0.000000,306.438199
912.543166,-9696.697840,222.061783,0.000000
912.543487,-9400.615463,-222.061783,1302.362347
912.543808,-9400.615463,148.041188,1455.581446
912.544129,-8734.430116,148.041188,1455.581446
912.544450,-9252.574275,222.061783,2145.067394
912.544771,-9400.615463,148.041188,2298.286494
912.545092,-9400.615463,148.041188,1302.362347
912.545412,-9474.636058,0.000000,1072.533697
912.545733,-9030.512492,-592.164754,229.828649
912.546054,-9474.636058,-1776.494261,-842.705048
912.546375,-9770.718434,-1406.391290,-1072.533697
912.546696,-10288.862594,0.000000,-766.095498
912.547017,-10140.821405,592.164754,842.705048
912.547338,-10362.883188,0.000000,995.924147
912.547659,-9918.759623,666.185348,383.047749
912.547980,-9992.780217,74.020594,689.485948
912.548300,-9474.636058,-666.185348,1225.752797
912.548621,-9030.512492,-1702.473667,1991.848295
912.548942,-9548.656652,-296.082377,2374.896044
912.549263,-9622.677246,148.041188,2757.943793
912.549584,-9178.553681,0.000000,3370.820191
912.549905,-8586.388927,-888.247130,2145.067394
912.550226,-8438.347739,-1258.350101,1455.581446
912.550547,-8660.409521,-1480.411884,0.000000
912.550868,-8438.347739,-1998.556043,-383.047749
912.551188,-8660.409521,-2886.803174,-459.657299
912.551509,-9178.553681,-2072.576638,-306.438199
912.551830,-10658.965565,-1036.288319,1455.581446
912.552151,-11843.295072,-444.123565,3370.820191
912.552472,-11843.295072,-592.164754,2987.772442
912.552793,-11695.253884,-740.205942,2374.896044
912.553114,-10658.965565,-222.061783,2451.505594
912.553435,-9474.636058,-1480.411884,1532.190996
912.553756,-9030.512492,-1110.308913,1302.362347
912.554077,-8660.409521,-370.102971,1838.629195
912.554397,-8808.450710,0.000000,3217.601092
912.554718,-9474.636058,-888.247130,1915.238745
912.555039,-9178.553681,370.102971,1072.533697
912.555360,-10066.800811,1480.411884,919.314598
912.555681,-10140.821405,2442.679609,1608.800546
912.556002,-9548.656652,888.247130,1991.848295
912.556323,-10288.862594,-1332.370696,306.438199
912.556644,-10584.944971,-2072.576638,-229.828649
912.556965,-10362.883188,-814.226536,459.657299
912.557285,-9918.759623,-814.226536,306.438199
912.557606,-9474.636058,518.144159,-306.438199
912.557927,-8956.491898,1850.514855,-459.657299
912.558248,-9622.677246,962.267725,-536.266849
912.558569,-7846.182985,740.205942,-766.095498
912.558890,-9252.574275,-1184.329507,1072.533697
912.559211,-10288.862594,-888.247130,3217.601092
912.559532,-9918.759623,-1554.432478,2911.162892
912.559853,-10140.821405,-1332.370696,2757.943793
912.560173,-9178.553681,-1110.308913,1149.143247
912.560494,-8290.306550,0.000000,-689.485948
912.560815,-9326.594869,370.102971,0.000000
912.561136,-8142.265362,-1258.350101,-919.314598
912.561457,-8512.368333,-1702.473667,-1915.238745
912.561778,-9474.636058,-814.226536,-995.924147
912.562099,-10362.883188,-666.185348,536.266849
912.562420,-11029.068536,-148.041188,2221.676944
912.562741,-11473.192101,148.041188,2451.505594
912.563061,-9622.677246,1036.288319,919.314598
912.563382,-9844.739029,592.164754,1455.581446
912.563703,-9474.636058,0.000000,2145.067394
912.564024,-8734.430116,74.020594,2374.896044
912.564345,-7698.141797,-666.185348,1608.800546
912.564666,-8512.368333,-370.102971,2221.676944
912.564987,-8734.430116,-1628.453072,1225.752797
912.565308,-9178.553681,-666.185348,459.657299
912.565629,-9622.677246,814.226536,612.876398
912.565950,-9104.533087,1406.391290,1378.971896
912.566270,-9992.780217,518.144159,459.657299
912.566591,-10066.800811,-222.061783,689.485948
912.566912,-10510.924376,-1258.350101,842.705048
912.567233,-10732.986159,-1998.556043,2145.067394
912.567554,-10510.924376,-2368.659014,1455.581446
912.567875,-9844.739029,-370.102971,919.314598
912.568196,-10584.944971,1110.308913,1532.190996
912.568517,-9326.594869,1554.432478,2221.676944
912.568838,-8882.471304,74.020594,2145.067394
912.569158,-9474.636058,0.000000,1838.629195
912.569479,-9548.656652,-148.041188,2145.067394
912.569800,-10214.842000,-1332.370696,2757.943793
912.570121,-9178.553681,-1554.432478,1762.019645
912.570442,-9252.574275,-296.082377,306.438199
912.570763,-9400.615463,518.144159,-153.219100
912.571084,-9844.739029,740.205942,229.828649
912.571405,-9844.739029,74.020594,0.000000
912.571726,-10362.883188,0.000000,-383.047749
912.572046,-10584.944971,-222.061783,612.876398
912.572367,-10807.006753,-444.123565,2298.286494
912.572688,-10658.965565,-1110.308913,1532.190996
912.573009,-9252.574275,148.041188,766.095498
912.573330,-8586.388927,-148.041188,229.828649
912.573651,-8660.409521,-962.267725,306.438199
912.573972,-8956.491898,-1036.288319,459.657299
912.574293,-8660.409521,0.000000,1608.800546
912.574614,-9474.636058,0.000000,1915.238745
912.574934,-9104.533087,-592.164754,3140.991542
912.575255,-10066.800811,-1554.432478,1915.238745
912.575576,-9548.656652,-444.123565,766.095498
912.575897,-9474.636058,-296.082377,0.000000
912.576218,-9030.512492,-592.164754,229.828649
912.576539,-9104.533087,-1184.329507,-306.438199
912.576860,-9252.574275,-370.102971,-995.924147
912.577180,-9622.677246,-740.205942,-612.876398
912.577501,-10362.883188,-962.267725,1762.019645
912.577822,-9918.759623,-1036.288319,1532.190996
912.578143,-9992.780217,-962.267725,919.314598
912.578463,-10066.800811,148.041188,1762.019645
912.578784,-9252.574275,74.020594,2528.115143
912.579105,-8882.471304,518.144159,2528.115143
912.579426,-9844.739029,-592.164754,2528.115143
912.579746,-8956.491898,-962.267725,2298.286494
912.580067,-9400.615463,-1184.329507,1685.410096
912.580388,-9770.718434,-888.247130,1455.581446
912.580709,-10066.800811,296.082377,1378.971896
912.581029,-10140.821405,0.000000,1378.971896
912.581350,-9400.615463,-296.082377,153.219100
912.581671,-9992.780217,-888.247130,76.609550
912.581992,-10436.903782,-1258.350101,612.876398
912.582312,-9770.718434,-1036.288319,919.314598
912.582633,-10436.903782,-740.205942,536.266849
912.582954,-10288.862594,814.226536,306.438199
912.583275,-9474.636058,1850.514855,-229.828649
912.583595,-9474.636058,2442.679609,919.314598
912.583916,-8734.430116,444.123565,459.657299
912.584237,-8956.491898,74.020594,-229.828649
912.584558,-10066.800811,-444.123565,2145.067394
912.584878,-10362.883188,-1110.308913,3294.210641
912.585199,-10214.842000,-1702.473667,2451.505594
912.585520,-9548.656652,-1184.329507,919.314598
912.585841,-9178.553681,148.041188,-536.266849
912.586161,-9252.574275,518.144159,-383.047749
912.586482,-9030.512492,-740.205942,-766.095498
912.586803,-8956.491898,-1110.308913,-1532.190996
912.587124,-9992.780217,-1702.473667,-306.438199
912.587444,-10214.842000,-962.267725,995.924147
912.587765,-10436.903782,-740.205942,2298.286494
912.588086,-10732.986159,-1406.391290,1532.190996
912.588407,-8068.244768,370.102971,3140.991542
912.588727,-9178.553681,-740.205942,1608.800546
912.589048,-7772.162391,-296.082377,842.705048
912.589369,-9104.533087,444.123565,2145.067394
912.589690,-9400.615463,814.226536,2374.896044
912.590010,-8660.409521,-444.123565,2451.505594
912.590331,-9474.636058,-1480.411884,1532.190996
912.590652,-8660.409521,-814.226536,0.000000
912.590973,-9474.636058,-222.061783,-1072.533697
912.591293,-8586.388927,666.185348,-536.266849
912.591614,-8956.491898,296.082377,-1149.143247
912.591935,-9548.656652,1110.308913,-383.047749
912.592256,-10510.924376,518.144159,995.924147
912.592576,-10881.027347,-148.041188,2757.943793
912.592897,-11251.130318,-1776.494261,2834.553343
912.593218,-10362.883188,-1036.288319,2451.505594
912.593539,-10066.800811,-1110.308913,2528.115143
912.593859,-9474.636058,-814.226536,2374.896044
912.594180,-8734.430116,296.082377,2221.676944
912.594501,-9030.512492,1258.350101,2451.505594
912.594822,-9770.718434,740.205942,2757.943793
912.595142,-9104.533087,0.000000,2604.724693
912.595463,-9474.636058,-592.164754,612.876398
912.595784,-9622.677246,-592.164754,0.000000
912.596105,-8956.491898,-148.041188,76.609550
912.596425,-9474.636058,-962.267725,536.266849
912.596746,-9696.697840,-740.205942,689.485948
912.597067,-10214.842000,-370.102971,0.000000
912.597388,-11251.130318,-296.082377,1455.581446
912.597708,-11325.150913,0.000000,2451.505594
912.598029,-10436.903782,-222.061783,1762.019645
912.598350,-10140.821405,222.061783,1608.800546
912.598671,-8660.409521,666.185348,689.485948
912.598991,-8660.409521,740.205942,1302.362347
912.599312,-8882.471304,0.000000,1608.800546
912.599633,-8586.388927,222.061783,2451.505594
912.599954,-9326.594869,-666.185348,2298.286494
912.600274,-9474.636058,-962.267725,1378.971896
912.600595,-9030.512492,-962.267725,459.657299
912.600916,-9252.574275,814.226536,1915.238745
912.601237,-9474.636058,370.102971,0.000000
912.601557,-9252.574275,-740.205942,-306.438199
912.601878,-9252.574275,-1554.432478,-1455.581446
912.602199,-9770.718434,-1554.432478,-689.485948
912.602520,-10732.986159,-1702.473667,1072.533697
912.602840,-10066.800811,-1480.411884,1915.238745
912.603161,-10362.883188,-1184.329507,1149.143247
912.603482,-9400.615463,0.000000,1762.019645
912.603803,-9178.553681,-962.267725,2911.162892
912.604123,-9030.512492,-1776.494261,2068.457845
912.604444,-8512.368333,-740.205942,1378.971896
912.604765,-9548.656652,-518.144159,2221.676944
912.605086,-9104.533087,-444.123565,2911.162892
912.605406,-9622.677246,-666.185348,1685.410096
912.605727,-9252.574275,-740.205942,0.000000
912.606048,-9326.594869,296.082377,-383.047749
912.606369,-9918.759623,-222.061783,-306.438199
912.606689,-9770.718434,-814.226536,-383.047749
912.607010,-9696.697840,-592.164754,-1302.362347
912.607331,-10214.842000,0.000000,0.000000
912.607651,-10510.924376,-222.061783,1302.362347
912.607972,-10510.924376,-1258.350101,2604.724693
912.608293,-9918.759623,-222.061783,1915.238745
912.608614,-10066.800811,148.041188,2374.896044
912.608934,-10362.883188,592.164754,3370.820191
912.609255,-9844.739029,962.267725,4903.011187
912.609576,-9622.677246,1258.350101,3217.601092
912.609897,-9474.636058,740.205942,3370.820191
912.610217,-9104.533087,-370.102971,2374.896044
912.610538,-9252.574275,-1850.514855,536.266849
912.610859,-7846.182985,-1480.411884,-1378.971896
912.611180,-9030.512492,0.000000,-1149.143247
912.611500,-9474.636058,0.000000,-1302.362347
912.611821,-9622.677246,-296.082377,-842.705048
912.612142,-10214.842000,-296.082377,-229.828649
912.612463,-10881.027347,222.061783,1302.362347
912.612783,-12213.398043,-1184.329507,3140.991542
912.613104,-11029.068536,-1258.350101,2374.896044
912.613425,-10955.047942,1036.288319,2451.505594
912.613746,-9030.512492,1036.288319,1302.362347
912.614066,-7846.182985,0.000000,383.047749
912.614387,-7179.997637,-444.123565,-76.609550
912.614708,-7624.121203,0.000000,0.000000
912.615029,-8068.244768,296.082377,919.314598
912.615349,-9326.594869,-370.102971,1608.800546
912.615670,-9696.697840,-740.205942,1225.752797
912.615991,-10066.800811,666.185348,306.438199
912.616312,-10436.903782,518.144159,1225.752797
912.616632,-9844.739029,0.000000,612.876398
912.616953,-9474.636058,-666.185348,0.000000
912.617274,-9992.780217,-296.082377,-919.314598
912.617595,-9696.697840,0.000000,76.609550
912.617915,-10140.821405,-296.082377,766.095498
912.618236,-9844.739029,-222.061783,1302.362347
912.618557,-9178.553681,518.144159,995.924147
912.618878,-9696.697840,888.247130,1685.410096
912.619198,-8882.471304,1776.494261,3983.696590
912.619519,-10807.006753,-592.164754,3524.039291
912.619840,-9104.533087,-592.164754,3140.991542
912.620161,-9474.636058,-666.185348,3447.429741
912.620481,-10584.944971,-444.123565,4060.306139
912.620802,-9326.594869,-740.205942,1378.971896
912.621123,-9104.533087,296.082377,-536.266849
912.621444,-9696.697840,1184.329507,306.438199
912.621764,-8586.388927,-518.144159,-1762.019645
912.622085,-10658.965565,-740.205942,-536.266849
912.622406,-9474.636058,-888.247130,-1072.533697
912.622727,-11177.109724,-1480.411884,459.657299
912.623047,-11473.192101,-1998.556043,3140.991542
912.623368,-10214.842000,-2220.617826,2068.457845
912.623689,-10436.903782,-1702.473667,1608.800546
912.624010,-9918.759623,-518.144159,2374.896044
912.624330,-8364.327145,-518.144159,1991.848295
912.624651,-8882.471304,-592.164754,3217.601092
912.624972,-9548.656652,-592.164754,2987.772442
912.625293,-8956.491898,-1184.329507,2374.896044
912.625613,-8882.471304,-2146.597232,1225.752797
912.625934,-8956.491898,-1554.432478,-383.047749
912.626255,-9030.512492,0.000000,0.000000
912.626576,-9326.594869,518.144159,0.000000
912.626896,-9770.718434,-296.082377,-383.047749
912.627217,-9474.636058,-1406.391290,-2068.457845
912.627538,-9918.759623,-1406.391290,-766.095498
912.627859,-11029.068536,-1628.453072,1378.971896
912.628179,-10510.924376,-1258.350101,1532.190996
912.628500,-10807.006753,-1332.370696,1378.971896
912.628821,-8586.388927,-296.082377,2374.896044
912.629142,-8882.471304,0.000000,919.314598
912.629462,-9326.594869,-222.061783,1991.848295
912.629783,-8660.409521,0.000000,2604.724693
912.630104,-8882.471304,-370.102971,2221.676944
912.630425,-9252.574275,-1258.350101,2374.896044
912.630745,-8882.471304,-962.267725,842.705048
912.631066,-9030.512492,148.041188,229.828649
912.631387,-9622.677246,1184.329507,383.047749
912.631708,-9622.677246,1036.288319,-229.828649
912.632028,-9030.512492,-592.164754,-1378.971896
912.632349,-10214.842000,-518.144159,-689.485948
912.632670,-11399.171507,-518.144159,0.000000
912.632991,-11473.192101,-444.123565,1838.629195
912.633311,-11103.089130,-518.144159,919.314598
912.633632,-9696.697840,1406.391290,842.705048
912.633953,-10584.944971,222.061783,689.485948
912.634274,-9178.553681,222.061783,1915.238745
912.634594,-9474.636058,-222.061783,1532.190996
912.634915,-9400.615463,370.102971,2298.286494
912.635236,-9770.718434,222.061783,3447.429741
912.635557,-9474.636058,-518.144159,3753.867940
912.635877,-9400.615463,-1110.308913,1685.410096
912.636198,-9178.553681,74.020594,842.705048
912.636519,-9474.636058,444.123565,1225.752797
912.636840,-9178.553681,0.000000,-153.219100
912.637160,-9474.636058,0.000000,-842.705048
912.637481,-9844.739029,222.061783,-1149.143247
912.637802,-9474.636058,74.020594,1072.533697
912.638123,-10584.944971,-1480.411884,689.485948
912.638443,-8586.388927,-1258.350101,306.438199
912.638764,-8290.306550,-1110.308913,153.219100
912.639085,-8734.430116,592.164754,842.705048
912.639406,-9252.574275,814.226536,2757.943793
912.639726,-9252.574275,888.247130,2987.772442
912.640047,-9178.553681,592.164754,4366.744339
912.640368,-10066.800811,-1036.288319,2911.162892
912.640689,-9104.533087,-1776.494261,2451.505594
912.641009,-9178.553681,-666.185348,1225.752797
912.641330,-9252.574275,814.226536,0.000000
912.641651,-8808.450710,2294.638420,0.000000
912.641972,-9474.636058,814.226536,-612.876398
912.642292,-9548.656652,0.000000,-612.876398
912.642613,-10214.842000,-962.267725,-1225.752797
912.642934,-10214.842000,-222.061783,0.000000
912.643255,-10955.047942,-592.164754,1302.362347
912.643575,-10066.800811,-666.185348,1302.362347
912.643896,-9400.615463,-296.082377,919.314598
912.644217,-9548.656652,740.205942,2451.505594
912.644538,-9326.594869,-148.041188,1378.971896
912.644858,-9474.636058,296.082377,2528.115143
912.645179,-9326.594869,592.164754,3294.210641
912.645500,-9696.697840,444.123565,3830.477490
912.645820,-10066.800811,-962.267725,2604.724693
912.646141,-9104.533087,0.000000,1225.752797
912.646462,-9474.636058,0.000000,612.876398
912.646783,-9548.656652,-222.061783,536.266849
912.647103,-9400.615463,-814.226536,-1225.752797
912.647424,-9474.636058,-814.226536,-2911.162892
912.647745,-9548.656652,444.123565,-2298.286494
912.648066,-9844.739029,222.061783,-306.438199
912.648386,-9844.739029,-814.226536,-153.219100
912.648707,-9992.780217,0.000000,383.047749
912.649028,-10510.924376,0.000000,1072.533697
912.649349,-10288.862594,-814.226536,3294.210641
912.649669,-10436.903782,-2072.576638,3830.477490
912.649990,-9770.718434,-1110.308913,5056.230287
912.650311,-10140.821405,-1332.370696,4903.011187
912.650632,-9326.594869,-962.267725,3907.087040
912.650952,-7994.224174,-1850.514855,1608.800546
912.651273,-7550.100608,-518.144159,229.828649
912.651594,-7698.141797,518.144159,-612.876398
912.651915,-8142.265362,0.000000,-306.438199
912.652235,-9104.533087,-1036.288319,-536.266849
912.652556,-9178.553681,-2072.576638,-1302.362347
912.652877,-10510.924376,-1480.411884,842.705048
912.653198,-11621.233289,-1850.514855,2374.896044
912.653518,-11251.130318,-1628.453072,2298.286494
912.653839,-10955.047942,-592.164754,2298.286494
912.654160,-9030.512492,-740.205942,1225.752797
912.654481,-9252.574275,-1332.370696,1149.143247
912.654801,-8660.409521,-962.267725,1455.581446
912.655122,-8956.491898,0.000000,1991.848295
912.655443,-8882.471304,888.247130,2451.505594
912.655764,-9104.533087,296.082377,3447.429741
912.656084,-9474.636058,-1258.350101,1532.190996
912.656405,-9622.677246,0.000000,995.924147
912.656726,-9918.759623,1036.288319,1608.800546
912.657047,-9474.636058,-444.123565,229.828649
912.657367,-9918.759623,-888.247130,-919.314598
912.657688,-10066.800811,-222.061783,-842.705048
912.658009,-10807.006753,592.164754,0.000000
912.658330,-10362.883188,518.144159,383.047749
912.658650,-10214.842000,148.041188,612.876398
912.658971,-9918.759623,888.247130,76.609550
912.659292,-9992.780217,1036.288319,459.657299
912.659613,-9326.594869,-740.205942,842.705048
912.659933,-8882.471304,-592.164754,1838.629195
912.660254,-9400.615463,-1184.329507,2681.334243
912.660575,-9622.677246,-2072.576638,2451.505594
912.660896,-9030.512492,-1702.473667,2451.505594
912.661216,-9030.512492,-1184.329507,536.266849
912.661537,-8734.430116,444.123565,459.657299
912.661858,-9474.636058,444.123565,306.438199
912.662179,-9030.512492,-592.164754,229.828649
912.662499,-9326.594869,-740.205942,-995.924147
912.662820,-9474.636058,518.144159,-919.314598
912.663141,-10658.965565,518.144159,306.438199
912.663462,-10436.903782,148.041188,995.924147
912.663782,-9696.697840,-518.144159,612.876398
912.664103,-9548.656652,-740.205942,0.000000
912.664424,-9104.533087,-1110.308913,383.047749
912.664745,-9548.656652,-1554.432478,1685.410096
912.665065,-10066.800811,444.123565,1302.362347
912.665386,-10066.800811,740.205942,4443.353888
912.665707,-10362.883188,814.226536,4826.401637
912.666028,-10288.862594,222.061783,3830.477490
912.666348,-9474.636058,0.000000,1378.971896
912.666669,-9400.615463,148.041188,383.047749
912.666990,-8660.409521,962.267725,0.000000
912.667311,-8438.347739,74.020594,-1378.971896
912.667631,-8808.450710,148.041188,-1838.629195
912.667952,-9474.636058,222.061783,-995.924147
912.668273,-10584.944971,-666.185348,1225.752797
912.668594,-11103.089130,-1332.370696,1685.410096
912.668914,-10658.965565,-222.061783,1532.190996
912.669235,-10881.027347,592.164754,1838.629195
912.669556,-9622.677246,666.185348,2298.286494
912.669877,-9104.533087,222.061783,2834.553343
912.670197,-8956.491898,-296.082377,2911.162892
912.670518,-8956.491898,-296.082377,2911.162892
912.670839,-9770.718434,-962.267725,2834.553343
912.671160,-9104.533087,-1554.432478,2451.505594
912.671480,-9030.512492,-296.082377,1302.362347
912.671801,-9548.656652,148.041188,842.705048
912.672122,-9326.594869,962.267725,306.438199
912.672443,-9696.697840,-666.185348,-459.657299
912.672763,-10066.800811,-1036.288319,-689.485948
912.673084,-10066.800811,-296.082377,383.047749
912.673405,-11769.274478,-740.205942,842.705048
912.673726,-10140.821405,-370.102971,459.657299
912.674046,-9474.636058,148.041188,-229.828649
912.674367,-9252.574275,-370.102971,-1149.143247
912.674688,-7920.203579,-296.082377,-76.609550
912.675009,-9104.533087,-1850.514855,76.609550
912.675329,-8956.491898,-740.205942,2068.457845
912.675650,-9696.697840,-1332.370696,2451.505594
912.675971,-10066.800811,-1776.494261,3370.820191
912.676291,-8586.388927,-1332.370696,2145.067394
912.676612,-9844.739029,444.123565,1685.410096
912.676933,-9548.656652,888.247130,1685.410096
912.677254,-8586.388927,-148.041188,153.219100
912.677574,-9252.574275,-1998.556043,76.609550
912.677895,-8734.430116,-1776.494261,-1532.190996
912.678216,-10140.821405,-962.267725,-459.657299
912.678536,-11103.089130,-592.164754,995.924147
912.678857,-9696.697840,0.000000,1532.190996
912.679178,-10881.027347,-296.082377,612.876398
912.679498,-9918.759623,148.041188,1762.019645
912.679819,-9918.759623,-814.226536,2451.505594
912.680140,-9400.615463,-1702.473667,2604.724693
912.680460,-8808.450710,-296.082377,2451.505594
912.680781,-9326.594869,-814.226536,2987.772442
912.681102,-9178.553681,-1258.350101,2604.724693
912.681422,-8956.491898,-444.123565,919.314598
912.681743,-9252.574275,518.144159,919.314598
912.682064,-8808.450710,740.205942,612.876398
912.682385,-9844.739029,518.144159,383.047749
912.682705,-10066.800811,222.061783,0.000000
912.683026,-10214.842000,592.164754,-153.219100
912.683347,-11103.089130,222.061783,1302.362347
912.683667,-10362.883188,-370.102971,1685.410096
912.683988,-10066.800811,-666.185348,536.266849
912.684309,-10066.800811,0.000000,689.485948
912.684629,-9030.512492,518.144159,919.314598
912.684950,-9326.594869,-370.102971,1072.533697
912.685271,-8808.450710,592.164754,1838.629195
912.685591,-9252.574275,0.000000,1915.238745
912.685912,-9474.636058,-888.247130,2604.724693
912.686233,-9104.533087,-1776.494261,1225.752797
912.686553,-8956.491898,-1406.391290,383.047749
912.686874,-9252.574275,0.000000,76.609550
912.687195,-9030.512492,1184.329507,459.657299
912.687516,-9696.697840,296.082377,306.438199
912.687836,-9400.615463,0.000000,-306.438199
912.688157,-9770.718434,-592.164754,-612.876398
912.688478,-9326.594869,0.000000,919.314598
912.688798,-10955.047942,-2220.617826,842.705048
912.689119,-8808.450710,-666.185348,153.219100
912.689440,-9844.739029,-222.061783,383.047749
912.689760,-8882.471304,-592.164754,153.219100
912.690081,-8808.450710,148.041188,995.924147
912.690402,-9918.759623,592.164754,3064.381992
912.690722,-9474.636058,0.000000,2298.286494
912.691043,-9770.718434,-666.185348,2987.772442
912.691364,-9474.636058,-2072.576638,995.924147
912.691684,-9252.574275,-444.123565,1225.752797
912.692005,-10066.800811,0.000000,1685.410096
912.692326,-9400.615463,148.041188,2451.505594
912.692647,-9474.636058,-888.247130,0.000000
912.692967,-9548.656652,0.000000,-229.828649
912.693288,-10436.903782,1480.411884,76.609550
912.693609,-10881.027347,666.185348,1302.362347
912.693929,-9918.759623,222.061783,612.876398
912.694250,-9474.636058,0.000000,-536.266849
912.694571,-8586.388927,518.144159,-306.438199
912.694891,-9696.697840,-74.020594,1455.581446
912.695212,-9844.739029,-518.144159,2374.896044
912.695533,-9844.739029,592.164754,3064.381992
912.695853,-10658.965565,0.000000,3370.820191
912.696174,-9474.636058,74.020594,3600.648841
912.696495,-10214.842000,-1332.370696,1608.800546
912.696815,-9770.718434,-296.082377,995.924147
912.697136,-8808.450710,148.041188,0.000000
912.697457,-8660.409521,-222.061783,76.609550
912.697778,-9030.512492,-148.041188,-76.609550
912.698098,-9844.739029,-222.061783,-76.609550
912.698419,-10510.924376,-370.102971,1685.410096
912.698740,-11029.068536,-962.267725,2298.286494
912.699060,-9992.780217,-1258.350101,1149.143247
912.699381,-10140.821405,-666.185348,995.924147
912.699702,-9474.636058,296.082377,1838.629195
912.700022,-9030.512492,-592.164754,1608.800546
912.700343,-8660.409521,-444.123565,1225.752797
912.700664,-8882.471304,-518.144159,1378.971896
912.700984,-9178.553681,-962.267725,1838.629195
912.701305,-9474.636058,-1036.288319,2374.896044
912.701626,-9400.615463,-1406.391290,995.924147
912.701946,-9178.553681,-962.267725,766.095498
912.702267,-9252.574275,-370.102971,842.705048
912.702588,-9400.615463,-740.205942,0.000000
912.702909,-9252.574275,-370.102971,0.000000
912.703229,-10066.800811,-592.164754,-612.876398
912.703550,-9030.512492,-222.061783,76.609550
912.703871,-9844.739029,-888.247130,459.657299
912.704191,-9104.533087,-740.205942,0.000000
912.704512,-8734.430116,-296.082377,76.609550
912.704833,-9844.739029,-666.185348,1149.143247
912.705153,-8586.388927,-148.041188,1915.238745
912.705474,-10436.903782,-370.102971,2604.724693
912.705795,-10362.883188,444.123565,3907.087040
912.706115,-10658.965565,0.000000,4749.792088
912.706436,-10214.842000,-962.267725,2145.067394
912.706757,-9474.636058,-370.102971,229.828649
912.707077,-8956.491898,222.061783,-766.095498
912.707398,-9178.553681,1480.411884,459.657299
912.707719,-9400.615463,-518.144159,-153.219100
912.708040,-9400.615463,-888.247130,-842.705048
912.708360,-10288.862594,-1110.308913,0.000000
912.708681,-11177.109724,-444.123565,1532.190996
912.709002,-10807.006753,-222.061783,2451.505594
912.709322,-10807.006753,740.205942,2221.676944
912.709643,-10732.986159,592.164754,1838.629195
912.709964,-9104.533087,0.000000,766.095498
912.710284,-9178.553681,0.000000,1532.190996
912.710605,-8808.450710,592.164754,1225.752797
912.710926,-10140.821405,-222.061783,2068.457845
912.711246,-9622.677246,-444.123565,2528.115143
912.711567,-9104.533087,-1924.535449,995.924147
912.711888,-8956.491898,-666.185348,-459.657299
912.712208,-9548.656652,-148.041188,0.000000
912.712529,-9770.718434,-222.061783,842.705048
912.712850,-9252.574275,-1110.308913,0.000000
912.713171,-9252.574275,-814.226536,-612.876398
912.713491,-10214.842000,-814.226536,536.266849
912.713812,-10214.842000,-888.247130,1685.410096
912.714133,-10584.944971,-666.185348,1838.629195
912.714453,-9770.718434,814.226536,1838.629195
912.714774,-8660.409521,444.123565,536.266849
912.715095,-8734.430116,-222.061783,995.924147
912.715415,-8660.409521,-370.102971,1532.190996
912.715736,-9474.636058,0.000000,3370.820191
912.716057,-9400.615463,-444.123565,2451.505594
912.716377,-9252.574275,-888.247130,1455.581446
912.716698,-9030.512492,-592.164754,766.095498
912.717019,-9992.780217,0.000000,0.000000
912.717339,-9104.533087,666.185348,612.876398
912.717660,-9622.677246,-666.185348,459.657299
912.717981,-9104.533087,-1332.370696,-612.876398
912.718302,-9844.739029,-1184.329507,-306.438199
912.718622,-9770.718434,-814.226536,1149.143247
912.718943,-10732.986159,-296.082377,2298.286494
912.719264,-9844.739029,-222.061783,1685.410096
912.719584,-9474.636058,518.144159,229.828649
912.719905,-9030.512492,1110.308913,919.314598
912.720226,-9474.636058,0.000000,919.314598
912.720546,-8956.491898,222.061783,2221.676944
912.720867,-9474.636058,-74.020594,2451.505594
912.721188,-9992.780217,-888.247130,3140.991542
912.721508,-10510.924376,-962.267725,4290.134789
912.721829,-10732.986159,-370.102971,2757.943793
912.722150,-9992.780217,222.061783,1302.362347
912.722470,-10288.862594,1258.350101,612.876398
912.722791,-9696.697840,0.000000,-842.705048
912.723112,-9400.615463,-444.123565,-1149.143247
912.723433,-9252.574275,-962.267725,-1378.971896
912.723753,-9252.574275,-888.247130,153.219100
912.724074,-9622.677246,-1332.370696,612.876398
912.724395,-9770.718434,-814.226536,919.314598
912.724715,-9918.759623,666.185348,1991.848295
912.725036,-10214.842000,444.123565,2911.162892
912.725357,-9474.636058,0.000000,2604.724693
912.725677,-9178.553681,-444.123565,2528.115143
912.725998,-9326.594869,-888.247130,2221.676944
912.726319,-8882.471304,-1258.350101,1838.629195
912.726639,-8808.450710,-962.267725,1149.143247
912.726960,-8290.306550,-962.267725,536.266849
912.727281,-8438.347739,0.000000,-842.705048
912.727601,-9474.636058,-222.061783,-383.047749
912.727922,-9178.553681,-1110.308913,-1225.752797
912.728243,-9474.636058,-962.267725,-1225.752797
912.728563,-10510.924376,-1184.329507,0.000000
912.728884,-11621.233289,-814.226536,2145.067394
912.729205,-11399.171507,-1332.370696,3140.991542
912.729526,-10807.006753,-888.247130,2374.896044
912.729846,-9696.697840,74.020594,1915.238745
912.730167,-9400.615463,74.020594,1762.019645
912.730488,-8734.430116,-888.247130,919.314598
912.730808,-7772.162391,444.123565,1302.362347
912.731129,-8882.471304,518.144159,1225.752797
912.731450,-9474.636058,-518.144159,1608.800546
912.731770,-8364.327145,-1258.350101,919.314598
912.732091,-9918.759623,-1406.391290,0.000000
912.732412,-10066.800811,0.000000,383.047749
912.732732,-10584.944971,148.041188,1072.533697
912.733053,-10881.027347,74.020594,1149.143247
912.733374,-10436.903782,0.000000,0.000000
912.733694,-10658.965565,222.061783,766.095498
912.734015,-10732.986159,74.020594,1302.362347
912.734336,-10584.944971,-888.247130,1225.752797
912.734657,-9622.677246,222.061783,689.485948
912.734977,-9474.636058,0.000000,1072.533697
912.735298,-8216.285956,1406.391290,2068.457845
912.735619,-10140.821405,888.247130,2604.724693
912.735939,-9548.656652,74.020594,2604.724693
912.736260,-9326.594869,740.205942,2834.553343
912.736581,-9992.780217,-2146.597232,2145.067394
912.736901,-8290.306550,-1406.391290,459.657299
912.737222,-9548.656652,-1554.432478,-306.438199
912.737543,-9030.512492,-444.123565,-536.266849
912.737863,-8290.306550,-296.082377,-1149.143247
912.738184,-8882.471304,-1110.308913,-1532.190996
912.738505,-9252.574275,-592.164754,-1302.362347
912.738825,-10510.924376,-296.082377,842.705048
912.739146,-10881.027347,-1184.329507,1838.629195
912.739467,-10140.821405,-1776.494261,1991.848295
912.739788,-9326.594869,0.000000,1455.581446
912.740108,-9918.759623,-1110.308913,1838.629195
912.740429,-9030.512492,-592.164754,2221.676944
912.740750,-8438.347739,-518.144159,2528.115143
912.741070,-8586.388927,-1258.350101,1608.800546
912.741391,-8068.244768,370.102971,2298.286494
912.741712,-9548.656652,-370.102971,2374.896044
912.742032,-8808.450710,0.000000,76.609550
912.742353,-8660.409521,962.267725,-689.485948
912.742674,-9104.533087,592.164754,76.609550
912.742994,-9918.759623,-296.082377,0.000000
912.743315,-10436.903782,-592.164754,-383.047749
912.743636,-10881.027347,0.000000,306.438199
912.743956,-11843.295072,0.000000,1762.019645
912.744277,-10807.006753,-222.061783,2068.457845
912.744598,-10436.903782,0.000000,1302.362347
912.744919,-10140.821405,814.226536,1149.143247
912.745239,-8956.491898,148.041188,1762.019645
912.745560,-9474.636058,-666.185348,1838.629195
912.745881,-8882.471304,-370.102971,2068.457845
912.746201,-9696.697840,222.061783,2068.457845
912.746522,-10881.027347,518.144159,3294.210641
912.746843,-10066.800811,-296.082377,2681.334243
912.747163,-9400.615463,0.000000,766.095498
912.747484,-9770.718434,222.061783,0.000000
912.747805,-9770.718434,0.000000,0.000000
912.748125,-9548.656652,-962.267725,-459.657299
912.748446,-9474.636058,-1480.411884,-1532.190996
912.748767,-9918.759623,-1036.288319,-459.657299
912.749087,-10436.903782,-222.061783,1378.971896
912.749408,-10732.986159,-1110.308913,2681.334243
912.749729,-9918.759623,-666.185348,1302.362347
912.750050,-9178.553681,-814.226536,995.924147
912.750370,-8586.388927,-888.247130,1378.971896
912.750691,-8882.471304,222.061783,2451.505594
912.751012,-8956.491898,74.020594,3447.429741
912.751332,-9400.615463,222.061783,3830.477490
912.751653,-9030.512492,-148.041188,2987.772442
912.751974,-9252.574275,-1332.370696,1532.190996
912.752294,-8734.430116,-444.123565,919.314598
912.752615,-8586.388927,444.123565,0.000000
912.752936,-8438.347739,74.020594,-612.876398
912.753256,-8882.471304,-592.164754,-1838.629195
912.753577,-8808.450710,-296.082377,76.609550
912.753898,-10807.006753,0.000000,306.438199
912.754218,-11473.192101,-296.082377,2451.505594
912.754539,-11177.109724,-1480.411884,3217.601092
912.754860,-10807.006753,-1850.514855,1991.848295
912.755181,-9326.594869,-666.185348,1685.410096
912.755501,-9548.656652,-962.267725,1762.019645
912.755822,-9030.512492,296.082377,2757.943793
912.756143,-8586.388927,222.061783,2451.505594
912.756463,-8068.244768,1036.288319,995.924147
912.756784,-9178.553681,-1332.370696,1378.971896
912.757105,-8808.450710,-296.082377,383.047749
912.757425,-9918.759623,666.185348,842.705048
912.757746,-9918.759623,1406.391290,1225.752797
912.758067,-9696.697840,0.000000,842.705048
912.758387,-10436.903782,-2146.597232,-919.314598
912.758708,-9992.780217,-2516.700203,-1149.143247
912.759029,-10658.965565,-1702.473667,-842.705048
912.759349,-10436.903782,-1332.370696,0.000000
912.759670,-9696.697840,-74.020594,-536.266849
912.759991,-9474.636058,1332.370696,-383.047749
912.760312,-9178.553681,1332.370696,153.219100
912.760632,-9326.594869,-296.082377,2298.286494
912.760953,-10214.842000,0.000000,3217.601092
912.761274,-10732.986159,-296.082377,4443.353888
912.761594,-10066.800811,-518.144159,4903.011187
912.761915,-10288.862594,-1184.329507,3830.477490
912.762236,-8660.409521,-444.123565,1608.800546
912.762556,-8808.450710,148.041188,-229.828649
912.762877,-8364.327145,1036.288319,-842.705048
912.763198,-8364.327145,-222.061783,-1915.238745
912.763518,-8364.327145,-888.247130,-1455.581446
912.763839,-9474.636058,-1036.288319,-1838.629195
912.764160,-10362.883188,-1406.391290,76.609550
912.764480,-11177.109724,-1554.432478,1991.848295
912.764801,-10732.986159,-2220.617826,2374.896044
912.765122,-10140.821405,-666.185348,2221.676944
912.765443,-10140.821405,-592.164754,2451.505594
912.765763,-9474.636058,-666.185348,2911.162892
912.766084,-8586.388927,1036.288319,2911.162892
912.766405,-9548.656652,444.123565,2757.943793
912.766725,-8290.306550,0.000000,2528.115143
912.767046,-8882.471304,-1258.350101,1608.800546
912.767367,-8734.430116,-814.226536,459.657299
912.767687,-9622.677246,74.020594,383.047749
912.768008,-9030.512492,814.226536,536.266849
912.768329,-9992.780217,0.000000,0.000000
912.768649,-10510.924376,0.000000,-1149.143247
912.768970,-10732.986159,0.000000,0.000000
912.769291,-11177.109724,-1036.288319,459.657299
912.769611,-10288.862594,-814.226536,689.485948
912.769932,-10510.924376,-370.102971,536.266849
912.770253,-10658.965565,74.020594,1302.362347
912.770574,-9474.636058,370.102971,919.314598
912.770894,-9548.656652,222.061783,2451.505594
912.771215,-9400.615463,1184.329507,3447.429741
912.771536,-10214.842000,444.123565,3753.867940
912.771856,-10436.903782,-592.164754,3447.429741
912.772177,-8364.327145,-962.267725,1302.362347
912.772498,-8438.347739,-74.020594,-229.828649
912.772818,-9178.553681,1406.391290,76.609550
912.773139,-9474.636058,1628.453072,1302.362347
912.773460,-9252.574275,0.000000,-1302.362347
912.773780,-9178.553681,296.082377,-1149.143247
912.774101,-11029.068536,-740.205942,-306.438199
912.774422,-10955.047942,-1036.288319,1302.362347
912.774742,-11177.109724,-1628.453072,1302.362347
912.775063,-9474.636058,-518.144159,306.438199
912.775384,-8882.471304,-518.144159,306.438199
912.775705,-8512.368333,-592.164754,1378.971896
912.776025,-8290.306550,-222.061783,2298.286494
912.776346,-9400.615463,0.000000,3064.381992
912.776667,-9030.512492,-148.041188,3064.381992
912.776988,-9104.533087,-1036.288319,2987.772442
912.777308,-8734.430116,-1332.370696,842.705048
912.777629,-9178.553681,0.000000,689.485948
912.777950,-8882.471304,888.247130,229.828649
912.778271,-9104.533087,370.102971,76.609550
912.778592,-9474.636058,-444.123565,-612.876398
912.778912,-10140.821405,-740.205942,-306.438199
912.779233,-10955.047942,-1184.329507,995.924147
912.779554,-12065.356855,-1258.350101,2528.115143
912.779875,-10807.006753,-1480.411884,1838.629195
912.780195,-10584.944971,-1036.288319,1225.752797
912.780516,-9918.759623,-296.082377,1685.410096
912.780837,-9474.636058,-370.102971,1455.581446
912.781158,-9104.533087,0.000000,2451.505594
912.781479,-8808.450710,592.164754,2834.553343
912.781799,-9178.553681,-666.185348,3140.991542
912.782120,-9400.615463,-1258.350101,2451.505594
912.782441,-9030.512492,-1406.391290,1225.752797
912.782762,-9400.615463,0.000000,842.705048
912.783082,-9474.636058,1258.350101,1302.362347
912.783403,-9474.636058,-814.226536,229.828649
912.783724,-9326.594869,-962.267725,-1302.362347
912.784045,-10066.800811,222.061783,-995.924147
912.784365,-11029.068536,296.082377,612.876398
912.784686,-11177.109724,0.000000,766.095498
912.785007,-10732.986159,74.020594,459.657299
912.785328,-10288.862594,-148.041188,459.657299
912.785649,-9474.636058,0.000000,1762.019645
912.785969,-9770.718434,-1850.514855,2221.676944
912.786290,-9400.615463,-1702.473667,1532.190996
912.786611,-9178.553681,-1406.391290,2068.457845
912.786932,-8364.327145,-1554.432478,1072.533697
912.787252,-7550.100608,296.082377,1532.190996
912.787573,-8734.430116,1332.370696,-689.485948
912.787894,-8660.409521,2516.700203,229.828649
912.788215,-9252.574275,74.020594,-766.095498
912.788536,-9474.636058,-1998.556043,-612.876398
912.788856,-10066.800811,-2516.700203,-1685.410096
912.789177,-10955.047942,-2220.617826,-306.438199
912.789498,-11251.130318,-962.267725,919.314598
912.789819,-10658.965565,-962.267725,1149.143247
912.790139,-8882.471304,-666.185348,-229.828649
912.790460,-9844.739029,1036.288319,-76.609550
912.790781,-10066.800811,-222.061783,1302.362347
912.791102,-9844.739029,-1406.391290,1685.410096
912.791423,-8660.409521,-518.144159,3677.258390
912.791743,-9992.780217,-2220.617826,2911.162892
912.792064,-8586.388927,148.041188,3447.429741
912.792385,-10288.862594,-518.144159,3370.820191
912.792706,-8586.388927,1258.350101,1225.752797
912.793026,-9474.636058,2442.679609,1532.190996
912.793347,-9252.574275,962.267725,536.266849
912.793668,-8586.388927,888.247130,76.609550
912.793989,-10288.862594,-444.123565,-383.047749
912.794309,-10288.862594,-370.102971,842.705048
912.794630,-10436.903782,-592.164754,1685.410096
912.794951,-10955.047942,-1036.288319,1149.143247
912.795272,-9622.677246,74.020594,1225.752797
912.795593,-10066.800811,1110.308913,1762.019645
912.795913,-9326.594869,-518.144159,2068.457845
912.796234,-9474.636058,-592.164754,2068.457845
912.796555,-9844.739029,0.000000,3370.820191
912.796876,-9474.636058,-666.185348,2987.772442
912.797196,-9548.656652,-1110.308913,3217.601092
912.797517,-8808.450710,-888.247130,1455.581446
912.797838,-8734.430116,666.185348,536.266849
912.798159,-9326.594869,1702.473667,1149.143247
912.798480,-9474.636058,592.164754,306.438199
912.798800,-9030.512492,0.000000,-1072.533697
912.799121,-9770.718434,-814.226536,-536.266849
912.799442,-10140.821405,-1924.535449,0.000000
912.799763,-10881.027347,-2738.761985,76.609550
912.800083,-10214.842000,-1258.350101,0.000000
912.800404,-9770.718434,370.102971,-153.219100
912.800725,-9696.697840,1110.308913,766.095498
912.801046,-9548.656652,148.041188,1838.629195
912.801367,-9326.594869,148.041188,1378.971896
912.801687,-9474.636058,296.082377,2374.896044
912.802008,-9252.574275,-888.247130,2834.553343
912.802329,-9474.636058,-962.267725,2451.505594
912.802650,-9104.533087,-740.205942,995.924147
912.802970,-9326.594869,814.226536,536.266849
912.803291,-8734.430116,888.247130,536.266849
912.803612,-8882.471304,-962.267725,-229.828649
912.803933,-8512.368333,-962.267725,0.000000
912.804253,-10066.800811,-592.164754,-842.705048
912.804574,-10140.821405,-518.144159,459.657299
912.804895,-10362.883188,-814.226536,1378.971896
912.805216,-9918.759623,-444.123565,2221.676944
912.805537,-9918.759623,-592.164754,842.705048
912.805857,-9326.594869,-962.267725,1225.752797
912.806178,-9252.574275,-1406.391290,1302.362347
912.806499,-9622.677246,0.000000,2604.724693
912.806820,-10658.965565,-740.205942,2987.772442
912.807140,-9326.594869,-1184.329507,3524.039291
912.807461,-9178.553681,-1776.494261,1762.019645
912.807782,-8438.347739,-1036.288319,383.047749
912.808103,-9548.656652,-222.061783,153.219100
912.808424,-9104.533087,740.205942,995.924147
912.808744,-9178.553681,-1332.370696,-995.924147
912.809065,-8364.327145,-296.082377,-1532.190996
912.809386,-10436.903782,74.020594,383.047749
912.809707,-11177.109724,-518.144159,2451.505594
912.810027,-11473.192101,-1332.370696,2834.553343
912.810348,-10955.047942,-1628.453072,1838.629195
912.810669,-10066.800811,-1184.329507,1149.143247
912.810990,-9474.636058,-962.267725,1225.752797
912.811311,-9696.697840,-592.164754,2068.457845
912.811631,-8882.471304,370.102971,2528.115143
912.811952,-9178.553681,296.082377,1608.800546
912.812273,-7772.162391,518.144159,1455.581446
912.812594,-9252.574275,-370.102971,229.828649
912.812914,-9326.594869,74.020594,459.657299
912.813235,-9252.574275,296.082377,459.657299
912.813556,-9104.533087,-370.102971,383.047749
912.813877,-9696.697840,-1776.494261,-536.266849
912.814197,-10362.883188,-1480.411884,0.000000
912.814518,-10955.047942,-1184.329507,229.828649
912.814839,-9696.697840,518.144159,2145.067394
912.815160,-11399.171507,-3404.947333,-229.828649
912.815481,-6809.894666,1406.391290,-1685.410096
912.815801,-9992.780217,0.000000,-1991.848295
912.816122,-8364.327145,1332.370696,536.266849
912.816443,-7772.162391,74.020594,766.095498
912.816764,-11177.109724,-962.267725,2911.162892
912.817084,-10881.027347,-1406.391290,3600.648841
912.817405,-10214.842000,-2294.638420,2681.334243
912.817726,-12065.356855,-1036.288319,4443.353888
912.818047,-8586.388927,-370.102971,919.314598
912.818368,-9992.780217,444.123565,0.000000
912.818688,-8956.491898,888.247130,383.047749
912.819009,-7179.997637,814.226536,-2298.286494
912.819330,-9474.636058,74.020594,-1532.190996
912.819651,-9696.697840,444.123565,766.095498
912.819971,-9474.636058,0.000000,1378.971896
912.820292,-11103.089130,-148.041188,1838.629195
912.820613,-10584.944971,888.247130,2834.553343
912.820934,-10066.800811,-370.102971,3370.820191
912.821255,-10658.965565,-2294.638420,2374.896044
912.821575,-9474.636058,-666.185348,2374.896044
912.821896,-9918.759623,222.061783,2145.067394
912.822217,-9030.512492,962.267725,3140.991542
912.822538,-9696.697840,740.205942,1838.629195
912.822858,-8068.244768,666.185348,459.657299
912.823179,-9474.636058,296.082377,229.828649
912.823500,-9548.656652,518.144159,1302.362347
912.823821,-9696.697840,-1110.308913,842.705048
912.824141,-10658.965565,-1110.308913,536.266849
912.824462,-10066.800811,74.020594,1225.752797
912.824783,-10807.006753,0.000000,2068.457845
912.825104,-10807.006753,-296.082377,2604.724693
912.825425,-9474.636058,0.000000,1302.362347
912.825745,-9474.636058,0.000000,0.000000
912.826066,-9326.594869,0.000000,995.924147
912.826387,-8808.450710,-370.102971,1072.533697
912.826708,-8364.327145,-888.247130,2451.505594
912.827028,-9548.656652,-444.123565,2221.676944
912.827349,-9622.677246,-888.247130,2374.896044
912.827670,-9918.759623,-1776.494261,1685.410096
912.827991,-8734.430116,-1924.535449,0.000000
912.828312,-9474.636058,0.000000,0.000000
912.828632,-9844.739029,-296.082377,-153.219100
912.828953,-8808.450710,74.020594,-383.047749
912.829274,-9400.615463,0.000000,-459.657299
912.829595,-9770.718434,-296.082377,383.047749
912.829915,-10362.883188,-740.205942,1532.190996
912.830236,-10066.800811,-1480.411884,1149.143247
912.830557,-9770.718434,-1036.288319,306.438199
912.830878,-9770.718434,-296.082377,1302.362347
912.831199,-8956.491898,222.061783,1149.143247
912.831519,-9400.615463,-814.226536,766.095498
912.831840,-9178.553681,444.123565,1685.410096
912.832161,-9992.780217,222.061783,1762.019645
912.832482,-9992.780217,-1184.329507,2451.505594
912.832802,-9918.759623,-1776.494261,1378.971896
912.833123,-9104.533087,-1480.411884,153.219100
912.833444,-8956.491898,-888.247130,-459.657299
912.833765,-7772.162391,-666.185348,306.438199
912.834085,-9030.512492,-1406.391290,-689.485948
912.834406,-9548.656652,-592.164754,0.000000
912.834727,-10732.986159,-1184.329507,842.705048
912.835048,-10732.986159,-1332.370696,2221.676944
912.835369,-11103.089130,-1184.329507,2451.505594
912.835689,-10807.006753,222.061783,2911.162892
912.836010,-11029.068536,962.267725,3140.991542
912.836331,-10658.965565,962.267725,1532.190996
912.836652,-8956.491898,0.000000,1378.971896
912.836972,-9178.553681,0.000000,1149.143247
912.837293,-9474.636058,-370.102971,1455.581446
912.837614,-8660.409521,-74.020594,1149.143247
912.837935,-8586.388927,-222.061783,-842.705048
912.838256,-9474.636058,444.123565,-383.047749
912.838576,-9474.636058,592.164754,689.485948
912.838897,-10436.903782,-1776.494261,919.314598
912.839218,-10140.821405,-1480.411884,153.219100
912.839539,-10881.027347,-1850.514855,1072.533697
912.839859,-10436.903782,-1406.391290,1762.019645
912.840180,-10584.944971,-370.102971,2374.896044
912.840501,-8882.471304,888.247130,1225.752797
912.840822,-8956.491898,962.267725,0.000000
912.841143,-8512.368333,1332.370696,153.219100
912.841463,-7772.162391,222.061783,689.485948
912.841784,-9178.553681,-1258.350101,766.095498
912.842105,-8068.244768,74.020594,2298.286494
912.842426,-9844.739029,-1332.370696,2451.505594
912.842746,-9548.656652,-1406.391290,2221.676944
912.843067,-9474.636058,-666.185348,689.485948
912.843388,-8734.430116,814.226536,-306.438199
912.843709,-9178.553681,1702.473667,229.828649
912.844029,-9474.636058,444.123565,0.000000
912.844350,-9104.533087,-296.082377,-842.705048
912.844671,-10436.903782,-962.267725,-459.657299
912.844992,-10066.800811,-1110.308913,536.266849
912.845313,-10362.883188,-148.041188,2298.286494
912.845633,-10288.862594,0.000000,1838.629195
912.845954,-10362.883188,1480.411884,2528.115143
912.846275,-10066.800811,814.226536,2298.286494
912.846596,-9326.594869,370.102971,2451.505594
912.846916,-9622.677246,592.164754,2681.334243
912.847237,-9918.759623,444.123565,2911.162892
912.847558,-9770.718434,-222.061783,2987.772442
912.847879,-8882.471304,-666.185348,536.266849
912.848200,-8956.491898,296.082377,-153.219100
912.848520,-9696.697840,962.267725,-306.438199
912.848841,-9770.718434,296.082377,383.047749
912.849162,-9844.739029,-1480.411884,229.828649
912.849483,-9844.739029,-1702.473667,-612.876398
912.849803,-11251.130318,-1480.411884,1302.362347
912.850124,-11473.192101,-1924.535449,2221.676944
912.850445,-10807.006753,-1776.494261,2068.457845
912.850766,-9548.656652,-222.061783,1225.752797
912.851087,-9252.574275,0.000000,1225.752797
912.851407,-8364.327145,0.000000,995.924147
912.851728,-8586.388927,0.000000,2221.676944
912.852049,-8882.471304,370.102971,1762.019645
912.852370,-9918.759623,0.000000,2374.896044
912.852690,-9474.636058,-518.144159,2451.505594
912.853011,-9178.553681,-1702.473667,995.924147
912.853332,-8956.491898,-592.164754,-383.047749
912.853653,-9252.574275,74.020594,0.000000
912.853973,-8956.491898,-222.061783,153.219100
912.854294,-9326.594869,-962.267725,-536.266849
912.854615,-9548.656652,-1332.370696,-306.438199
912.854936,-9622.677246,-1258.350101,0.000000
912.855257,-10436.903782,-1554.432478,1455.581446
912.855577,-10140.821405,-666.185348,2374.896044
912.855898,-9844.739029,74.020594,1532.190996
912.856219,-9474.636058,592.164754,1455.581446
912.856540,-9178.553681,370.102971,1838.629195
912.856860,-9030.512492,-148.041188,1685.410096
912.857181,-9252.574275,592.164754,1378.971896
912.857502,-9548.656652,-962.267725,2528.115143
912.857823,-8882.471304,-1702.473667,1225.752797
912.858144,-8808.450710,-1702.473667,-306.438199
912.858464,-9030.512492,0.000000,-689.485948
912.858785,-9548.656652,444.123565,-306.438199
912.859106,-10066.800811,222.061783,-229.828649
912.859427,-10288.862594,-888.247130,-383.047749
912.859747,-10658.965565,-1332.370696,0.000000
912.860068,-10955.047942,-1850.514855,612.876398
912.860389,-10510.924376,-1702.473667,2145.067394
912.860710,-10362.883188,-1258.350101,1455.581446
912.861031,-9918.759623,-222.061783,1532.190996
912.861351,-8364.327145,-1702.473667,2987.772442
912.861672,-8734.430116,-1332.370696,1072.533697
912.861993,-9252.574275,0.000000,2068.457845
912.862314,-9548.656652,444.123565,2528.115143
912.862634,-10066.800811,1110.308913,3370.820191
912.862955,-9622.677246,74.020594,2068.457845
912.863276,-9474.636058,-296.082377,536.266849
912.863597,-9252.574275,592.164754,0.000000
912.863917,-8882.471304,0.000000,-459.657299
912.864238,-9622.677246,-666.185348,229.828649
912.864559,-9400.615463,-592.164754,-1072.533697
912.864880,-9326.594869,0.000000,-229.828649
912.865201,-10658.965565,0.000000,1149.143247
912.865521,-10214.842000,222.061783,2987.772442
912.865842,-9770.718434,370.102971,1685.410096
912.866163,-9696.697840,-148.041188,1225.752797
912.866484,-8512.368333,0.000000,1455.581446
912.866804,-8882.471304,-962.267725,2451.505594
912.867125,-8512.368333,-592.164754,2604.724693
912.867446,-9696.697840,222.061783,2987.772442
912.867767,-9844.739029,-148.041188,2451.505594
912.868088,-8956.491898,148.041188,1072.533697
912.868408,-10584.944971,-148.041188,229.828649
912.868729,-9474.636058,666.185348,0.000000
912.869050,-9548.656652,-444.123565,-306.438199
912.869371,-9770.718434,-1554.432478,-689.485948
912.869691,-9326.594869,-1184.329507,-1225.752797
912.870012,-10955.047942,-1258.350101,76.609550
912.870333,-10066.800811,-518.144159,842.705048
912.870654,-9622.677246,-222.061783,842.705048
912.870975,-9548.656652,-444.123565,1149.143247
912.871295,-9252.574275,-666.185348,995.924147
912.871616,-8438.347739,-1406.391290,919.314598
912.871937,-8956.491898,-1184.329507,1072.533697
912.872258,-9030.512492,962.267725,2221.676944
912.872578,-10214.842000,2220.617826,2757.943793
912.872899,-10288.862594,1332.370696,2987.772442
912.873220,-9104.533087,962.267725,1072.533697
912.873541,-9178.553681,1036.288319,0.000000
912.873861,-9400.615463,740.205942,76.609550
912.874182,-9992.780217,0.000000,229.828649
912.874503,-10288.862594,-592.164754,0.000000
912.874824,-10214.842000,-370.102971,459.657299
912.875145,-11177.109724,-148.041188,1302.362347
912.875465,-11325.150913,-518.144159,2681.334243
912.875786,-10288.862594,-592.164754,2221.676944
912.876107,-9844.739029,-296.082377,1608.800546
912.876428,-9178.553681,74.020594,1685.410096
912.876748,-7846.182985,-888.247130,1685.410096
912.877069,-8512.368333,-1702.473667,1991.848295
912.877390,-8808.450710,-740.205942,2221.676944
912.877711,-9400.615463,-592.164754,3447.429741
912.878032,-8808.450710,-1332.370696,2528.115143
912.878352,-9252.574275,-1110.308913,1608.800546
912.878673,-9844.739029,74.020594,1072.533697
912.878994,-9844.739029,-148.041188,612.876398
912.879315,-9622.677246,-740.205942,306.438199
912.879636,-9400.615463,-1628.453072,-995.924147
912.879956,-9548.656652,-1110.308913,-1685.410096
912.880277,-10066.800811,-814.226536,0.000000
912.880598,-10732.986159,-1258.350101,1455.581446
912.880919,-10436.903782,-592.164754,612.876398
912.881240,-9844.739029,-962.267725,919.314598
912.881560,-9696.697840,-592.164754,2145.067394
912.881881,-9548.656652,-1332.370696,2068.457845
912.882202,-9326.594869,-370.102971,3217.601092
912.882523,-9548.656652,444.123565,3370.820191
912.882844,-9400.615463,-666.185348,2528.115143
912.883164,-9252.574275,-1406.391290,1532.190996
912.883485,-8956.491898,-814.226536,0.000000
912.883806,-9326.594869,518.144159,-1838.629195
912.884127,-9474.636058,1110.308913,-383.047749
912.884448,-9252.574275,222.061783,-766.095498
912.884769,-9622.677246,0.000000,-1915.238745
912.885089,-10732.986159,0.000000,-919.314598
912.885410,-10658.965565,-888.247130,842.705048
912.885731,-11103.089130,-1554.432478,1225.752797
912.886052,-10214.842000,-1184.329507,766.095498
912.886373,-9844.739029,-518.144159,766.095498
912.886693,-9770.718434,222.061783,1532.190996
912.887014,-9474.636058,740.205942,1685.410096
912.887335,-9474.636058,1554.432478,2834.553343
912.887656,-9474.636058,222.061783,2987.772442
912.887977,-9030.512492,-1110.308913,2528.115143
912.888297,-9104.533087,-2220.617826,1302.362347
912.888618,-8956.491898,-1480.411884,0.000000
912.888939,-9252.574275,370.102971,459.657299
912.889260,-9030.512492,-296.082377,229.828649
912.889581,-8956.491898,-592.164754,-919.314598
912.889901,-9622.677246,-888.247130,-1225.752797
912.890222,-9844.739029,-888.247130,-459.657299
912.890543,-10955.047942,-1480.411884,919.314598
912.890864,-9844.739029,-148.041188,2834.553343
912.891185,-9696.697840,-1332.370696,536.266849
912.891506,-8808.450710,-296.082377,766.095498
912.891826,-8586.388927,148.041188,1991.848295
912.892147,-10140.821405,-740.205942,3370.820191
912.892468,-9844.739029,0.000000,4519.963438
912.892789,-10510.924376,0.000000,5132.839837
912.893110,-10436.903782,-2146.597232,3907.087040
912.893430,-8956.491898,518.144159,2681.334243
912.893751,-11325.150913,0.000000,2145.067394
912.894072,-8882.471304,1998.556043,1378.971896
912.894393,-9548.656652,1110.308913,689.485948
912.894714,-8660.409521,-1036.288319,-2451.505594
912.895034,-8142.265362,1258.350101,-1225.752797
912.895355,-10881.027347,-222.061783,-1378.971896
912.895676,-9770.718434,518.144159,919.314598
912.895997,-10584.944971,0.000000,229.828649
912.896318,-10288.862594,74.020594,689.485948
912.896638,-9770.718434,592.164754,383.047749
912.896959,-10732.986159,-222.061783,2451.505594
912.897280,-9696.697840,0.000000,3294.210641
912.897601,-10066.800811,0.000000,3753.867940
912.897922,-9474.636058,-148.041188,3447.429741
912.898243,-8956.491898,-740.205942,2911.162892
912.898563,-9474.636058,-370.102971,1608.800546
912.898884,-9178.553681,370.102971,766.095498
912.899205,-8660.409521,444.123565,-1149.143247
912.899526,-8808.450710,74.020594,-689.485948
912.899847,-9104.533087,-592.164754,-1838.629195
912.900167,-10436.903782,-370.102971,-766.095498
912.900488,-10881.027347,-740.205942,536.266849
912.900809,-11251.130318,-1554.432478,612.876398
912.901130,-10658.965565,-222.061783,1072.533697
912.901451,-10807.006753,296.082377,1378.971896
912.901771,-9548.656652,666.185348,995.924147
912.902092,-9326.594869,296.082377,689.485948
912.902413,-9030.512492,666.185348,2451.505594
912.902734,-9178.553681,-592.164754,2834.553343
912.903055,-9400.615463,-1998.556043,3064.381992
912.903375,-9326.594869,-1850.514855,3983.696590
912.903696,-9030.512492,-1184.329507,919.314598
912.904017,-9474.636058,296.082377,1149.143247
912.904338,-9252.574275,740.205942,1455.581446
912.904659,-9474.636058,-296.082377,0.000000
912.904979,-9400.615463,-1184.329507,-1455.581446
912.905300,-9770.718434,-1480.411884,-1225.752797
912.905621,-10362.883188,-1554.432478,-536.266849
912.905942,-10362.883188,-814.226536,1225.752797
912.906263,-10436.903782,-74.020594,612.876398
912.906584,-9474.636058,-370.102971,842.705048
912.906904,-9030.512492,-1628.453072,1455.581446
912.907225,-8808.450710,-1924.535449,1685.410096
912.907546,-10140.821405,-74.020594,2374.896044
912.907867,-9622.677246,-444.123565,4136.915689
912.908188,-9474.636058,-592.164754,4749.792088
912.908508,-8956.491898,-962.267725,2681.334243
912.908829,-8364.327145,-444.123565,1225.752797
912.909150,-9400.615463,0.000000,919.314598
912.909471,-8956.491898,0.000000,689.485948
912.909792,-9104.533087,-888.247130,-842.705048
912.910112,-9548.656652,0.000000,-1149.143247
912.910433,-10584.944971,0.000000,-612.876398
912.910754,-11325.150913,-592.164754,995.924147
912.911075,-10584.944971,-222.061783,1378.971896
912.911396,-10214.842000,-888.247130,0.000000
912.911716,-9992.780217,-444.123565,1149.143247
912.912037,-9622.677246,-1036.288319,842.705048
912.912358,-9252.574275,-666.185348,919.314598
912.912679,-9474.636058,148.041188,2834.553343
912.913000,-9770.718434,148.041188,2681.334243
912.913321,-9622.677246,0.000000,2681.334243
912.913641,-9548.656652,-518.144159,1149.143247
912.913962,-9252.574275,444.123565,536.266849
912.914283,-9622.677246,0.000000,459.657299
912.914604,-9104.533087,-814.226536,153.219100
912.914925,-9252.574275,-1332.370696,-1455.581446
912.915245,-9474.636058,-592.164754,-1915.238745
912.915566,-9918.759623,-444.123565,-612.876398
912.915887,-11029.068536,-518.144159,-536.266849
912.916208,-9844.739029,0.000000,76.609550
912.916529,-9622.677246,-296.082377,-306.438199
912.916849,-9252.574275,-518.144159,-306.438199
912.917170,-9326.594869,-1036.288319,1072.533697
912.917491,-9622.677246,-148.041188,2451.505594
912.917812,-9548.656652,518.144159,3294.210641
912.918133,-9548.656652,0.000000,3524.039291
912.918453,-9474.636058,0.000000,3370.820191
912.918774,-9548.656652,-814.226536,1762.019645
912.919095,-9030.512492,0.000000,1455.581446
912.919416,-8882.471304,74.020594,919.314598
912.919737,-8882.471304,-518.144159,459.657299
912.920058,-9030.512492,0.000000,-766.095498
912.920378,-10066.800811,222.061783,459.657299
912.920699,-10436.903782,0.000000,1225.752797
912.921020,-10140.821405,-518.144159,1225.752797
912.921341,-10214.842000,-666.185348,612.876398
912.921662,-9844.739029,296.082377,0.000000
912.921982,-9474.636058,888.247130,766.095498
912.922303,-9474.636058,740.205942,2221.676944
912.922624,-9104.533087,814.226536,2911.162892
912.922945,-10362.883188,740.205942,3370.820191
912.923266,-9844.739029,-518.144159,4596.572988
912.923586,-10658.965565,-2368.659014,2834.553343
912.923907,-9252.574275,-444.123565,1915.238745
912.924228,-9844.739029,444.123565,689.485948
912.924549,-8808.450710,1628.453072,536.266849
912.924870,-9622.677246,666.185348,383.047749
912.925190,-9918.759623,296.082377,-306.438199
912.925511,-10658.965565,-222.061783,0.000000
912.925832,-10807.006753,-222.061783,842.705048
912.926153,-10510.924376,-1406.391290,689.485948
912.926474,-9548.656652,-222.061783,229.828649
912.926795,-9770.718434,74.020594,-383.047749
912.927115,-8142.265362,-370.102971,76.609550
912.927436,-8808.450710,-666.185348,1378.971896
912.927757,-9326.594869,-518.144159,2604.724693
912.928078,-10140.821405,-1036.288319,4136.915689
912.928399,-9770.718434,-1406.391290,4903.011187
912.928719,-9474.636058,-1110.308913,2298.286494
912.929040,-8364.327145,-296.082377,919.314598
912.929361,-8290.306550,296.082377,0.000000
912.929682,-8364.327145,666.185348,76.609550
912.930003,-7994.224174,-1036.288319,-1532.190996
912.930323,-7846.182985,-814.226536,-2451.505594
912.930644,-10066.800811,-296.082377,-766.095498
912.930965,-11029.068536,-148.041188,1532.190996
912.931286,-11029.068536,-1258.350101,2604.724693
912.931607,-10584.944971,-1332.370696,1685.410096
912.931927,-9474.636058,-1332.370696,536.266849
912.932248,-9918.759623,-1554.432478,612.876398
912.932569,-9474.636058,-2072.576638,1838.629195
912.932890,-9252.574275,-296.082377,2145.067394
912.933211,-8882.471304,-740.205942,1608.800546
912.933531,-8216.285956,-1110.308913,689.485948
912.933852,-8808.450710,-1110.308913,383.047749
912.934173,-9770.718434,-740.205942,919.314598
912.934494,-9400.615463,-296.082377,766.095498
912.934815,-9548.656652,-518.144159,383.047749
912.935136,-9844.739029,-1406.391290,-459.657299
912.935456,-10584.944971,-296.082377,-306.438199
912.935777,-11547.212695,-370.102971,1072.533697
912.936098,-10955.047942,0.000000,1762.019645
912.936419,-10807.006753,-222.061783,153.219100
912.936740,-9844.739029,444.123565,0.000000
912.937060,-9770.718434,296.082377,-689.485948
912.937381,-9252.574275,888.247130,919.314598
912.937702,-9770.718434,74.020594,1685.410096
912.938023,-9696.697840,444.123565,2834.553343
912.938344,-10140.821405,-592.164754,3370.820191
912.938664,-9992.780217,-2072.576638,3140.991542
912.938985,-9326.594869,-740.205942,1685.410096
912.939306,-9770.718434,0.000000,766.095498
912.939627,-9178.553681,1332.370696,612.876398
912.939948,-8808.450710,444.123565,459.657299
912.940268,-9178.553681,-962.267725,-612.876398
912.940589,-9474.636058,-666.185348,-306.438199
912.940910,-10436.903782,-1258.350101,-842.705048
912.941231,-10066.800811,-1554.432478,1378.971896
912.941552,-9770.718434,-1480.411884,1072.533697
912.941873,-9548.656652,-592.164754,766.095498
912.942193,-8808.450710,518.144159,536.266849
912.942514,-9400.615463,666.185348,2068.457845
912.942835,-9474.636058,-222.061783,2451.505594
912.943156,-8660.409521,-1258.350101,2528.115143
912.943477,-9326.594869,-2368.659014,2451.505594
912.943797,-9178.553681,-296.082377,2681.334243
912.944118,-9252.574275,-740.205942,1991.848295
912.944439,-8586.388927,444.123565,612.876398
912.944760,-8364.327145,1258.350101,1455.581446
912.945081,-9178.553681,-592.164754,229.828649
912.945401,-9030.512492,-444.123565,-229.828649
912.945722,-11029.068536,-962.267725,306.438199
912.946043,-10436.903782,0.000000,995.924147
912.946364,-10955.047942,666.185348,1149.143247
912.946685,-9992.780217,1554.432478,1072.533697
912.947005,-9178.553681,1554.432478,536.266849
912.947326,-9400.615463,518.144159,919.314598
912.947647,-8734.430116,74.020594,1149.143247
912.947968,-9696.697840,-296.082377,1302.362347
912.948289,-10658.965565,-296.082377,2911.162892
912.948610,-9844.739029,74.020594,3524.039291
912.948930,-10288.862594,592.164754,2987.772442
912.949251,-10807.006753,296.082377,3064.381992
912.949572,-10881.027347,1332.370696,2604.724693
912.949893,-11103.089130,74.020594,2298.286494
912.950214,-9918.759623,0.000000,689.485948
912.950534,-9548.656652,0.000000,0.000000
912.950855,-10362.883188,-296.082377,0.000000
912.951176,-9474.636058,148.041188,0.000000
912.951497,-9030.512492,-148.041188,-842.705048
912.951818,-8734.430116,148.041188,-1608.800546
912.952138,-8882.471304,814.226536,-995.924147
912.952459,-9474.636058,148.041188,306.438199
912.952780,-9696.697840,-370.102971,1072.533697
912.953101,-9548.656652,-222.061783,2451.505594
912.953422,-10214.842000,-1258.350101,3064.381992
912.953742,-9622.677246,-2294.638420,2911.162892
912.954063,-9622.677246,-2220.617826,1532.190996
912.954384,-8956.491898,-814.226536,153.219100
912.954705,-8660.409521,74.020594,306.438199
912.955026,-8882.471304,-148.041188,1608.800546
912.955347,-8734.430116,-1184.329507,-306.438199
912.955667,-8882.471304,-1332.370696,-995.924147
912.955988,-9770.718434,-888.247130,0.000000
912.956309,-10288.862594,-1258.350101,1608.800546
912.956630,-9992.780217,-1406.391290,1838.629195
912.956951,-9918.759623,-888.247130,1532.190996
912.957271,-9252.574275,-444.123565,1302.362347
912.957592,-9178.553681,-592.164754,1225.752797
912.957913,-8660.409521,-444.123565,1608.800546
912.958234,-9474.636058,-444.123565,1991.848295
912.958555,-9622.677246,-592.164754,2374.896044
912.958875,-9178.553681,-1258.350101,1762.019645
912.959196,-8882.471304,-2368.659014,1762.019645
912.959517,-9770.718434,-1036.288319,536.266849
912.959838,-9696.697840,-370.102971,1225.752797
912.960159,-9992.780217,-740.205942,229.828649
912.960479,-9918.759623,-666.185348,383.047749
912.960800,-10436.903782,0.000000,536.266849
912.961121,-11251.130318,-518.144159,1685.410096
912.961442,-11103.089130,-370.102971,2068.457845
912.961763,-10066.800811,-518.144159,1072.533697
912.962084,-9844.739029,-592.164754,689.485948
912.962404,-9030.512492,-518.144159,383.047749
912.962725,-9252.574275,-1628.453072,689.485948
912.963046,-9104.533087,-148.041188,1378.971896
912.963367,-11103.089130,592.164754,1685.410096
912.963688,-10288.862594,-518.144159,2757.943793
912.964008,-9696.697840,-592.164754,2221.676944
912.964329,-9548.656652,-888.247130,612.876398
912.964650,-9696.697840,0.000000,306.438199
912.964971,-9178.553681,-370.102971,153.219100
912.965292,-9030.512492,-1110.308913,-306.438199
912.965612,-8438.347739,-222.061783,-919.314598
912.965933,-10288.862594,-740.205942,0.000000
912.966254,-10066.800811,-444.123565,1991.848295
912.966575,-10436.903782,-888.247130,1838.629195
912.966896,-9696.697840,-592.164754,1149.143247
912.967216,-9992.780217,0.000000,919.314598
912.967537,-9474.636058,1184.329507,229.828649
912.967858,-8734.430116,592.164754,1455.581446
912.968179,-8438.347739,1850.514855,2221.676944
912.968500,-9178.553681,740.205942,2374.896044
912.968820,-9178.553681,-148.041188,4136.915689
912.969141,-9252.574275,-1110.308913,1149.143247
912.969462,-8734.430116,-666.185348,459.657299
912.969783,-9474.636058,222.061783,306.438199
912.970104,-9326.594869,444.123565,536.266849
912.970425,-9104.533087,-814.226536,-229.828649
912.970745,-9474.636058,74.020594,-229.828649
912.971066,-10584.944971,-296.082377,612.876398
912.971387,-10584.944971,-370.102971,1915.238745
912.971708,-10362.883188,-592.164754,2221.676944
912.972029,-9622.677246,0.000000,1225.752797
912.972349,-9548.656652,444.123565,842.705048
912.972670,-8956.491898,592.164754,1532.190996
912.972991,-9400.615463,0.000000,1915.238745
912.973312,-9918.759623,666.185348,1225.752797
912.973633,-10214.842000,-296.082377,2834.553343
912.973953,-9992.780217,0.000000,2757.943793
912.974274,-9696.697840,148.041188,1455.581446
912.974595,-9918.759623,814.226536,842.705048
912.974916,-9770.718434,1332.370696,919.314598
912.975237,-9474.636058,-592.164754,229.828649
912.975557,-9104.533087,-888.247130,-1455.581446
912.975878,-10066.800811,-444.123565,-536.266849
912.976199,-10436.903782,-592.164754,995.924147
912.976520,-11103.089130,666.185348,2145.067394
912.976841,-10732.986159,888.247130,2681.334243
912.977162,-9992.780217,1332.370696,1838.629195
912.977482,-9696.697840,814.226536,1915.238745
912.977803,-9178.553681,-1776.494261,995.924147
912.978124,-8364.327145,-370.102971,1762.019645
912.978445,-9548.656652,-666.185348,2911.162892
912.978765,-8734.430116,-592.164754,2374.896044
912.979086,-9178.553681,-1036.288319,2374.896044
912.979407,-8586.388927,-1554.432478,0.000000
912.979727,-8956.491898,-740.205942,-383.047749
912.980048,-9474.636058,-592.164754,229.828649
912.980369,-9104.533087,-1406.391290,-995.924147
912.980690,-9474.636058,-1184.329507,-2068.457845
912.981010,-10436.903782,-1332.370696,-459.657299
912.981331,-10510.924376,-1258.350101,1225.752797
912.981652,-11177.109724,-1480.411884,2221.676944
912.981972,-10288.862594,-962.267725,2374.896044
912.982293,-9474.636058,-814.226536,1225.752797
912.982614,-8142.265362,-444.123565,0.000000
912.982935,-7994.224174,-740.205942,0.000000
912.983255,-6809.894666,222.061783,1302.362347
912.983576,-8290.306550,0.000000,1838.629195
912.983897,-9474.636058,-888.247130,2145.067394
912.984218,-9474.636058,-1406.391290,1915.238745
912.984538,-10140.821405,-2368.659014,0.000000
912.984859,-10436.903782,-296.082377,1378.971896
912.985180,-10214.842000,-370.102971,1378.971896
912.985500,-9696.697840,-888.247130,76.609550
912.985821,-8956.491898,-222.061783,-766.095498
912.986142,-9548.656652,-444.123565,-1302.362347
912.986463,-9770.718434,-518.144159,153.219100
912.986783,-10214.842000,-518.144159,612.876398
912.987104,-8956.491898,0.000000,306.438199
912.987425,-9474.636058,888.247130,1149.143247
912.987746,-9844.739029,1480.411884,2834.553343
912.988066,-10436.903782,518.144159,3983.696590
912.988387,-11029.068536,444.123565,4749.792088
912.988708,-10732.986159,0.000000,4673.182538
912.989028,-10362.883188,-1184.329507,3830.477490
912.989349,-9474.636058,-1184.329507,1685.410096
912.989670,-8586.388927,-296.082377,-459.657299
912.989991,-8142.265362,518.144159,-1072.533697
912.990311,-7920.203579,740.205942,-1225.752797
912.990632,-8808.450710,370.102971,-1225.752797
912.990953,-9992.780217,-222.061783,-1149.143247
912.991274,-10658.965565,-814.226536,612.876398
912.991594,-11695.253884,-1628.453072,2757.943793
912.991915,-10955.047942,-1702.473667,2987.772442
912.992236,-10584.944971,-1110.308913,2451.505594
912.992556,-8808.450710,1110.308913,3600.648841
912.992877,-10436.903782,-2146.597232,229.828649
912.993198,-5329.482782,1258.350101,459.657299
912.993519,-9548.656652,0.000000,383.047749
912.993839,-8142.265362,1332.370696,2451.505594
912.994160,-8142.265362,-296.082377,1072.533697
912.994481,-10584.944971,0.000000,1762.019645
912.994801,-8068.244768,74.020594,-612.876398
912.995122,-10288.862594,-444.123565,-536.266849
912.995443,-10066.800811,814.226536,2298.286494
912.995764,-8438.347739,-2368.659014,-2298.286494
912.996084,-9474.636058,296.082377,-1149.143247
912.996405,-10288.862594,-222.061783,842.705048
912.996726,-9326.594869,-148.041188,-383.047749
912.997047,-11177.109724,666.185348,1685.410096
912.997367,-9474.636058,518.144159,995.924147
912.997688,-8290.306550,296.082377,383.047749
912.998009,-10510.924376,-740.205942,1532.190996
912.998329,-8882.471304,518.144159,2451.505594
912.998650,-9918.759623,518.144159,3753.867940
912.998971,-10362.883188,-444.123565,3907.087040
912.999292,-9252.574275,-296.082377,2681.334243
912.999612,-9474.636058,-1184.329507,229.828649
912.999933,-9622.677246,222.061783,153.219100
913.000254,-9622.677246,1110.308913,0.000000
913.000575,-9252.574275,592.164754,-306.438199
913.000895,-9696.697840,222.061783,-919.314598
913.001216,-10658.965565,592.164754,1685.410096
913.001537,-11399.171507,-814.226536,842.705048
913.001857,-11547.212695,-888.247130,2451.505594
913.002178,-10362.883188,-1036.288319,2145.067394
913.002499,-10510.924376,296.082377,1608.800546
913.002820,-10140.821405,-518.144159,2604.724693
913.003140,-7550.100608,0.000000,1762.019645
913.003461,-8956.491898,-1110.308913,1838.629195
913.003782,-8882.471304,740.205942,2451.505594
913.004103,-9474.636058,0.000000,3370.820191
913.004423,-9770.718434,-740.205942,2757.943793
913.004744,-9252.574275,0.000000,1608.800546
913.005065,-9474.636058,222.061783,1378.971896
913.005385,-10288.862594,-296.082377,1455.581446
913.005706,-9770.718434,-888.247130,536.266849
913.006027,-11251.130318,-1110.308913,306.438199
913.006348,-9474.636058,-1184.329507,-153.219100
913.006668,-9844.739029,-296.082377,229.828649
913.006989,-10214.842000,-1036.288319,919.314598
913.007310,-8290.306550,-962.267725,-229.828649
913.007630,-8438.347739,-1036.288319,-536.266849
913.007951,-8068.244768,-1332.370696,0.000000
913.008272,-7994.224174,-1184.329507,-1225.752797
913.008593,-8808.450710,-148.041188,2298.286494
913.008913,-9844.739029,-962.267725,3294.210641
913.009234,-9770.718434,-962.267725,3447.429741
913.009555,-9400.615463,-1998.556043,2145.067394
913.009876,-8734.430116,-1998.556043,0.000000
913.010196,-9400.615463,-814.226536,-76.609550
913.010517,-8956.491898,-518.144159,-383.047749
913.010838,-9104.533087,-1554.432478,-2145.067394
913.011158,-9030.512492,-518.144159,-2911.162892
913.011479,-9844.739029,0.000000,-1532.190996
913.011800,-10807.006753,0.000000,536.266849
913.012121,-11251.130318,-370.102971,1149.143247
913.012441,-10955.047942,-444.123565,612.876398
913.012762,-10362.883188,0.000000,1072.533697
913.013083,-10066.800811,-518.144159,1762.019645
913.013404,-9770.718434,-666.185348,3294.210641
913.013724,-9548.656652,148.041188,3370.820191
913.014045,-9474.636058,0.000000,3140.991542
913.014366,-9770.718434,0.000000,3064.381992
913.014686,-9474.636058,222.061783,1225.752797
913.015007,-9474.636058,1184.329507,76.609550
913.015328,-9918.759623,1332.370696,76.609550
913.015649,-9696.697840,74.020594,0.000000
913.015969,-9400.615463,-592.164754,-1532.190996
913.016290,-9992.780217,-1036.288319,-1378.971896
913.016611,-10362.883188,-370.102971,1302.362347
913.016932,-10807.006753,-1184.329507,1685.410096
913.017252,-9992.780217,-888.247130,1762.019645
913.017573,-10140.821405,-444.123565,1455.581446
913.017894,-9548.656652,-370.102971,1378.971896
913.018214,-9326.594869,-1110.308913,2145.067394
913.018535,-8512.368333,-1036.288319,2757.943793
913.018856,-8586.388927,-370.102971,3524.039291
913.019177,-9252.574275,-666.185348,3677.258390
913.019497,-10140.821405,444.123565,3140.991542
913.019818,-8808.450710,0.000000,1532.190996
913.020139,-8438.347739,592.164754,689.485948
913.020459,-8882.471304,0.000000,995.924147
913.020780,-8586.388927,-814.226536,-459.657299
913.021101,-9104.533087,-962.267725,-1532.190996
913.021422,-8734.430116,-74.020594,-1149.143247
913.021742,-9992.780217,74.020594,0.000000
913.022063,-10658.965565,444.123565,1302.362347
913.022384,-10140.821405,518.144159,1072.533697
913.022705,-9400.615463,1184.329507,766.095498
913.023025,-9548.656652,370.102971,1685.410096
913.023346,-9548.656652,222.061783,2451.505594
913.023667,-9474.636058,518.144159,3524.039291
913.023987,-9992.780217,0.000000,3830.477490
913.024308,-9030.512492,-370.102971,3907.087040
913.024629,-8956.491898,-1110.308913,2221.676944
913.024950,-8734.430116,740.205942,995.924147
913.025270,-9844.739029,1332.370696,536.266849
