#time,accel_x,accel_y,accel_z
1279.242373,-9696.697840,0.000000,1149.143247
1279.242694,-9474.636058,-296.082377,1149.143247
1279.243014,-9622.677246,-148.041188,1149.143247
1279.243335,-9252.574275,-518.144159,766.095498
1279.243656,-9474.636058,-296.082377,1072.533697
1279.243976,-9474.636058,-370.102971,1149.143247
1279.244297,-9548.656652,-444.123565,919.314598
1279.244618,-9696.697840,0.000000,2834.553343
1279.244938,-9696.697840,-370.102971,1225.752797
1279.245259,-9622.677246,-370.102971,1225.752797
1279.245579,-9548.656652,-296.082377,1072.533697
1279.245900,-9622.677246,-370.102971,1378.971896
1279.246221,-9622.677246,-296.082377,995.924147
1279.246541,-9696.697840,0.000000,1072.533697
1279.246862,-9770.718434,-296.082377,1225.752797
1279.247183,-9474.636058,-518.144159,1072.533697
1279.247503,-9548.656652,-518.144159,919.314598
1279.247824,-9548.656652,-222.061783,1302.362347
1279.248145,-9844.739029,-666.185348,1762.019645
1279.248465,-9548.656652,-1036.288319,1149.143247
1279.248786,-9030.512492,-1332.370696,2451.505594
1279.249107,-9622.677246,-592.164754,689.485948
1279.249427,-9548.656652,-222.061783,1225.752797
1279.249748,-9770.718434,-296.082377,1302.362347
1279.250068,-9696.697840,-296.082377,1225.752797
1279.250389,-9474.636058,-740.205942,229.828649
1279.250710,-9622.677246,-518.144159,612.876398
1279.251030,-9844.739029,-592.164754,995.924147
1279.251351,-9622.677246,-740.205942,1225.752797
1279.251672,-9622.677246,-1110.308913,1608.800546
1279.251992,-9474.636058,-1554.432478,1302.362347
1279.252313,-9548.656652,-1258.350101,1455.581446
1279.252634,-9622.677246,-1258.350101,2145.067394
1279.252954,-9104.533087,-1480.411884,3524.039291
1279.253275,-9622.677246,-1184.329507,1915.238745
1279.253595,-9548.656652,-1110.308913,1915.238745
1279.253916,-9474.636058,-1110.308913,1915.238745
1279.254237,-9548.656652,-1036.288319,3600.648841
1279.254557,-9770.718434,-1036.288319,2145.067394
1279.254878,-9696.697840,-1110.308913,2374.896044
1279.255199,-9696.697840,-888.247130,2681.334243
1279.255519,-9622.677246,-1036.288319,3294.210641
1279.255840,-9622.677246,-1332.370696,3370.820191
1279.256161,-9844.739029,-1184.329507,3830.477490
1279.256481,-9770.718434,-2146.597232,4366.744339
1279.256802,-9548.656652,-2442.679609,4519.963438
1279.257122,-9474.636058,-3034.844362,5898.935335
1279.257443,-9252.574275,-3256.906145,5286.058936
1279.257764,-9474.636058,-3478.967927,5592.497135
1279.258084,-9178.553681,-3478.967927,5592.497135
1279.258405,-9104.533087,-3627.009116,5975.544884
1279.258726,-8882.471304,-3849.070898,5975.544884
1279.259046,-9252.574275,-4367.215058,5898.935335
1279.259367,-9178.553681,-4737.318029,5898.935335
1279.259688,-9400.615463,-5033.400406,5822.325785
1279.260008,-9178.553681,-4737.318029,5745.716235
1279.260329,-9252.574275,-4811.338623,5515.887586
1279.260649,-8956.491898,-4737.318029,5209.449386
1279.260970,-9252.574275,-4145.153275,4979.620737
1279.261291,-9696.697840,-3034.844362,4673.182538
1279.261611,-9474.636058,-3775.050304,4903.011187
1279.261932,-9474.636058,-4145.153275,4213.525239
1279.262253,-9548.656652,-4145.153275,4136.915689
1279.262573,-9474.636058,-4515.256246,3983.696590
1279.262894,-9622.677246,-4071.132681,4136.915689
1279.263215,-9400.615463,-4515.256246,3907.087040
1279.263535,-9474.636058,-5033.400406,3600.648841
1279.263856,-9400.615463,-5255.462188,2911.162892
1279.264176,-9030.512492,-5255.462188,2528.115143
1279.264497,-9252.574275,-4737.318029,1685.410096
1279.264818,-9474.636058,-3330.926739,612.876398
1279.265138,-9622.677246,-1924.535449,459.657299
1279.265459,-9992.780217,-814.226536,306.438199
1279.265780,-10066.800811,0.000000,229.828649
1279.266100,-10362.883188,0.000000,459.657299
1279.266421,-10881.027347,-814.226536,1149.143247
1279.266742,-10732.986159,-1776.494261,2221.676944
1279.267062,-10288.862594,-3552.988522,2298.286494
1279.267383,-9770.718434,-5107.421000,2145.067394
1279.267703,-8956.491898,-5181.441594,2145.067394
1279.268024,-9030.512492,-5033.400406,2374.896044
1279.268345,-8586.388927,-4589.276840,2757.943793
1279.268665,-8586.388927,-4071.132681,2604.724693
1279.268986,-8808.450710,-3552.988522,2298.286494
1279.269307,-8882.471304,-3404.947333,1378.971896
1279.269627,-9400.615463,-3182.885551,766.095498
1279.269948,-9474.636058,-1628.453072,919.314598
1279.270269,-9918.759623,222.061783,919.314598
1279.270589,-10214.842000,1776.494261,1608.800546
1279.270910,-9992.780217,2368.659014,536.266849
1279.271231,-10658.965565,1850.514855,2068.457845
1279.271551,-10140.821405,1406.391290,2987.772442
1279.271872,-10436.903782,-1480.411884,4290.134789
1279.272192,-9548.656652,-3034.844362,4366.744339
1279.272513,-9400.615463,-4515.256246,4979.620737
1279.272834,-9400.615463,-4441.235652,5898.935335
1279.273154,-8586.388927,-4663.297435,6971.469032
1279.273475,-8290.306550,-4737.318029,6818.249932
1279.273796,-8882.471304,-4737.318029,6665.030833
1279.274116,-8512.368333,-4219.173869,4749.792088
1279.274437,-8364.327145,-2664.741391,3830.477490
1279.274758,-8660.409521,-296.082377,3524.039291
1279.275078,-9474.636058,1332.370696,3294.210641
1279.275399,-10214.842000,2812.782580,4060.306139
1279.275719,-10881.027347,2516.700203,4366.744339
1279.276040,-11103.089130,296.082377,3447.429741
1279.276361,-10362.883188,222.061783,3830.477490
1279.276681,-11621.233289,-2368.659014,4749.792088
1279.277002,-9918.759623,-1776.494261,5362.668486
1279.277323,-9474.636058,-4367.215058,4136.915689
1279.277643,-9104.533087,-5625.565159,4673.182538
1279.277964,-6735.874072,-6365.771101,2298.286494
1279.278285,-8808.450710,-5551.544565,2451.505594
1279.278605,-9104.533087,-3404.947333,3830.477490
1279.278926,-8438.347739,-2590.720797,2911.162892
1279.279246,-10732.986159,-1776.494261,3140.991542
1279.279567,-9252.574275,-1776.494261,2528.115143
1279.279888,-9622.677246,-962.267725,919.314598
1279.280208,-11991.336260,-370.102971,2911.162892
1279.280529,-10288.862594,-370.102971,2221.676944
1279.280850,-9992.780217,-1850.514855,536.266849
1279.281170,-9918.759623,-2738.761985,-536.266849
1279.281491,-9326.594869,-3404.947333,-1838.629195
1279.281812,-8364.327145,-592.164754,0.000000
1279.282132,-11917.315666,-3923.091493,995.924147
1279.282453,-7698.141797,-2146.597232,2298.286494
1279.282773,-10362.883188,-5107.421000,1072.533697
1279.283094,-9696.697840,-3627.009116,2298.286494
1279.283415,-9252.574275,-2368.659014,2911.162892
1279.283735,-10214.842000,-4441.235652,3753.867940
1279.284056,-8956.491898,-4737.318029,2068.457845
1279.284377,-7105.977043,-4367.215058,-612.876398
1279.284697,-9770.718434,-2072.576638,689.485948
1279.285018,-9326.594869,-148.041188,1838.629195
1279.285339,-10658.965565,-888.247130,2068.457845
1279.285659,-10214.842000,-888.247130,1838.629195
1279.285980,-9400.615463,148.041188,612.876398
1279.286300,-10955.047942,592.164754,2451.505594
1279.286621,-11325.150913,-1554.432478,4290.134789
1279.286942,-9474.636058,-2738.761985,4060.306139
1279.287262,-9326.594869,-3330.926739,1915.238745
1279.287583,-7772.162391,-666.185348,1608.800546
1279.287904,-9770.718434,-592.164754,4060.306139
1279.288224,-8364.327145,-1702.473667,4979.620737
1279.288545,-9400.615463,-2886.803174,4519.963438
1279.288866,-8808.450710,-3849.070898,2987.772442
1279.289186,-8660.409521,-3552.988522,2911.162892
1279.289507,-10807.006753,-4071.132681,4136.915689
1279.289827,-9400.615463,-2368.659014,3140.991542
1279.290148,-10362.883188,-444.123565,2068.457845
1279.290469,-10732.986159,2664.741391,2834.553343
1279.290789,-10436.903782,3034.844362,2145.067394
1279.291110,-10732.986159,2220.617826,1838.629195
1279.291431,-10584.944971,2590.720797,1762.019645
1279.291751,-10658.965565,2072.576638,306.438199
1279.292072,-10510.924376,0.000000,842.705048
1279.292393,-8882.471304,-1776.494261,153.219100
1279.292713,-8512.368333,-1628.453072,-919.314598
1279.293034,-8808.450710,0.000000,-76.609550
1279.293354,-9252.574275,814.226536,1302.362347
1279.293675,-8216.285956,-296.082377,1455.581446
1279.293996,-8586.388927,-1332.370696,612.876398
1279.294316,-10140.821405,-666.185348,1532.190996
1279.294637,-10658.965565,-962.267725,2221.676944
1279.294958,-9918.759623,-1702.473667,1608.800546
1279.295278,-9696.697840,222.061783,536.266849
1279.295599,-9474.636058,1776.494261,229.828649
1279.295920,-10066.800811,740.205942,842.705048
1279.296240,-8882.471304,1776.494261,0.000000
1279.296561,-9030.512492,1850.514855,-1532.190996
1279.296882,-9474.636058,2442.679609,-1225.752797
1279.297202,-9918.759623,1332.370696,229.828649
1279.297523,-9030.512492,-1110.308913,-306.438199
1279.297843,-8586.388927,-1776.494261,-1378.971896
1279.298164,-9030.512492,-962.267725,-689.485948
1279.298485,-9918.759623,592.164754,1685.410096
1279.298806,-10584.944971,-740.205942,2451.505594
1279.299127,-8142.265362,1184.329507,1225.752797
1279.299447,-10214.842000,-740.205942,383.047749
1279.299768,-9104.533087,962.267725,383.047749
1279.300089,-9252.574275,0.000000,0.000000
1279.300410,-8808.450710,-1184.329507,-1149.143247
1279.300731,-9104.533087,1776.494261,-766.095498
1279.301051,-10955.047942,1924.535449,536.266849
1279.301372,-10288.862594,1776.494261,995.924147
1279.301693,-10362.883188,1480.411884,1225.752797
1279.302014,-10807.006753,1924.535449,1685.410096
1279.302335,-11029.068536,518.144159,2528.115143
1279.302656,-10658.965565,-1850.514855,2145.067394
1279.302976,-8808.450710,-2812.782580,766.095498
1279.303297,-8882.471304,-2220.617826,-153.219100
1279.303618,-9770.718434,0.000000,1532.190996
1279.303939,-9474.636058,1110.308913,3294.210641
1279.304260,-9696.697840,-518.144159,3677.258390
1279.304580,-9104.533087,-592.164754,2145.067394
1279.304901,-10658.965565,-1480.411884,2604.724693
1279.305222,-10140.821405,-2812.782580,2451.505594
1279.305543,-9696.697840,-3034.844362,2451.505594
1279.305864,-9104.533087,-1628.453072,1072.533697
1279.306184,-9622.677246,0.000000,919.314598
1279.306505,-10066.800811,518.144159,1455.581446
1279.306826,-9844.739029,370.102971,1532.190996
1279.307147,-9104.533087,296.082377,919.314598
1279.307468,-10658.965565,222.061783,2068.457845
1279.307788,-9622.677246,-1554.432478,1838.629195
1279.308109,-9030.512492,-3552.988522,842.705048
1279.308430,-8586.388927,-3701.029710,-2145.067394
1279.308751,-8290.306550,-1554.432478,153.219100
1279.309072,-9548.656652,-962.267725,1915.238745
1279.309392,-9178.553681,-1776.494261,1991.848295
1279.309713,-8586.388927,-1406.391290,-229.828649
1279.310034,-9400.615463,-814.226536,76.609550
1279.310355,-9326.594869,-962.267725,536.266849
1279.310676,-10066.800811,-1480.411884,919.314598
1279.310996,-8808.450710,-1184.329507,153.219100
1279.311317,-8512.368333,-296.082377,-153.219100
1279.311638,-9474.636058,0.000000,536.266849
1279.311959,-10140.821405,0.000000,766.095498
1279.312280,-10362.883188,222.061783,919.314598
1279.312601,-10288.862594,1110.308913,1302.362347
1279.312921,-10140.821405,592.164754,1455.581446
1279.313242,-10436.903782,-1406.391290,306.438199
1279.313563,-9474.636058,-1554.432478,-153.219100
1279.313884,-9326.594869,-740.205942,0.000000
1279.314205,-9474.636058,592.164754,1072.533697
1279.314525,-10510.924376,222.061783,2604.724693
1279.314846,-9696.697840,-592.164754,1378.971896
1279.315167,-9696.697840,444.123565,1302.362347
1279.315488,-9918.759623,222.061783,2145.067394
1279.315809,-9918.759623,-666.185348,1838.629195
1279.316129,-9178.553681,-592.164754,919.314598
1279.316450,-10066.800811,370.102971,842.705048
1279.316771,-10658.965565,1110.308913,2145.067394
1279.317092,-10584.944971,666.185348,2451.505594
1279.317413,-9918.759623,-222.061783,1608.800546
1279.317733,-9622.677246,1628.453072,766.095498
1279.318054,-11103.089130,2072.576638,2374.896044
1279.318375,-9844.739029,1036.288319,2298.286494
1279.318696,-8512.368333,-740.205942,0.000000
1279.319017,-8586.388927,-518.144159,-1072.533697
1279.319337,-8660.409521,1110.308913,153.219100
1279.319658,-9992.780217,814.226536,1685.410096
1279.319979,-9622.677246,0.000000,1991.848295
1279.320300,-8660.409521,74.020594,1225.752797
1279.320621,-9918.759623,222.061783,1455.581446
1279.320941,-10288.862594,-370.102971,2221.676944
1279.321262,-9548.656652,-1776.494261,2068.457845
1279.321583,-9178.553681,-1850.514855,919.314598
1279.321904,-8512.368333,-296.082377,153.219100
1279.322225,-9104.533087,370.102971,-995.924147
1279.322546,-8956.491898,888.247130,229.828649
1279.322866,-9104.533087,1184.329507,306.438199
1279.323187,-9474.636058,1184.329507,459.657299
1279.323508,-9696.697840,-296.082377,229.828649
1279.323829,-9548.656652,-1406.391290,-229.828649
1279.324150,-9696.697840,-1406.391290,-383.047749
1279.324470,-9844.739029,296.082377,459.657299
1279.324791,-9992.780217,962.267725,2068.457845
1279.325112,-10140.821405,592.164754,2681.334243
1279.325433,-10066.800811,0.000000,1378.971896
1279.325754,-9918.759623,-296.082377,1225.752797
1279.326074,-9844.739029,-1406.391290,1608.800546
1279.326395,-9326.594869,-2294.638420,306.438199
1279.326716,-8586.388927,-1850.514855,0.000000
1279.327037,-9400.615463,-370.102971,229.828649
1279.327358,-9400.615463,74.020594,612.876398
1279.327678,-9474.636058,0.000000,459.657299
1279.327999,-9696.697840,444.123565,229.828649
1279.328320,-10732.986159,1480.411884,306.438199
1279.328641,-11251.130318,888.247130,1378.971896
1279.328962,-10066.800811,-962.267725,766.095498
1279.329282,-9326.594869,-2146.597232,-459.657299
1279.329603,-9326.594869,-592.164754,-306.438199
1279.329924,-10066.800811,296.082377,1532.190996
1279.330245,-10140.821405,-148.041188,2987.772442
1279.330566,-9844.739029,-2664.741391,2298.286494
1279.330886,-9326.594869,-2220.617826,2068.457845
1279.331207,-9844.739029,-2812.782580,2451.505594
1279.331528,-9992.780217,-3997.112087,2911.162892
1279.331849,-8586.388927,-3923.091493,2528.115143
1279.332170,-8438.347739,-2886.803174,1608.800546
1279.332491,-8290.306550,-1036.288319,1685.410096
1279.332811,-9992.780217,-740.205942,1608.800546
1279.333132,-9252.574275,370.102971,1532.190996
1279.333453,-9474.636058,370.102971,689.485948
1279.333774,-9918.759623,666.185348,459.657299
1279.334095,-10140.821405,222.061783,1072.533697
1279.334415,-10436.903782,-1258.350101,536.266849
1279.334736,-7994.224174,0.000000,0.000000
1279.335057,-9918.759623,0.000000,919.314598
1279.335378,-10288.862594,296.082377,2987.772442
1279.335699,-9844.739029,-962.267725,2451.505594
1279.336019,-9844.739029,-1850.514855,1455.581446
1279.336340,-8660.409521,-2516.700203,2068.457845
1279.336661,-9770.718434,-3627.009116,1762.019645
1279.336982,-8956.491898,-4071.132681,1685.410096
1279.337303,-8512.368333,-2368.659014,612.876398
1279.337623,-9622.677246,0.000000,1225.752797
1279.337944,-9622.677246,370.102971,1378.971896
1279.338265,-9844.739029,1628.453072,1532.190996
1279.338586,-10732.986159,1924.535449,1532.190996
1279.338907,-11769.274478,2072.576638,1991.848295
1279.339227,-11029.068536,888.247130,689.485948
1279.339548,-10362.883188,-1036.288319,-229.828649
1279.339869,-9326.594869,-148.041188,-1685.410096
1279.340190,-9400.615463,2442.679609,-153.219100
1279.340511,-9770.718434,3108.864956,306.438199
1279.340831,-8586.388927,1332.370696,306.438199
1279.341152,-8216.285956,-1036.288319,-1149.143247
1279.341473,-8660.409521,-148.041188,-306.438199
1279.341794,-10807.006753,-1924.535449,1225.752797
1279.342115,-9548.656652,-2812.782580,2451.505594
1279.342436,-8956.491898,-2368.659014,2145.067394
1279.342756,-10288.862594,-1628.453072,1762.019645
1279.343077,-10658.965565,1036.288319,2757.943793
1279.343398,-11621.233289,592.164754,2528.115143
1279.343719,-9252.574275,2294.638420,0.000000
1279.344040,-10140.821405,2960.823768,-689.485948
1279.344360,-9918.759623,3256.906145,1302.362347
1279.344681,-8660.409521,1776.494261,-689.485948
1279.345002,-9252.574275,518.144159,-2145.067394
1279.345323,-8882.471304,2146.597232,-306.438199
1279.345644,-10288.862594,1480.411884,1455.581446
1279.345964,-10955.047942,444.123565,3217.601092
1279.346285,-9992.780217,-666.185348,3370.820191
1279.346606,-10066.800811,-1110.308913,2604.724693
1279.346927,-9400.615463,-814.226536,2681.334243
1279.347248,-9474.636058,-2368.659014,2451.505594
1279.347568,-7698.141797,-2072.576638,919.314598
1279.347889,-8216.285956,-1184.329507,383.047749
1279.348210,-8364.327145,0.000000,153.219100
1279.348531,-8808.450710,888.247130,1838.629195
1279.348852,-9770.718434,518.144159,76.609550
1279.349172,-9770.718434,2442.679609,689.485948
1279.349493,-11473.192101,2368.659014,1455.581446
1279.349814,-11325.150913,888.247130,1991.848295
1279.350135,-10732.986159,-1184.329507,536.266849
1279.350456,-10214.842000,-888.247130,306.438199
1279.350776,-10362.883188,444.123565,1532.190996
1279.351097,-9992.780217,296.082377,2681.334243
1279.351418,-9252.574275,-592.164754,1225.752797
1279.351739,-7698.141797,-1776.494261,153.219100
1279.352060,-7772.162391,-1850.514855,-306.438199
1279.352380,-8290.306550,-2960.823768,842.705048
1279.352701,-8068.244768,-2886.803174,1225.752797
1279.353022,-8290.306550,-2146.597232,689.485948
1279.353343,-9104.533087,-1036.288319,766.095498
1279.353664,-9992.780217,-148.041188,1608.800546
1279.353985,-10288.862594,444.123565,2298.286494
1279.354305,-11547.212695,2146.597232,2528.115143
1279.354626,-11325.150913,2146.597232,2221.676944
1279.354947,-10732.986159,666.185348,1762.019645
1279.355268,-9918.759623,-1406.391290,-76.609550
1279.355589,-7920.203579,296.082377,-1455.581446
1279.355909,-10214.842000,148.041188,153.219100
1279.356230,-9104.533087,740.205942,1915.238745
1279.356551,-9030.512492,-1184.329507,2145.067394
1279.356872,-9622.677246,-2590.720797,1762.019645
1279.357193,-9400.615463,-3108.864956,3217.601092
1279.357513,-10288.862594,-4441.235652,3370.820191
1279.357834,-9844.739029,-4737.318029,3524.039291
1279.358155,-7698.141797,-4219.173869,842.705048
1279.358476,-9104.533087,-1332.370696,1302.362347
1279.358797,-9030.512492,-518.144159,1225.752797
1279.359117,-8956.491898,-222.061783,536.266849
1279.359438,-9474.636058,592.164754,0.000000
1279.359759,-10140.821405,1628.453072,0.000000
1279.360080,-10881.027347,1702.473667,383.047749
1279.360401,-10881.027347,-518.144159,306.438199
1279.360721,-9770.718434,-666.185348,0.000000
1279.361042,-10066.800811,-148.041188,76.609550
1279.361363,-10436.903782,0.000000,1455.581446
1279.361684,-10510.924376,-370.102971,1532.190996
1279.362005,-9252.574275,-1480.411884,1915.238745
1279.362325,-9252.574275,-1036.288319,1302.362347
1279.362646,-9400.615463,-592.164754,2298.286494
1279.362967,-8956.491898,-1998.556043,2374.896044
1279.363288,-7846.182985,-2294.638420,842.705048
1279.363609,-9104.533087,-1036.288319,995.924147
1279.363930,-9252.574275,-222.061783,995.924147
1279.364250,-9622.677246,222.061783,1532.190996
1279.364571,-9400.615463,2368.659014,536.266849
1279.364892,-10066.800811,2294.638420,-229.828649
1279.365213,-10732.986159,2664.741391,919.314598
1279.365534,-10436.903782,1480.411884,383.047749
1279.365854,-9622.677246,1332.370696,-306.438199
1279.366175,-9770.718434,1258.350101,-1225.752797
1279.366496,-10140.821405,2368.659014,842.705048
1279.366817,-9992.780217,1258.350101,2145.067394
1279.367138,-9548.656652,148.041188,2221.676944
1279.367458,-9326.594869,-370.102971,2068.457845
1279.367779,-9548.656652,-1332.370696,2451.505594
1279.368100,-9400.615463,-2886.803174,2528.115143
1279.368421,-8808.450710,-3330.926739,1302.362347
1279.368742,-8290.306550,-2146.597232,383.047749
1279.369062,-8438.347739,0.000000,1455.581446
1279.369383,-9770.718434,814.226536,1378.971896
1279.369704,-8956.491898,1110.308913,536.266849
1279.370025,-9770.718434,2294.638420,-153.219100
1279.370346,-11103.089130,2590.720797,919.314598
1279.370666,-10584.944971,1776.494261,536.266849
1279.370987,-10214.842000,0.000000,-153.219100
1279.371308,-9400.615463,592.164754,-1302.362347
1279.371629,-9770.718434,1776.494261,-229.828649
1279.371950,-10436.903782,1924.535449,2068.457845
1279.372270,-10066.800811,74.020594,2681.334243
1279.372591,-9400.615463,-1628.453072,1532.190996
1279.372912,-9178.553681,-2294.638420,1991.848295
1279.373233,-8734.430116,-3182.885551,2911.162892
1279.373554,-9030.512492,-3108.864956,2451.505594
1279.373875,-7698.141797,-1924.535449,919.314598
1279.374195,-7994.224174,-592.164754,612.876398
1279.374516,-8956.491898,296.082377,1072.533697
1279.374837,-9770.718434,0.000000,919.314598
1279.375158,-10066.800811,814.226536,766.095498
1279.375479,-11103.089130,2072.576638,383.047749
1279.375799,-11917.315666,1480.411884,1378.971896
1279.376120,-10658.965565,-444.123565,995.924147
1279.376441,-9696.697840,-740.205942,-536.266849
1279.376762,-9548.656652,1110.308913,-919.314598
1279.377083,-10362.883188,1036.288319,459.657299
1279.377403,-8586.388927,444.123565,536.266849
1279.377724,-8364.327145,-1332.370696,536.266849
1279.378045,-9918.759623,-2960.823768,689.485948
1279.378366,-8882.471304,-2812.782580,1378.971896
1279.378687,-9548.656652,-4663.297435,2221.676944
1279.379007,-8734.430116,-5329.482782,1762.019645
1279.379328,-8364.327145,-3256.906145,842.705048
1279.379649,-10066.800811,-1924.535449,1685.410096
1279.379970,-8956.491898,-666.185348,842.705048
1279.380291,-9622.677246,1406.391290,0.000000
1279.380611,-10214.842000,2812.782580,0.000000
1279.380932,-10362.883188,2812.782580,229.828649
1279.381253,-10214.842000,1554.432478,-153.219100
1279.381574,-9548.656652,-222.061783,-919.314598
1279.381895,-9252.574275,-518.144159,-766.095498
1279.382215,-10362.883188,296.082377,1149.143247
1279.382536,-10658.965565,0.000000,2834.553343
1279.382857,-10066.800811,-962.267725,4903.011187
1279.383178,-9474.636058,-2368.659014,1915.238745
1279.383499,-9252.574275,-2516.700203,2681.334243
1279.383820,-9622.677246,-4219.173869,2757.943793
1279.384140,-8438.347739,-3478.967927,2221.676944
1279.384461,-8364.327145,-2590.720797,1378.971896
1279.384782,-8438.347739,-1258.350101,689.485948
1279.385103,-9252.574275,-74.020594,1378.971896
1279.385424,-9696.697840,666.185348,1225.752797
1279.385744,-9400.615463,2368.659014,536.266849
1279.386065,-11325.150913,1628.453072,842.705048
1279.386386,-10955.047942,1702.473667,919.314598
1279.386707,-10140.821405,-814.226536,0.000000
1279.387028,-9474.636058,-296.082377,-1225.752797
1279.387348,-10288.862594,888.247130,689.485948
1279.387669,-10362.883188,888.247130,1762.019645
1279.387990,-9696.697840,370.102971,2834.553343
1279.388311,-9548.656652,-1258.350101,1685.410096
1279.388632,-9252.574275,-1184.329507,2451.505594
1279.388952,-9252.574275,-2590.720797,2451.505594
1279.389273,-8882.471304,-3182.885551,2681.334243
1279.389594,-7920.203579,-2960.823768,1302.362347
1279.389915,-7624.121203,-1554.432478,1838.629195
1279.390236,-9178.553681,-370.102971,612.876398
1279.390556,-8956.491898,1184.329507,306.438199
1279.390877,-9844.739029,2146.597232,536.266849
1279.391198,-9918.759623,3701.029710,306.438199
1279.391519,-10510.924376,1998.556043,459.657299
1279.391840,-10584.944971,962.267725,0.000000
1279.392160,-9770.718434,740.205942,-766.095498
1279.392481,-9770.718434,1480.411884,-229.828649
1279.392802,-10362.883188,1702.473667,1762.019645
1279.393123,-9770.718434,296.082377,2068.457845
1279.393444,-9474.636058,-1184.329507,1302.362347
1279.393765,-9400.615463,-1702.473667,1302.362347
1279.394085,-8438.347739,-2368.659014,1149.143247
1279.394406,-9030.512492,-2960.823768,2068.457845
1279.394727,-8438.347739,-2960.823768,1608.800546
1279.395048,-8364.327145,-1554.432478,1149.143247
1279.395369,-8956.491898,0.000000,383.047749
1279.395689,-9400.615463,888.247130,1225.752797
1279.396010,-9548.656652,2072.576638,612.876398
1279.396331,-10584.944971,2886.803174,689.485948
1279.396652,-11325.150913,2960.823768,1532.190996
1279.396973,-10584.944971,666.185348,459.657299
1279.397293,-9400.615463,-814.226536,-766.095498
1279.397614,-9474.636058,0.000000,-689.485948
1279.397935,-9992.780217,1258.350101,842.705048
1279.398256,-10214.842000,-148.041188,1991.848295
1279.398577,-9030.512492,-592.164754,1608.800546
1279.398897,-8586.388927,-1258.350101,459.657299
1279.399218,-9252.574275,-2220.617826,766.095498
1279.399539,-9104.533087,-2220.617826,1225.752797
1279.399860,-8808.450710,-3330.926739,1378.971896
1279.400181,-7920.203579,-1702.473667,689.485948
1279.400501,-9178.553681,-296.082377,995.924147
1279.400822,-9992.780217,370.102971,3217.601092
1279.401143,-10658.965565,0.000000,1991.848295
1279.401463,-10510.924376,518.144159,1302.362347
1279.401784,-10436.903782,888.247130,1149.143247
1279.402104,-10732.986159,148.041188,689.485948
1279.402425,-9696.697840,-666.185348,1149.143247
1279.402746,-8586.388927,0.000000,-1378.971896
1279.403066,-9030.512492,1184.329507,0.000000
1279.403387,-9252.574275,1406.391290,1455.581446
1279.403707,-9992.780217,-666.185348,1762.019645
1279.404028,-9770.718434,-1332.370696,1915.238745
1279.404349,-9844.739029,-1776.494261,1838.629195
1279.404669,-10288.862594,-2294.638420,2145.067394
1279.404990,-9030.512492,-2590.720797,2528.115143
1279.405310,-9030.512492,-2220.617826,842.705048
1279.405631,-8512.368333,-740.205942,1455.581446
1279.405952,-9548.656652,-296.082377,689.485948
1279.406272,-9548.656652,444.123565,1149.143247
1279.406593,-9474.636058,740.205942,-536.266849
1279.406913,-10066.800811,1924.535449,459.657299
1279.407234,-10658.965565,1332.370696,1072.533697
1279.407555,-9844.739029,-370.102971,306.438199
1279.407875,-9696.697840,-814.226536,2068.457845
1279.408196,-9992.780217,370.102971,306.438199
1279.408516,-10732.986159,148.041188,2374.896044
1279.408837,-10955.047942,-148.041188,4443.353888
1279.409158,-9992.780217,-1776.494261,3294.210641
1279.409478,-9696.697840,-2368.659014,3140.991542
1279.409799,-9474.636058,-2960.823768,3064.381992
1279.410119,-8438.347739,-3330.926739,2298.286494
1279.410440,-7920.203579,-2590.720797,1072.533697
1279.410761,-7698.141797,-1776.494261,306.438199
1279.411081,-7624.121203,592.164754,0.000000
1279.411402,-8882.471304,0.000000,0.000000
1279.411722,-8660.409521,666.185348,-306.438199
1279.412043,-10658.965565,2220.617826,919.314598
1279.412363,-11399.171507,1702.473667,1072.533697
1279.412684,-10510.924376,962.267725,1608.800546
1279.413005,-10807.006753,-1110.308913,1072.533697
1279.413325,-10066.800811,-222.061783,229.828649
1279.413646,-10066.800811,370.102971,229.828649
1279.413966,-10288.862594,888.247130,1149.143247
1279.414287,-9030.512492,0.000000,1302.362347
1279.414608,-8808.450710,-666.185348,612.876398
1279.414928,-9548.656652,-592.164754,459.657299
1279.415249,-8882.471304,-1480.411884,1608.800546
1279.415569,-9030.512492,-2812.782580,1455.581446
1279.415890,-8512.368333,-2442.679609,1225.752797
1279.416211,-9622.677246,74.020594,2528.115143
1279.416531,-10140.821405,74.020594,2145.067394
1279.416852,-9770.718434,296.082377,1455.581446
1279.417172,-10066.800811,1924.535449,536.266849
1279.417493,-10510.924376,2368.659014,459.657299
1279.417814,-11029.068536,2294.638420,1149.143247
1279.418134,-10288.862594,518.144159,229.828649
1279.418455,-9548.656652,444.123565,-383.047749
1279.418775,-10288.862594,740.205942,306.438199
1279.419096,-9178.553681,1036.288319,1149.143247
1279.419417,-10436.903782,-222.061783,2528.115143
1279.419737,-9178.553681,-666.185348,2451.505594
1279.420058,-9400.615463,-1406.391290,1762.019645
1279.420378,-9326.594869,-3108.864956,4213.525239
1279.420699,-8216.285956,-2294.638420,1378.971896
1279.421020,-8660.409521,-1924.535449,1532.190996
1279.421340,-8956.491898,-222.061783,1762.019645
1279.421661,-9030.512492,-148.041188,1685.410096
1279.421981,-8808.450710,-296.082377,995.924147
1279.422302,-9770.718434,296.082377,689.485948
1279.422623,-11103.089130,1110.308913,1378.971896
1279.422943,-11029.068536,814.226536,2298.286494
1279.423264,-10362.883188,370.102971,1455.581446
1279.423584,-9178.553681,74.020594,-842.705048
1279.423905,-9696.697840,962.267725,-842.705048
1279.424226,-10066.800811,1258.350101,842.705048
1279.424546,-9326.594869,-1184.329507,536.266849
1279.424867,-8512.368333,-814.226536,153.219100
1279.425187,-8808.450710,-962.267725,0.000000
1279.425508,-8808.450710,-1332.370696,1072.533697
1279.425829,-9696.697840,-2664.741391,2068.457845
1279.426149,-8364.327145,-2220.617826,1608.800546
1279.426470,-9252.574275,-1554.432478,383.047749
1279.426790,-10288.862594,0.000000,1225.752797
1279.427111,-10288.862594,0.000000,1225.752797
1279.427432,-9030.512492,518.144159,766.095498
1279.427752,-10214.842000,1258.350101,383.047749
1279.428073,-10066.800811,1110.308913,612.876398
1279.428393,-9992.780217,-74.020594,153.219100
1279.428714,-9770.718434,-2146.597232,-1149.143247
1279.429034,-8068.244768,592.164754,-1149.143247
1279.429355,-10732.986159,148.041188,383.047749
1279.429676,-9918.759623,666.185348,2298.286494
1279.429996,-9918.759623,-370.102971,1608.800546
1279.430317,-9844.739029,-2220.617826,689.485948
1279.430637,-9622.677246,-962.267725,1991.848295
1279.430958,-10288.862594,-2886.803174,2451.505594
1279.431279,-8808.450710,-3034.844362,1762.019645
1279.431599,-7920.203579,-1702.473667,995.924147
1279.431920,-8808.450710,0.000000,612.876398
1279.432240,-9326.594869,222.061783,1225.752797
1279.432561,-9622.677246,370.102971,766.095498
1279.432882,-8586.388927,814.226536,-459.657299
1279.433202,-10732.986159,1480.411884,689.485948
1279.433523,-10881.027347,1184.329507,1685.410096
1279.433843,-10658.965565,0.000000,1915.238745
1279.434164,-10140.821405,-592.164754,1378.971896
1279.434485,-9918.759623,370.102971,1532.190996
1279.434805,-10436.903782,0.000000,2451.505594
1279.435126,-10066.800811,-2072.576638,1915.238745
1279.435446,-8290.306550,-888.247130,1915.238745
1279.435767,-9844.739029,-1628.453072,2298.286494
1279.436088,-8808.450710,-2072.576638,2145.067394
1279.436408,-8364.327145,-2960.823768,1378.971896
1279.436729,-9400.615463,-2664.741391,842.705048
1279.437049,-8882.471304,-1184.329507,536.266849
1279.437370,-9918.759623,-296.082377,1455.581446
1279.437691,-9474.636058,-148.041188,1532.190996
1279.438011,-9326.594869,-148.041188,0.000000
1279.438332,-10955.047942,1258.350101,842.705048
1279.438652,-10658.965565,814.226536,536.266849
1279.438973,-10288.862594,-296.082377,0.000000
1279.439294,-9474.636058,-444.123565,-536.266849
1279.439614,-8956.491898,666.185348,-612.876398
1279.439935,-10214.842000,1554.432478,1685.410096
1279.440255,-10362.883188,-222.061783,2451.505594
1279.440576,-9400.615463,-1628.453072,1149.143247
1279.440897,-9548.656652,-1850.514855,842.705048
1279.441217,-9696.697840,-1554.432478,2757.943793
1279.441538,-9622.677246,-1998.556043,2374.896044
1279.441858,-8586.388927,-1258.350101,1455.581446
1279.442179,-8586.388927,-592.164754,536.266849
1279.442500,-8956.491898,222.061783,0.000000
1279.442820,-9696.697840,666.185348,689.485948
1279.443141,-9696.697840,1110.308913,76.609550
1279.443461,-9622.677246,2368.659014,76.609550
1279.443782,-10510.924376,2220.617826,536.266849
1279.444102,-10510.924376,370.102971,995.924147
1279.444423,-9770.718434,-518.144159,0.000000
1279.444744,-9918.759623,-370.102971,-612.876398
1279.445064,-9992.780217,1332.370696,995.924147
1279.445385,-10510.924376,888.247130,2528.115143
1279.445705,-9992.780217,0.000000,2987.772442
1279.446026,-9104.533087,-962.267725,2145.067394
1279.446347,-9474.636058,-1554.432478,2221.676944
1279.446667,-9474.636058,-2738.761985,1302.362347
1279.446988,-8882.471304,-3701.029710,1225.752797
1279.447308,-7846.182985,-1702.473667,536.266849
1279.447629,-9178.553681,222.061783,459.657299
1279.447950,-9622.677246,1554.432478,1302.362347
1279.448270,-9696.697840,1258.350101,1302.362347
1279.448591,-10288.862594,1110.308913,995.924147
1279.448911,-10732.986159,1480.411884,1149.143247
1279.449232,-11103.089130,370.102971,1838.629195
1279.449553,-9918.759623,-1776.494261,612.876398
1279.449873,-9104.533087,-1258.350101,-612.876398
1279.450194,-9104.533087,222.061783,229.828649
1279.450514,-10288.862594,370.102971,1915.238745
1279.450835,-9548.656652,-666.185348,3447.429741
1279.451156,-9400.615463,-1628.453072,1532.190996
1279.451476,-9474.636058,-1702.473667,1072.533697
1279.451797,-9548.656652,-1924.535449,1685.410096
1279.452117,-9178.553681,-2368.659014,1149.143247
1279.452438,-8216.285956,-1110.308913,1149.143247
1279.452759,-8438.347739,0.000000,76.609550
1279.453079,-9474.636058,444.123565,0.000000
1279.453400,-9770.718434,592.164754,536.266849
1279.453720,-10288.862594,814.226536,153.219100
1279.454041,-10362.883188,1406.391290,306.438199
1279.454362,-10584.944971,444.123565,536.266849
1279.454682,-9696.697840,-1332.370696,306.438199
1279.455003,-9548.656652,-1036.288319,-306.438199
1279.455323,-9474.636058,-296.082377,0.000000
1279.455644,-9770.718434,1036.288319,1072.533697
1279.455965,-9770.718434,148.041188,2374.896044
1279.456285,-9474.636058,-370.102971,1378.971896
1279.456606,-9474.636058,-222.061783,1762.019645
1279.456926,-9918.759623,-1332.370696,2145.067394
1279.457247,-9030.512492,-2664.741391,1762.019645
1279.457568,-7846.182985,-2738.761985,229.828649
1279.457888,-8364.327145,-1776.494261,-919.314598
1279.458209,-8956.491898,0.000000,0.000000
1279.458529,-9622.677246,740.205942,919.314598
1279.458850,-9992.780217,1258.350101,995.924147
1279.459170,-11103.089130,3256.906145,1072.533697
1279.459491,-12139.377449,2146.597232,3447.429741
1279.459812,-11547.212695,0.000000,3907.087040
1279.460132,-10510.924376,-2738.761985,1915.238745
1279.460453,-9030.512492,-2664.741391,-383.047749
1279.460773,-8734.430116,296.082377,689.485948
1279.461094,-9770.718434,962.267725,2451.505594
1279.461415,-9252.574275,444.123565,2757.943793
1279.461735,-8438.347739,-296.082377,1762.019645
1279.462056,-8364.327145,-1258.350101,1608.800546
1279.462376,-9326.594869,-2590.720797,2221.676944
1279.462697,-9696.697840,-3404.947333,2987.772442
1279.463018,-8438.347739,-2960.823768,1302.362347
1279.463338,-9400.615463,0.000000,919.314598
1279.463659,-9770.718434,-370.102971,1225.752797
1279.463979,-9104.533087,888.247130,995.924147
1279.464300,-10436.903782,962.267725,689.485948
1279.464621,-10955.047942,2368.659014,919.314598
1279.464941,-10510.924376,1258.350101,766.095498
1279.465262,-10140.821405,-740.205942,229.828649
1279.465582,-9178.553681,-1480.411884,-919.314598
1279.465903,-9844.739029,-370.102971,-459.657299
1279.466224,-10288.862594,74.020594,1225.752797
1279.466544,-9622.677246,-518.144159,1838.629195
1279.466865,-10214.842000,-1258.350101,2451.505594
1279.467185,-9918.759623,-1258.350101,2681.334243
1279.467506,-9474.636058,-1258.350101,2528.115143
1279.467827,-9770.718434,-2664.741391,2374.896044
1279.468147,-8734.430116,-2664.741391,995.924147
1279.468468,-8512.368333,-1628.453072,0.000000
1279.468788,-8734.430116,-518.144159,-536.266849
1279.469109,-9178.553681,888.247130,-229.828649
1279.469430,-9104.533087,2220.617826,-536.266849
1279.469750,-9844.739029,2812.782580,-459.657299
1279.470071,-10955.047942,2072.576638,1072.533697
1279.470391,-9992.780217,0.000000,0.000000
1279.470712,-10140.821405,-1184.329507,76.609550
1279.471033,-9696.697840,-370.102971,0.000000
1279.471353,-10288.862594,148.041188,2145.067394
1279.471674,-10436.903782,-148.041188,2298.286494
1279.471994,-9326.594869,-962.267725,2298.286494
1279.472315,-9548.656652,-1258.350101,1762.019645
1279.472636,-9030.512492,-1480.411884,2145.067394
1279.472956,-9030.512492,-2664.741391,1915.238745
1279.473277,-8364.327145,-2738.761985,1378.971896
1279.473597,-8068.244768,-1258.350101,612.876398
1279.473918,-9252.574275,-518.144159,1302.362347
1279.474239,-9326.594869,370.102971,1838.629195
1279.474559,-9622.677246,666.185348,919.314598
1279.474880,-10658.965565,1850.514855,1302.362347
1279.475200,-11029.068536,2146.597232,1685.410096
1279.475521,-10658.965565,666.185348,1072.533697
1279.475841,-9992.780217,-740.205942,-153.219100
1279.476162,-9252.574275,296.082377,-612.876398
1279.476483,-10066.800811,1480.411884,689.485948
1279.476803,-10140.821405,814.226536,2298.286494
1279.477124,-9548.656652,-814.226536,1225.752797
1279.477444,-9178.553681,-1184.329507,1225.752797
1279.477765,-9696.697840,-888.247130,1455.581446
1279.478086,-9770.718434,-1702.473667,1915.238745
1279.478406,-8808.450710,-2368.659014,1225.752797
1279.478727,-8438.347739,-1406.391290,1072.533697
1279.479047,-9178.553681,0.000000,76.609550
1279.479368,-9770.718434,592.164754,459.657299
1279.479689,-10436.903782,740.205942,1149.143247
1279.480009,-9326.594869,2220.617826,-1762.019645
1279.480330,-11103.089130,2368.659014,153.219100
1279.480650,-10955.047942,1332.370696,383.047749
1279.480971,-9918.759623,-222.061783,-459.657299
1279.481292,-10214.842000,-296.082377,-1532.190996
1279.481612,-9770.718434,814.226536,153.219100
1279.481933,-9622.677246,74.020594,1302.362347
1279.482253,-9696.697840,-1036.288319,1991.848295
1279.482574,-8586.388927,-1554.432478,1072.533697
1279.482895,-8734.430116,-740.205942,766.095498
1279.483215,-8808.450710,-1998.556043,1991.848295
1279.483536,-8216.285956,-2442.679609,1991.848295
1279.483856,-8216.285956,-2368.659014,689.485948
1279.484177,-6883.915261,0.000000,612.876398
1279.484498,-10140.821405,-296.082377,1455.581446
1279.484818,-8956.491898,1110.308913,2068.457845
1279.485139,-10436.903782,1258.350101,1915.238745
1279.485459,-10955.047942,1850.514855,3524.039291
1279.485780,-10955.047942,1258.350101,1915.238745
1279.486101,-10658.965565,-370.102971,1455.581446
1279.486421,-8660.409521,-444.123565,-689.485948
1279.486742,-9474.636058,296.082377,0.000000
1279.487062,-10140.821405,1110.308913,2298.286494
1279.487383,-9474.636058,-148.041188,2451.505594
1279.487704,-9178.553681,-1628.453072,1685.410096
1279.488024,-9252.574275,-2146.597232,2068.457845
1279.488345,-10214.842000,-2072.576638,2451.505594
1279.488665,-9992.780217,-3627.009116,3907.087040
1279.488986,-8882.471304,-3404.947333,2068.457845
1279.489307,-7846.182985,-2294.638420,1225.752797
1279.489627,-9030.512492,-1036.288319,919.314598
1279.489948,-9474.636058,0.000000,995.924147
1279.490268,-9104.533087,1036.288319,229.828649
1279.490589,-10436.903782,1776.494261,229.828649
1279.490909,-10436.903782,1776.494261,459.657299
1279.491230,-10066.800811,222.061783,-689.485948
1279.491551,-10584.944971,-444.123565,-536.266849
1279.491871,-10288.862594,814.226536,0.000000
1279.492192,-10955.047942,1036.288319,2145.067394
1279.492512,-10732.986159,-370.102971,2451.505594
1279.492833,-9474.636058,-2368.659014,2298.286494
1279.493154,-9622.677246,-2664.741391,1455.581446
1279.493474,-9474.636058,-2368.659014,1455.581446
1279.493795,-9104.533087,-3182.885551,1991.848295
1279.494115,-8364.327145,-2516.700203,1838.629195
1279.494436,-7550.100608,-1332.370696,-689.485948
1279.494757,-9030.512492,370.102971,0.000000
1279.495077,-9178.553681,1110.308913,612.876398
1279.495398,-9622.677246,814.226536,612.876398
1279.495718,-9844.739029,1184.329507,-459.657299
1279.496039,-10510.924376,1850.514855,-459.657299
1279.496360,-11029.068536,2664.741391,766.095498
1279.496680,-10436.903782,962.267725,-306.438199
1279.497001,-9252.574275,888.247130,-536.266849
1279.497321,-9548.656652,1036.288319,-612.876398
1279.497642,-9770.718434,814.226536,1149.143247
1279.497963,-9844.739029,-592.164754,1991.848295
1279.498283,-8438.347739,-2442.679609,919.314598
1279.498604,-8438.347739,-1924.535449,1762.019645
1279.498924,-9104.533087,-2368.659014,2604.724693
1279.499245,-9252.574275,-3552.988522,2987.772442
1279.499566,-8068.244768,-2442.679609,2221.676944
1279.499886,-9252.574275,-2738.761985,2068.457845
1279.500207,-9030.512492,-814.226536,1302.362347
1279.500528,-9918.759623,296.082377,1838.629195
1279.500848,-9918.759623,1554.432478,1302.362347
1279.501169,-10066.800811,3256.906145,766.095498
1279.501490,-10510.924376,2590.720797,1072.533697
1279.501811,-10584.944971,444.123565,0.000000
1279.502132,-9474.636058,740.205942,-995.924147
1279.502452,-10362.883188,1850.514855,1608.800546
1279.502773,-10584.944971,2368.659014,1762.019645
1279.503094,-10807.006753,962.267725,2987.772442
1279.503415,-9548.656652,-592.164754,2145.067394
1279.503735,-9622.677246,-1332.370696,2451.505594
1279.504056,-10066.800811,-2442.679609,3524.039291
1279.504377,-9252.574275,-4219.173869,3064.381992
1279.504698,-7772.162391,-3923.091493,1072.533697
1279.505019,-7698.141797,-2146.597232,76.609550
1279.505339,-9474.636058,444.123565,536.266849
1279.505660,-9622.677246,888.247130,1072.533697
1279.505981,-8882.471304,2146.597232,-306.438199
1279.506302,-9918.759623,2812.782580,153.219100
1279.506622,-12287.418637,3701.029710,1991.848295
1279.506943,-10807.006753,1036.288319,1378.971896
1279.507264,-10214.842000,-444.123565,-842.705048
1279.507585,-9474.636058,814.226536,-1072.533697
1279.507906,-9178.553681,740.205942,-1149.143247
1279.508226,-9844.739029,1332.370696,2374.896044
1279.508547,-8882.471304,-1258.350101,1455.581446
1279.508868,-9252.574275,-2146.597232,766.095498
1279.509189,-8438.347739,-3108.864956,1378.971896
1279.509509,-7846.182985,-3627.009116,2757.943793
1279.509830,-8882.471304,-3182.885551,2221.676944
1279.510151,-8734.430116,-2516.700203,1608.800546
1279.510472,-8660.409521,-740.205942,995.924147
1279.510793,-9770.718434,-222.061783,1149.143247
1279.511113,-8956.491898,148.041188,153.219100
1279.511434,-10362.883188,1850.514855,306.438199
1279.511755,-11547.212695,2960.823768,689.485948
1279.512076,-10510.924376,2146.597232,689.485948
1279.512396,-9622.677246,518.144159,-1072.533697
1279.512717,-9474.636058,296.082377,-1991.848295
1279.513038,-10140.821405,1924.535449,0.000000
1279.513359,-11177.109724,666.185348,2298.286494
1279.513679,-8956.491898,-1332.370696,2298.286494
1279.514000,-8956.491898,-2738.761985,1455.581446
1279.514321,-9252.574275,-2960.823768,1915.238745
1279.514642,-9918.759623,-3108.864956,3753.867940
1279.514963,-8956.491898,-4441.235652,2834.553343
1279.515283,-6883.915261,-3997.112087,919.314598
1279.515604,-7624.121203,-1998.556043,-689.485948
1279.515925,-8734.430116,-148.041188,229.828649
1279.516246,-9548.656652,740.205942,1302.362347
1279.516566,-10140.821405,1036.288319,1072.533697
1279.516887,-10955.047942,2072.576638,1225.752797
1279.517208,-12139.377449,1332.370696,2374.896044
1279.517529,-12065.356855,-592.164754,2528.115143
1279.517850,-11251.130318,0.000000,842.705048
1279.518170,-10066.800811,370.102971,842.705048
1279.518491,-9844.739029,962.267725,1302.362347
1279.518812,-8956.491898,148.041188,1762.019645
1279.519133,-8808.450710,-1628.453072,919.314598
1279.519453,-7994.224174,-1702.473667,536.266849
1279.519774,-8512.368333,-1776.494261,1455.581446
1279.520095,-8956.491898,-2664.741391,2528.115143
1279.520416,-8660.409521,-2738.761985,2145.067394
1279.520737,-8734.430116,-1924.535449,2068.457845
1279.521057,-9992.780217,-962.267725,2374.896044
1279.521378,-9474.636058,296.082377,1378.971896
1279.521699,-9474.636058,814.226536,1225.752797
1279.522020,-10807.006753,2664.741391,-995.924147
1279.522340,-10510.924376,2368.659014,536.266849
1279.522661,-10214.842000,1258.350101,0.000000
1279.522982,-9770.718434,1036.288319,-612.876398
1279.523303,-8956.491898,1258.350101,-1838.629195
1279.523624,-10732.986159,2294.638420,842.705048
1279.523944,-10362.883188,1480.411884,2145.067394
1279.524265,-9548.656652,-370.102971,1685.410096
1279.524586,-9030.512492,-1332.370696,1762.019645
1279.524907,-9770.718434,-1258.350101,3140.991542
1279.525227,-10066.800811,-2442.679609,3677.258390
1279.525548,-9474.636058,-2960.823768,3217.601092
1279.525869,-7920.203579,-2442.679609,1532.190996
1279.526190,-8290.306550,-888.247130,766.095498
1279.526510,-9548.656652,0.000000,1149.143247
1279.526831,-9622.677246,962.267725,1149.143247
1279.527152,-9918.759623,1406.391290,0.000000
1279.527473,-9474.636058,2368.659014,-306.438199
1279.527794,-10362.883188,1184.329507,-459.657299
1279.528114,-9326.594869,296.082377,-919.314598
1279.528435,-9844.739029,0.000000,-1378.971896
1279.528756,-9992.780217,1406.391290,-153.219100
1279.529077,-10214.842000,592.164754,919.314598
1279.529397,-10288.862594,-370.102971,1991.848295
1279.529718,-9844.739029,-1480.411884,1915.238745
1279.530039,-9474.636058,-1332.370696,2068.457845
1279.530360,-9252.574275,-2294.638420,1072.533697
1279.530681,-8660.409521,-3182.885551,1532.190996
1279.531001,-7920.203579,-2220.617826,-76.609550
1279.531322,-8586.388927,74.020594,0.000000
1279.531643,-9104.533087,1406.391290,536.266849
1279.531964,-9918.759623,1554.432478,842.705048
1279.532284,-10214.842000,1702.473667,612.876398
1279.532605,-10955.047942,1702.473667,689.485948
1279.532926,-11473.192101,1702.473667,1378.971896
1279.533247,-10881.027347,222.061783,766.095498
1279.533568,-9696.697840,444.123565,0.000000
1279.533888,-9844.739029,1036.288319,-383.047749
1279.534209,-9844.739029,1406.391290,689.485948
1279.534530,-9474.636058,1110.308913,995.924147
1279.534851,-9030.512492,-1110.308913,919.314598
1279.535171,-8660.409521,-1480.411884,1225.752797
1279.535492,-9178.553681,-2590.720797,2145.067394
1279.535813,-8956.491898,-3627.009116,3217.601092
1279.536134,-8290.306550,-3775.050304,2911.162892
1279.536455,-8956.491898,-3627.009116,1532.190996
1279.536775,-8364.327145,-1406.391290,1225.752797
1279.537096,-9622.677246,-296.082377,1532.190996
1279.537417,-9178.553681,1258.350101,2145.067394
1279.537738,-9992.780217,1406.391290,1225.752797
1279.538058,-10436.903782,1850.514855,1685.410096
1279.538379,-10436.903782,-1110.308913,229.828649
1279.538700,-10584.944971,-1110.308913,-919.314598
1279.539021,-9548.656652,-370.102971,-306.438199
1279.539341,-10584.944971,518.144159,383.047749
1279.539662,-9770.718434,2516.700203,1991.848295
1279.539983,-9992.780217,-296.082377,1915.238745
1279.540304,-8586.388927,-666.185348,766.095498
1279.540625,-9474.636058,-1554.432478,2221.676944
1279.540945,-9252.574275,-3552.988522,2604.724693
1279.541266,-7920.203579,-4145.153275,1532.190996
1279.541587,-8290.306550,-2960.823768,153.219100
1279.541908,-8364.327145,-1332.370696,689.485948
1279.542228,-8808.450710,148.041188,1455.581446
1279.542549,-10214.842000,888.247130,1915.238745
1279.542870,-10807.006753,1924.535449,-229.828649
1279.543191,-11473.192101,2294.638420,2068.457845
1279.543512,-11547.212695,148.041188,1685.410096
1279.543832,-10510.924376,-370.102971,306.438199
1279.544153,-10140.821405,0.000000,-1149.143247
1279.544474,-9548.656652,1110.308913,-383.047749
1279.544795,-9770.718434,1628.453072,919.314598
1279.545115,-9548.656652,148.041188,766.095498
1279.545436,-9178.553681,-814.226536,459.657299
1279.545757,-10066.800811,-888.247130,1149.143247
1279.546078,-9696.697840,-2220.617826,2451.505594
1279.546399,-9474.636058,-3330.926739,2451.505594
1279.546719,-8364.327145,-2886.803174,1378.971896
1279.547040,-8364.327145,-2146.597232,995.924147
1279.547361,-9474.636058,-740.205942,1149.143247
1279.547682,-9178.553681,444.123565,1455.581446
1279.548002,-9548.656652,1480.411884,536.266849
1279.548323,-10436.903782,3182.885551,919.314598
1279.548644,-10807.006753,1776.494261,1072.533697
1279.548965,-9992.780217,0.000000,995.924147
1279.549285,-9474.636058,-666.185348,-612.876398
1279.549606,-9992.780217,222.061783,76.609550
1279.549927,-9770.718434,962.267725,2298.286494
1279.550248,-9770.718434,444.123565,2757.943793
1279.550569,-9252.574275,-814.226536,2298.286494
1279.550889,-8364.327145,-1332.370696,1608.800546
1279.551210,-8808.450710,-1776.494261,2068.457845
1279.551531,-8808.450710,-3552.988522,1915.238745
1279.551852,-7994.224174,-2146.597232,1072.533697
1279.552172,-8512.368333,-666.185348,1762.019645
1279.552493,-9252.574275,0.000000,2068.457845
1279.552814,-9622.677246,-370.102971,2451.505594
1279.553135,-10140.821405,-148.041188,1685.410096
1279.553456,-9918.759623,666.185348,306.438199
1279.553776,-10658.965565,1480.411884,842.705048
1279.554097,-10066.800811,518.144159,766.095498
1279.554418,-9770.718434,0.000000,-612.876398
1279.554739,-8808.450710,1628.453072,-995.924147
1279.555059,-10362.883188,0.000000,459.657299
1279.555380,-9474.636058,666.185348,1378.971896
1279.555701,-10807.006753,-1110.308913,1762.019645
1279.556022,-9400.615463,-666.185348,689.485948
1279.556343,-9844.739029,-222.061783,2145.067394
1279.556663,-9474.636058,-2368.659014,1838.629195
1279.556984,-8734.430116,-2072.576638,536.266849
1279.557305,-8290.306550,-1554.432478,-383.047749
1279.557626,-8956.491898,-222.061783,0.000000
1279.557946,-9474.636058,518.144159,689.485948
1279.558267,-10584.944971,222.061783,0.000000
1279.558588,-10436.903782,1110.308913,153.219100
1279.558909,-10955.047942,1850.514855,689.485948
1279.559230,-10732.986159,370.102971,1072.533697
1279.559550,-10214.842000,-370.102971,459.657299
1279.559871,-9474.636058,-444.123565,-1225.752797
1279.560192,-10066.800811,888.247130,-306.438199
1279.560513,-10066.800811,1036.288319,1455.581446
1279.560833,-8956.491898,0.000000,1455.581446
1279.561154,-9252.574275,-666.185348,612.876398
1279.561475,-9548.656652,-518.144159,1838.629195
1279.561796,-9770.718434,-2294.638420,2451.505594
1279.562116,-9252.574275,-3627.009116,2757.943793
1279.562437,-7624.121203,-3552.988522,1378.971896
1279.562758,-8586.388927,-2516.700203,995.924147
1279.563079,-9696.697840,-1036.288319,1685.410096
1279.563400,-8438.347739,-370.102971,1685.410096
1279.563720,-8956.491898,888.247130,612.876398
1279.564041,-9622.677246,1924.535449,842.705048
1279.564362,-10288.862594,2072.576638,1149.143247
1279.564683,-10288.862594,296.082377,1149.143247
1279.565003,-9178.553681,74.020594,459.657299
1279.565324,-8586.388927,0.000000,383.047749
1279.565645,-9696.697840,0.000000,2298.286494
1279.565966,-10288.862594,-962.267725,2987.772442
1279.566287,-9252.574275,-2072.576638,2298.286494
1279.566607,-9030.512492,-1184.329507,-383.047749
1279.566928,-9474.636058,-1258.350101,2451.505594
1279.567249,-8734.430116,-2516.700203,1838.629195
1279.567570,-7846.182985,-2368.659014,766.095498
1279.567890,-8438.347739,-1480.411884,612.876398
1279.568211,-8438.347739,-740.205942,383.047749
1279.568532,-9992.780217,-296.082377,1072.533697
1279.568853,-10066.800811,148.041188,1225.752797
1279.569174,-10807.006753,1258.350101,995.924147
1279.569494,-12435.459826,1406.391290,1838.629195
1279.569815,-11103.089130,592.164754,1378.971896
1279.570136,-10214.842000,-370.102971,-153.219100
1279.570457,-10066.800811,518.144159,-612.876398
1279.570777,-10881.027347,1554.432478,766.095498
1279.571098,-10140.821405,0.000000,1302.362347
1279.571419,-9178.553681,-1332.370696,995.924147
1279.571740,-8808.450710,-2442.679609,306.438199
1279.572061,-9326.594869,-2146.597232,536.266849
1279.572381,-9770.718434,-2442.679609,1915.238745
1279.572702,-8808.450710,-1554.432478,1225.752797
1279.573023,-8586.388927,-444.123565,536.266849
1279.573344,-9474.636058,1110.308913,919.314598
1279.573664,-10140.821405,666.185348,459.657299
1279.573985,-9548.656652,444.123565,229.828649
1279.574306,-9770.718434,740.205942,0.000000
1279.574627,-10288.862594,1702.473667,1072.533697
1279.574947,-11177.109724,222.061783,2374.896044
1279.575268,-9474.636058,0.000000,536.266849
1279.575589,-9400.615463,666.185348,-536.266849
1279.575910,-9770.718434,2220.617826,1302.362347
1279.576231,-9918.759623,1480.411884,1991.848295
1279.576551,-9400.615463,0.000000,2528.115143
1279.576872,-8290.306550,-1776.494261,459.657299
1279.577193,-8364.327145,-1554.432478,1378.971896
1279.577514,-9252.574275,-2220.617826,2374.896044
1279.577834,-8290.306550,-2664.741391,3294.210641
1279.578155,-8438.347739,-1110.308913,1532.190996
1279.578476,-8882.471304,0.000000,1225.752797
1279.578797,-9474.636058,296.082377,1378.971896
1279.579118,-10288.862594,1184.329507,2068.457845
1279.579438,-9992.780217,740.205942,766.095498
1279.579759,-10955.047942,1702.473667,1532.190996
1279.580080,-11251.130318,444.123565,1838.629195
1279.580401,-10066.800811,-1184.329507,995.924147
1279.580721,-9696.697840,-1184.329507,-229.828649
1279.581042,-9844.739029,518.144159,995.924147
1279.581363,-10658.965565,0.000000,1762.019645
1279.581684,-9622.677246,-74.020594,2528.115143
1279.582005,-9844.739029,-1480.411884,1225.752797
1279.582325,-8660.409521,-1628.453072,0.000000
1279.582646,-9474.636058,-1628.453072,1149.143247
1279.582967,-9770.718434,-2368.659014,1685.410096
1279.583288,-8586.388927,-1184.329507,-229.828649
1279.583608,-9474.636058,-444.123565,612.876398
1279.583929,-9918.759623,1258.350101,1685.410096
1279.584250,-11177.109724,592.164754,1991.848295
1279.584571,-10881.027347,666.185348,1072.533697
1279.584892,-10362.883188,1110.308913,-306.438199
1279.585212,-10066.800811,2220.617826,-1225.752797
1279.585533,-9696.697840,740.205942,-1532.190996
1279.585854,-8586.388927,148.041188,-2068.457845
1279.586175,-8290.306550,1036.288319,-1991.848295
1279.586495,-9548.656652,740.205942,0.000000
1279.586816,-10732.986159,0.000000,1915.238745
1279.587137,-10732.986159,-1184.329507,2834.553343
1279.587458,-11103.089130,-2072.576638,1455.581446
1279.587778,-9030.512492,-1850.514855,2834.553343
1279.588099,-9474.636058,-3182.885551,2221.676944
1279.588420,-7994.224174,-2738.761985,1455.581446
1279.588741,-7920.203579,-2442.679609,0.000000
1279.589062,-8068.244768,-222.061783,306.438199
1279.589382,-8808.450710,-370.102971,689.485948
1279.589703,-9178.553681,666.185348,536.266849
1279.590024,-10288.862594,1036.288319,689.485948
1279.590345,-9992.780217,2960.823768,2068.457845
1279.590665,-11621.233289,-296.082377,2451.505594
1279.590986,-8882.471304,-962.267725,1378.971896
1279.591307,-9992.780217,-1406.391290,229.828649
1279.591628,-9400.615463,592.164754,2757.943793
1279.591949,-10066.800811,592.164754,2451.505594
1279.592269,-9474.636058,74.020594,2374.896044
1279.592590,-7994.224174,-296.082377,1302.362347
1279.592911,-9474.636058,-962.267725,1991.848295
1279.593232,-9474.636058,-2220.617826,3217.601092
1279.593552,-9252.574275,-4071.132681,2757.943793
1279.593873,-8956.491898,-3404.947333,1838.629195
1279.594194,-9326.594869,-1332.370696,2068.457845
1279.594515,-10510.924376,74.020594,2757.943793
1279.594836,-10140.821405,2146.597232,2374.896044
1279.595156,-9844.739029,2590.720797,536.266849
1279.595477,-10658.965565,2442.679609,842.705048
1279.595798,-11251.130318,1776.494261,1838.629195
1279.596119,-10510.924376,-962.267725,76.609550
1279.596439,-9474.636058,-1036.288319,-1149.143247
1279.596760,-10510.924376,-74.020594,229.828649
1279.597081,-10362.883188,814.226536,1991.848295
1279.597402,-10955.047942,-296.082377,2221.676944
1279.597722,-10214.842000,-592.164754,1838.629195
1279.598043,-10066.800811,-1110.308913,1685.410096
1279.598364,-9770.718434,-2146.597232,1838.629195
1279.598685,-9770.718434,-3330.926739,842.705048
1279.599006,-7254.018232,-3552.988522,-459.657299
1279.599326,-7920.203579,-2146.597232,-842.705048
1279.599647,-8142.265362,-444.123565,-229.828649
1279.599968,-8956.491898,1184.329507,459.657299
1279.600288,-9770.718434,1480.411884,0.000000
1279.600609,-10658.965565,3034.844362,459.657299
1279.600930,-11621.233289,3108.864956,1608.800546
1279.601251,-11695.253884,666.185348,1838.629195
1279.601571,-9548.656652,-444.123565,-76.609550
1279.601892,-9178.553681,-370.102971,-689.485948
1279.602213,-9104.533087,222.061783,919.314598
1279.602533,-8882.471304,444.123565,2068.457845
1279.602854,-8586.388927,-370.102971,1762.019645
1279.603175,-8068.244768,-222.061783,1072.533697
1279.603496,-8660.409521,-888.247130,1608.800546
1279.603816,-8808.450710,-2220.617826,2757.943793
1279.604137,-8364.327145,-3552.988522,2068.457845
1279.604458,-7920.203579,-2738.761985,1149.143247
1279.604778,-9030.512492,-1554.432478,1302.362347
1279.605099,-9844.739029,-592.164754,2145.067394
1279.605420,-9400.615463,962.267725,1838.629195
1279.605741,-10362.883188,2368.659014,1225.752797
1279.606061,-10214.842000,3330.926739,1762.019645
1279.606382,-10658.965565,814.226536,1302.362347
1279.606703,-9992.780217,-740.205942,459.657299
1279.607023,-9326.594869,592.164754,0.000000
1279.607344,-10288.862594,74.020594,995.924147
1279.607665,-10140.821405,0.000000,2298.286494
1279.607985,-10140.821405,-888.247130,2604.724693
1279.608306,-9548.656652,-1924.535449,1378.971896
1279.608627,-9400.615463,-1036.288319,2145.067394
1279.608948,-10140.821405,-1036.288319,2451.505594
1279.609268,-10140.821405,-1406.391290,2221.676944
1279.609589,-9030.512492,-1406.391290,842.705048
1279.609910,-9104.533087,222.061783,306.438199
1279.610230,-10066.800811,74.020594,1225.752797
1279.610551,-10362.883188,962.267725,689.485948
1279.610872,-10807.006753,1480.411884,0.000000
1279.611193,-11547.212695,2516.700203,-1149.143247
1279.611513,-10436.903782,2220.617826,0.000000
1279.611834,-10362.883188,0.000000,-1072.533697
1279.612155,-9474.636058,0.000000,-2068.457845
1279.612475,-9474.636058,962.267725,-1762.019645
1279.612796,-9992.780217,1628.453072,459.657299
1279.613117,-9918.759623,444.123565,1915.238745
1279.613437,-9474.636058,-888.247130,1455.581446
1279.613758,-9400.615463,-1776.494261,1455.581446
1279.614079,-9326.594869,-2664.741391,1762.019645
1279.614400,-8586.388927,-3775.050304,1455.581446
1279.614720,-8216.285956,-3404.947333,459.657299
1279.615041,-7772.162391,-1850.514855,229.828649
1279.615362,-9252.574275,74.020594,-153.219100
1279.615682,-8660.409521,296.082377,612.876398
1279.616003,-9474.636058,444.123565,229.828649
1279.616324,-9770.718434,1406.391290,459.657299
1279.616645,-10510.924376,1480.411884,1608.800546
1279.616965,-10510.924376,444.123565,1608.800546
1279.617286,-9548.656652,0.000000,1149.143247
1279.617607,-9252.574275,222.061783,383.047749
1279.617927,-9474.636058,888.247130,1455.581446
1279.618248,-9770.718434,0.000000,1455.581446
1279.618569,-9178.553681,0.000000,2528.115143
1279.618890,-8956.491898,-888.247130,1762.019645
1279.619210,-9252.574275,-1628.453072,2451.505594
1279.619531,-9178.553681,-3627.009116,2911.162892
1279.619852,-9400.615463,-3256.906145,2911.162892
1279.620172,-9474.636058,-2442.679609,2068.457845
1279.620493,-9770.718434,-370.102971,3217.601092
1279.620814,-10584.944971,-444.123565,2834.553343
1279.621134,-9770.718434,-666.185348,1225.752797
1279.621455,-9178.553681,814.226536,0.000000
1279.621776,-11325.150913,1184.329507,229.828649
1279.622097,-10140.821405,962.267725,306.438199
1279.622417,-10288.862594,0.000000,-383.047749
1279.622738,-9918.759623,148.041188,-383.047749
1279.623059,-9770.718434,888.247130,-153.219100
1279.623379,-10658.965565,814.226536,1915.238745
1279.623700,-11029.068536,-370.102971,3140.991542
1279.624021,-8956.491898,-1110.308913,995.924147
1279.624342,-9992.780217,-1554.432478,2068.457845
1279.624662,-8734.430116,-2664.741391,1378.971896
1279.624983,-8364.327145,-2442.679609,229.828649
1279.625304,-8882.471304,-1480.411884,689.485948
1279.625624,-8290.306550,-148.041188,536.266849
1279.625945,-9178.553681,0.000000,842.705048
1279.626266,-9918.759623,-296.082377,383.047749
1279.626587,-9252.574275,1036.288319,-536.266849
1279.626907,-10955.047942,1702.473667,1072.533697
1279.627228,-11177.109724,1628.453072,1532.190996
1279.627549,-9770.718434,518.144159,153.219100
1279.627869,-9400.615463,814.226536,-1149.143247
1279.628190,-9548.656652,2072.576638,-689.485948
1279.628511,-9622.677246,2294.638420,689.485948
1279.628831,-9474.636058,0.000000,919.314598
1279.629152,-8734.430116,74.020594,536.266849
1279.629473,-8512.368333,-962.267725,612.876398
1279.629794,-9326.594869,-1924.535449,2604.724693
1279.630114,-9326.594869,-3775.050304,3677.258390
1279.630435,-8068.244768,-4219.173869,1685.410096
1279.630756,-8438.347739,-1554.432478,1608.800546
1279.631076,-9400.615463,222.061783,2145.067394
1279.631397,-9844.739029,444.123565,2911.162892
1279.631718,-9622.677246,592.164754,1608.800546
1279.632039,-8512.368333,888.247130,1455.581446
1279.632359,-10436.903782,518.144159,536.266849
1279.632680,-10658.965565,-222.061783,459.657299
1279.633001,-9918.759623,-444.123565,76.609550
1279.633321,-9622.677246,1036.288319,-383.047749
1279.633642,-10362.883188,1850.514855,612.876398
1279.633963,-10732.986159,1480.411884,1838.629195
1279.634283,-10066.800811,296.082377,1532.190996
1279.634604,-9548.656652,-1332.370696,1072.533697
1279.634925,-9252.574275,-2220.617826,2145.067394
1279.635246,-9400.615463,-3849.070898,2374.896044
1279.635566,-8586.388927,-3849.070898,1225.752797
1279.635887,-8512.368333,-2146.597232,919.314598
1279.636208,-8956.491898,0.000000,383.047749
1279.636528,-10288.862594,444.123565,1838.629195
1279.636849,-10362.883188,1110.308913,536.266849
1279.637170,-10288.862594,2368.659014,306.438199
1279.637491,-11177.109724,2368.659014,459.657299
1279.637811,-10362.883188,2368.659014,229.828649
1279.638132,-10140.821405,296.082377,-612.876398
1279.638453,-9548.656652,444.123565,-1838.629195
1279.638773,-9474.636058,1628.453072,-919.314598
1279.639094,-9770.718434,888.247130,995.924147
1279.639415,-9548.656652,518.144159,1225.752797
1279.639736,-9474.636058,-666.185348,229.828649
1279.640056,-9548.656652,-666.185348,2145.067394
1279.640377,-8956.491898,-3849.070898,1532.190996
1279.640698,-8660.409521,-4737.318029,2068.457845
1279.641018,-7624.121203,-5033.400406,612.876398
1279.641339,-8216.285956,-2220.617826,919.314598
1279.641660,-9474.636058,-814.226536,2681.334243
1279.641980,-9326.594869,296.082377,2757.943793
1279.642301,-9326.594869,1258.350101,2451.505594
1279.642622,-11843.295072,444.123565,1685.410096
1279.642943,-9178.553681,962.267725,1072.533697
1279.643263,-10066.800811,-1406.391290,-306.438199
1279.643584,-7698.141797,74.020594,-2451.505594
1279.643905,-8882.471304,1332.370696,-2068.457845
1279.644225,-8438.347739,3330.926739,0.000000
1279.644546,-10732.986159,3034.844362,2681.334243
1279.644867,-9844.739029,74.020594,2374.896044
1279.645188,-10140.821405,-1850.514855,3140.991542
1279.645508,-11251.130318,-3849.070898,4596.572988
1279.645829,-9770.718434,-4959.379811,4366.744339
1279.646150,-8660.409521,-4441.235652,3370.820191
1279.646470,-8808.450710,-2146.597232,2221.676944
1279.646791,-7994.224174,0.000000,1455.581446
1279.647112,-9622.677246,962.267725,1378.971896
1279.647432,-9474.636058,1480.411884,-383.047749
1279.647753,-9696.697840,2072.576638,-612.876398
1279.648074,-11325.150913,1554.432478,153.219100
1279.648395,-10658.965565,518.144159,76.609550
1279.648715,-10658.965565,74.020594,-1072.533697
1279.649036,-10807.006753,592.164754,229.828649
1279.649357,-11251.130318,1480.411884,1762.019645
1279.649677,-11399.171507,148.041188,2528.115143
1279.649998,-10807.006753,-1110.308913,2298.286494
1279.650319,-9400.615463,-1332.370696,842.705048
1279.650640,-9548.656652,-1850.514855,1532.190996
1279.650960,-8364.327145,-2812.782580,2068.457845
1279.651281,-7846.182985,-4071.132681,689.485948
1279.651602,-7846.182985,-3108.864956,766.095498
1279.651922,-8512.368333,-2072.576638,229.828649
1279.652243,-9030.512492,-518.144159,842.705048
1279.652564,-10510.924376,1184.329507,1149.143247
1279.652885,-10436.903782,2960.823768,2987.772442
1279.653205,-11325.150913,3627.009116,1302.362347
1279.653526,-10732.986159,1702.473667,229.828649
1279.653847,-9844.739029,370.102971,-919.314598
1279.654167,-9622.677246,518.144159,-1378.971896
1279.654488,-10288.862594,1998.556043,76.609550
1279.654809,-10436.903782,1702.473667,1532.190996
1279.655129,-9326.594869,222.061783,1302.362347
1279.655450,-8438.347739,-1036.288319,689.485948
1279.655771,-9474.636058,-1036.288319,1991.848295
1279.656092,-9104.533087,-2590.720797,2451.505594
1279.656412,-8142.265362,-3997.112087,1532.190996
1279.656733,-7031.956449,-3256.906145,612.876398
1279.657054,-7624.121203,-1850.514855,612.876398
1279.657374,-9030.512492,-962.267725,1685.410096
1279.657695,-9178.553681,74.020594,1532.190996
1279.658016,-9918.759623,1406.391290,1838.629195
1279.658337,-10955.047942,2516.700203,1762.019645
1279.658657,-11473.192101,1850.514855,2145.067394
1279.658978,-10881.027347,296.082377,1455.581446
1279.659299,-10214.842000,0.000000,0.000000
1279.659619,-9622.677246,740.205942,0.000000
1279.659940,-9622.677246,296.082377,612.876398
1279.660261,-8882.471304,518.144159,1685.410096
1279.660581,-10066.800811,-1036.288319,919.314598
1279.660902,-9400.615463,-740.205942,1762.019645
1279.661223,-9474.636058,-1184.329507,1685.410096
1279.661544,-9474.636058,-3330.926739,3064.381992
1279.661864,-8808.450710,-2812.782580,2221.676944
1279.662185,-9252.574275,-1554.432478,1072.533697
1279.662506,-9474.636058,0.000000,1149.143247
1279.662826,-9178.553681,592.164754,995.924147
1279.663147,-9696.697840,1258.350101,689.485948
1279.663468,-10658.965565,1406.391290,0.000000
1279.663789,-10658.965565,1184.329507,-306.438199
1279.664109,-9992.780217,222.061783,-306.438199
1279.664430,-9918.759623,740.205942,-766.095498
1279.664751,-10881.027347,1924.535449,0.000000
1279.665071,-11399.171507,2368.659014,1838.629195
1279.665392,-10436.903782,592.164754,2451.505594
1279.665713,-9400.615463,-1332.370696,1532.190996
1279.666034,-8956.491898,-2220.617826,919.314598
1279.666354,-8882.471304,-2664.741391,1838.629195
1279.666675,-8512.368333,-4219.173869,2068.457845
1279.666996,-7550.100608,-4367.215058,1072.533697
1279.667316,-7031.956449,-3256.906145,0.000000
1279.667637,-8068.244768,-1628.453072,383.047749
1279.667958,-9622.677246,0.000000,1915.238745
1279.668278,-9400.615463,1036.288319,2145.067394
1279.668599,-10584.944971,1998.556043,1685.410096
1279.668920,-10807.006753,1776.494261,1378.971896
1279.669241,-10658.965565,370.102971,766.095498
1279.669561,-10066.800811,-370.102971,-1225.752797
1279.669882,-9474.636058,74.020594,-1149.143247
1279.670203,-9326.594869,1258.350101,-153.219100
1279.670523,-9622.677246,1258.350101,1378.971896
1279.670844,-9474.636058,296.082377,1838.629195
1279.671165,-9474.636058,-1110.308913,1378.971896
1279.671486,-9622.677246,-1554.432478,2145.067394
1279.671806,-9400.615463,-2812.782580,2757.943793
1279.672127,-8660.409521,-3849.070898,2681.334243
1279.672448,-7698.141797,-4219.173869,1608.800546
1279.672768,-9178.553681,-2516.700203,1532.190996
1279.673089,-9178.553681,-1110.308913,1455.581446
1279.673410,-9252.574275,0.000000,689.485948
1279.673730,-9844.739029,1924.535449,76.609550
1279.674051,-11399.171507,2886.803174,995.924147
1279.674372,-11251.130318,2220.617826,1532.190996
1279.674693,-10881.027347,0.000000,919.314598
1279.675013,-9770.718434,-518.144159,-995.924147
1279.675334,-10140.821405,148.041188,-306.438199
1279.675655,-10881.027347,518.144159,1532.190996
1279.675975,-9622.677246,888.247130,2298.286494
1279.676296,-9030.512492,-814.226536,1072.533697
1279.676617,-9104.533087,-370.102971,612.876398
1279.676938,-9918.759623,-1480.411884,1838.629195
1279.677258,-9474.636058,-2664.741391,2145.067394
1279.677579,-7698.141797,-2590.720797,1225.752797
1279.677900,-9252.574275,-1110.308913,3140.991542
1279.678220,-9992.780217,-222.061783,2298.286494
1279.678541,-9918.759623,0.000000,2911.162892
1279.678862,-10436.903782,518.144159,1685.410096
1279.679183,-10066.800811,1998.556043,536.266849
1279.679503,-10658.965565,1628.453072,995.924147
1279.679824,-10362.883188,444.123565,-306.438199
1279.680145,-8586.388927,444.123565,-2221.676944
1279.680465,-8586.388927,1480.411884,-1915.238745
1279.680786,-9918.759623,2738.761985,-153.219100
1279.681107,-9696.697840,1036.288319,2068.457845
1279.681427,-10140.821405,-1184.329507,1685.410096
1279.681748,-9770.718434,-1258.350101,1915.238745
1279.682069,-9104.533087,-1998.556043,1838.629195
1279.682390,-10362.883188,-2146.597232,3753.867940
1279.682710,-8438.347739,-2812.782580,1532.190996
1279.683031,-6513.812290,-2368.659014,1072.533697
1279.683352,-8216.285956,-1480.411884,842.705048
1279.683672,-8586.388927,-444.123565,919.314598
1279.683993,-9474.636058,-222.061783,689.485948
1279.684314,-10658.965565,1628.453072,1302.362347
1279.684635,-10658.965565,2146.597232,1685.410096
1279.684955,-10658.965565,888.247130,2068.457845
1279.685276,-10955.047942,-814.226536,536.266849
1279.685597,-9696.697840,-444.123565,-306.438199
1279.685917,-10732.986159,296.082377,459.657299
1279.686238,-10510.924376,1258.350101,2604.724693
1279.686559,-9918.759623,0.000000,1072.533697
1279.686879,-8512.368333,-1110.308913,536.266849
1279.687200,-9400.615463,-1332.370696,766.095498
1279.687521,-9474.636058,-2220.617826,1378.971896
1279.687842,-8956.491898,-3108.864956,2145.067394
1279.688162,-8438.347739,-3108.864956,842.705048
1279.688483,-8882.471304,-1406.391290,689.485948
1279.688804,-9696.697840,-592.164754,766.095498
1279.689124,-10288.862594,1036.288319,1302.362347
1279.689445,-10066.800811,1702.473667,689.485948
1279.689766,-11177.109724,2442.679609,766.095498
1279.690087,-11251.130318,1776.494261,919.314598
1279.690407,-11103.089130,444.123565,-995.924147
1279.690728,-9770.718434,-888.247130,-1149.143247
1279.691049,-9622.677246,740.205942,-612.876398
1279.691369,-10288.862594,962.267725,1072.533697
1279.691690,-9844.739029,370.102971,1838.629195
1279.692011,-8808.450710,-888.247130,919.314598
1279.692332,-8512.368333,-888.247130,766.095498
1279.692652,-9326.594869,-2146.597232,995.924147
1279.692973,-8660.409521,-2886.803174,1608.800546
1279.693294,-7254.018232,-2960.823768,612.876398
1279.693614,-8216.285956,-962.267725,1225.752797
1279.693935,-8882.471304,-518.144159,1762.019645
1279.694256,-9696.697840,-1110.308913,2298.286494
1279.694576,-9548.656652,-222.061783,2068.457845
1279.694897,-10288.862594,1406.391290,919.314598
1279.695218,-10955.047942,1998.556043,1762.019645
1279.695539,-10436.903782,1036.288319,1378.971896
1279.695859,-8438.347739,814.226536,0.000000
1279.696180,-9252.574275,0.000000,-383.047749
1279.696501,-9400.615463,888.247130,1072.533697
1279.696821,-9992.780217,-518.144159,1915.238745
1279.697142,-9104.533087,-2072.576638,1838.629195
1279.697463,-9400.615463,-370.102971,1608.800546
1279.697784,-9696.697840,-1628.453072,2834.553343
1279.698104,-9252.574275,-2516.700203,2757.943793
1279.698425,-8956.491898,-2368.659014,2221.676944
1279.698746,-8734.430116,-1924.535449,1838.629195
1279.699066,-9474.636058,-518.144159,1991.848295
1279.699387,-9622.677246,-962.267725,1685.410096
1279.699708,-9622.677246,-666.185348,612.876398
1279.700029,-9918.759623,962.267725,229.828649
1279.700349,-10732.986159,2368.659014,689.485948
1279.700670,-11547.212695,1554.432478,1685.410096
1279.700991,-10807.006753,-148.041188,1378.971896
1279.701311,-9844.739029,-370.102971,76.609550
1279.701632,-10214.842000,-148.041188,1302.362347
1279.701953,-10436.903782,-222.061783,1915.238745
1279.702272,-9622.677246,-518.144159,1225.752797
1279.702593,-9030.512492,-888.247130,306.438199
1279.702914,-8364.327145,-1480.411884,-1991.848295
1279.703234,-9178.553681,-814.226536,995.924147
1279.703555,-8882.471304,-1554.432478,1225.752797
1279.703876,-8956.491898,-2294.638420,689.485948
1279.704197,-9474.636058,-1184.329507,919.314598
1279.704518,-9918.759623,-444.123565,1302.362347
1279.704838,-9622.677246,222.061783,1225.752797
1279.705159,-10066.800811,1258.350101,1762.019645
1279.705480,-10584.944971,1850.514855,1149.143247
1279.705801,-10584.944971,1406.391290,229.828649
1279.706122,-10214.842000,222.061783,-536.266849
1279.706442,-9252.574275,370.102971,-1149.143247
1279.706763,-9844.739029,1258.350101,-229.828649
1279.707084,-9992.780217,1628.453072,1302.362347
1279.707405,-9622.677246,-370.102971,2451.505594
1279.707726,-8808.450710,-1332.370696,1072.533697
1279.708046,-9474.636058,-1924.535449,1838.629195
1279.708367,-9252.574275,-2220.617826,2068.457845
1279.708688,-9474.636058,-2886.803174,2528.115143
1279.709009,-7920.203579,-1998.556043,766.095498
1279.709329,-7994.224174,-962.267725,229.828649
1279.709650,-8586.388927,-370.102971,76.609550
1279.709971,-8734.430116,888.247130,459.657299
1279.710292,-10288.862594,888.247130,1685.410096
1279.710613,-10955.047942,2146.597232,1762.019645
1279.710933,-11251.130318,1850.514855,2451.505594
1279.711254,-10881.027347,-1110.308913,1838.629195
1279.711575,-9178.553681,-1332.370696,459.657299
1279.711896,-10140.821405,-962.267725,0.000000
1279.712217,-9844.739029,592.164754,1149.143247
1279.712537,-10066.800811,518.144159,1915.238745
1279.712858,-8956.491898,-222.061783,1072.533697
1279.713179,-9326.594869,-740.205942,995.924147
1279.713500,-9548.656652,-1554.432478,1302.362347
1279.713821,-9474.636058,-2220.617826,1378.971896
1279.714141,-8586.388927,-1998.556043,536.266849
1279.714462,-7846.182985,-1184.329507,-306.438199
1279.714783,-8956.491898,0.000000,306.438199
1279.715104,-9400.615463,444.123565,1149.143247
1279.715425,-9918.759623,740.205942,766.095498
1279.715745,-10362.883188,1776.494261,459.657299
1279.716066,-11621.233289,1924.535449,1915.238745
1279.716387,-11103.089130,0.000000,1762.019645
1279.716708,-10732.986159,-1480.411884,766.095498
1279.717029,-9918.759623,-888.247130,0.000000
1279.717349,-9770.718434,518.144159,306.438199
1279.717670,-9844.739029,740.205942,2298.286494
1279.717991,-9474.636058,-370.102971,2451.505594
1279.718312,-8882.471304,-148.041188,2528.115143
1279.718633,-9030.512492,-1110.308913,842.705048
1279.718953,-9252.574275,-2294.638420,1915.238745
1279.719274,-8734.430116,-3627.009116,1608.800546
1279.719595,-8512.368333,-2664.741391,689.485948
1279.719916,-9400.615463,-592.164754,1378.971896
1279.720237,-9474.636058,74.020594,1532.190996
1279.720557,-9622.677246,296.082377,1149.143247
1279.720878,-9992.780217,1184.329507,1225.752797
1279.721199,-10436.903782,1554.432478,842.705048
1279.721520,-10288.862594,740.205942,766.095498
1279.721841,-9770.718434,-1036.288319,0.000000
1279.722161,-8438.347739,-592.164754,-1455.581446
1279.722482,-9400.615463,444.123565,383.047749
1279.722803,-10214.842000,962.267725,2374.896044
1279.723124,-9252.574275,0.000000,2681.334243
1279.723444,-9474.636058,-1776.494261,1915.238745
1279.723765,-9030.512492,-1258.350101,2145.067394
1279.724086,-9696.697840,-2516.700203,2374.896044
1279.724407,-9400.615463,-2516.700203,2451.505594
1279.724728,-7920.203579,-2516.700203,1149.143247
1279.725048,-8216.285956,-1258.350101,306.438199
1279.725369,-8882.471304,-148.041188,919.314598
1279.725690,-9622.677246,148.041188,766.095498
1279.726011,-9918.759623,1406.391290,612.876398
1279.726332,-10955.047942,1628.453072,919.314598
1279.726652,-10881.027347,1406.391290,1225.752797
1279.726973,-11325.150913,-518.144159,919.314598
1279.727294,-10436.903782,-1184.329507,306.438199
1279.727615,-9548.656652,0.000000,-306.438199
1279.727936,-10288.862594,1554.432478,1302.362347
1279.728256,-9474.636058,-296.082377,2757.943793
1279.728577,-9178.553681,-518.144159,919.314598
1279.728898,-9104.533087,-1036.288319,306.438199
1279.729219,-9474.636058,-1554.432478,1225.752797
1279.729540,-9030.512492,-1998.556043,1762.019645
1279.729860,-8956.491898,-2664.741391,612.876398
1279.730181,-8734.430116,-740.205942,306.438199
1279.730502,-9918.759623,74.020594,612.876398
1279.730823,-9844.739029,592.164754,995.924147
1279.731144,-10066.800811,2146.597232,612.876398
1279.731464,-10732.986159,2294.638420,0.000000
1279.731785,-10658.965565,2886.803174,536.266849
1279.732106,-10436.903782,1776.494261,612.876398
1279.732427,-10362.883188,-370.102971,-536.266849
1279.732748,-8734.430116,222.061783,-536.266849
1279.733068,-9918.759623,518.144159,919.314598
1279.733389,-9992.780217,-370.102971,2068.457845
1279.733710,-9252.574275,-962.267725,2374.896044
1279.734031,-9178.553681,-1850.514855,1991.848295
1279.734352,-8586.388927,-1258.350101,1915.238745
1279.734672,-9252.574275,-2590.720797,2451.505594
1279.734993,-8142.265362,-2294.638420,2298.286494
1279.735314,-6809.894666,-1850.514855,1455.581446
1279.735635,-8882.471304,0.000000,1225.752797
1279.735956,-9030.512492,74.020594,1378.971896
1279.736276,-9474.636058,148.041188,995.924147
1279.736597,-9622.677246,1776.494261,1532.190996
1279.736918,-11473.192101,1702.473667,1608.800546
1279.737239,-11177.109724,1406.391290,2528.115143
1279.737559,-10214.842000,-1924.535449,1378.971896
1279.737880,-9474.636058,-1776.494261,-153.219100
1279.738201,-9622.677246,222.061783,383.047749
1279.738522,-10288.862594,370.102971,2374.896044
1279.738843,-9252.574275,-148.041188,2528.115143
1279.739163,-8734.430116,-1924.535449,919.314598
1279.739484,-8660.409521,-1850.514855,842.705048
1279.739805,-8660.409521,-3256.906145,1072.533697
1279.740126,-9326.594869,-3849.070898,1532.190996
1279.740447,-8808.450710,-2516.700203,766.095498
1279.740767,-9104.533087,-592.164754,612.876398
1279.741088,-10066.800811,740.205942,536.266849
1279.741409,-10510.924376,1776.494261,612.876398
1279.741730,-10807.006753,1702.473667,0.000000
1279.742051,-10732.986159,2294.638420,0.000000
1279.742371,-11399.171507,962.267725,306.438199
1279.742692,-10732.986159,-222.061783,0.000000
1279.743013,-9770.718434,-814.226536,-842.705048
1279.743334,-9918.759623,296.082377,-1455.581446
1279.743655,-9992.780217,1258.350101,229.828649
1279.743975,-9622.677246,222.061783,1915.238745
1279.744296,-9474.636058,-1554.432478,842.705048
1279.744617,-8808.450710,-2220.617826,0.000000
1279.744938,-9770.718434,-2220.617826,1378.971896
1279.745259,-9400.615463,-2812.782580,2068.457845
1279.745579,-8734.430116,-2294.638420,1532.190996
1279.745900,-8734.430116,-666.185348,995.924147
1279.746221,-8882.471304,0.000000,919.314598
1279.746542,-9474.636058,592.164754,1149.143247
1279.746863,-9474.636058,222.061783,1302.362347
1279.747183,-9326.594869,1036.288319,383.047749
1279.747504,-10436.903782,1036.288319,995.924147
1279.747825,-9622.677246,222.061783,995.924147
1279.748146,-9474.636058,-296.082377,-76.609550
1279.748467,-9252.574275,370.102971,0.000000
1279.748787,-9548.656652,1406.391290,1608.800546
1279.749108,-9622.677246,1332.370696,2987.772442
1279.749429,-10288.862594,-740.205942,3677.258390
1279.749750,-9474.636058,-1628.453072,2911.162892
1279.750071,-9548.656652,-1850.514855,3447.429741
1279.750391,-9400.615463,-3997.112087,3370.820191
1279.750712,-8068.244768,-2664.741391,2681.334243
1279.751033,-9400.615463,-2516.700203,1762.019645
1279.751354,-7698.141797,-518.144159,459.657299
1279.751674,-9696.697840,666.185348,1455.581446
1279.751995,-9622.677246,0.000000,919.314598
1279.752316,-9770.718434,814.226536,153.219100
1279.752637,-11547.212695,1332.370696,995.924147
1279.752958,-11547.212695,1110.308913,2145.067394
1279.753278,-10732.986159,-666.185348,1378.971896
1279.753599,-10140.821405,-888.247130,153.219100
1279.753920,-9696.697840,740.205942,0.000000
1279.754241,-10732.986159,1036.288319,1455.581446
1279.754562,-9474.636058,222.061783,1378.971896
1279.754882,-9696.697840,-962.267725,1149.143247
1279.755203,-9400.615463,-962.267725,459.657299
1279.755524,-9548.656652,-1628.453072,1149.143247
1279.755845,-9104.533087,-2368.659014,2298.286494
1279.756166,-9252.574275,-2812.782580,536.266849
1279.756486,-7920.203579,-1554.432478,0.000000
1279.756807,-9622.677246,-222.061783,459.657299
1279.757128,-9770.718434,814.226536,919.314598
1279.757449,-9992.780217,1184.329507,459.657299
1279.757770,-10732.986159,2960.823768,1302.362347
1279.758090,-10807.006753,1924.535449,459.657299
1279.758411,-10658.965565,0.000000,0.000000
1279.758732,-9104.533087,-518.144159,-1225.752797
1279.759053,-9104.533087,74.020594,-1532.190996
1279.759374,-9326.594869,1776.494261,919.314598
1279.759694,-9844.739029,666.185348,2068.457845
1279.760015,-8734.430116,-74.020594,1532.190996
1279.760336,-9030.512492,-1628.453072,1302.362347
1279.760657,-8660.409521,-2220.617826,2374.896044
1279.760978,-9178.553681,-3775.050304,2681.334243
1279.761298,-8734.430116,-3701.029710,2221.676944
1279.761619,-8068.244768,-2368.659014,1685.410096
1279.761940,-8586.388927,-370.102971,2298.286494
1279.762261,-9030.512492,-296.082377,1608.800546
1279.762582,-9474.636058,0.000000,766.095498
1279.762902,-10436.903782,1480.411884,766.095498
1279.763223,-10214.842000,1998.556043,689.485948
1279.763544,-10214.842000,148.041188,919.314598
1279.763865,-9400.615463,-962.267725,-383.047749
1279.764186,-9474.636058,814.226536,-612.876398
1279.764506,-10955.047942,1036.288319,766.095498
1279.764827,-9400.615463,1332.370696,3217.601092
1279.765148,-10436.903782,-1036.288319,3140.991542
1279.765469,-9178.553681,-814.226536,2145.067394
1279.765789,-10732.986159,-1480.411884,3064.381992
1279.766110,-9696.697840,-1998.556043,2604.724693
1279.766431,-8660.409521,-2738.761985,2757.943793
1279.766752,-7550.100608,-3256.906145,689.485948
1279.767073,-8882.471304,-444.123565,612.876398
1279.767393,-10362.883188,666.185348,1378.971896
1279.767714,-9992.780217,1406.391290,995.924147
1279.768035,-9918.759623,2516.700203,0.000000
1279.768356,-11029.068536,3775.050304,689.485948
1279.768677,-11917.315666,2368.659014,919.314598
1279.768997,-11621.233289,1184.329507,995.924147
1279.769318,-10362.883188,0.000000,-459.657299
1279.769639,-9844.739029,370.102971,-919.314598
1279.769960,-10955.047942,518.144159,842.705048
1279.770281,-10066.800811,74.020594,1302.362347
1279.770601,-9474.636058,0.000000,689.485948
1279.770922,-9104.533087,-888.247130,919.314598
1279.771243,-8660.409521,-1702.473667,919.314598
1279.771564,-9030.512492,-3552.988522,1225.752797
1279.771885,-8068.244768,-3552.988522,766.095498
1279.772205,-8068.244768,-1776.494261,459.657299
1279.772526,-8808.450710,-1184.329507,612.876398
1279.772847,-8068.244768,-592.164754,0.000000
1279.773168,-8438.347739,74.020594,-1225.752797
1279.773489,-9918.759623,2220.617826,229.828649
1279.773809,-10584.944971,1702.473667,1149.143247
1279.774130,-9844.739029,-148.041188,536.266849
1279.774451,-9622.677246,-1184.329507,0.000000
1279.774772,-9770.718434,222.061783,-383.047749
1279.775093,-10288.862594,1480.411884,1991.848295
1279.775413,-10288.862594,370.102971,3907.087040
1279.775734,-8882.471304,-1110.308913,2911.162892
1279.776055,-8956.491898,-2072.576638,1991.848295
1279.776376,-9326.594869,-2368.659014,2987.772442
1279.776697,-8956.491898,-3701.029710,3370.820191
1279.777017,-7920.203579,-4293.194464,2451.505594
1279.777338,-7254.018232,-1554.432478,1149.143247
1279.777659,-9400.615463,-1554.432478,1225.752797
1279.777980,-9252.574275,74.020594,2068.457845
1279.778301,-10066.800811,74.020594,1685.410096
1279.778621,-10510.924376,1702.473667,229.828649
1279.778942,-11473.192101,2590.720797,1685.410096
1279.779263,-11769.274478,1332.370696,1991.848295
1279.779584,-10362.883188,-592.164754,-229.828649
1279.779904,-9104.533087,74.020594,-1608.800546
1279.780225,-10066.800811,1480.411884,76.609550
1279.780546,-10510.924376,888.247130,1838.629195
1279.780867,-9918.759623,0.000000,1915.238745
1279.781188,-9918.759623,-1110.308913,1378.971896
1279.781508,-9770.718434,-296.082377,1838.629195
1279.781829,-9844.739029,-2146.597232,3217.601092
1279.782150,-9696.697840,-3256.906145,2757.943793
1279.782471,-7994.224174,-2368.659014,1072.533697
1279.782792,-8512.368333,-962.267725,0.000000
1279.783112,-9252.574275,-148.041188,383.047749
1279.783433,-9400.615463,814.226536,306.438199
1279.783754,-10288.862594,1480.411884,0.000000
1279.784075,-10584.944971,2812.782580,0.000000
1279.784396,-10955.047942,1406.391290,229.828649
1279.784716,-10584.944971,-740.205942,-153.219100
1279.785037,-9770.718434,-296.082377,-1225.752797
1279.785358,-9992.780217,1702.473667,-306.438199
1279.785679,-9770.718434,2146.597232,2451.505594
1279.786000,-9474.636058,222.061783,2298.286494
1279.786320,-8808.450710,-2146.597232,1072.533697
1279.786641,-8586.388927,-2294.638420,689.485948
1279.786962,-9030.512492,-3108.864956,1685.410096
1279.787283,-8290.306550,-3627.009116,1838.629195
1279.787604,-7698.141797,-3034.844362,995.924147
1279.787924,-8068.244768,-1258.350101,153.219100
1279.788245,-8586.388927,444.123565,612.876398
1279.788566,-9770.718434,1184.329507,1225.752797
1279.788887,-9770.718434,888.247130,1149.143247
1279.789208,-10288.862594,1850.514855,612.876398
1279.789528,-11177.109724,1628.453072,1225.752797
1279.789849,-9178.553681,814.226536,766.095498
1279.790170,-9474.636058,-444.123565,-229.828649
1279.790491,-9326.594869,740.205942,0.000000
1279.790812,-9770.718434,1850.514855,1225.752797
1279.791132,-10214.842000,1110.308913,1455.581446
1279.791453,-9622.677246,-444.123565,2374.896044
1279.791774,-8956.491898,-1332.370696,1762.019645
1279.792095,-9326.594869,-2294.638420,2374.896044
1279.792416,-9844.739029,-3775.050304,2987.772442
1279.792736,-8438.347739,-4071.132681,2374.896044
1279.793057,-8216.285956,-2516.700203,995.924147
1279.793378,-9326.594869,-592.164754,1225.752797
1279.793699,-9696.697840,370.102971,1532.190996
1279.794019,-9696.697840,444.123565,1608.800546
1279.794340,-11029.068536,1702.473667,612.876398
1279.794661,-11029.068536,1702.473667,842.705048
1279.794982,-11177.109724,0.000000,689.485948
1279.795303,-10362.883188,-1110.308913,-306.438199
1279.795623,-10140.821405,222.061783,-1225.752797
1279.795944,-10510.924376,1998.556043,383.047749
1279.796265,-10510.924376,2738.761985,1838.629195
1279.796586,-10066.800811,1480.411884,1762.019645
1279.796907,-10066.800811,148.041188,1072.533697
1279.797227,-9326.594869,-962.267725,1302.362347
1279.797548,-9474.636058,-3034.844362,1608.800546
1279.797869,-8068.244768,-3701.029710,1302.362347
1279.798190,-6883.915261,-1850.514855,0.000000
1279.798511,-8586.388927,-666.185348,842.705048
1279.798831,-9326.594869,-148.041188,689.485948
1279.799152,-9104.533087,-222.061783,995.924147
1279.799473,-9622.677246,444.123565,1455.581446
1279.799794,-11473.192101,666.185348,-689.485948
1279.800115,-10436.903782,1850.514855,2145.067394
1279.800435,-11399.171507,-1628.453072,689.485948
1279.800756,-8290.306550,444.123565,76.609550
1279.801077,-9770.718434,1332.370696,-842.705048
1279.801398,-10066.800811,148.041188,1378.971896
1279.801719,-8364.327145,-962.267725,766.095498
1279.802039,-9622.677246,-1850.514855,1532.190996
1279.802360,-7994.224174,-2368.659014,2145.067394
1279.802681,-8512.368333,-2368.659014,1915.238745
1279.803002,-8438.347739,-3108.864956,2068.457845
1279.803323,-7772.162391,-2590.720797,1149.143247
1279.803644,-8734.430116,-1258.350101,1532.190996
1279.803965,-9992.780217,-148.041188,2528.115143
1279.804286,-9474.636058,-296.082377,2757.943793
1279.804606,-10732.986159,-222.061783,1608.800546
1279.804927,-10658.965565,2368.659014,2145.067394
1279.805248,-11473.192101,1554.432478,2604.724693
1279.805569,-10658.965565,592.164754,2145.067394
1279.805890,-10066.800811,-370.102971,-306.438199
1279.806211,-10140.821405,740.205942,-995.924147
1279.806532,-9622.677246,1184.329507,0.000000
1279.806852,-10362.883188,1258.350101,2298.286494
1279.807173,-9696.697840,148.041188,1685.410096
1279.807494,-9992.780217,-1258.350101,1608.800546
1279.807815,-10066.800811,-1850.514855,2451.505594
1279.808136,-10066.800811,-3701.029710,2298.286494
1279.808457,-9030.512492,-3330.926739,1685.410096
1279.808778,-9326.594869,-1332.370696,1302.362347
1279.809098,-9252.574275,370.102971,1302.362347
1279.809419,-9770.718434,592.164754,2298.286494
1279.809740,-9474.636058,0.000000,153.219100
1279.810061,-9992.780217,74.020594,-383.047749
1279.810382,-10955.047942,518.144159,-153.219100
1279.810703,-10658.965565,74.020594,459.657299
1279.811024,-10066.800811,0.000000,-459.657299
1279.811344,-9474.636058,888.247130,-689.485948
1279.811665,-9548.656652,1776.494261,0.000000
1279.811986,-10362.883188,1110.308913,1685.410096
1279.812307,-9474.636058,74.020594,1072.533697
1279.812628,-9252.574275,-1110.308913,842.705048
1279.812949,-9104.533087,-1258.350101,1685.410096
1279.813270,-8808.450710,-2368.659014,2451.505594
1279.813590,-7772.162391,-4145.153275,919.314598
1279.813911,-6809.894666,-3108.864956,612.876398
1279.814232,-7994.224174,-1702.473667,459.657299
1279.814553,-9030.512492,-518.144159,1149.143247
1279.814874,-8364.327145,888.247130,1762.019645
1279.815195,-9918.759623,1628.453072,1072.533697
1279.815516,-10436.903782,2516.700203,2068.457845
1279.815836,-10658.965565,296.082377,1685.410096
1279.816157,-9992.780217,-1258.350101,1149.143247
1279.816478,-9474.636058,-1776.494261,-919.314598
1279.816799,-10436.903782,-370.102971,0.000000
1279.817120,-9400.615463,1998.556043,1915.238745
1279.817441,-9918.759623,1110.308913,2451.505594
1279.817762,-8216.285956,222.061783,1072.533697
1279.818082,-8956.491898,0.000000,2068.457845
1279.818403,-9992.780217,-2812.782580,2987.772442
1279.818724,-9252.574275,-2812.782580,2528.115143
1279.819045,-9844.739029,-4219.173869,2451.505594
1279.819366,-8660.409521,-2442.679609,383.047749
1279.819687,-9548.656652,222.061783,76.609550
1279.820008,-9474.636058,1776.494261,153.219100
1279.820328,-9770.718434,2664.741391,229.828649
1279.820649,-10362.883188,2812.782580,-536.266849
1279.820970,-11399.171507,1702.473667,0.000000
1279.821291,-10658.965565,-592.164754,-919.314598
1279.821612,-10288.862594,-518.144159,-919.314598
1279.821933,-10955.047942,592.164754,153.219100
1279.822254,-10955.047942,1924.535449,2451.505594
1279.822574,-10732.986159,962.267725,2451.505594
1279.822895,-9992.780217,-370.102971,1685.410096
1279.823216,-9622.677246,-1184.329507,1532.190996
1279.823537,-9474.636058,-2368.659014,1149.143247
1279.823858,-8660.409521,-3182.885551,1302.362347
1279.824179,-7476.080014,-2886.803174,-229.828649
1279.824500,-7105.977043,-1184.329507,-1378.971896
1279.824820,-8142.265362,74.020594,612.876398
1279.825141,-9474.636058,-148.041188,1225.752797
1279.825462,-9844.739029,0.000000,1072.533697
1279.825783,-10214.842000,1258.350101,842.705048
1279.826104,-11103.089130,1924.535449,1838.629195
1279.826425,-10732.986159,1406.391290,2451.505594
1279.826746,-9992.780217,518.144159,1302.362347
1279.827066,-8956.491898,518.144159,153.219100
1279.827387,-9326.594869,740.205942,0.000000
1279.827708,-9252.574275,-222.061783,2221.676944
1279.828029,-8660.409521,-1702.473667,1762.019645
1279.828350,-8142.265362,-1924.535449,1149.143247
1279.828671,-9104.533087,-1258.350101,1762.019645
1279.828992,-8808.450710,-1480.411884,2528.115143
1279.829312,-8216.285956,-3108.864956,1915.238745
1279.829633,-8216.285956,-2442.679609,1225.752797
1279.829954,-9622.677246,-1258.350101,1378.971896
1279.830275,-10066.800811,222.061783,2374.896044
1279.830596,-10436.903782,74.020594,2451.505594
1279.830917,-10510.924376,814.226536,1532.190996
1279.831238,-11621.233289,1554.432478,1455.581446
1279.831558,-11325.150913,666.185348,1915.238745
1279.831879,-9844.739029,-962.267725,0.000000
1279.832200,-9696.697840,-888.247130,-1302.362347
1279.832521,-9474.636058,0.000000,-766.095498
1279.832842,-9474.636058,296.082377,0.000000
1279.833163,-9326.594869,0.000000,995.924147
1279.833484,-9252.574275,-1110.308913,612.876398
1279.833804,-9770.718434,-666.185348,1685.410096
1279.834125,-10881.027347,-2294.638420,3064.381992
1279.834446,-9474.636058,-2368.659014,2604.724693
1279.834767,-9474.636058,-2368.659014,1455.581446
1279.835088,-9030.512492,0.000000,842.705048
1279.835409,-9474.636058,1332.370696,919.314598
1279.835730,-9326.594869,1258.350101,306.438199
1279.836050,-9178.553681,1702.473667,-536.266849
1279.836371,-10362.883188,1850.514855,-536.266849
1279.836692,-10436.903782,1776.494261,689.485948
1279.837013,-10658.965565,-444.123565,612.876398
1279.837334,-9548.656652,-1036.288319,76.609550
1279.837655,-9474.636058,148.041188,383.047749
1279.837976,-10584.944971,592.164754,2221.676944
1279.838296,-9474.636058,-518.144159,2374.896044
1279.838617,-9030.512492,-1702.473667,1378.971896
1279.838938,-8068.244768,-1332.370696,919.314598
1279.839259,-8734.430116,-888.247130,1685.410096
1279.839580,-8956.491898,-1850.514855,2528.115143
1279.839901,-7624.121203,-2516.700203,1532.190996
1279.840222,-8216.285956,-1850.514855,76.609550
1279.840543,-8882.471304,-444.123565,1149.143247
1279.840863,-9474.636058,222.061783,1991.848295
1279.841184,-9992.780217,1406.391290,1838.629195
1279.841505,-10658.965565,2294.638420,1915.238745
1279.841826,-11547.212695,1258.350101,2451.505594
1279.842147,-10214.842000,-1036.288319,2145.067394
1279.842468,-9622.677246,-2368.659014,0.000000
1279.842789,-9770.718434,-592.164754,229.828649
1279.843109,-9918.759623,1036.288319,1608.800546
1279.843430,-9844.739029,1110.308913,2604.724693
1279.843751,-9252.574275,-444.123565,2068.457845
1279.844072,-8660.409521,-1924.535449,306.438199
1279.844393,-9696.697840,-1406.391290,1225.752797
1279.844714,-9992.780217,-2442.679609,1838.629195
1279.845035,-8956.491898,-3182.885551,1532.190996
1279.845355,-8882.471304,-1924.535449,76.609550
1279.845676,-9622.677246,666.185348,919.314598
1279.845997,-10807.006753,888.247130,1915.238745
1279.846318,-10510.924376,1036.288319,1378.971896
1279.846639,-10658.965565,1406.391290,766.095498
1279.846960,-11843.295072,1036.288319,689.485948
1279.847281,-9918.759623,1184.329507,0.000000
1279.847601,-10362.883188,0.000000,-306.438199
1279.847922,-9474.636058,888.247130,-1455.581446
1279.848243,-9548.656652,2072.576638,76.609550
1279.848564,-10214.842000,1406.391290,1378.971896
1279.848885,-9400.615463,-1036.288319,1149.143247
1279.849206,-9178.553681,-2368.659014,306.438199
1279.849527,-8956.491898,-1998.556043,229.828649
1279.849847,-9178.553681,-1776.494261,919.314598
1279.850168,-8808.450710,-2146.597232,1225.752797
1279.850489,-8216.285956,-1924.535449,0.000000
1279.850810,-8808.450710,-222.061783,383.047749
1279.851131,-9844.739029,0.000000,459.657299
1279.851452,-9474.636058,-296.082377,1225.752797
1279.851773,-10140.821405,0.000000,995.924147
1279.852093,-10362.883188,1036.288319,995.924147
1279.852414,-10214.842000,740.205942,1991.848295
1279.852735,-9548.656652,-1702.473667,842.705048
1279.853056,-8068.244768,-1628.453072,-919.314598
1279.853377,-9178.553681,296.082377,-766.095498
1279.853698,-9326.594869,2368.659014,1838.629195
1279.854019,-10066.800811,296.082377,2604.724693
1279.854339,-7402.059420,0.000000,2374.896044
1279.854660,-9104.533087,-1480.411884,1762.019645
1279.854981,-9474.636058,-1702.473667,3447.429741
1279.855302,-10140.821405,-3478.967927,6435.202183
1279.855623,-9474.636058,-4441.235652,2757.943793
1279.855944,-8512.368333,-1036.288319,1685.410096
1279.856265,-9548.656652,888.247130,2451.505594
1279.856585,-9844.739029,1776.494261,4519.963438
1279.856906,-10140.821405,1036.288319,1838.629195
1279.857227,-10066.800811,1036.288319,919.314598
1279.857548,-10658.965565,74.020594,1072.533697
1279.857869,-10658.965565,-1554.432478,153.219100
1279.858190,-9770.718434,-1036.288319,229.828649
1279.858511,-9918.759623,814.226536,-612.876398
1279.858831,-10214.842000,3034.844362,1149.143247
1279.859152,-10732.986159,1702.473667,2451.505594
1279.859473,-9770.718434,-1480.411884,842.705048
1279.859794,-9770.718434,-2442.679609,536.266849
1279.860115,-10510.924376,-2072.576638,2068.457845
1279.860436,-9178.553681,-2664.741391,2451.505594
1279.860757,-8956.491898,-2960.823768,1838.629195
1279.861077,-8068.244768,-1998.556043,0.000000
1279.861398,-8660.409521,-370.102971,0.000000
1279.861719,-9474.636058,-296.082377,229.828649
1279.862040,-9474.636058,740.205942,0.000000
1279.862361,-9622.677246,1554.432478,-459.657299
1279.862682,-10881.027347,1998.556043,306.438199
1279.863003,-10658.965565,888.247130,995.924147
1279.863323,-10214.842000,-518.144159,76.609550
1279.863644,-8364.327145,0.000000,-1455.581446
1279.863965,-9992.780217,1702.473667,153.219100
1279.864286,-10140.821405,1628.453072,1532.190996
1279.864607,-9474.636058,666.185348,1685.410096
1279.864928,-8808.450710,-222.061783,2145.067394
1279.865249,-8290.306550,-518.144159,459.657299
1279.865569,-9252.574275,-1924.535449,1455.581446
1279.865890,-8512.368333,-3108.864956,1225.752797
1279.866211,-7920.203579,-2812.782580,536.266849
1279.866532,-8956.491898,-592.164754,919.314598
1279.866853,-9104.533087,370.102971,1455.581446
1279.867174,-9770.718434,740.205942,1302.362347
1279.867495,-10584.944971,1998.556043,1762.019645
1279.867815,-11399.171507,1924.535449,1762.019645
1279.868136,-10955.047942,1036.288319,2451.505594
1279.868457,-10288.862594,-2072.576638,766.095498
1279.868778,-8586.388927,-1776.494261,-306.438199
1279.869099,-9770.718434,-814.226536,-459.657299
1279.869420,-9326.594869,666.185348,1762.019645
1279.869741,-9474.636058,-74.020594,2911.162892
1279.870061,-9326.594869,-1850.514855,2298.286494
1279.870382,-8586.388927,-888.247130,1072.533697
1279.870703,-10510.924376,-1036.288319,2987.772442
1279.871024,-9474.636058,-2738.761985,3600.648841
1279.871345,-8364.327145,-2368.659014,2374.896044
1279.871666,-9104.533087,-2146.597232,995.924147
1279.871987,-9844.739029,-518.144159,536.266849
1279.872307,-9918.759623,1184.329507,1608.800546
1279.872628,-10807.006753,370.102971,919.314598
1279.872949,-10140.821405,1850.514855,229.828649
1279.873270,-11399.171507,1628.453072,383.047749
1279.873591,-10658.965565,740.205942,229.828649
1279.873912,-10214.842000,-148.041188,-995.924147
1279.874233,-9622.677246,444.123565,-229.828649
1279.874554,-10288.862594,0.000000,229.828649
1279.874874,-9696.697840,666.185348,842.705048
1279.875195,-9844.739029,-222.061783,919.314598
1279.875516,-9252.574275,0.000000,1149.143247
1279.875837,-9474.636058,0.000000,2451.505594
1279.876158,-9474.636058,-1554.432478,3447.429741
1279.876479,-8660.409521,-2220.617826,2145.067394
1279.876800,-9252.574275,-2368.659014,1225.752797
1279.877120,-9474.636058,-1850.514855,1838.629195
1279.877441,-9104.533087,-1850.514855,1838.629195
1279.877762,-8068.244768,-1406.391290,-995.924147
1279.878083,-8882.471304,222.061783,-2451.505594
1279.878404,-8364.327145,2960.823768,-2757.943793
1279.878725,-8734.430116,3108.864956,-1455.581446
1279.879046,-9030.512492,666.185348,-919.314598
1279.879366,-9104.533087,518.144159,-612.876398
1279.879687,-11399.171507,592.164754,1608.800546
1279.880008,-12361.439231,-592.164754,4519.963438
1279.880329,-10955.047942,-740.205942,6128.763984
1279.880650,-10584.944971,-3034.844362,4213.525239
1279.880971,-9548.656652,-2590.720797,3217.601092
1279.881292,-7994.224174,-2590.720797,1915.238745
1279.881612,-7846.182985,-3256.906145,995.924147
1279.881933,-6587.832884,-2146.597232,-842.705048
1279.882254,-7254.018232,-370.102971,-1378.971896
1279.882575,-9252.574275,592.164754,153.219100
1279.882896,-9104.533087,814.226536,995.924147
1279.883217,-10362.883188,888.247130,1762.019645
1279.883538,-12287.418637,1332.370696,2681.334243
1279.883858,-12361.439231,888.247130,3217.601092
1279.884179,-11917.315666,-518.144159,2221.676944
1279.884500,-10732.986159,-740.205942,1225.752797
1279.884821,-9548.656652,1332.370696,-459.657299
1279.885142,-9918.759623,1998.556043,919.314598
1279.885463,-9770.718434,1110.308913,1302.362347
1279.885784,-8586.388927,0.000000,306.438199
1279.886104,-9104.533087,-1480.411884,612.876398
1279.886425,-9474.636058,-2146.597232,2298.286494
1279.886746,-9918.759623,-3552.988522,3370.820191
1279.887067,-9844.739029,-4071.132681,2145.067394
1279.887388,-8290.306550,-1258.350101,1991.848295
1279.887709,-9548.656652,222.061783,1608.800546
1279.888030,-9474.636058,1110.308913,536.266849
1279.888350,-10140.821405,2146.597232,536.266849
1279.888671,-10066.800811,1998.556043,536.266849
1279.888992,-10436.903782,1998.556043,-229.828649
1279.889313,-11103.089130,370.102971,-612.876398
1279.889634,-9992.780217,-222.061783,-995.924147
1279.889955,-10140.821405,1406.391290,-1225.752797
1279.890276,-10362.883188,2664.741391,1072.533697
1279.890596,-9622.677246,814.226536,1608.800546
1279.890917,-9030.512492,-1184.329507,842.705048
1279.891238,-9030.512492,-2442.679609,0.000000
1279.891559,-8068.244768,-2294.638420,995.924147
1279.891880,-8438.347739,-3034.844362,1991.848295
1279.892201,-7402.059420,-2960.823768,1685.410096
1279.892522,-7550.100608,-1406.391290,1532.190996
1279.892842,-9030.512492,0.000000,1991.848295
1279.893163,-8956.491898,740.205942,2528.115143
1279.893484,-10214.842000,1110.308913,2681.334243
1279.893805,-10066.800811,1480.411884,1838.629195
1279.894126,-10658.965565,1258.350101,1608.800546
1279.894447,-10214.842000,-222.061783,1378.971896
1279.894768,-9400.615463,-1184.329507,-306.438199
1279.895088,-9474.636058,0.000000,-536.266849
1279.895409,-9252.574275,888.247130,612.876398
1279.895730,-10140.821405,666.185348,2451.505594
1279.896051,-9770.718434,0.000000,2911.162892
1279.896372,-9474.636058,-1628.453072,2221.676944
1279.896693,-9622.677246,-888.247130,2451.505594
1279.897014,-10066.800811,-962.267725,1685.410096
1279.897334,-9326.594869,-3923.091493,1838.629195
1279.897655,-8142.265362,-2738.761985,306.438199
1279.897976,-8290.306550,-1628.453072,-229.828649
1279.898297,-9104.533087,0.000000,383.047749
1279.898618,-10214.842000,888.247130,919.314598
1279.898939,-10807.006753,1628.453072,306.438199
1279.899260,-11251.130318,2812.782580,383.047749
1279.899580,-11769.274478,1554.432478,842.705048
1279.899901,-10288.862594,-518.144159,0.000000
1279.900222,-10807.006753,-370.102971,-919.314598
1279.900543,-10436.903782,1110.308913,-612.876398
1279.900864,-10362.883188,2146.597232,459.657299
1279.901185,-9696.697840,1554.432478,1838.629195
1279.901506,-9548.656652,0.000000,536.266849
1279.901826,-9400.615463,-814.226536,689.485948
1279.902147,-9474.636058,-2368.659014,1915.238745
1279.902468,-8882.471304,-4737.318029,2374.896044
1279.902789,-8290.306550,-3997.112087,689.485948
1279.903110,-8734.430116,-1850.514855,383.047749
1279.903431,-9474.636058,592.164754,1685.410096
1279.903751,-9326.594869,888.247130,1608.800546
1279.904072,-8586.388927,1258.350101,229.828649
1279.904393,-10066.800811,1628.453072,76.609550
1279.904714,-10066.800811,1036.288319,229.828649
1279.905035,-10214.842000,-1036.288319,612.876398
1279.905355,-9770.718434,-1776.494261,-766.095498
1279.905676,-8956.491898,-370.102971,-995.924147
1279.905997,-9622.677246,1554.432478,919.314598
1279.906318,-9918.759623,1332.370696,2681.334243
1279.906639,-8882.471304,666.185348,2757.943793
1279.906960,-9474.636058,-1998.556043,2451.505594
1279.907280,-8734.430116,-2442.679609,2221.676944
1279.907601,-8734.430116,-4441.235652,2374.896044
1279.907922,-7920.203579,-5699.585753,1455.581446
1279.908243,-6883.915261,-2960.823768,3140.991542
1279.908564,-8808.450710,-1258.350101,1378.971896
1279.908885,-9104.533087,148.041188,1302.362347
1279.909205,-9918.759623,1184.329507,1915.238745
1279.909526,-11399.171507,1554.432478,1838.629195
1279.909847,-11769.274478,1998.556043,2528.115143
1279.910168,-11769.274478,74.020594,1532.190996
1279.910489,-10066.800811,-888.247130,153.219100
1279.910809,-9770.718434,-370.102971,-1225.752797
1279.911130,-9548.656652,1776.494261,0.000000
1279.911451,-9844.739029,1332.370696,1532.190996
1279.911772,-9770.718434,222.061783,1072.533697
1279.912093,-9474.636058,-962.267725,536.266849
1279.912414,-9770.718434,-814.226536,1302.362347
1279.912734,-10807.006753,-1924.535449,3753.867940
1279.913055,-9844.739029,-2886.803174,3370.820191
1279.913376,-9474.636058,-2886.803174,2068.457845
1279.913697,-9104.533087,-1702.473667,689.485948
1279.914018,-9326.594869,74.020594,2451.505594
1279.914339,-9992.780217,592.164754,1149.143247
1279.914659,-9252.574275,2294.638420,0.000000
1279.914980,-11177.109724,1850.514855,-383.047749
1279.915301,-10436.903782,1998.556043,459.657299
1279.915622,-10362.883188,-148.041188,-459.657299
1279.915943,-10436.903782,0.000000,-766.095498
1279.916264,-9400.615463,1406.391290,-689.485948
1279.916584,-10732.986159,1258.350101,1455.581446
1279.916905,-9622.677246,740.205942,1991.848295
1279.917226,-9178.553681,-592.164754,842.705048
1279.917547,-9474.636058,-518.144159,1455.581446
1279.917868,-8808.450710,-962.267725,1991.848295
1279.918188,-8586.388927,-2960.823768,229.828649
1279.918509,-7698.141797,-2664.741391,689.485948
1279.918830,-7402.059420,-1850.514855,0.000000
1279.919151,-8882.471304,-740.205942,1455.581446
1279.919472,-9252.574275,-592.164754,1455.581446
1279.919793,-9252.574275,74.020594,1149.143247
1279.920113,-10214.842000,1406.391290,1378.971896
1279.920434,-11177.109724,1110.308913,1991.848295
1279.920755,-10955.047942,0.000000,1838.629195
1279.921076,-9400.615463,-888.247130,0.000000
1279.921397,-9474.636058,148.041188,-383.047749
1279.921718,-9918.759623,592.164754,1072.533697
1279.922038,-9474.636058,-222.061783,2068.457845
1279.922359,-9696.697840,-2294.638420,1762.019645
1279.922680,-8808.450710,-2294.638420,1302.362347
1279.923001,-9178.553681,-2294.638420,1915.238745
1279.923322,-9400.615463,-2886.803174,2911.162892
1279.923642,-8660.409521,-3034.844362,2374.896044
1279.923963,-8734.430116,-2220.617826,1302.362347
1279.924284,-8438.347739,-370.102971,842.705048
1279.924605,-9548.656652,222.061783,1762.019645
1279.924926,-10214.842000,370.102971,1455.581446
1279.925247,-10807.006753,1258.350101,689.485948
1279.925567,-11695.253884,1554.432478,1225.752797
1279.925888,-11103.089130,740.205942,1149.143247
1279.926209,-10288.862594,0.000000,-76.609550
1279.926530,-9326.594869,1924.535449,459.657299
1279.926851,-10732.986159,2368.659014,306.438199
1279.927172,-10807.006753,2072.576638,2145.067394
1279.927492,-9696.697840,0.000000,1532.190996
1279.927813,-9104.533087,-1480.411884,1455.581446
1279.928134,-9400.615463,-814.226536,842.705048
1279.928455,-9770.718434,-2072.576638,2451.505594
1279.928776,-8956.491898,-2960.823768,1915.238745
1279.929097,-7920.203579,-1776.494261,919.314598
1279.929417,-9178.553681,222.061783,919.314598
1279.929738,-10288.862594,148.041188,1685.410096
1279.930059,-9400.615463,0.000000,1838.629195
1279.930380,-9622.677246,296.082377,842.705048
1279.930701,-9474.636058,-444.123565,-536.266849
1279.931021,-10140.821405,74.020594,229.828649
1279.931342,-10140.821405,-1184.329507,-766.095498
1279.931663,-8660.409521,518.144159,-612.876398
1279.931984,-10510.924376,444.123565,0.000000
1279.932305,-9400.615463,1776.494261,1455.581446
1279.932626,-10436.903782,-592.164754,1149.143247
1279.932946,-9474.636058,-740.205942,1455.581446
1279.933267,-8882.471304,-1036.288319,1762.019645
1279.933588,-9548.656652,-2368.659014,2757.943793
1279.933909,-8142.265362,-3701.029710,2298.286494
1279.934230,-7846.182985,-4293.194464,0.000000
1279.934551,-7179.997637,-1554.432478,76.609550
1279.934871,-8734.430116,-222.061783,1149.143247
1279.935192,-9548.656652,2072.576638,2681.334243
1279.935513,-10214.842000,1628.453072,2451.505594
1279.935834,-10732.986159,1554.432478,1991.848295
1279.936155,-11399.171507,0.000000,2911.162892
1279.936476,-10510.924376,-2368.659014,995.924147
1279.936796,-9918.759623,-1554.432478,-306.438199
1279.937117,-8956.491898,296.082377,-1762.019645
1279.937438,-9622.677246,2664.741391,0.000000
1279.937759,-9474.636058,2368.659014,1225.752797
1279.938080,-9326.594869,518.144159,919.314598
1279.938400,-10510.924376,-1332.370696,1225.752797
1279.938721,-10584.944971,-2220.617826,2834.553343
1279.939042,-10288.862594,-4441.235652,3217.601092
1279.939363,-9474.636058,-4071.132681,2987.772442
1279.939684,-8290.306550,-2368.659014,1378.971896
1279.940005,-9252.574275,-592.164754,1225.752797
1279.940325,-8808.450710,962.267725,1532.190996
1279.940646,-9252.574275,222.061783,76.609550
1279.940967,-9252.574275,888.247130,-306.438199
1279.941288,-10436.903782,1110.308913,-306.438199
1279.941609,-11769.274478,296.082377,612.876398
1279.941930,-10288.862594,148.041188,383.047749
1279.942250,-10362.883188,740.205942,-229.828649
1279.942571,-9918.759623,2960.823768,1149.143247
1279.942892,-11399.171507,1776.494261,2528.115143
1279.943213,-10584.944971,74.020594,1838.629195
1279.943534,-9104.533087,-1036.288319,689.485948
1279.943854,-9030.512492,-888.247130,536.266849
1279.944175,-8660.409521,-1406.391290,1762.019645
1279.944496,-8068.244768,-2516.700203,1532.190996
1279.944817,-7624.121203,-2516.700203,229.828649
1279.945138,-7624.121203,-1184.329507,-459.657299
1279.945459,-9326.594869,-592.164754,1532.190996
1279.945779,-9918.759623,-148.041188,2068.457845
1279.946100,-10288.862594,1184.329507,2068.457845
1279.946421,-10881.027347,1406.391290,2068.457845
1279.946742,-9992.780217,1110.308913,1762.019645
1279.947063,-10066.800811,-814.226536,919.314598
1279.947384,-9104.533087,-1480.411884,-1302.362347
1279.947704,-9474.636058,0.000000,-229.828649
1279.948025,-10362.883188,1110.308913,1455.581446
1279.948346,-9474.636058,-518.144159,1838.629195
1279.948667,-9326.594869,-1258.350101,1838.629195
1279.948988,-9400.615463,-1702.473667,1838.629195
1279.949309,-9252.574275,-2294.638420,1991.848295
1279.949629,-8438.347739,-2294.638420,1915.238745
1279.949950,-8142.265362,-2368.659014,229.828649
1279.950271,-8142.265362,-814.226536,-383.047749
1279.950592,-9178.553681,222.061783,1378.971896
1279.950913,-9474.636058,-518.144159,1302.362347
1279.951233,-9622.677246,-74.020594,459.657299
1279.951554,-11177.109724,1554.432478,-459.657299
1279.951875,-11473.192101,1776.494261,1762.019645
1279.952196,-11695.253884,740.205942,1762.019645
1279.952517,-10510.924376,0.000000,612.876398
1279.952838,-9696.697840,814.226536,-612.876398
1279.953158,-10436.903782,1258.350101,0.000000
1279.953479,-10362.883188,1184.329507,1072.533697
1279.953800,-9696.697840,148.041188,842.705048
1279.954121,-9548.656652,-296.082377,76.609550
1279.954442,-9918.759623,-74.020594,689.485948
1279.954763,-9178.553681,-1924.535449,1762.019645
1279.955083,-8734.430116,-2590.720797,1378.971896
1279.955404,-8956.491898,-1480.411884,766.095498
1279.955725,-9474.636058,148.041188,612.876398
1279.956046,-9474.636058,370.102971,919.314598
1279.956367,-9400.615463,370.102971,-153.219100
1279.956688,-9770.718434,1406.391290,0.000000
1279.957008,-10214.842000,1036.288319,919.314598
1279.957329,-10066.800811,0.000000,1302.362347
1279.957650,-9474.636058,-1480.411884,0.000000
1279.957971,-9252.574275,-888.247130,-995.924147
1279.958292,-10214.842000,1036.288319,1149.143247
1279.958612,-9992.780217,740.205942,3217.601092
1279.958933,-9548.656652,-518.144159,2681.334243
1279.959254,-8808.450710,-1554.432478,1455.581446
1279.959575,-9030.512492,-2294.638420,1455.581446
1279.959896,-8290.306550,-1406.391290,2298.286494
1279.960217,-9252.574275,-2886.803174,2145.067394
1279.960537,-7846.182985,-2072.576638,1149.143247
1279.960858,-8512.368333,-518.144159,995.924147
1279.961179,-9178.553681,-740.205942,1302.362347
1279.961500,-9252.574275,370.102971,1378.971896
1279.961821,-10955.047942,814.226536,1915.238745
1279.962142,-10362.883188,1850.514855,1455.581446
1279.962462,-11103.089130,962.267725,2145.067394
1279.962783,-10732.986159,-1036.288319,612.876398
1279.963104,-9252.574275,-1184.329507,-76.609550
1279.963425,-10140.821405,222.061783,0.000000
1279.963746,-9992.780217,1332.370696,1762.019645
1279.964066,-10214.842000,888.247130,995.924147
1279.964387,-9918.759623,0.000000,1608.800546
1279.964708,-9770.718434,-814.226536,919.314598
1279.965029,-10140.821405,-1628.453072,2145.067394
1279.965350,-9548.656652,-3034.844362,2145.067394
1279.965671,-8956.491898,-3182.885551,612.876398
1279.965991,-8882.471304,-888.247130,76.609550
1279.966312,-9252.574275,148.041188,153.219100
1279.966633,-9622.677246,888.247130,306.438199
1279.966954,-9326.594869,1184.329507,0.000000
1279.967275,-10362.883188,1554.432478,153.219100
1279.967596,-11029.068536,1036.288319,1915.238745
1279.967916,-10732.986159,-1554.432478,1302.362347
1279.968237,-9252.574275,-2146.597232,995.924147
1279.968558,-9474.636058,-740.205942,229.828649
1279.968879,-9696.697840,370.102971,1455.581446
1279.969200,-9770.718434,222.061783,2528.115143
1279.969521,-8808.450710,-666.185348,1302.362347
1279.969841,-8512.368333,-814.226536,0.000000
1279.970162,-8956.491898,-148.041188,1149.143247
1279.970483,-9030.512492,-1258.350101,1915.238745
1279.970804,-8660.409521,-1850.514855,1685.410096
1279.971125,-8364.327145,-1776.494261,-306.438199
1279.971445,-8660.409521,0.000000,536.266849
1279.971766,-10066.800811,444.123565,1532.190996
1279.972087,-10140.821405,962.267725,1915.238745
1279.972408,-10362.883188,1406.391290,1455.581446
1279.972729,-10658.965565,1406.391290,1455.581446
1279.973050,-9770.718434,-370.102971,459.657299
1279.973370,-9474.636058,-1628.453072,-612.876398
1279.973691,-9104.533087,-592.164754,-919.314598
1279.974012,-8734.430116,666.185348,-229.828649
1279.974333,-9696.697840,740.205942,1838.629195
1279.974654,-9770.718434,-1110.308913,2298.286494
1279.974975,-9474.636058,-2220.617826,1302.362347
1279.975295,-9474.636058,-888.247130,1608.800546
1279.975616,-9474.636058,-2442.679609,1991.848295
1279.975937,-8808.450710,-1998.556043,1378.971896
1279.976258,-8808.450710,-1036.288319,76.609550
1279.976579,-9030.512492,740.205942,153.219100
1279.976899,-9252.574275,1184.329507,459.657299
1279.977220,-9474.636058,74.020594,229.828649
1279.977541,-9770.718434,222.061783,-306.438199
1279.977862,-10881.027347,1702.473667,383.047749
1279.978183,-11769.274478,1332.370696,2145.067394
1279.978504,-11029.068536,444.123565,1225.752797
1279.978824,-9918.759623,-148.041188,-306.438199
1279.979145,-9992.780217,1036.288319,153.219100
1279.979466,-10214.842000,296.082377,0.000000
1279.979787,-10140.821405,0.000000,2298.286494
1279.980108,-9474.636058,-814.226536,2068.457845
1279.980429,-8956.491898,-1036.288319,1302.362347
1279.980749,-9474.636058,-1480.411884,2374.896044
1279.981070,-9326.594869,-2516.700203,2451.505594
1279.981391,-7846.182985,-2590.720797,1149.143247
1279.981712,-8142.265362,-962.267725,153.219100
1279.982033,-9252.574275,666.185348,1072.533697
1279.982354,-9400.615463,1184.329507,1072.533697
1279.982674,-9770.718434,1406.391290,842.705048
1279.982995,-10066.800811,2220.617826,1378.971896
1279.983316,-10584.944971,1554.432478,1915.238745
1279.983637,-10881.027347,-1924.535449,3064.381992
1279.983958,-9252.574275,-2368.659014,76.609550
1279.984278,-8956.491898,-1406.391290,-459.657299
1279.984599,-9918.759623,666.185348,1685.410096
1279.984920,-9918.759623,592.164754,3447.429741
1279.985241,-9918.759623,-1258.350101,2068.457845
1279.985562,-8438.347739,-1036.288319,1072.533697
1279.985883,-9844.739029,-1184.329507,2068.457845
1279.986203,-9252.574275,-2516.700203,2757.943793
1279.986524,-7698.141797,-3923.091493,1072.533697
1279.986845,-7920.203579,-2590.720797,0.000000
1279.987166,-7920.203579,-444.123565,-153.219100
1279.987487,-9622.677246,0.000000,995.924147
1279.987808,-9548.656652,962.267725,1225.752797
1279.988128,-10214.842000,1998.556043,612.876398
1279.988449,-11473.192101,2072.576638,1608.800546
1279.988770,-10807.006753,444.123565,1302.362347
1279.989091,-10362.883188,-1480.411884,536.266849
1279.989412,-10066.800811,-2294.638420,-459.657299
1279.989733,-9622.677246,592.164754,0.000000
1279.990053,-10955.047942,148.041188,1991.848295
1279.990374,-9474.636058,-1110.308913,1455.581446
1279.990695,-9326.594869,-1036.288319,383.047749
1279.991016,-8660.409521,-888.247130,842.705048
1279.991337,-9844.739029,-1702.473667,1378.971896
1279.991657,-8586.388927,-1554.432478,689.485948
1279.991978,-9252.574275,-2146.597232,153.219100
1279.992299,-8068.244768,518.144159,0.000000
1279.992620,-9548.656652,1110.308913,919.314598
1279.992941,-10584.944971,1110.308913,766.095498
1279.993262,-9770.718434,2442.679609,229.828649
1279.993582,-10140.821405,3627.009116,689.485948
1279.993903,-10732.986159,1184.329507,1302.362347
1279.994224,-9770.718434,-666.185348,229.828649
1279.994545,-9474.636058,-1184.329507,-995.924147
1279.994866,-9178.553681,444.123565,0.000000
1279.995187,-10214.842000,740.205942,2528.115143
1279.995507,-9844.739029,0.000000,3524.039291
1279.995828,-9844.739029,-1110.308913,2451.505594
1279.996149,-9178.553681,-666.185348,1915.238745
1279.996470,-9474.636058,-1110.308913,3294.210641
1279.996791,-9104.533087,-3182.885551,2681.334243
1279.997111,-7772.162391,-3108.864956,612.876398
1279.997432,-7698.141797,-1406.391290,-153.219100
1279.997753,-8290.306550,370.102971,306.438199
1279.998074,-8882.471304,888.247130,995.924147
1279.998395,-9992.780217,666.185348,1455.581446
1279.998716,-10288.862594,1036.288319,1072.533697
1279.999036,-10510.924376,370.102971,1149.143247
1279.999357,-10955.047942,148.041188,3524.039291
1279.999678,-9918.759623,-1480.411884,612.876398
1279.999999,-10066.800811,0.000000,153.219100
1280.000320,-10214.842000,1184.329507,1915.238745
1280.000641,-9104.533087,0.000000,1225.752797
1280.000961,-9622.677246,-1036.288319,1225.752797
1280.001282,-9178.553681,-1850.514855,1072.533697
1280.001603,-9400.615463,-1258.350101,2145.067394
1280.001924,-10066.800811,-2812.782580,2374.896044
1280.002245,-8586.388927,-2368.659014,-995.924147
1280.002566,-8438.347739,-740.205942,-842.705048
1280.002886,-9474.636058,1628.453072,689.485948
1280.003207,-10066.800811,1480.411884,1455.581446
1280.003528,-10288.862594,592.164754,689.485948
1280.003849,-10362.883188,1184.329507,-536.266849
1280.004169,-11029.068536,1258.350101,-153.219100
1280.004490,-11103.089130,296.082377,612.876398
1280.004811,-10658.965565,-370.102971,-459.657299
1280.005132,-9548.656652,592.164754,-1225.752797
1280.005452,-9844.739029,1776.494261,-306.438199
1280.005773,-10436.903782,740.205942,1532.190996
1280.006094,-9992.780217,-740.205942,1991.848295
1280.006415,-10584.944971,-2220.617826,1378.971896
1280.006735,-9844.739029,-1258.350101,1915.238745
1280.007056,-9622.677246,-2072.576638,1608.800546
1280.007377,-8364.327145,-2072.576638,766.095498
1280.007698,-7994.224174,-1702.473667,-459.657299
1280.008018,-7179.997637,0.000000,-383.047749
1280.008339,-8882.471304,296.082377,306.438199
1280.008660,-8808.450710,-148.041188,153.219100
1280.008981,-9326.594869,518.144159,0.000000
1280.009301,-10584.944971,1480.411884,1762.019645
1280.009622,-10955.047942,1332.370696,2604.724693
1280.009943,-10140.821405,-814.226536,1915.238745
1280.010264,-9622.677246,-814.226536,1072.533697
1280.010584,-9918.759623,74.020594,1302.362347
1280.010905,-9918.759623,296.082377,3064.381992
1280.011226,-9326.594869,-1110.308913,3217.601092
1280.011546,-8290.306550,-2072.576638,2374.896044
1280.011867,-7920.203579,-2072.576638,1149.143247
1280.012188,-8586.388927,-2294.638420,3064.381992
1280.012509,-8512.368333,-2886.803174,2757.943793
1280.012829,-8068.244768,-2146.597232,2068.457845
1280.013150,-9326.594869,-1184.329507,1532.190996
1280.013471,-8216.285956,592.164754,2528.115143
1280.013792,-10140.821405,-148.041188,2451.505594
1280.014112,-10140.821405,814.226536,1225.752797
1280.014433,-10436.903782,2220.617826,842.705048
1280.014754,-10881.027347,2072.576638,766.095498
1280.015075,-9770.718434,888.247130,383.047749
1280.015395,-9844.739029,-962.267725,-536.266849
1280.015716,-9696.697840,74.020594,-919.314598
1280.016037,-10584.944971,592.164754,1149.143247
1280.016358,-10732.986159,370.102971,1915.238745
1280.016678,-10510.924376,-1110.308913,2374.896044
1280.016999,-9992.780217,-888.247130,1378.971896
1280.017320,-9548.656652,-814.226536,1991.848295
1280.017641,-9548.656652,-2072.576638,689.485948
1280.017961,-8512.368333,-3256.906145,842.705048
1280.018282,-7846.182985,-2220.617826,-612.876398
1280.018603,-9400.615463,-518.144159,-76.609550
1280.018924,-9326.594869,666.185348,612.876398
1280.019244,-9770.718434,1184.329507,383.047749
1280.019565,-10066.800811,2442.679609,76.609550
1280.019886,-10807.006753,2442.679609,229.828649
1280.020206,-10881.027347,740.205942,459.657299
1280.020527,-10436.903782,0.000000,689.485948
1280.020848,-9548.656652,0.000000,-1302.362347
1280.021169,-9918.759623,1184.329507,306.438199
1280.021489,-9844.739029,1258.350101,2221.676944
1280.021810,-9622.677246,-148.041188,2374.896044
1280.022131,-9030.512492,-1776.494261,1608.800546
1280.022452,-8734.430116,-1776.494261,1762.019645
1280.022772,-9474.636058,-2368.659014,2604.724693
1280.023093,-8364.327145,-2738.761985,2298.286494
1280.023414,-8216.285956,-1554.432478,1149.143247
1280.023735,-8068.244768,0.000000,689.485948
1280.024055,-9474.636058,222.061783,1302.362347
1280.024376,-9252.574275,888.247130,919.314598
1280.024697,-9696.697840,1480.411884,612.876398
1280.025018,-10658.965565,2368.659014,995.924147
1280.025338,-11251.130318,1406.391290,1378.971896
1280.025659,-10362.883188,-148.041188,842.705048
1280.025980,-9252.574275,-296.082377,-612.876398
1280.026301,-9992.780217,370.102971,0.000000
1280.026621,-10362.883188,444.123565,2757.943793
1280.026942,-9770.718434,-1924.535449,2911.162892
1280.027263,-9252.574275,-3108.864956,1685.410096
1280.027583,-8808.450710,-3182.885551,1302.362347
1280.027904,-9400.615463,-2590.720797,2757.943793
1280.028225,-9104.533087,-3775.050304,3140.991542
1280.028546,-8882.471304,-3182.885551,1608.800546
1280.028866,-9178.553681,-1332.370696,1378.971896
1280.029187,-9770.718434,-518.144159,1149.143247
1280.029508,-9844.739029,-222.061783,1685.410096
