#time,accel_x,accel_y,accel_z
857.735234,-10140.821405,-2072.576638,-766.095498
857.735554,-9696.697840,-1776.494261,-766.095498
857.735875,-9474.636058,-1628.453072,-383.047749
857.736195,-9844.739029,-1480.411884,0.000000
857.736516,-9474.636058,-1480.411884,306.438199
857.736836,-9474.636058,-1554.432478,536.266849
857.737156,-9548.656652,-1184.329507,536.266849
857.737477,-9696.697840,-740.205942,689.485948
857.737797,-9696.697840,-1332.370696,1072.533697
857.738118,-9474.636058,-740.205942,1072.533697
857.738438,-9548.656652,-888.247130,306.438199
857.738759,-9696.697840,-666.185348,766.095498
857.739079,-9918.759623,-148.041188,153.219100
857.739400,-10214.842000,-370.102971,306.438199
857.739720,-10288.862594,0.000000,383.047749
857.740041,-9844.739029,-148.041188,0.000000
857.740361,-9844.739029,-592.164754,153.219100
857.740682,-10066.800811,-666.185348,0.000000
857.741002,-9696.697840,-1258.350101,383.047749
857.741323,-9400.615463,-1406.391290,459.657299
857.741643,-8586.388927,-1924.535449,76.609550
857.741964,-9104.533087,-1850.514855,-306.438199
857.742284,-9178.553681,-2368.659014,-459.657299
857.742605,-9104.533087,-2294.638420,-383.047749
857.742925,-9474.636058,-2146.597232,-2374.896044
857.743246,-9326.594869,-2146.597232,-1915.238745
857.743566,-9474.636058,-2072.576638,-2374.896044
857.743886,-9770.718434,-2590.720797,-2451.505594
857.744207,-9622.677246,-2516.700203,-3217.601092
857.744527,-9326.594869,-2738.761985,-3370.820191
857.744848,-9474.636058,-3108.864956,-4136.915689
857.745168,-9770.718434,-3108.864956,-4290.134789
857.745489,-9548.656652,-3256.906145,-4213.525239
857.745809,-9326.594869,-3701.029710,-2528.115143
857.746130,-9326.594869,-4145.153275,-3447.429741
857.746450,-9326.594869,-4293.194464,-3370.820191
857.746771,-9400.615463,-4737.318029,-3140.991542
857.747091,-9030.512492,-4663.297435,-3140.991542
857.747412,-9104.533087,-4441.235652,-2528.115143
857.747732,-8734.430116,-4737.318029,-3447.429741
857.748053,-8660.409521,-4293.194464,-3600.648841
857.748373,-9030.512492,-4145.153275,-3753.867940
857.748694,-9178.553681,-3849.070898,-3907.087040
857.749014,-9252.574275,-3701.029710,-3370.820191
857.749335,-9622.677246,-3923.091493,-2834.553343
857.749655,-10288.862594,-3552.988522,-2145.067394
857.749975,-9992.780217,-3627.009116,0.000000
857.750296,-10214.842000,-3182.885551,0.000000
857.750616,-10807.006753,-3404.947333,919.314598
857.750937,-10732.986159,-3330.926739,1302.362347
857.751257,-9770.718434,-3182.885551,536.266849
857.751578,-9622.677246,-3923.091493,459.657299
857.751898,-9400.615463,-4441.235652,-459.657299
857.752219,-8808.450710,-4737.318029,-1149.143247
857.752539,-9030.512492,-4885.359217,-2068.457845
857.752860,-8956.491898,-4589.276840,-2451.505594
857.753180,-9178.553681,-4515.256246,-1991.848295
857.753501,-9622.677246,-4589.276840,-1532.190996
857.753821,-10658.965565,-4441.235652,-919.314598
857.754142,-10807.006753,-4293.194464,-919.314598
857.754462,-11103.089130,-4071.132681,-153.219100
857.754783,-10807.006753,-3849.070898,612.876398
857.755103,-10436.903782,-3404.947333,1532.190996
857.755424,-9770.718434,-3330.926739,3294.210641
857.755744,-9548.656652,-2664.741391,2298.286494
857.756065,-9474.636058,-2294.638420,2068.457845
857.756385,-9104.533087,-1776.494261,2145.067394
857.756705,-8660.409521,-1628.453072,1302.362347
857.757026,-8364.327145,-1036.288319,536.266849
857.757346,-8216.285956,-1702.473667,-919.314598
857.757667,-7550.100608,-1924.535449,-1838.629195
857.757987,-8364.327145,-2516.700203,-2145.067394
857.758308,-9104.533087,-2664.741391,-1915.238745
857.758628,-10140.821405,-2886.803174,-2221.676944
857.758949,-11029.068536,-2072.576638,-1378.971896
857.759269,-11325.150913,-666.185348,-1072.533697
857.759590,-11325.150913,370.102971,-1455.581446
857.759910,-10881.027347,1554.432478,612.876398
857.760231,-10732.986159,1628.453072,842.705048
857.760551,-9844.739029,1850.514855,1532.190996
857.760872,-9474.636058,222.061783,536.266849
857.761192,-8364.327145,-222.061783,153.219100
857.761513,-7994.224174,-148.041188,-1072.533697
857.761833,-7624.121203,518.144159,-1915.238745
857.762154,-7772.162391,518.144159,-2451.505594
857.762474,-8142.265362,1406.391290,-2987.772442
857.762795,-9400.615463,814.226536,-3447.429741
857.763115,-10362.883188,74.020594,-2987.772442
857.763436,-10807.006753,0.000000,-2834.553343
857.763756,-11695.253884,-74.020594,-3294.210641
857.764077,-11399.171507,1554.432478,-766.095498
857.764397,-11843.295072,2072.576638,1302.362347
857.764718,-11843.295072,1332.370696,2068.457845
857.765038,-10881.027347,0.000000,2145.067394
857.765359,-9622.677246,-518.144159,1225.752797
857.765679,-8216.285956,0.000000,1072.533697
857.766000,-7698.141797,592.164754,1532.190996
857.766320,-7772.162391,1036.288319,1762.019645
857.766640,-7031.956449,1110.308913,1455.581446
857.766961,-7328.038826,666.185348,612.876398
857.767281,-8586.388927,296.082377,689.485948
857.767602,-9918.759623,-296.082377,1915.238745
857.767922,-11251.130318,222.061783,3064.381992
857.768243,-11399.171507,518.144159,3983.696590
857.768563,-11251.130318,666.185348,4519.963438
857.768884,-11621.233289,-962.267725,4136.915689
857.769204,-10955.047942,-1480.411884,3677.258390
857.769525,-9844.739029,-1776.494261,2834.553343
857.769845,-8438.347739,-1258.350101,1991.848295
857.770166,-7846.182985,-666.185348,1991.848295
857.770486,-7624.121203,-740.205942,1302.362347
857.770807,-8216.285956,-592.164754,689.485948
857.771127,-7846.182985,-1184.329507,995.924147
857.771448,-8142.265362,-1702.473667,1378.971896
857.771768,-8882.471304,-1924.535449,1991.848295
857.772089,-10214.842000,-2738.761985,3524.039291
857.772409,-11029.068536,-1924.535449,3600.648841
857.772730,-11103.089130,-2220.617826,2987.772442
857.773050,-10658.965565,-2368.659014,919.314598
857.773371,-10140.821405,-1998.556043,-536.266849
857.773691,-10066.800811,-2072.576638,-995.924147
857.774012,-9178.553681,-2072.576638,-1838.629195
857.774332,-8438.347739,-2220.617826,-2681.334243
857.774653,-8364.327145,-2442.679609,-3140.991542
857.774973,-7698.141797,-2072.576638,-2528.115143
857.775294,-9548.656652,-592.164754,-459.657299
857.775614,-10288.862594,814.226536,1915.238745
857.775935,-10584.944971,666.185348,3140.991542
857.776255,-10807.006753,148.041188,2451.505594
857.776576,-10436.903782,-1258.350101,2681.334243
857.776896,-10436.903782,-1332.370696,1838.629195
857.777217,-9622.677246,-592.164754,1302.362347
857.777537,-9104.533087,0.000000,76.609550
857.777857,-8660.409521,74.020594,-1072.533697
857.778178,-8956.491898,-370.102971,-2604.724693
857.778498,-9030.512492,0.000000,-2681.334243
857.778819,-9622.677246,-296.082377,-2221.676944
857.779139,-9326.594869,370.102971,-766.095498
857.779460,-10807.006753,0.000000,2068.457845
857.779780,-11103.089130,0.000000,3217.601092
857.780101,-11473.192101,-518.144159,3524.039291
857.780421,-10881.027347,-592.164754,4290.134789
857.780742,-9474.636058,0.000000,2221.676944
857.781062,-8956.491898,888.247130,1685.410096
857.781383,-8216.285956,1332.370696,612.876398
857.781703,-7328.038826,1036.288319,-766.095498
857.782024,-7179.997637,0.000000,-1378.971896
857.782344,-8068.244768,-592.164754,-1072.533697
857.782665,-9104.533087,-888.247130,76.609550
857.782985,-9992.780217,-666.185348,2145.067394
857.783306,-10732.986159,0.000000,2757.943793
857.783626,-11325.150913,-592.164754,4290.134789
857.783947,-11251.130318,-518.144159,4060.306139
857.784267,-11103.089130,-444.123565,3830.477490
857.784588,-10288.862594,814.226536,3064.381992
857.784908,-9474.636058,296.082377,2681.334243
857.785229,-8438.347739,518.144159,1532.190996
857.785549,-7698.141797,0.000000,-536.266849
857.785870,-7105.977043,148.041188,-1608.800546
857.786190,-7846.182985,888.247130,-536.266849
857.786511,-8438.347739,1406.391290,536.266849
857.786831,-10066.800811,1776.494261,2451.505594
857.787152,-10807.006753,1036.288319,3447.429741
857.787472,-11399.171507,666.185348,3524.039291
857.787793,-11769.274478,444.123565,2911.162892
857.788113,-11029.068536,666.185348,1685.410096
857.788434,-10066.800811,1554.432478,1072.533697
857.788754,-9474.636058,962.267725,-153.219100
857.789075,-8956.491898,1332.370696,-1302.362347
857.789395,-9252.574275,0.000000,-2145.067394
857.789715,-8734.430116,74.020594,-1455.581446
857.790036,-9326.594869,-444.123565,-459.657299
857.790356,-9992.780217,-370.102971,1532.190996
857.790677,-10584.944971,-370.102971,2911.162892
857.790997,-10584.944971,-814.226536,3447.429741
857.791318,-10732.986159,-1702.473667,3370.820191
857.791638,-9844.739029,-1850.514855,2451.505594
857.791959,-10066.800811,-740.205942,1532.190996
857.792279,-9400.615463,-370.102971,766.095498
857.792600,-8586.388927,0.000000,-383.047749
857.792920,-7031.956449,-1258.350101,-612.876398
857.793241,-7994.224174,-1258.350101,-2757.943793
857.793561,-8734.430116,-1332.370696,-2528.115143
857.793882,-8586.388927,-370.102971,-995.924147
857.794202,-9918.759623,-296.082377,1455.581446
857.794523,-10658.965565,-518.144159,2757.943793
857.794843,-10881.027347,-1554.432478,3600.648841
857.795164,-10214.842000,-1998.556043,2757.943793
857.795484,-9622.677246,-1776.494261,2374.896044
857.795805,-9696.697840,-2220.617826,2757.943793
857.796125,-8512.368333,-1036.288319,766.095498
857.796446,-7402.059420,-444.123565,-153.219100
857.796766,-9030.512492,-1036.288319,-1149.143247
857.797087,-7105.977043,74.020594,1455.581446
857.797407,-10436.903782,-3478.967927,-383.047749
857.797728,-8734.430116,-888.247130,1378.971896
857.798048,-10955.047942,-1850.514855,1225.752797
857.798369,-11399.171507,-444.123565,4136.915689
857.798689,-10288.862594,-888.247130,3217.601092
857.799010,-11473.192101,-740.205942,2757.943793
857.799330,-9918.759623,-592.164754,2604.724693
857.799651,-8808.450710,-518.144159,766.095498
857.799971,-9474.636058,0.000000,1685.410096
857.800292,-8364.327145,-888.247130,536.266849
857.800612,-8512.368333,-592.164754,-842.705048
857.800932,-9178.553681,-814.226536,0.000000
857.801253,-9252.574275,-592.164754,0.000000
857.801573,-9918.759623,-148.041188,2068.457845
857.801894,-11547.212695,0.000000,3524.039291
857.802214,-11399.171507,-296.082377,3140.991542
857.802535,-11473.192101,-740.205942,2834.553343
857.802855,-10807.006753,-1480.411884,1838.629195
857.803176,-9696.697840,-148.041188,689.485948
857.803496,-9474.636058,0.000000,0.000000
857.803817,-8586.388927,296.082377,-995.924147
857.804137,-8290.306550,222.061783,-1532.190996
857.804458,-8512.368333,296.082377,-2604.724693
857.804778,-9474.636058,0.000000,-1455.581446
857.805099,-9178.553681,222.061783,229.828649
857.805419,-10658.965565,370.102971,919.314598
857.805740,-10881.027347,0.000000,3140.991542
857.806060,-10214.842000,-592.164754,2757.943793
857.806381,-10584.944971,-814.226536,2911.162892
857.806701,-9918.759623,-222.061783,2145.067394
857.807022,-9030.512492,592.164754,1149.143247
857.807342,-8882.471304,962.267725,689.485948
857.807663,-8290.306550,740.205942,0.000000
857.807983,-8290.306550,-444.123565,-1302.362347
857.808304,-8438.347739,-888.247130,-689.485948
857.808624,-9104.533087,74.020594,0.000000
857.808945,-9770.718434,296.082377,1838.629195
857.809265,-10732.986159,814.226536,3370.820191
857.809586,-10510.924376,1036.288319,3600.648841
857.809906,-10732.986159,-740.205942,2987.772442
857.810227,-10436.903782,-740.205942,2528.115143
857.810547,-9474.636058,-370.102971,1838.629195
857.810868,-9030.512492,-370.102971,995.924147
857.811188,-8438.347739,-222.061783,76.609550
857.811509,-8142.265362,-740.205942,-1072.533697
857.811829,-8290.306550,-1332.370696,-1838.629195
857.812149,-8882.471304,-1406.391290,-1302.362347
857.812470,-9622.677246,-592.164754,-153.219100
857.812790,-10436.903782,-370.102971,1608.800546
857.813111,-10955.047942,0.000000,3140.991542
857.813431,-11473.192101,0.000000,3677.258390
857.813752,-11621.233289,-148.041188,2451.505594
857.814072,-10510.924376,-814.226536,2145.067394
857.814393,-9770.718434,0.000000,1378.971896
857.814713,-9474.636058,296.082377,1149.143247
857.815034,-8586.388927,592.164754,-536.266849
857.815354,-8364.327145,814.226536,-842.705048
857.815675,-8660.409521,666.185348,-689.485948
857.815995,-9178.553681,518.144159,76.609550
857.816316,-9918.759623,592.164754,1915.238745
857.816636,-10658.965565,592.164754,3524.039291
857.816957,-11251.130318,222.061783,4290.134789
857.817277,-11399.171507,-296.082377,3983.696590
857.817598,-10955.047942,-518.144159,2834.553343
857.817918,-10436.903782,592.164754,1532.190996
857.818239,-9326.594869,222.061783,766.095498
857.818559,-8586.388927,-518.144159,0.000000
857.818880,-7994.224174,-1110.308913,-1378.971896
857.819200,-7846.182985,-1850.514855,-3294.210641
857.819521,-7698.141797,-1998.556043,-2068.457845
857.819841,-8734.430116,-1628.453072,-842.705048
857.820162,-9400.615463,-1258.350101,995.924147
857.820482,-10362.883188,-814.226536,2604.724693
857.820803,-10214.842000,-962.267725,3753.867940
857.821123,-10584.944971,-1850.514855,2911.162892
857.821444,-9844.739029,-1702.473667,2374.896044
857.821764,-9252.574275,-1480.411884,1455.581446
857.822085,-9178.553681,-592.164754,306.438199
857.822405,-8364.327145,-222.061783,-229.828649
857.822726,-7772.162391,-740.205942,-1532.190996
857.823046,-8142.265362,-962.267725,-1915.238745
857.823366,-8438.347739,-592.164754,-459.657299
857.823687,-9474.636058,0.000000,536.266849
857.824007,-10362.883188,518.144159,2604.724693
857.824328,-11029.068536,296.082377,3600.648841
857.824648,-11177.109724,-222.061783,3294.210641
857.824969,-11177.109724,-518.144159,2451.505594
857.825289,-10510.924376,-518.144159,1838.629195
857.825610,-9474.636058,0.000000,1302.362347
857.825930,-9474.636058,444.123565,76.609550
857.826251,-9030.512492,222.061783,-1149.143247
857.826571,-8734.430116,-148.041188,-1532.190996
857.826892,-9252.574275,-518.144159,-1225.752797
857.827212,-9844.739029,-888.247130,-842.705048
857.827533,-10214.842000,148.041188,2451.505594
857.827853,-10955.047942,-518.144159,2451.505594
857.828174,-11103.089130,-592.164754,3447.429741
857.828494,-11399.171507,-1110.308913,3217.601092
857.828815,-10807.006753,-592.164754,2451.505594
857.829135,-10066.800811,-148.041188,1608.800546
857.829456,-9622.677246,296.082377,1149.143247
857.829776,-9104.533087,148.041188,536.266849
857.830097,-8438.347739,-296.082377,-229.828649
857.830417,-7920.203579,-518.144159,-1532.190996
857.830738,-8438.347739,-1110.308913,-766.095498
857.831058,-9178.553681,-518.144159,536.266849
857.831379,-9770.718434,0.000000,1991.848295
857.831699,-10584.944971,592.164754,3600.648841
857.832020,-10955.047942,0.000000,3907.087040
857.832340,-10436.903782,-370.102971,3217.601092
857.832661,-9844.739029,-296.082377,2068.457845
857.832981,-9252.574275,148.041188,1608.800546
857.833302,-8808.450710,74.020594,842.705048
857.833622,-8216.285956,-370.102971,-153.219100
857.833943,-7772.162391,-962.267725,-1302.362347
857.834263,-7994.224174,-962.267725,-1685.410096
857.834584,-9030.512492,518.144159,-459.657299
857.834904,-9474.636058,888.247130,1302.362347
857.835224,-10436.903782,888.247130,3064.381992
857.835545,-10732.986159,0.000000,4136.915689
857.835865,-10362.883188,-1184.329507,3064.381992
857.836186,-10584.944971,-1776.494261,2451.505594
857.836506,-9844.739029,-962.267725,1915.238745
857.836827,-8956.491898,296.082377,1455.581446
857.837147,-8586.388927,1184.329507,536.266849
857.837468,-8364.327145,888.247130,-383.047749
857.837788,-8364.327145,148.041188,-995.924147
857.838109,-9326.594869,-148.041188,-1302.362347
857.838429,-9474.636058,0.000000,0.000000
857.838750,-10214.842000,148.041188,1915.238745
857.839070,-11103.089130,296.082377,3370.820191
857.839391,-11399.171507,0.000000,3830.477490
857.839711,-11029.068536,0.000000,2757.943793
857.840032,-10362.883188,0.000000,1685.410096
857.840352,-9992.780217,0.000000,1302.362347
857.840673,-9178.553681,296.082377,0.000000
857.840993,-8956.491898,148.041188,-383.047749
857.841314,-7772.162391,-592.164754,-1532.190996
857.841634,-8290.306550,-1406.391290,-2145.067394
857.841955,-8882.471304,-962.267725,-1378.971896
857.842275,-9400.615463,-370.102971,153.219100
857.842596,-10510.924376,148.041188,2068.457845
857.842916,-10955.047942,0.000000,3600.648841
857.843237,-10955.047942,-518.144159,3753.867940
857.843557,-11029.068536,-962.267725,2757.943793
857.843878,-9844.739029,-962.267725,1915.238745
857.844198,-8808.450710,-740.205942,153.219100
857.844519,-8808.450710,-222.061783,459.657299
857.844839,-8068.244768,-148.041188,-612.876398
857.845160,-7698.141797,-962.267725,-1072.533697
857.845480,-8068.244768,-1110.308913,-995.924147
857.845801,-8734.430116,-1110.308913,0.000000
857.846121,-9548.656652,-888.247130,1685.410096
857.846441,-10436.903782,-1036.288319,3447.429741
857.846762,-10658.965565,-740.205942,4290.134789
857.847082,-10955.047942,-1110.308913,4366.744339
857.847403,-10436.903782,-1332.370696,2987.772442
857.847723,-9844.739029,-592.164754,1532.190996
857.848044,-9326.594869,-444.123565,919.314598
857.848364,-7698.141797,592.164754,459.657299
857.848685,-8068.244768,-666.185348,-459.657299
857.849005,-8512.368333,-1184.329507,-995.924147
857.849326,-9030.512492,-1184.329507,-536.266849
857.849646,-9696.697840,-962.267725,459.657299
857.849967,-10288.862594,-518.144159,2145.067394
857.850287,-11103.089130,-296.082377,3370.820191
857.850608,-11177.109724,-888.247130,3677.258390
857.850928,-11177.109724,-962.267725,2451.505594
857.851249,-9622.677246,-518.144159,1225.752797
857.851569,-9696.697840,148.041188,842.705048
857.851890,-9548.656652,740.205942,306.438199
857.852210,-8808.450710,740.205942,-306.438199
857.852531,-9326.594869,148.041188,-1149.143247
857.852851,-9030.512492,222.061783,-1838.629195
857.853172,-9178.553681,0.000000,-842.705048
857.853492,-9844.739029,0.000000,1225.752797
857.853813,-10658.965565,0.000000,2604.724693
857.854133,-11177.109724,-592.164754,3600.648841
857.854454,-10807.006753,-666.185348,2911.162892
857.854774,-10584.944971,-370.102971,2221.676944
857.855095,-10288.862594,296.082377,1455.581446
857.855415,-9548.656652,1110.308913,612.876398
857.855736,-8734.430116,740.205942,0.000000
857.856056,-8290.306550,0.000000,-689.485948
857.856377,-8512.368333,-1332.370696,-1915.238745
857.856697,-9178.553681,-1110.308913,-1685.410096
857.857018,-9178.553681,-962.267725,-383.047749
857.857338,-9548.656652,0.000000,1455.581446
857.857659,-10214.842000,0.000000,2451.505594
857.857979,-10436.903782,-296.082377,2987.772442
857.858300,-10510.924376,-962.267725,2451.505594
857.858621,-9844.739029,-666.185348,1838.629195
857.858941,-9770.718434,-444.123565,1149.143247
857.859262,-8734.430116,-148.041188,1225.752797
857.859583,-8956.491898,0.000000,459.657299
857.859903,-8142.265362,-592.164754,-612.876398
857.860224,-7994.224174,-888.247130,-1608.800546
857.860545,-8808.450710,-666.185348,-1302.362347
857.860865,-8956.491898,74.020594,689.485948
857.861186,-10288.862594,444.123565,2451.505594
857.861507,-11251.130318,444.123565,3830.477490
857.861827,-11177.109724,-814.226536,3830.477490
857.862148,-11029.068536,-1184.329507,2834.553343
857.862469,-10288.862594,-962.267725,2528.115143
857.862789,-9770.718434,0.000000,1455.581446
857.863110,-9252.574275,222.061783,766.095498
857.863431,-8364.327145,222.061783,0.000000
857.863751,-9030.512492,-370.102971,-689.485948
857.864072,-8956.491898,-740.205942,-842.705048
857.864393,-9474.636058,-1480.411884,-383.047749
857.864713,-9548.656652,-666.185348,1225.752797
857.865034,-10732.986159,-592.164754,2681.334243
857.865355,-11029.068536,-740.205942,3677.258390
857.865675,-11177.109724,-1406.391290,2987.772442
857.865996,-10955.047942,-1628.453072,2451.505594
857.866316,-10362.883188,-1184.329507,1378.971896
857.866637,-9252.574275,-592.164754,842.705048
857.866958,-9178.553681,370.102971,689.485948
857.867278,-8586.388927,592.164754,0.000000
857.867599,-8290.306550,-518.144159,-1225.752797
857.867920,-8216.285956,-370.102971,-459.657299
857.868240,-9104.533087,-962.267725,0.000000
857.868561,-9770.718434,-592.164754,1838.629195
857.868882,-10510.924376,0.000000,3370.820191
857.869202,-10955.047942,0.000000,3830.477490
857.869523,-10436.903782,-222.061783,2987.772442
857.869844,-10214.842000,-296.082377,2221.676944
857.870164,-9474.636058,0.000000,1149.143247
857.870485,-9178.553681,0.000000,459.657299
857.870806,-7698.141797,-444.123565,-306.438199
857.871126,-7994.224174,-740.205942,-1532.190996
857.871447,-8512.368333,-666.185348,-1762.019645
857.871768,-8808.450710,-222.061783,-766.095498
857.872088,-9474.636058,0.000000,612.876398
857.872409,-9918.759623,814.226536,1838.629195
857.872730,-11029.068536,0.000000,2834.553343
857.873050,-11177.109724,-222.061783,2681.334243
857.873371,-10732.986159,-592.164754,1991.848295
857.873692,-10584.944971,-592.164754,689.485948
857.874012,-9178.553681,148.041188,153.219100
857.874333,-8882.471304,0.000000,-153.219100
857.874654,-8660.409521,-148.041188,-1072.533697
857.874974,-8734.430116,74.020594,-1072.533697
857.875295,-8808.450710,0.000000,-1149.143247
857.875615,-9622.677246,444.123565,536.266849
857.875936,-10881.027347,592.164754,2834.553343
857.876257,-11843.295072,148.041188,4903.011187
857.876577,-11769.274478,-444.123565,5209.449386
857.876898,-11399.171507,-1110.308913,3983.696590
857.877219,-10658.965565,-814.226536,2834.553343
857.877539,-9474.636058,0.000000,2145.067394
857.877860,-8512.368333,740.205942,1149.143247
857.878181,-7846.182985,962.267725,-612.876398
857.878501,-7328.038826,296.082377,-1838.629195
857.878822,-8068.244768,-296.082377,-1838.629195
857.879143,-8364.327145,-370.102971,-842.705048
857.879463,-9770.718434,-740.205942,919.314598
857.879784,-10436.903782,-148.041188,3370.820191
857.880105,-11103.089130,-888.247130,4290.134789
857.880425,-11325.150913,-1036.288319,4826.401637
857.880746,-10807.006753,-1332.370696,3677.258390
857.881067,-10214.842000,-1036.288319,2298.286494
857.881387,-9326.594869,0.000000,1532.190996
857.881708,-8364.327145,0.000000,229.828649
857.882029,-7772.162391,-370.102971,0.000000
857.882349,-7772.162391,-666.185348,-1455.581446
857.882670,-8068.244768,-666.185348,-1532.190996
857.882991,-8734.430116,-740.205942,-612.876398
857.883311,-9548.656652,-296.082377,689.485948
857.883632,-10362.883188,-666.185348,2987.772442
857.883952,-10955.047942,-740.205942,3524.039291
857.884273,-11029.068536,-1258.350101,3294.210641
857.884594,-10732.986159,-962.267725,2451.505594
857.884914,-9770.718434,-222.061783,2068.457845
857.885235,-9252.574275,148.041188,689.485948
857.885556,-8586.388927,370.102971,-229.828649
857.885876,-8438.347739,370.102971,-1072.533697
857.886197,-8438.347739,0.000000,-1915.238745
857.886518,-9104.533087,-740.205942,-1225.752797
857.886838,-9474.636058,-740.205942,-459.657299
857.887159,-10066.800811,-148.041188,1455.581446
857.887480,-10807.006753,-222.061783,842.705048
857.887800,-10955.047942,0.000000,3294.210641
857.888121,-11029.068536,-518.144159,2757.943793
857.888442,-10436.903782,-370.102971,2145.067394
857.888762,-9992.780217,74.020594,1455.581446
857.889083,-9474.636058,518.144159,766.095498
857.889404,-8808.450710,0.000000,76.609550
857.889724,-8586.388927,-296.082377,-1149.143247
857.890045,-8512.368333,-1036.288319,-1915.238745
857.890366,-9474.636058,0.000000,995.924147
857.890686,-9474.636058,-518.144159,459.657299
857.891007,-10066.800811,-370.102971,2451.505594
857.891328,-10658.965565,-814.226536,3600.648841
857.891648,-10732.986159,-1258.350101,3983.696590
857.891969,-10881.027347,-1554.432478,2681.334243
857.892289,-10288.862594,-888.247130,1838.629195
857.892610,-9326.594869,0.000000,1302.362347
857.892931,-9030.512492,222.061783,459.657299
857.893251,-8290.306550,0.000000,0.000000
857.893572,-8290.306550,-444.123565,-1378.971896
857.893893,-8216.285956,-444.123565,-1532.190996
857.894213,-9030.512492,-148.041188,0.000000
857.894534,-9548.656652,222.061783,689.485948
857.894855,-10510.924376,444.123565,2911.162892
857.895175,-10362.883188,0.000000,3677.258390
857.895496,-10732.986159,-1036.288319,3217.601092
857.895817,-10732.986159,-1184.329507,2298.286494
857.896137,-10362.883188,-814.226536,2145.067394
857.896458,-9770.718434,74.020594,2145.067394
857.896779,-9474.636058,666.185348,842.705048
857.897099,-8882.471304,148.041188,-153.219100
857.897420,-8882.471304,-222.061783,-1225.752797
857.897741,-8882.471304,-518.144159,-1532.190996
857.898061,-9252.574275,-666.185348,-383.047749
857.898382,-9844.739029,-296.082377,1225.752797
857.898703,-10436.903782,-888.247130,2911.162892
857.899023,-10807.006753,-814.226536,2757.943793
857.899344,-10955.047942,-1332.370696,2374.896044
857.899665,-10436.903782,-666.185348,1685.410096
857.899985,-9474.636058,0.000000,536.266849
857.900306,-9104.533087,74.020594,0.000000
857.900626,-8586.388927,-74.020594,-995.924147
857.900947,-8364.327145,-962.267725,-1608.800546
857.901268,-8438.347739,-1702.473667,-1608.800546
857.901588,-8882.471304,-1480.411884,-1072.533697
857.901909,-9548.656652,-740.205942,459.657299
857.902230,-10584.944971,0.000000,2374.896044
857.902550,-10732.986159,148.041188,3294.210641
857.902871,-10214.842000,-296.082377,3217.601092
857.903192,-10436.903782,296.082377,2757.943793
857.903512,-10066.800811,74.020594,1762.019645
857.903833,-9104.533087,814.226536,1225.752797
857.904154,-8586.388927,222.061783,306.438199
857.904474,-7920.203579,370.102971,-1149.143247
857.904795,-8068.244768,-148.041188,-1762.019645
857.905116,-8142.265362,-148.041188,-995.924147
857.905436,-9400.615463,-370.102971,459.657299
857.905757,-9770.718434,370.102971,1838.629195
857.906078,-11325.150913,-1258.350101,3217.601092
857.906398,-10955.047942,-1332.370696,3217.601092
857.906719,-11177.109724,-1406.391290,3370.820191
857.907040,-10140.821405,-1258.350101,3600.648841
857.907360,-9622.677246,-148.041188,1455.581446
857.907681,-8956.491898,148.041188,459.657299
857.908002,-8364.327145,0.000000,-383.047749
857.908322,-8438.347739,-222.061783,-2298.286494
857.908643,-8882.471304,-148.041188,-842.705048
857.908963,-9400.615463,-444.123565,0.000000
857.909284,-9548.656652,0.000000,1302.362347
857.909605,-10214.842000,592.164754,2757.943793
857.909925,-10214.842000,-592.164754,3370.820191
857.910246,-10955.047942,-296.082377,3907.087040
857.910567,-10732.986159,-1332.370696,2528.115143
857.910887,-9770.718434,-592.164754,1762.019645
857.911208,-9104.533087,222.061783,1455.581446
857.911529,-9178.553681,814.226536,1225.752797
857.911849,-8364.327145,666.185348,536.266849
857.912170,-8512.368333,-518.144159,-229.828649
857.912491,-8882.471304,-962.267725,-459.657299
857.912811,-9622.677246,-888.247130,1532.190996
857.913132,-9696.697840,-518.144159,1991.848295
857.913453,-10732.986159,0.000000,3370.820191
857.913773,-11029.068536,0.000000,3983.696590
857.914094,-10510.924376,-962.267725,2987.772442
857.914415,-10066.800811,-1184.329507,1838.629195
857.914735,-9178.553681,-1110.308913,612.876398
857.915056,-8734.430116,-740.205942,-306.438199
857.915377,-8364.327145,0.000000,-766.095498
857.915697,-7550.100608,-296.082377,-1378.971896
857.916018,-8068.244768,-148.041188,-1991.848295
857.916339,-9178.553681,-592.164754,-1225.752797
857.916659,-9400.615463,-962.267725,-306.438199
857.916980,-10658.965565,-814.226536,1455.581446
857.917300,-11251.130318,0.000000,2987.772442
857.917621,-11621.233289,-592.164754,3370.820191
857.917942,-10955.047942,-888.247130,2834.553343
857.918262,-10436.903782,-1184.329507,1608.800546
857.918583,-9474.636058,-370.102971,689.485948
857.918904,-8956.491898,0.000000,0.000000
857.919224,-8586.388927,-74.020594,-995.924147
857.919545,-8512.368333,0.000000,-1532.190996
857.919866,-8808.450710,296.082377,-2221.676944
857.920186,-8956.491898,0.000000,-995.924147
857.920507,-9844.739029,74.020594,919.314598
857.920828,-10807.006753,-222.061783,2604.724693
857.921148,-11103.089130,-592.164754,3600.648841
857.921469,-11251.130318,-1184.329507,3447.429741
857.921790,-10362.883188,-1036.288319,3140.991542
857.922110,-9992.780217,-666.185348,1608.800546
857.922431,-9030.512492,296.082377,1302.362347
857.922752,-8586.388927,370.102971,919.314598
857.923072,-8068.244768,-296.082377,-612.876398
857.923393,-8216.285956,-962.267725,-1302.362347
857.923714,-8882.471304,-1184.329507,-766.095498
857.924034,-9474.636058,-1110.308913,229.828649
857.924355,-9918.759623,-296.082377,2298.286494
857.924676,-10436.903782,-296.082377,3677.258390
857.924996,-10436.903782,-370.102971,3370.820191
857.925317,-10288.862594,-962.267725,4673.182538
857.925638,-10066.800811,0.000000,2681.334243
857.925958,-9474.636058,148.041188,2068.457845
857.926279,-8956.491898,370.102971,1302.362347
857.926599,-8660.409521,74.020594,766.095498
857.926920,-8290.306550,-666.185348,-536.266849
857.927241,-8290.306550,-1184.329507,-1072.533697
857.927561,-8512.368333,-1184.329507,-536.266849
857.927882,-9104.533087,-222.061783,766.095498
857.928203,-10066.800811,222.061783,2374.896044
857.928523,-10732.986159,666.185348,3294.210641
857.928844,-11029.068536,0.000000,3294.210641
857.929165,-10658.965565,-592.164754,2681.334243
857.929485,-9918.759623,-370.102971,1991.848295
857.929806,-9474.636058,222.061783,766.095498
857.930127,-9030.512492,-148.041188,0.000000
857.930447,-8438.347739,0.000000,-842.705048
857.930768,-8512.368333,-222.061783,-1455.581446
857.931089,-8956.491898,-296.082377,-1225.752797
857.931409,-9326.594869,-148.041188,-766.095498
857.931730,-9548.656652,444.123565,919.314598
857.932051,-10658.965565,814.226536,2451.505594
857.932371,-9992.780217,0.000000,3370.820191
857.932692,-11325.150913,-1110.308913,3140.991542
857.933013,-10658.965565,-962.267725,2451.505594
857.933333,-9844.739029,-1036.288319,1455.581446
857.933654,-9622.677246,-518.144159,842.705048
857.933975,-8956.491898,-222.061783,76.609550
857.934295,-8290.306550,-296.082377,-1225.752797
857.934616,-8364.327145,-148.041188,-2145.067394
857.934936,-8512.368333,-74.020594,-1532.190996
857.935257,-9030.512492,-296.082377,0.000000
857.935578,-10584.944971,74.020594,2068.457845
857.935898,-11103.089130,-74.020594,3140.991542
857.936219,-11473.192101,-592.164754,3294.210641
857.936540,-11029.068536,-962.267725,2681.334243
857.936860,-10288.862594,-518.144159,1838.629195
857.937181,-9622.677246,0.000000,919.314598
857.937502,-9178.553681,74.020594,459.657299
857.937822,-7994.224174,0.000000,995.924147
857.938143,-8438.347739,-740.205942,-1378.971896
857.938464,-8734.430116,-814.226536,-1072.533697
857.938784,-9252.574275,-148.041188,0.000000
857.939105,-9770.718434,-296.082377,1378.971896
857.939426,-10436.903782,-222.061783,2834.553343
857.939746,-10140.821405,-740.205942,3524.039291
857.940067,-10955.047942,-1628.453072,3217.601092
857.940388,-10436.903782,-1258.350101,2681.334243
857.940708,-9770.718434,0.000000,1685.410096
857.941029,-9178.553681,0.000000,1225.752797
857.941350,-8438.347739,814.226536,306.438199
857.941670,-8956.491898,74.020594,0.000000
857.941991,-7920.203579,-370.102971,306.438199
857.942312,-8808.450710,-962.267725,-229.828649
857.942632,-9104.533087,-740.205942,229.828649
857.942953,-9770.718434,-592.164754,2068.457845
857.943273,-10436.903782,0.000000,2911.162892
857.943594,-10807.006753,592.164754,3524.039291
857.943915,-11103.089130,-518.144159,2604.724693
857.944235,-10140.821405,-148.041188,2298.286494
857.944556,-9696.697840,-592.164754,1072.533697
857.944877,-8808.450710,74.020594,229.828649
857.945197,-8808.450710,0.000000,0.000000
857.945518,-8586.388927,0.000000,-995.924147
857.945839,-8586.388927,-74.020594,-842.705048
857.946159,-7920.203579,0.000000,-995.924147
857.946480,-9548.656652,0.000000,536.266849
857.946801,-10584.944971,222.061783,1991.848295
857.947121,-10881.027347,370.102971,2987.772442
857.947442,-10955.047942,-296.082377,3370.820191
857.947763,-10807.006753,-666.185348,2757.943793
857.948083,-10436.903782,-666.185348,1762.019645
857.948404,-9474.636058,148.041188,995.924147
857.948725,-9030.512492,888.247130,612.876398
857.949045,-8290.306550,296.082377,-383.047749
857.949366,-8586.388927,222.061783,-842.705048
857.949687,-8882.471304,-74.020594,-1302.362347
857.950007,-9104.533087,0.000000,383.047749
857.950328,-10140.821405,148.041188,1685.410096
857.950649,-10881.027347,-222.061783,3064.381992
857.950969,-10732.986159,-962.267725,3217.601092
857.951290,-11103.089130,-1406.391290,2374.896044
857.951610,-10214.842000,-740.205942,1838.629195
857.951931,-9770.718434,0.000000,1378.971896
857.952252,-8956.491898,444.123565,383.047749
857.952572,-8808.450710,444.123565,0.000000
857.952893,-8364.327145,0.000000,-842.705048
857.953214,-8512.368333,-888.247130,-1302.362347
857.953534,-9178.553681,-1184.329507,-689.485948
857.953855,-9474.636058,-888.247130,459.657299
857.954176,-10362.883188,-370.102971,2298.286494
857.954496,-10140.821405,74.020594,2911.162892
857.954817,-10732.986159,-444.123565,3983.696590
857.955138,-10584.944971,-1406.391290,3140.991542
857.955458,-10066.800811,-1258.350101,2068.457845
857.955779,-8808.450710,-592.164754,766.095498
857.956100,-8586.388927,-148.041188,306.438199
857.956420,-8216.285956,-592.164754,-306.438199
857.956741,-7994.224174,-814.226536,-1608.800546
857.957062,-8438.347739,-1480.411884,-2451.505594
857.957383,-9178.553681,-740.205942,-1532.190996
857.957703,-9696.697840,-296.082377,76.609550
857.958024,-11251.130318,0.000000,2757.943793
857.958345,-11621.233289,148.041188,4060.306139
857.958666,-11991.336260,-814.226536,4366.744339
857.958986,-11473.192101,-740.205942,2757.943793
857.959307,-10732.986159,-814.226536,1838.629195
857.959628,-9844.739029,-148.041188,1455.581446
857.959949,-9030.512492,0.000000,689.485948
857.960270,-8068.244768,-444.123565,-995.924147
857.960590,-7476.080014,-148.041188,-2221.676944
857.960911,-8216.285956,-444.123565,-2528.115143
857.961232,-8068.244768,666.185348,-1072.533697
857.961553,-9696.697840,814.226536,1225.752797
857.961873,-10658.965565,518.144159,2528.115143
857.962194,-10510.924376,0.000000,4060.306139
857.962515,-11843.295072,-1036.288319,3524.039291
857.962836,-10584.944971,-444.123565,3217.601092
857.963156,-10214.842000,-740.205942,2757.943793
857.963477,-9696.697840,0.000000,2298.286494
857.963798,-8438.347739,-148.041188,612.876398
857.964119,-7846.182985,-148.041188,229.828649
857.964440,-7994.224174,-296.082377,-1685.410096
857.964760,-8364.327145,-370.102971,-1149.143247
857.965081,-8734.430116,-222.061783,383.047749
857.965402,-9992.780217,-740.205942,2604.724693
857.965723,-10362.883188,-1110.308913,4136.915689
857.966043,-11103.089130,-2146.597232,4060.306139
857.966364,-10732.986159,-1924.535449,2987.772442
857.966685,-9844.739029,-444.123565,2068.457845
857.967006,-9844.739029,888.247130,76.609550
857.967326,-8734.430116,666.185348,612.876398
857.967647,-8290.306550,444.123565,-919.314598
857.967968,-8216.285956,-222.061783,-1685.410096
857.968289,-8512.368333,-1036.288319,-919.314598
857.968609,-9030.512492,-1480.411884,-536.266849
857.968930,-9992.780217,-444.123565,1302.362347
857.969251,-10584.944971,148.041188,2757.943793
857.969572,-11029.068536,592.164754,3983.696590
857.969893,-11547.212695,74.020594,3677.258390
857.970213,-10881.027347,-370.102971,2681.334243
857.970534,-10214.842000,-444.123565,1685.410096
857.970855,-9474.636058,-222.061783,842.705048
857.971176,-9326.594869,148.041188,-612.876398
857.971496,-8512.368333,0.000000,-1225.752797
857.971817,-8364.327145,-444.123565,-1685.410096
857.972138,-8882.471304,0.000000,-1378.971896
857.972459,-9474.636058,296.082377,-459.657299
857.972779,-10510.924376,444.123565,1991.848295
857.973100,-11473.192101,0.000000,2911.162892
857.973421,-11325.150913,-814.226536,3447.429741
857.973742,-11029.068536,-1628.453072,2298.286494
857.974063,-10066.800811,-1998.556043,1838.629195
857.974383,-9548.656652,-1110.308913,383.047749
857.974704,-8660.409521,-222.061783,153.219100
857.975025,-8512.368333,74.020594,-689.485948
857.975346,-7994.224174,-444.123565,-1608.800546
857.975666,-8290.306550,0.000000,-1608.800546
857.975987,-8956.491898,-222.061783,-1225.752797
857.976308,-9400.615463,-222.061783,383.047749
857.976629,-10066.800811,-814.226536,1149.143247
857.976949,-10510.924376,-740.205942,3064.381992
857.977270,-10510.924376,-1406.391290,3064.381992
857.977591,-10066.800811,-1184.329507,2528.115143
857.977912,-9844.739029,-888.247130,2068.457845
857.978233,-9030.512492,222.061783,1762.019645
857.978553,-8734.430116,222.061783,919.314598
857.978874,-8068.244768,-444.123565,0.000000
857.979195,-7994.224174,-1554.432478,-1225.752797
857.979516,-8734.430116,-2220.617826,229.828649
857.979836,-9178.553681,-1702.473667,842.705048
857.980157,-9844.739029,-814.226536,2604.724693
857.980478,-11547.212695,0.000000,3753.867940
857.980799,-11325.150913,370.102971,4596.572988
857.981119,-11621.233289,148.041188,3753.867940
857.981440,-10955.047942,296.082377,2987.772442
857.981761,-9844.739029,0.000000,1608.800546
857.982082,-9178.553681,0.000000,766.095498
857.982403,-8364.327145,148.041188,-459.657299
857.982723,-8142.265362,148.041188,-1532.190996
857.983044,-8586.388927,-370.102971,-1608.800546
857.983365,-8586.388927,-74.020594,-1378.971896
857.983686,-8808.450710,0.000000,-229.828649
857.984006,-10288.862594,222.061783,1608.800546
857.984327,-11103.089130,444.123565,3370.820191
857.984648,-11473.192101,-222.061783,3830.477490
857.984969,-10807.006753,-1554.432478,2068.457845
857.985289,-10140.821405,-814.226536,2145.067394
857.985610,-9474.636058,74.020594,1455.581446
857.985931,-8882.471304,296.082377,842.705048
857.986252,-8438.347739,518.144159,153.219100
857.986573,-7698.141797,296.082377,-842.705048
857.986893,-7476.080014,740.205942,-536.266849
857.987214,-9548.656652,-962.267725,-995.924147
857.987535,-7698.141797,888.247130,1608.800546
857.987856,-11177.109724,-888.247130,2911.162892
857.988176,-10362.883188,222.061783,4443.353888
857.988497,-10658.965565,-1332.370696,3140.991542
857.988818,-11103.089130,-518.144159,3830.477490
857.989139,-9252.574275,-444.123565,1225.752797
857.989459,-9104.533087,0.000000,995.924147
857.989780,-8808.450710,148.041188,842.705048
857.990101,-7328.038826,-666.185348,-1685.410096
857.990422,-8660.409521,-592.164754,-2221.676944
857.990743,-8364.327145,-444.123565,-995.924147
857.991063,-8808.450710,-518.144159,-1225.752797
857.991384,-10288.862594,592.164754,1302.362347
857.991705,-10732.986159,444.123565,2604.724693
857.992026,-11029.068536,0.000000,2757.943793
857.992346,-11843.295072,-1036.288319,3294.210641
857.992667,-10140.821405,-1036.288319,2068.457845
857.992988,-9770.718434,-222.061783,995.924147
857.993309,-9326.594869,0.000000,612.876398
857.993629,-8512.368333,592.164754,-459.657299
857.993950,-8216.285956,74.020594,-1685.410096
857.994271,-8290.306550,-444.123565,-1838.629195
857.994592,-9178.553681,-592.164754,-612.876398
857.994912,-9770.718434,-222.061783,842.705048
857.995233,-11177.109724,148.041188,3370.820191
857.995554,-11029.068536,-74.020594,4060.306139
857.995875,-11029.068536,-1628.453072,3370.820191
857.996196,-10807.006753,-1702.473667,2528.115143
857.996516,-9918.759623,-888.247130,1608.800546
857.996837,-9326.594869,-222.061783,459.657299
857.997158,-8882.471304,444.123565,153.219100
857.997479,-7994.224174,-296.082377,-1378.971896
857.997799,-8512.368333,-962.267725,-1608.800546
857.998120,-8586.388927,-1406.391290,-1225.752797
857.998441,-9252.574275,-1628.453072,-689.485948
857.998762,-9770.718434,-1036.288319,1455.581446
857.999082,-10955.047942,-148.041188,2757.943793
857.999403,-10658.965565,-296.082377,3370.820191
857.999724,-10732.986159,-1406.391290,2834.553343
858.000045,-9918.759623,-814.226536,2451.505594
858.000366,-9326.594869,-1110.308913,1302.362347
858.000686,-9104.533087,74.020594,1532.190996
858.001007,-8882.471304,518.144159,995.924147
858.001328,-8290.306550,0.000000,-229.828649
858.001649,-8808.450710,-1406.391290,-995.924147
858.001969,-8586.388927,-592.164754,-536.266849
858.002290,-9474.636058,-888.247130,612.876398
858.002611,-10288.862594,-148.041188,2604.724693
858.002932,-10436.903782,296.082377,3753.867940
858.003252,-10658.965565,-666.185348,2987.772442
858.003573,-10658.965565,-666.185348,3064.381992
858.003894,-10288.862594,-592.164754,2068.457845
858.004215,-9474.636058,-148.041188,1455.581446
858.004536,-9326.594869,222.061783,689.485948
858.004856,-8956.491898,-518.144159,-459.657299
858.005177,-8290.306550,-1110.308913,-1072.533697
858.005498,-8586.388927,-1406.391290,-1532.190996
858.005819,-8956.491898,-1110.308913,-536.266849
858.006139,-9326.594869,-888.247130,459.657299
858.006460,-10436.903782,-296.082377,2145.067394
858.006781,-10732.986159,0.000000,2987.772442
858.007102,-11325.150913,-740.205942,2604.724693
858.007422,-10807.006753,-740.205942,2451.505594
858.007743,-10140.821405,-296.082377,1685.410096
858.008064,-9622.677246,518.144159,842.705048
858.008385,-9474.636058,1036.288319,0.000000
858.008706,-8808.450710,1110.308913,-1225.752797
858.009026,-8216.285956,222.061783,-1915.238745
858.009347,-8586.388927,0.000000,-1608.800546
858.009668,-9252.574275,0.000000,0.000000
858.009989,-10362.883188,666.185348,1685.410096
858.010309,-10881.027347,740.205942,2987.772442
858.010630,-11251.130318,296.082377,3753.867940
858.010951,-11251.130318,0.000000,3524.039291
858.011272,-10658.965565,0.000000,2298.286494
858.011592,-9622.677246,74.020594,919.314598
858.011913,-9104.533087,518.144159,306.438199
858.012234,-8586.388927,370.102971,-536.266849
858.012555,-8290.306550,-592.164754,-1608.800546
858.012876,-8512.368333,-962.267725,-1225.752797
858.013196,-8808.450710,-1776.494261,-995.924147
858.013517,-8956.491898,-1554.432478,0.000000
858.013838,-9992.780217,-962.267725,1915.238745
858.014159,-10436.903782,740.205942,2834.553343
858.014479,-10288.862594,-962.267725,2911.162892
858.014800,-10214.842000,-888.247130,2604.724693
858.015121,-10066.800811,-814.226536,1991.848295
858.015442,-9252.574275,-148.041188,1991.848295
858.015762,-8882.471304,-296.082377,1685.410096
858.016083,-8290.306550,-370.102971,306.438199
858.016404,-7920.203579,-1184.329507,-842.705048
858.016725,-8438.347739,-592.164754,-995.924147
858.017046,-8734.430116,74.020594,689.485948
858.017366,-9844.739029,740.205942,2451.505594
858.017687,-10288.862594,370.102971,4136.915689
858.018008,-10955.047942,0.000000,4136.915689
858.018329,-10584.944971,-1110.308913,3753.867940
858.018649,-10436.903782,-814.226536,2757.943793
858.018970,-9770.718434,-148.041188,1838.629195
858.019291,-9178.553681,444.123565,995.924147
858.019612,-8586.388927,518.144159,229.828649
858.019932,-8364.327145,0.000000,-995.924147
858.020253,-9104.533087,0.000000,-995.924147
858.020574,-9918.759623,-296.082377,-229.828649
858.020895,-9770.718434,148.041188,1072.533697
858.021215,-10436.903782,-888.247130,2374.896044
858.021536,-10362.883188,0.000000,3447.429741
858.021857,-11621.233289,-1258.350101,3524.039291
858.022178,-10955.047942,-740.205942,2298.286494
858.022499,-10066.800811,0.000000,1302.362347
858.022819,-9622.677246,444.123565,536.266849
858.023140,-8882.471304,1628.453072,383.047749
858.023461,-8512.368333,296.082377,-1072.533697
858.023782,-8364.327145,-296.082377,-1838.629195
858.024102,-8142.265362,-740.205942,-1991.848295
858.024423,-9474.636058,-1258.350101,-612.876398
858.024744,-9474.636058,-962.267725,459.657299
858.025065,-10658.965565,-222.061783,2451.505594
858.025385,-10881.027347,0.000000,3524.039291
858.025706,-10955.047942,-296.082377,2911.162892
858.026027,-10658.965565,-1110.308913,2298.286494
858.026348,-9622.677246,-592.164754,689.485948
858.026669,-8956.491898,-444.123565,0.000000
858.026989,-8586.388927,-296.082377,-459.657299
858.027310,-8216.285956,-814.226536,-1149.143247
858.027631,-8142.265362,-962.267725,-1608.800546
858.027952,-8438.347739,-592.164754,0.000000
858.028272,-9252.574275,-370.102971,0.000000
858.028593,-9918.759623,74.020594,1608.800546
858.028914,-10658.965565,148.041188,2911.162892
858.029235,-10881.027347,148.041188,3677.258390
858.029555,-11103.089130,-962.267725,2681.334243
858.029876,-10066.800811,-1406.391290,2145.067394
858.030197,-9548.656652,-1036.288319,1455.581446
858.030518,-9400.615463,-518.144159,1378.971896
858.030839,-8290.306550,-222.061783,1072.533697
858.031159,-8438.347739,-592.164754,0.000000
858.031480,-8734.430116,-962.267725,-766.095498
858.031801,-9104.533087,-296.082377,-153.219100
858.032122,-9992.780217,222.061783,1225.752797
858.032442,-10362.883188,148.041188,3294.210641
858.032763,-11029.068536,0.000000,4060.306139
858.033084,-11103.089130,-518.144159,3677.258390
858.033405,-10955.047942,-962.267725,3064.381992
858.033725,-10362.883188,-518.144159,1915.238745
858.034046,-9474.636058,-148.041188,1072.533697
858.034367,-9178.553681,0.000000,383.047749
858.034688,-8586.388927,-296.082377,-306.438199
858.035009,-8142.265362,-814.226536,-1991.848295
858.035329,-8660.409521,-1332.370696,-1532.190996
858.035650,-9030.512492,-1110.308913,-612.876398
858.035971,-9992.780217,0.000000,995.924147
858.036292,-10807.006753,0.000000,1838.629195
858.036612,-10955.047942,148.041188,3753.867940
858.036933,-10881.027347,-296.082377,3447.429741
858.037254,-10510.924376,-740.205942,2374.896044
858.037575,-9918.759623,-148.041188,1762.019645
858.037895,-9252.574275,444.123565,842.705048
858.038216,-8734.430116,592.164754,229.828649
858.038537,-7846.182985,370.102971,-689.485948
858.038858,-8068.244768,-296.082377,-1685.410096
858.039179,-8882.471304,74.020594,-1915.238745
858.039499,-8808.450710,0.000000,-306.438199
858.039820,-9622.677246,148.041188,1302.362347
858.040141,-10214.842000,592.164754,2681.334243
858.040462,-10510.924376,518.144159,2298.286494
858.040782,-10436.903782,-592.164754,2145.067394
858.041103,-9770.718434,-962.267725,1685.410096
858.041424,-9474.636058,-296.082377,766.095498
858.041745,-9104.533087,592.164754,1072.533697
858.042065,-9104.533087,444.123565,229.828649
858.042386,-8586.388927,-148.041188,-383.047749
858.042707,-8882.471304,-888.247130,-842.705048
858.043028,-9104.533087,-1184.329507,0.000000
858.043349,-9474.636058,-666.185348,842.705048
858.043669,-10658.965565,-444.123565,2681.334243
858.043990,-10584.944971,0.000000,3600.648841
858.044311,-10881.027347,-888.247130,3370.820191
858.044632,-10288.862594,-1776.494261,2374.896044
858.044952,-9696.697840,-1332.370696,1532.190996
858.045273,-9474.636058,-222.061783,1378.971896
858.045594,-8882.471304,-296.082377,1378.971896
858.045915,-8586.388927,-370.102971,306.438199
858.046235,-8956.491898,-740.205942,-383.047749
858.046556,-9178.553681,-888.247130,-766.095498
858.046877,-9548.656652,0.000000,766.095498
858.047198,-10436.903782,370.102971,2681.334243
858.047519,-11251.130318,370.102971,4290.134789
858.047839,-11399.171507,-296.082377,4060.306139
858.048160,-10807.006753,-888.247130,2911.162892
858.048481,-10510.924376,-1036.288319,2145.067394
858.048802,-9696.697840,-592.164754,842.705048
858.049122,-8956.491898,-296.082377,306.438199
858.049443,-8734.430116,0.000000,-229.828649
858.049764,-8142.265362,-222.061783,-842.705048
858.050085,-8808.450710,-888.247130,-1302.362347
858.050405,-9474.636058,-962.267725,-842.705048
858.050726,-9548.656652,-962.267725,0.000000
858.051047,-10288.862594,-222.061783,2298.286494
858.051368,-10732.986159,0.000000,2911.162892
858.051688,-10807.006753,-888.247130,3524.039291
858.052009,-10732.986159,-1776.494261,2451.505594
858.052330,-9770.718434,-1702.473667,919.314598
858.052651,-9178.553681,-888.247130,612.876398
858.052972,-9622.677246,-740.205942,153.219100
858.053292,-7772.162391,-222.061783,-919.314598
858.053613,-7846.182985,-148.041188,-1838.629195
858.053934,-8364.327145,-1036.288319,-1762.019645
858.054255,-8512.368333,-1110.308913,-612.876398
858.054575,-9474.636058,-592.164754,689.485948
858.054896,-10658.965565,148.041188,2681.334243
858.055217,-11029.068536,444.123565,3600.648841
858.055538,-11177.109724,0.000000,3524.039291
858.055858,-10510.924376,-444.123565,2451.505594
858.056179,-9918.759623,0.000000,1302.362347
858.056500,-9252.574275,444.123565,766.095498
858.056821,-8808.450710,666.185348,306.438199
858.057142,-8808.450710,0.000000,-766.095498
858.057462,-8586.388927,-888.247130,-1378.971896
858.057783,-8216.285956,-1480.411884,-1225.752797
858.058104,-9104.533087,-1036.288319,0.000000
858.058425,-10140.821405,-74.020594,2374.896044
858.058745,-10881.027347,444.123565,3447.429741
858.059066,-11103.089130,0.000000,3907.087040
858.059387,-11029.068536,-296.082377,3140.991542
858.059708,-10658.965565,-370.102971,2145.067394
858.060029,-10214.842000,74.020594,1378.971896
858.060349,-9474.636058,666.185348,1072.533697
858.060670,-8808.450710,1406.391290,0.000000
858.060991,-8364.327145,592.164754,-1149.143247
858.061312,-8512.368333,518.144159,-1762.019645
858.061632,-9030.512492,0.000000,-383.047749
858.061953,-9474.636058,148.041188,919.314598
858.062274,-10288.862594,148.041188,2834.553343
858.062595,-10955.047942,74.020594,3600.648841
858.062916,-10584.944971,-222.061783,3370.820191
858.063236,-10362.883188,-222.061783,2757.943793
858.063557,-9474.636058,-444.123565,1302.362347
858.063878,-8956.491898,0.000000,536.266849
858.064199,-8364.327145,0.000000,383.047749
858.064519,-8142.265362,-296.082377,-995.924147
858.064840,-8216.285956,-1258.350101,-1532.190996
858.065161,-8734.430116,-1184.329507,-612.876398
858.065482,-9474.636058,-1480.411884,-612.876398
858.065803,-9992.780217,-592.164754,1838.629195
858.066123,-11251.130318,-518.144159,3753.867940
858.066444,-11103.089130,-1036.288319,4136.915689
858.066765,-10955.047942,-1850.514855,3140.991542
858.067086,-9992.780217,-1480.411884,2221.676944
858.067406,-9326.594869,-592.164754,1072.533697
858.067727,-8734.430116,444.123565,612.876398
858.068048,-8438.347739,592.164754,-153.219100
858.068369,-7624.121203,370.102971,-1455.581446
858.068690,-8438.347739,-666.185348,-2221.676944
858.069010,-8438.347739,-444.123565,-995.924147
858.069331,-9622.677246,-296.082377,459.657299
858.069652,-11473.192101,814.226536,229.828649
858.069973,-11029.068536,518.144159,4060.306139
858.070294,-11621.233289,-222.061783,4290.134789
858.070614,-11547.212695,-1036.288319,4136.915689
858.070935,-10510.924376,-1110.308913,2987.772442
858.071256,-10288.862594,-740.205942,1915.238745
858.071577,-9252.574275,-222.061783,1455.581446
858.071897,-8290.306550,-222.061783,-383.047749
858.072218,-8142.265362,-1036.288319,-1378.971896
858.072539,-8734.430116,-962.267725,-1685.410096
858.072860,-8660.409521,-1184.329507,-842.705048
858.073181,-9770.718434,-1110.308913,766.095498
858.073501,-10362.883188,-444.123565,2298.286494
858.073822,-10955.047942,-962.267725,3600.648841
858.074143,-11399.171507,-1480.411884,3370.820191
858.074464,-10732.986159,-962.267725,2528.115143
858.074784,-9844.739029,-444.123565,1762.019645
858.075105,-9252.574275,0.000000,919.314598
858.075426,-8660.409521,518.144159,306.438199
858.075747,-8586.388927,-222.061783,-995.924147
858.076068,-8142.265362,-666.185348,-1915.238745
858.076388,-8216.285956,-518.144159,-1608.800546
858.076709,-8808.450710,0.000000,-612.876398
858.077030,-9918.759623,444.123565,1838.629195
858.077351,-10732.986159,296.082377,3370.820191
858.077672,-10584.944971,-370.102971,3370.820191
858.077992,-10807.006753,-888.247130,3753.867940
858.078313,-10140.821405,-1258.350101,1608.800546
858.078634,-9474.636058,-444.123565,919.314598
858.078955,-8808.450710,444.123565,306.438199
858.079275,-8290.306550,740.205942,-229.828649
858.079596,-8364.327145,222.061783,-1225.752797
858.079917,-8808.450710,-666.185348,-1532.190996
858.080238,-9030.512492,-814.226536,-766.095498
858.080559,-9622.677246,-592.164754,383.047749
858.080879,-10658.965565,0.000000,2374.896044
858.081200,-10732.986159,0.000000,3370.820191
858.081521,-10881.027347,-592.164754,2911.162892
858.081842,-10436.903782,-740.205942,2298.286494
858.082162,-9548.656652,222.061783,1838.629195
858.082483,-9844.739029,592.164754,1149.143247
858.082804,-9548.656652,592.164754,536.266849
858.083125,-8808.450710,444.123565,76.609550
858.083446,-8512.368333,-740.205942,-1838.629195
858.083766,-8734.430116,-740.205942,-1685.410096
858.084087,-9178.553681,-518.144159,-459.657299
858.084408,-9844.739029,-222.061783,1149.143247
858.084729,-10510.924376,444.123565,2987.772442
858.085049,-10881.027347,-666.185348,3524.039291
858.085370,-10955.047942,-1036.288319,3140.991542
858.085691,-10732.986159,-1110.308913,2757.943793
858.086012,-9622.677246,-592.164754,1225.752797
858.086333,-8882.471304,0.000000,1685.410096
858.086653,-8586.388927,296.082377,229.828649
858.086974,-8142.265362,0.000000,-383.047749
858.087295,-8808.450710,-740.205942,-1225.752797
858.087616,-8734.430116,-814.226536,-689.485948
858.087937,-9400.615463,-1110.308913,689.485948
858.088257,-10066.800811,-962.267725,2298.286494
858.088578,-10288.862594,-592.164754,3447.429741
858.088899,-10732.986159,-1110.308913,3217.601092
858.089220,-10066.800811,-222.061783,3140.991542
858.089540,-10288.862594,-444.123565,2681.334243
858.089861,-9104.533087,1110.308913,1608.800546
858.090182,-9474.636058,814.226536,1072.533697
858.090503,-7846.182985,592.164754,383.047749
858.090824,-8142.265362,0.000000,-1072.533697
858.091144,-8660.409521,-1332.370696,-1149.143247
858.091465,-8956.491898,-814.226536,-229.828649
858.091786,-9918.759623,148.041188,842.705048
858.092107,-10288.862594,0.000000,2451.505594
858.092427,-10436.903782,0.000000,3064.381992
858.092748,-11029.068536,-666.185348,3140.991542
858.093069,-10510.924376,-888.247130,2145.067394
858.093390,-9696.697840,-518.144159,766.095498
858.093711,-9030.512492,0.000000,459.657299
858.094031,-8512.368333,-370.102971,-306.438199
858.094352,-8364.327145,-518.144159,-689.485948
858.094673,-9030.512492,-962.267725,-1455.581446
858.094994,-8882.471304,-1036.288319,-1225.752797
858.095315,-9400.615463,-222.061783,0.000000
858.095635,-10140.821405,222.061783,2068.457845
858.095956,-11325.150913,1924.535449,3983.696590
858.096277,-11251.130318,1110.308913,3983.696590
858.096598,-10955.047942,-296.082377,3064.381992
858.096918,-10362.883188,-962.267725,2451.505594
858.097239,-9178.553681,-518.144159,1225.752797
858.097560,-9252.574275,-74.020594,766.095498
858.097881,-8586.388927,962.267725,0.000000
858.098202,-8512.368333,222.061783,-919.314598
858.098522,-8364.327145,222.061783,-1685.410096
858.098843,-9104.533087,222.061783,-1149.143247
858.099164,-10066.800811,444.123565,919.314598
858.099485,-10436.903782,666.185348,2757.943793
858.099805,-11177.109724,222.061783,3524.039291
858.100126,-11251.130318,-1036.288319,1762.019645
858.100447,-10807.006753,-1332.370696,3064.381992
858.100768,-10362.883188,-1554.432478,1915.238745
858.101089,-9252.574275,-666.185348,1532.190996
858.101409,-8808.450710,0.000000,153.219100
858.101730,-8216.285956,222.061783,-766.095498
858.102051,-8290.306550,-518.144159,-1532.190996
858.102372,-8438.347739,-740.205942,-842.705048
858.102692,-9030.512492,-1110.308913,-306.438199
858.103013,-9992.780217,-444.123565,2221.676944
858.103334,-11177.109724,0.000000,3753.867940
858.103655,-11621.233289,-518.144159,4366.744339
858.103976,-11399.171507,-1110.308913,4596.572988
858.104296,-10362.883188,-1702.473667,2987.772442
858.104617,-9178.553681,-888.247130,1762.019645
858.104938,-9104.533087,-370.102971,1302.362347
858.105259,-8290.306550,0.000000,0.000000
858.105580,-7772.162391,-296.082377,-842.705048
858.105900,-8290.306550,-592.164754,-1532.190996
858.106221,-8438.347739,-962.267725,-1378.971896
858.106542,-9400.615463,-666.185348,-153.219100
858.106863,-10140.821405,-222.061783,1838.629195
858.107183,-10288.862594,222.061783,3753.867940
858.107504,-10881.027347,-444.123565,2987.772442
858.107825,-10732.986159,-1184.329507,2374.896044
858.108146,-10066.800811,-1110.308913,1608.800546
858.108467,-9252.574275,-370.102971,2068.457845
858.108787,-8882.471304,0.000000,0.000000
858.109108,-8364.327145,-296.082377,-995.924147
858.109429,-8734.430116,-1332.370696,-1608.800546
858.109750,-8956.491898,-1184.329507,-1455.581446
858.110070,-9474.636058,-888.247130,-995.924147
858.110391,-9918.759623,296.082377,919.314598
858.110712,-11029.068536,888.247130,2757.943793
858.111033,-10732.986159,666.185348,3140.991542
858.111354,-11325.150913,0.000000,3447.429741
858.111674,-10584.944971,-592.164754,2298.286494
858.111995,-9992.780217,-370.102971,1149.143247
858.112316,-9474.636058,74.020594,1149.143247
858.112637,-8734.430116,888.247130,1455.581446
858.112957,-8438.347739,0.000000,-689.485948
858.113278,-8586.388927,-370.102971,-995.924147
858.113599,-8882.471304,-444.123565,-919.314598
858.113920,-9326.594869,-296.082377,229.828649
858.114241,-10214.842000,0.000000,1915.238745
858.114561,-10510.924376,0.000000,3294.210641
858.114882,-10807.006753,-1258.350101,3294.210641
858.115203,-10584.944971,-1776.494261,2604.724693
858.115524,-9770.718434,-2146.597232,2451.505594
858.115845,-9104.533087,-1406.391290,1225.752797
858.116165,-8956.491898,-518.144159,536.266849
858.116486,-8290.306550,148.041188,0.000000
858.116807,-7476.080014,148.041188,0.000000
858.117128,-8142.265362,-1036.288319,-842.705048
858.117448,-8882.471304,-1258.350101,-536.266849
858.117769,-9326.594869,-666.185348,536.266849
858.118090,-10066.800811,148.041188,2145.067394
858.118411,-10436.903782,518.144159,3830.477490
858.118732,-10584.944971,0.000000,3600.648841
858.119052,-10732.986159,-666.185348,2911.162892
858.119373,-10140.821405,-444.123565,2221.676944
858.119694,-9474.636058,74.020594,1532.190996
858.120015,-9178.553681,222.061783,1072.533697
858.120335,-8808.450710,222.061783,76.609550
858.120656,-8364.327145,-148.041188,-995.924147
858.120977,-8586.388927,296.082377,-1072.533697
858.121298,-9400.615463,-296.082377,76.609550
858.121619,-10066.800811,-296.082377,1532.190996
858.121939,-10955.047942,-296.082377,2451.505594
858.122260,-10881.027347,-518.144159,2298.286494
858.122581,-10288.862594,-148.041188,1991.848295
858.122902,-10584.944971,-222.061783,995.924147
858.123223,-9474.636058,0.000000,306.438199
858.123543,-9104.533087,222.061783,-459.657299
858.123864,-8586.388927,0.000000,-2604.724693
858.124185,-8586.388927,-370.102971,-1838.629195
858.124506,-8956.491898,-666.185348,-1762.019645
858.124826,-9474.636058,-444.123565,-459.657299
858.125147,-9770.718434,-296.082377,1072.533697
858.125468,-10584.944971,74.020594,2298.286494
858.125789,-10807.006753,-370.102971,3524.039291
858.126110,-11103.089130,-1184.329507,3677.258390
858.126430,-10881.027347,-1702.473667,2911.162892
858.126751,-10140.821405,-370.102971,1378.971896
858.127072,-9104.533087,-74.020594,919.314598
858.127393,-8512.368333,962.267725,383.047749
858.127713,-8290.306550,518.144159,0.000000
858.128034,-8512.368333,0.000000,-229.828649
858.128355,-8364.327145,-370.102971,-919.314598
858.128676,-9178.553681,0.000000,306.438199
858.128997,-10288.862594,0.000000,2451.505594
858.129317,-10807.006753,222.061783,3983.696590
858.129638,-10955.047942,-370.102971,3983.696590
858.129959,-10510.924376,-1110.308913,3370.820191
858.130280,-10584.944971,-1332.370696,2374.896044
858.130600,-9474.636058,-666.185348,1685.410096
858.130921,-8956.491898,74.020594,1991.848295
858.131242,-8438.347739,74.020594,153.219100
858.131563,-7994.224174,-592.164754,-1302.362347
858.131884,-8438.347739,-1036.288319,-1378.971896
858.132204,-9178.553681,-1406.391290,-842.705048
858.132525,-9474.636058,-962.267725,229.828649
858.132846,-10066.800811,0.000000,2068.457845
858.133167,-10807.006753,296.082377,3677.258390
858.133488,-11029.068536,0.000000,3447.429741
858.133808,-10955.047942,-888.247130,3140.991542
858.134129,-10288.862594,-222.061783,2298.286494
858.134450,-9844.739029,814.226536,1685.410096
858.134771,-9400.615463,1332.370696,919.314598
858.135091,-8438.347739,1036.288319,995.924147
858.135412,-8438.347739,666.185348,-842.705048
858.135733,-8586.388927,0.000000,-1149.143247
858.136054,-8882.471304,-222.061783,-689.485948
858.136375,-9770.718434,0.000000,1149.143247
858.136695,-10362.883188,222.061783,2604.724693
858.137016,-11029.068536,0.000000,3524.039291
858.137337,-11251.130318,-740.205942,3294.210641
858.137658,-10807.006753,-1036.288319,2374.896044
858.137978,-9918.759623,-444.123565,766.095498
858.138299,-9030.512492,148.041188,689.485948
858.138620,-9030.512492,518.144159,-229.828649
858.138941,-8142.265362,0.000000,-766.095498
858.139262,-8068.244768,-1480.411884,-2451.505594
858.139582,-8734.430116,-962.267725,-1378.971896
858.139903,-9400.615463,-1628.453072,-306.438199
858.140224,-9696.697840,-888.247130,1225.752797
858.140545,-10658.965565,-370.102971,4213.525239
858.140866,-10584.944971,0.000000,3830.477490
858.141186,-10510.924376,-592.164754,2834.553343
858.141507,-10066.800811,-74.020594,2374.896044
858.141828,-9474.636058,148.041188,1149.143247
858.142149,-8586.388927,592.164754,766.095498
858.142469,-8660.409521,296.082377,229.828649
858.142790,-7920.203579,-296.082377,-536.266849
858.143111,-8660.409521,-1258.350101,-995.924147
858.143432,-8142.265362,-666.185348,0.000000
858.143753,-9992.780217,-666.185348,1072.533697
858.144073,-10362.883188,-222.061783,2757.943793
858.144394,-10807.006753,-518.144159,3677.258390
858.144715,-10807.006753,-1702.473667,3447.429741
858.145036,-10584.944971,-1776.494261,1838.629195
858.145356,-9770.718434,-1480.411884,689.485948
858.145677,-8882.471304,-148.041188,229.828649
858.145998,-8586.388927,444.123565,0.000000
858.146319,-8216.285956,0.000000,-536.266849
858.146640,-8734.430116,-888.247130,-919.314598
858.146960,-8808.450710,-1332.370696,-995.924147
858.147281,-9474.636058,-1406.391290,0.000000
858.147602,-9400.615463,-444.123565,2451.505594
858.147923,-11177.109724,-222.061783,3447.429741
858.148243,-10955.047942,-444.123565,3907.087040
858.148564,-11103.089130,-1184.329507,3524.039291
858.148885,-10732.986159,-444.123565,1455.581446
858.149206,-10140.821405,-592.164754,1838.629195
858.149527,-9548.656652,222.061783,1302.362347
858.149847,-9400.615463,518.144159,995.924147
858.150168,-8734.430116,444.123565,-383.047749
858.150489,-8586.388927,-222.061783,-919.314598
858.150810,-8882.471304,-518.144159,-919.314598
858.151131,-9474.636058,-296.082377,459.657299
858.151451,-9918.759623,0.000000,1915.238745
858.151772,-10732.986159,148.041188,2374.896044
858.152093,-10214.842000,-518.144159,2681.334243
858.152414,-10066.800811,-1036.288319,1915.238745
858.152734,-9770.718434,-962.267725,1072.533697
858.153055,-9252.574275,-296.082377,383.047749
858.153376,-8956.491898,-296.082377,0.000000
858.153697,-7772.162391,222.061783,-459.657299
858.154018,-9252.574275,-888.247130,-919.314598
858.154338,-8068.244768,-592.164754,-1072.533697
858.154659,-9252.574275,-962.267725,0.000000
858.154980,-9770.718434,-148.041188,1685.410096
858.155301,-10066.800811,-518.144159,2298.286494
858.155621,-10510.924376,-666.185348,3524.039291
858.155942,-10362.883188,-1110.308913,3677.258390
858.156263,-9992.780217,-962.267725,2374.896044
858.156584,-9696.697840,-222.061783,1915.238745
858.156905,-8882.471304,222.061783,1072.533697
858.157225,-7624.121203,296.082377,2145.067394
858.157546,-8882.471304,222.061783,0.000000
858.157867,-8290.306550,0.000000,-1225.752797
858.158188,-8734.430116,-592.164754,-919.314598
858.158509,-9548.656652,-888.247130,76.609550
858.158829,-9622.677246,-592.164754,1915.238745
858.159150,-10881.027347,-962.267725,3217.601092
858.159471,-11325.150913,-1184.329507,4213.525239
858.159791,-11103.089130,-1036.288319,2681.334243
858.160112,-10955.047942,-296.082377,1838.629195
858.160433,-9622.677246,444.123565,1225.752797
858.160754,-9474.636058,888.247130,0.000000
858.161074,-8438.347739,666.185348,-153.219100
858.161395,-9474.636058,0.000000,-536.266849
858.161716,-8734.430116,-592.164754,-1608.800546
858.162036,-9770.718434,-740.205942,-995.924147
858.162357,-9844.739029,-222.061783,766.095498
858.162678,-10436.903782,518.144159,2145.067394
858.162999,-11251.130318,666.185348,2911.162892
858.163319,-11251.130318,296.082377,3370.820191
858.163640,-10732.986159,-370.102971,2451.505594
858.163961,-10288.862594,-370.102971,1685.410096
858.164281,-9622.677246,518.144159,689.485948
858.164602,-9326.594869,592.164754,842.705048
858.164923,-8438.347739,148.041188,-229.828649
858.165244,-8586.388927,-666.185348,-1072.533697
858.165564,-7698.141797,-518.144159,-1378.971896
858.165885,-9400.615463,-888.247130,-229.828649
858.166206,-9326.594869,0.000000,1225.752797
858.166527,-10436.903782,-296.082377,3140.991542
858.166847,-10584.944971,-1258.350101,3447.429741
858.167168,-10288.862594,-1406.391290,3064.381992
858.167489,-10140.821405,-1406.391290,2221.676944
858.167809,-8956.491898,-962.267725,459.657299
858.168130,-8512.368333,-148.041188,229.828649
858.168451,-7624.121203,0.000000,-229.828649
858.168772,-8068.244768,-518.144159,-766.095498
858.169092,-7994.224174,-888.247130,-1378.971896
858.169413,-8808.450710,-1110.308913,-919.314598
858.169734,-8734.430116,0.000000,-1072.533697
858.170054,-10140.821405,-296.082377,2145.067394
858.170375,-10362.883188,592.164754,3294.210641
858.170696,-10807.006753,0.000000,3524.039291
858.171017,-10732.986159,-962.267725,2911.162892
858.171337,-10288.862594,0.000000,2068.457845
858.171658,-10066.800811,148.041188,1685.410096
858.171979,-9104.533087,592.164754,842.705048
858.172300,-8882.471304,1036.288319,306.438199
858.172620,-8586.388927,0.000000,-1225.752797
858.172941,-8808.450710,-222.061783,-1072.533697
858.173262,-9696.697840,-370.102971,-459.657299
858.173582,-9548.656652,0.000000,1532.190996
858.173903,-11029.068536,-592.164754,3140.991542
858.174224,-11547.212695,0.000000,3983.696590
858.174545,-11547.212695,-518.144159,3524.039291
858.174865,-11399.171507,-444.123565,2528.115143
858.175186,-10066.800811,-222.061783,1685.410096
858.175507,-9474.636058,0.000000,536.266849
858.175827,-9178.553681,0.000000,0.000000
858.176148,-8882.471304,-1036.288319,-689.485948
858.176469,-8808.450710,-962.267725,-1225.752797
858.176790,-9030.512492,-1480.411884,-1225.752797
858.177110,-9104.533087,-518.144159,-306.438199
858.177431,-9770.718434,74.020594,1532.190996
858.177752,-10510.924376,-222.061783,2681.334243
858.178073,-10658.965565,0.000000,2145.067394
858.178393,-10807.006753,-1924.535449,2681.334243
858.178714,-10066.800811,-1628.453072,1685.410096
858.179035,-9474.636058,-1110.308913,995.924147
858.179355,-9030.512492,-296.082377,1225.752797
858.179676,-8438.347739,-222.061783,229.828649
858.179997,-7772.162391,-666.185348,-842.705048
858.180318,-8290.306550,-740.205942,-1225.752797
858.180638,-8586.388927,-740.205942,-153.219100
858.180959,-9400.615463,-518.144159,995.924147
858.181280,-10214.842000,0.000000,2834.553343
858.181600,-10436.903782,-222.061783,3907.087040
858.181921,-10436.903782,-1258.350101,3753.867940
858.182242,-10288.862594,-888.247130,2681.334243
858.182563,-9918.759623,-962.267725,1685.410096
858.182883,-9400.615463,0.000000,1225.752797
858.183204,-9030.512492,1258.350101,383.047749
858.183525,-8734.430116,518.144159,-536.266849
858.183845,-8808.450710,-222.061783,-1302.362347
858.184166,-9178.553681,-740.205942,-1685.410096
858.184487,-9474.636058,-1184.329507,-689.485948
858.184808,-10066.800811,-296.082377,842.705048
858.185128,-11029.068536,-148.041188,1991.848295
858.185449,-10955.047942,148.041188,3294.210641
858.185770,-11325.150913,0.000000,3294.210641
858.186091,-10955.047942,-296.082377,2528.115143
858.186411,-10066.800811,-740.205942,1455.581446
858.186732,-9252.574275,222.061783,1149.143247
858.187053,-9474.636058,444.123565,536.266849
858.187373,-8660.409521,444.123565,153.219100
858.187694,-9252.574275,-888.247130,-536.266849
858.188015,-9104.533087,-444.123565,459.657299
858.188336,-9474.636058,-1036.288319,689.485948
858.188656,-10066.800811,-148.041188,2757.943793
858.188977,-10732.986159,0.000000,3753.867940
858.189298,-10732.986159,-296.082377,3677.258390
858.189618,-10214.842000,-296.082377,2987.772442
858.189939,-9548.656652,-740.205942,1532.190996
858.190260,-8956.491898,-148.041188,383.047749
858.190581,-8734.430116,518.144159,0.000000
858.190901,-7994.224174,666.185348,-842.705048
858.191222,-8512.368333,-148.041188,-1608.800546
858.191543,-8512.368333,-592.164754,-1685.410096
858.191864,-8956.491898,296.082377,76.609550
858.192184,-9178.553681,-518.144159,0.000000
858.192505,-10140.821405,-592.164754,2068.457845
858.192826,-10362.883188,-592.164754,3064.381992
858.193146,-10658.965565,-1480.411884,2374.896044
858.193467,-10140.821405,-1036.288319,1762.019645
858.193788,-9844.739029,74.020594,919.314598
858.194109,-9178.553681,962.267725,995.924147
858.194429,-8956.491898,814.226536,919.314598
858.194750,-8734.430116,518.144159,-306.438199
858.195071,-8512.368333,-1036.288319,-1762.019645
858.195391,-8660.409521,-1184.329507,-1532.190996
858.195712,-9474.636058,-518.144159,-229.828649
858.196033,-10066.800811,444.123565,1762.019645
858.196354,-11103.089130,814.226536,3677.258390
858.196674,-11251.130318,0.000000,3677.258390
858.196995,-11103.089130,-1332.370696,2911.162892
858.197316,-10658.965565,-1480.411884,2298.286494
858.197637,-10066.800811,-962.267725,1378.971896
858.197957,-9474.636058,-296.082377,842.705048
858.198278,-8660.409521,148.041188,0.000000
858.198599,-8882.471304,-518.144159,-842.705048
858.198919,-8808.450710,-1554.432478,-1225.752797
858.199240,-9326.594869,-1406.391290,-766.095498
858.199561,-9622.677246,-1036.288319,229.828649
858.199882,-10436.903782,-518.144159,1838.629195
858.200202,-11029.068536,666.185348,2528.115143
858.200523,-11103.089130,-814.226536,3524.039291
858.200844,-10510.924376,-1332.370696,2834.553343
858.201164,-9992.780217,-888.247130,1762.019645
858.201485,-9326.594869,0.000000,766.095498
858.201806,-8956.491898,666.185348,1072.533697
858.202127,-8734.430116,518.144159,612.876398
858.202447,-8512.368333,-370.102971,-306.438199
858.202768,-8290.306550,-814.226536,-1149.143247
858.203089,-9178.553681,-1184.329507,0.000000
858.203409,-9326.594869,-370.102971,1762.019645
858.203730,-10584.944971,0.000000,3217.601092
858.204051,-10658.965565,-148.041188,3447.429741
858.204372,-9918.759623,-1332.370696,2451.505594
858.204692,-9770.718434,-1480.411884,1225.752797
858.205013,-8956.491898,-1332.370696,0.000000
858.205334,-8512.368333,-370.102971,-689.485948
858.205655,-8438.347739,148.041188,-612.876398
858.205975,-8216.285956,0.000000,-995.924147
858.206296,-8438.347739,-518.144159,-1915.238745
858.206617,-9252.574275,-444.123565,-995.924147
858.206937,-9696.697840,0.000000,383.047749
858.207258,-10288.862594,74.020594,2068.457845
858.207579,-11251.130318,0.000000,3600.648841
858.207900,-11029.068536,-444.123565,3830.477490
858.208220,-10955.047942,-518.144159,3294.210641
858.208541,-10214.842000,-444.123565,2987.772442
858.208862,-9326.594869,1036.288319,1685.410096
858.209182,-9178.553681,1480.411884,995.924147
858.209503,-8734.430116,1480.411884,-153.219100
858.209824,-8364.327145,296.082377,-1302.362347
858.210145,-8956.491898,-148.041188,-1225.752797
858.210465,-9474.636058,0.000000,0.000000
858.210786,-9992.780217,0.000000,1762.019645
858.211107,-11103.089130,0.000000,3524.039291
858.211428,-11177.109724,592.164754,4443.353888
858.211748,-11473.192101,-370.102971,3447.429741
858.212069,-11103.089130,-740.205942,2451.505594
858.212390,-9992.780217,0.000000,1838.629195
858.212710,-9474.636058,-296.082377,842.705048
858.213031,-8956.491898,222.061783,229.828649
858.213352,-8142.265362,-666.185348,-689.485948
858.213673,-8586.388927,-1480.411884,-1149.143247
858.213993,-8808.450710,-1702.473667,-766.095498
858.214314,-9030.512492,-1258.350101,0.000000
858.214635,-9992.780217,-370.102971,1685.410096
858.214955,-10584.944971,222.061783,3140.991542
858.215276,-10510.924376,74.020594,3370.820191
858.215597,-10658.965565,-962.267725,2528.115143
858.215918,-9992.780217,-962.267725,2298.286494
858.216238,-9548.656652,-222.061783,1762.019645
858.216559,-9030.512492,518.144159,1378.971896
858.216880,-7846.182985,1036.288319,1838.629195
858.217201,-7994.224174,0.000000,-766.095498
858.217521,-8290.306550,-888.247130,-1455.581446
858.217842,-9030.512492,-962.267725,-995.924147
858.218163,-9400.615463,-592.164754,536.266849
858.218483,-10288.862594,0.000000,2221.676944
858.218804,-10510.924376,74.020594,3217.601092
858.219125,-10807.006753,-814.226536,3294.210641
858.219446,-10658.965565,-1406.391290,2834.553343
858.219766,-10362.883188,-1480.411884,1532.190996
858.220087,-9400.615463,-666.185348,536.266849
858.220408,-9030.512492,0.000000,0.000000
858.220728,-8364.327145,0.000000,-536.266849
858.221049,-9104.533087,296.082377,-1991.848295
858.221370,-8734.430116,-592.164754,-1378.971896
858.221691,-9474.636058,-518.144159,-842.705048
858.222011,-9844.739029,-592.164754,229.828649
858.222332,-10584.944971,-962.267725,1838.629195
858.222653,-10658.965565,-1258.350101,3447.429741
858.222974,-10955.047942,-1850.514855,2681.334243
858.223294,-10362.883188,-1480.411884,2451.505594
858.223615,-10066.800811,-888.247130,1838.629195
858.223936,-9178.553681,444.123565,1302.362347
858.224256,-9474.636058,1110.308913,536.266849
858.224577,-8586.388927,592.164754,-612.876398
858.224898,-8364.327145,0.000000,-919.314598
858.225219,-8808.450710,-148.041188,153.219100
858.225539,-9474.636058,-592.164754,689.485948
858.225860,-10140.821405,-148.041188,2451.505594
858.226181,-10807.006753,-518.144159,3907.087040
858.226501,-10881.027347,-518.144159,3983.696590
858.226822,-10658.965565,-814.226536,3294.210641
858.227143,-10140.821405,-740.205942,2145.067394
858.227464,-9326.594869,444.123565,766.095498
858.227784,-8882.471304,888.247130,536.266849
858.228105,-8216.285956,222.061783,0.000000
858.228426,-8290.306550,-370.102971,-995.924147
858.228746,-8660.409521,-1480.411884,-1072.533697
858.229067,-8882.471304,-1036.288319,-919.314598
858.229388,-9548.656652,-592.164754,1608.800546
858.229709,-10140.821405,-222.061783,2221.676944
858.230029,-10510.924376,0.000000,3064.381992
858.230350,-10658.965565,-666.185348,2911.162892
858.230671,-10140.821405,-222.061783,3983.696590
858.230992,-9770.718434,-1184.329507,1608.800546
858.231312,-9622.677246,-370.102971,1532.190996
858.231633,-9252.574275,-296.082377,1072.533697
858.231954,-8734.430116,-1036.288319,-306.438199
858.232274,-8882.471304,-370.102971,-995.924147
858.232595,-9104.533087,-518.144159,-1225.752797
858.232916,-9326.594869,-296.082377,-383.047749
858.233237,-10214.842000,444.123565,1378.971896
858.233557,-11177.109724,518.144159,3064.381992
858.233878,-10955.047942,-222.061783,3217.601092
858.234199,-11029.068536,-1110.308913,2757.943793
858.234519,-10436.903782,-444.123565,1838.629195
858.234840,-9696.697840,-518.144159,-459.657299
858.235161,-9326.594869,1406.391290,612.876398
858.235482,-8808.450710,1332.370696,-459.657299
858.235802,-8364.327145,0.000000,-995.924147
858.236123,-8290.306550,-444.123565,-1608.800546
858.236444,-9400.615463,-518.144159,-536.266849
858.236765,-9474.636058,-814.226536,536.266849
858.237085,-10362.883188,-222.061783,2068.457845
858.237406,-10288.862594,370.102971,3217.601092
858.237727,-11399.171507,-592.164754,2911.162892
858.238047,-10288.862594,-518.144159,2834.553343
858.238368,-10140.821405,-370.102971,1991.848295
858.238689,-9326.594869,0.000000,919.314598
858.239010,-8734.430116,0.000000,1149.143247
858.239330,-8438.347739,0.000000,153.219100
858.239651,-8438.347739,-962.267725,-995.924147
858.239972,-8364.327145,-1702.473667,-1378.971896
858.240292,-8142.265362,-888.247130,-459.657299
858.240613,-9178.553681,-444.123565,1455.581446
858.240934,-9992.780217,0.000000,2528.115143
858.241255,-10510.924376,296.082377,3830.477490
858.241575,-10658.965565,-592.164754,3217.601092
858.241896,-9622.677246,0.000000,2834.553343
858.242217,-9992.780217,-666.185348,2068.457845
858.242538,-9178.553681,-296.082377,1072.533697
858.242858,-8586.388927,-148.041188,383.047749
858.243179,-8290.306550,-740.205942,1302.362347
858.243500,-8142.265362,-962.267725,-842.705048
858.243820,-9030.512492,-740.205942,-995.924147
858.244141,-9696.697840,0.000000,0.000000
858.244462,-9992.780217,592.164754,1378.971896
858.244783,-10658.965565,666.185348,2911.162892
858.245103,-10658.965565,296.082377,2987.772442
858.245424,-11399.171507,-814.226536,2681.334243
858.245745,-10510.924376,-518.144159,1915.238745
858.246065,-9992.780217,370.102971,536.266849
858.246386,-9696.697840,0.000000,383.047749
858.246707,-9030.512492,740.205942,76.609550
858.247028,-9474.636058,0.000000,-459.657299
858.247348,-8068.244768,-148.041188,-536.266849
858.247669,-9400.615463,222.061783,-459.657299
858.247990,-10140.821405,222.061783,1149.143247
858.248310,-10658.965565,666.185348,2834.553343
858.248631,-11325.150913,148.041188,3907.087040
858.248952,-10955.047942,-296.082377,3064.381992
858.249273,-10807.006753,-962.267725,2451.505594
858.249593,-10066.800811,-740.205942,1608.800546
858.249914,-9326.594869,-148.041188,689.485948
858.250235,-8660.409521,0.000000,0.000000
858.250556,-8068.244768,-592.164754,-1149.143247
858.250876,-8734.430116,-1332.370696,-1838.629195
858.251197,-9030.512492,-1406.391290,-919.314598
858.251518,-10288.862594,-518.144159,-229.828649
858.251838,-9844.739029,-592.164754,1378.971896
858.252159,-10214.842000,-296.082377,2451.505594
858.252480,-9918.759623,-444.123565,2834.553343
858.252801,-10362.883188,-888.247130,2834.553343
858.253121,-9918.759623,-888.247130,2451.505594
858.253442,-9474.636058,-740.205942,1532.190996
858.253763,-8586.388927,-296.082377,842.705048
858.254083,-8512.368333,-148.041188,-306.438199
858.254404,-8364.327145,-666.185348,-919.314598
858.254725,-8216.285956,-814.226536,-995.924147
858.255046,-8808.450710,-592.164754,-689.485948
858.255366,-9474.636058,222.061783,766.095498
858.255687,-9918.759623,-1036.288319,2374.896044
858.256008,-10510.924376,-444.123565,3677.258390
858.256329,-11029.068536,-1184.329507,3370.820191
858.256649,-10436.903782,-1554.432478,2528.115143
858.256970,-10066.800811,-962.267725,1608.800546
858.257291,-9474.636058,222.061783,919.314598
858.257611,-9104.533087,444.123565,459.657299
858.257932,-8956.491898,222.061783,-459.657299
858.258253,-8956.491898,-592.164754,-995.924147
858.258573,-9104.533087,-1036.288319,-842.705048
858.258894,-10066.800811,-518.144159,-383.047749
858.259215,-9992.780217,222.061783,1378.971896
858.259535,-10732.986159,222.061783,2834.553343
858.259856,-10584.944971,296.082377,4366.744339
858.260177,-11177.109724,0.000000,3370.820191
858.260497,-10955.047942,-444.123565,2528.115143
858.260818,-10214.842000,-370.102971,1455.581446
858.261139,-9326.594869,666.185348,1225.752797
858.261459,-9326.594869,814.226536,536.266849
858.261780,-8734.430116,740.205942,76.609550
858.262101,-8882.471304,-888.247130,-919.314598
858.262421,-8808.450710,-740.205942,-689.485948
858.262742,-9400.615463,-444.123565,842.705048
858.263063,-10140.821405,-148.041188,2374.896044
858.263383,-10436.903782,0.000000,3677.258390
858.263704,-10510.924376,-444.123565,3524.039291
858.264025,-9622.677246,-1850.514855,2451.505594
858.264345,-9992.780217,-1184.329507,1762.019645
858.264666,-8956.491898,-1184.329507,1072.533697
858.264987,-8512.368333,-592.164754,612.876398
858.265307,-7994.224174,-592.164754,-842.705048
858.265628,-8290.306550,-666.185348,-459.657299
858.265949,-8734.430116,-666.185348,-842.705048
858.266269,-8956.491898,-592.164754,0.000000
858.266590,-9178.553681,-370.102971,1532.190996
858.266911,-9992.780217,-444.123565,2298.286494
858.267232,-10362.883188,-592.164754,2911.162892
858.267552,-10510.924376,-814.226536,2834.553343
858.267873,-10288.862594,-518.144159,2604.724693
858.268194,-9992.780217,0.000000,2451.505594
858.268514,-9178.553681,296.082377,766.095498
858.268835,-9104.533087,666.185348,229.828649
858.269156,-8956.491898,370.102971,-383.047749
858.269476,-9104.533087,-444.123565,536.266849
858.269797,-9030.512492,-1480.411884,-612.876398
858.270118,-9548.656652,-1332.370696,0.000000
858.270438,-10066.800811,-444.123565,1608.800546
858.270759,-11103.089130,370.102971,3370.820191
858.271080,-11547.212695,222.061783,3064.381992
858.271400,-10807.006753,0.000000,2374.896044
858.271721,-10658.965565,-1110.308913,1532.190996
858.272042,-9104.533087,148.041188,0.000000
858.272362,-9622.677246,-222.061783,306.438199
858.272683,-8956.491898,148.041188,-536.266849
858.273004,-8586.388927,0.000000,-766.095498
858.273324,-9252.574275,-1332.370696,-919.314598
858.273645,-9252.574275,-1702.473667,-2451.505594
858.273966,-9474.636058,-1702.473667,-383.047749
858.274286,-10362.883188,-888.247130,1302.362347
858.274607,-10436.903782,-296.082377,2298.286494
858.274928,-11103.089130,-370.102971,2987.772442
858.275248,-10362.883188,-592.164754,2757.943793
858.275569,-9992.780217,-592.164754,1838.629195
858.275890,-9622.677246,-148.041188,1838.629195
858.276210,-9326.594869,74.020594,1302.362347
858.276531,-8882.471304,0.000000,306.438199
858.276852,-8438.347739,-296.082377,-689.485948
858.277172,-8142.265362,-444.123565,-1149.143247
858.277493,-8660.409521,-148.041188,-536.266849
858.277814,-9104.533087,0.000000,306.438199
858.278134,-10066.800811,444.123565,2451.505594
858.278455,-10436.903782,-222.061783,3217.601092
858.278776,-10881.027347,-1406.391290,2987.772442
858.279096,-10066.800811,-1480.411884,2374.896044
858.279417,-9696.697840,-666.185348,1915.238745
858.279738,-9178.553681,-370.102971,995.924147
858.280058,-8364.327145,0.000000,383.047749
858.280379,-8512.368333,-592.164754,-229.828649
858.280700,-8660.409521,-962.267725,-995.924147
858.281020,-8808.450710,-1332.370696,-612.876398
858.281341,-9326.594869,-1110.308913,306.438199
858.281662,-9844.739029,-296.082377,1915.238745
858.281982,-10288.862594,666.185348,2681.334243
858.282303,-11177.109724,518.144159,3524.039291
858.282624,-10732.986159,296.082377,2681.334243
858.282944,-10436.903782,222.061783,2221.676944
858.283265,-9696.697840,444.123565,1225.752797
858.283586,-9622.677246,888.247130,919.314598
858.283906,-9178.553681,518.144159,0.000000
858.284227,-8882.471304,74.020594,-612.876398
858.284548,-8808.450710,0.000000,-1072.533697
858.284868,-9030.512492,-148.041188,-766.095498
858.285189,-9992.780217,148.041188,1302.362347
858.285510,-10807.006753,444.123565,3217.601092
858.285830,-10732.986159,-296.082377,3370.820191
858.286151,-10658.965565,-592.164754,4060.306139
858.286472,-10510.924376,-1036.288319,2145.067394
858.286792,-9622.677246,-370.102971,1225.752797
858.287113,-8808.450710,592.164754,536.266849
858.287434,-8808.450710,888.247130,-306.438199
858.287754,-7994.224174,444.123565,-766.095498
858.288075,-9178.553681,-740.205942,-1608.800546
858.288396,-8956.491898,-814.226536,-766.095498
858.288716,-9474.636058,-1554.432478,229.828649
858.289037,-9844.739029,-740.205942,2145.067394
858.289358,-10584.944971,-740.205942,3064.381992
858.289678,-10732.986159,0.000000,4060.306139
858.289999,-10807.006753,-814.226536,3524.039291
858.290320,-10436.903782,-814.226536,2528.115143
858.290640,-9622.677246,-518.144159,1302.362347
858.290961,-8660.409521,444.123565,995.924147
858.291282,-8660.409521,444.123565,536.266849
858.291602,-8364.327145,0.000000,-459.657299
858.291923,-8364.327145,-1036.288319,-1378.971896
858.292244,-8364.327145,-888.247130,-1149.143247
858.292564,-9770.718434,-1184.329507,612.876398
858.292885,-10140.821405,-370.102971,2374.896044
858.293206,-10955.047942,222.061783,3524.039291
858.293526,-11251.130318,-962.267725,3830.477490
858.293847,-10362.883188,-888.247130,2451.505594
858.294168,-10140.821405,-888.247130,1532.190996
858.294488,-9474.636058,-296.082377,0.000000
858.294809,-8956.491898,0.000000,0.000000
858.295130,-8734.430116,0.000000,-612.876398
858.295450,-8808.450710,-740.205942,-689.485948
858.295771,-8956.491898,-1110.308913,-536.266849
858.296092,-9918.759623,-962.267725,229.828649
858.296412,-9844.739029,-666.185348,1225.752797
858.296733,-10362.883188,-444.123565,2451.505594
858.297054,-10584.944971,-222.061783,3064.381992
858.297374,-10881.027347,-1110.308913,2757.943793
858.297695,-9844.739029,-814.226536,1838.629195
858.298016,-9918.759623,-666.185348,1225.752797
858.298336,-9252.574275,296.082377,689.485948
858.298657,-9474.636058,0.000000,306.438199
858.298978,-9104.533087,-296.082377,76.609550
858.299298,-8660.409521,-518.144159,-995.924147
858.299619,-9030.512492,-740.205942,-766.095498
858.299940,-9400.615463,0.000000,229.828649
858.300260,-9844.739029,148.041188,1915.238745
858.300581,-10658.965565,444.123565,3370.820191
858.300902,-10807.006753,-296.082377,3370.820191
858.301222,-10436.903782,-592.164754,2604.724693
858.301543,-10362.883188,-518.144159,2221.676944
858.301864,-9548.656652,74.020594,1455.581446
858.302184,-9104.533087,518.144159,306.438199
858.302505,-8660.409521,370.102971,0.000000
858.302826,-8364.327145,-518.144159,-1455.581446
858.303146,-8808.450710,-814.226536,-1225.752797
858.303467,-9548.656652,-740.205942,-306.438199
858.303788,-9474.636058,-296.082377,689.485948
858.304108,-10066.800811,0.000000,2298.286494
858.304429,-10214.842000,-370.102971,3217.601092
858.304750,-10436.903782,-1184.329507,3217.601092
858.305070,-10140.821405,-1628.453072,2451.505594
858.305391,-9696.697840,-1480.411884,1685.410096
858.305712,-9252.574275,0.000000,1608.800546
858.306032,-9326.594869,74.020594,919.314598
858.306353,-8512.368333,444.123565,153.219100
858.306674,-8512.368333,0.000000,-919.314598
858.306994,-8586.388927,-444.123565,-766.095498
858.307315,-8808.450710,-740.205942,0.000000
858.307636,-9622.677246,-1036.288319,1072.533697
858.307956,-10362.883188,-1036.288319,2757.943793
858.308277,-11325.150913,-222.061783,2374.896044
858.308598,-10584.944971,-666.185348,2374.896044
858.308918,-10288.862594,-296.082377,1991.848295
858.309239,-9844.739029,740.205942,1072.533697
858.309560,-9400.615463,1332.370696,459.657299
858.309880,-9104.533087,1036.288319,0.000000
858.310201,-8734.430116,-74.020594,-842.705048
858.310522,-8734.430116,-1110.308913,-1455.581446
858.310842,-9400.615463,-1406.391290,-766.095498
858.311163,-9548.656652,-666.185348,76.609550
858.311484,-10436.903782,0.000000,1378.971896
858.311804,-10510.924376,740.205942,2604.724693
858.312125,-11251.130318,444.123565,2987.772442
858.312446,-10732.986159,0.000000,2298.286494
858.312766,-10584.944971,444.123565,2068.457845
858.313087,-9474.636058,592.164754,1072.533697
858.313408,-8956.491898,740.205942,1072.533697
858.313728,-8734.430116,0.000000,76.609550
858.314049,-8216.285956,-592.164754,0.000000
858.314370,-8586.388927,-1258.350101,-1378.971896
858.314690,-9252.574275,-888.247130,-229.828649
858.315011,-9548.656652,-518.144159,1302.362347
858.315332,-10881.027347,-740.205942,2681.334243
858.315652,-11325.150913,-518.144159,4136.915689
858.315973,-11399.171507,-1332.370696,3677.258390
858.316294,-10436.903782,-1480.411884,1991.848295
858.316614,-9918.759623,-370.102971,2298.286494
858.316935,-9030.512492,0.000000,536.266849
858.317256,-8068.244768,0.000000,229.828649
858.317576,-8142.265362,-296.082377,-842.705048
858.317897,-7920.203579,-1184.329507,-1762.019645
858.318218,-8068.244768,-1628.453072,-1685.410096
858.318538,-9030.512492,-1332.370696,-1149.143247
858.318859,-9030.512492,0.000000,842.705048
858.319180,-10584.944971,518.144159,2604.724693
858.319500,-10510.924376,592.164754,2681.334243
858.319821,-10584.944971,0.000000,2757.943793
858.320142,-9918.759623,74.020594,2451.505594
858.320462,-10436.903782,-296.082377,1838.629195
858.320783,-9918.759623,1110.308913,1532.190996
858.321104,-9326.594869,444.123565,1378.971896
858.321424,-8660.409521,-814.226536,-383.047749
858.321745,-8068.244768,0.000000,-1072.533697
858.322066,-9252.574275,-888.247130,-1149.143247
858.322386,-9326.594869,-148.041188,536.266849
858.322707,-10288.862594,518.144159,2451.505594
858.323028,-10732.986159,-148.041188,3600.648841
858.323348,-10732.986159,-444.123565,2911.162892
858.323669,-10362.883188,-1036.288319,2451.505594
858.323990,-9844.739029,-888.247130,1455.581446
858.324310,-9474.636058,-148.041188,536.266849
858.324631,-9474.636058,0.000000,229.828649
858.324952,-8586.388927,-370.102971,383.047749
858.325272,-8660.409521,0.000000,-995.924147
858.325593,-9474.636058,-1036.288319,-995.924147
858.325914,-9474.636058,-962.267725,0.000000
858.326234,-9770.718434,-296.082377,1455.581446
858.326555,-10436.903782,-444.123565,2681.334243
858.326876,-10807.006753,-296.082377,3830.477490
858.327196,-10807.006753,-1332.370696,2987.772442
858.327517,-10214.842000,-740.205942,2757.943793
858.327838,-9474.636058,-444.123565,1532.190996
858.328158,-8956.491898,592.164754,1455.581446
858.328479,-8956.491898,0.000000,995.924147
858.328800,-8142.265362,-370.102971,0.000000
858.329120,-8512.368333,-1480.411884,-1149.143247
858.329441,-8882.471304,-1036.288319,-383.047749
858.329762,-9326.594869,-666.185348,689.485948
858.330082,-10066.800811,-148.041188,1991.848295
858.330403,-10658.965565,296.082377,4749.792088
858.330724,-10658.965565,-740.205942,3140.991542
858.331044,-10510.924376,-1258.350101,2374.896044
858.331365,-9918.759623,-1110.308913,1225.752797
858.331686,-9326.594869,-370.102971,0.000000
858.332006,-8956.491898,0.000000,383.047749
858.332327,-8364.327145,0.000000,-229.828649
858.332648,-8512.368333,-1332.370696,-1149.143247
858.332968,-8734.430116,-1554.432478,-1225.752797
858.333289,-9178.553681,-1998.556043,-383.047749
858.333610,-9696.697840,-962.267725,919.314598
858.333930,-10362.883188,-148.041188,2374.896044
858.334251,-10436.903782,296.082377,3447.429741
858.334572,-10732.986159,222.061783,2451.505594
858.334892,-10436.903782,0.000000,2374.896044
858.335213,-9992.780217,0.000000,1915.238745
858.335534,-9474.636058,0.000000,1072.533697
858.335854,-9178.553681,0.000000,383.047749
858.336175,-8586.388927,0.000000,229.828649
858.336496,-9178.553681,-370.102971,-766.095498
858.336816,-8956.491898,-296.082377,-459.657299
858.337137,-9400.615463,0.000000,229.828649
858.337458,-10584.944971,1110.308913,2911.162892
858.337778,-11103.089130,74.020594,2911.162892
858.338099,-11029.068536,-222.061783,3140.991542
858.338420,-10362.883188,-1036.288319,1991.848295
858.338740,-9770.718434,-888.247130,1225.752797
858.339061,-9548.656652,0.000000,919.314598
858.339382,-9326.594869,0.000000,612.876398
858.339702,-8808.450710,-222.061783,-229.828649
858.340023,-8882.471304,-962.267725,-842.705048
858.340344,-8512.368333,-1406.391290,-306.438199
858.340664,-9400.615463,-1184.329507,-459.657299
858.340985,-9844.739029,0.000000,1532.190996
858.341306,-10362.883188,296.082377,2604.724693
858.341626,-10066.800811,-222.061783,2451.505594
858.341947,-10362.883188,-740.205942,2911.162892
858.342268,-9918.759623,-1110.308913,2528.115143
858.342588,-9696.697840,-592.164754,1838.629195
858.342909,-8956.491898,222.061783,1532.190996
858.343230,-8586.388927,1702.473667,1532.190996
858.343550,-9104.533087,-1036.288319,383.047749
858.343871,-7550.100608,0.000000,-995.924147
858.344192,-9400.615463,-1036.288319,-1455.581446
858.344512,-9474.636058,0.000000,306.438199
858.344833,-9326.594869,0.000000,1838.629195
858.345154,-11399.171507,0.000000,3370.820191
858.345474,-11029.068536,-592.164754,3677.258390
858.345795,-10362.883188,-370.102971,3677.258390
858.346116,-11621.233289,0.000000,2757.943793
858.346436,-9474.636058,-148.041188,995.924147
858.346757,-9770.718434,666.185348,536.266849
858.347078,-8734.430116,-222.061783,0.000000
858.347399,-8216.285956,-888.247130,-2068.457845
858.347719,-9030.512492,-1406.391290,-1915.238745
858.348040,-9400.615463,-1258.350101,-766.095498
858.348361,-9474.636058,-444.123565,0.000000
858.348681,-11029.068536,74.020594,1378.971896
858.349002,-10584.944971,148.041188,2911.162892
858.349323,-10807.006753,-296.082377,2987.772442
858.349643,-11177.109724,-1036.288319,2757.943793
858.349964,-10362.883188,-1702.473667,3370.820191
858.350285,-9252.574275,-222.061783,1378.971896
858.350605,-9326.594869,0.000000,995.924147
858.350926,-8956.491898,296.082377,383.047749
858.351247,-8734.430116,0.000000,-76.609550
858.351567,-8808.450710,-888.247130,-459.657299
858.351888,-9104.533087,-592.164754,229.828649
858.352209,-9622.677246,0.000000,1378.971896
858.352529,-10584.944971,296.082377,3064.381992
858.352850,-10362.883188,740.205942,4290.134789
858.353171,-10658.965565,-296.082377,3140.991542
858.353491,-9844.739029,-148.041188,2145.067394
858.353812,-9252.574275,0.000000,689.485948
858.354133,-8438.347739,0.000000,919.314598
858.354453,-8364.327145,-222.061783,-229.828649
858.354774,-8364.327145,-740.205942,-1378.971896
858.355095,-8364.327145,-1554.432478,-1838.629195
858.355415,-8808.450710,-1628.453072,-1455.581446
858.355736,-9326.594869,-1332.370696,-153.219100
858.356057,-9474.636058,-444.123565,306.438199
858.356377,-10214.842000,-222.061783,2145.067394
858.356698,-10214.842000,-296.082377,2451.505594
858.357019,-10288.862594,-1258.350101,2757.943793
858.357339,-10362.883188,-814.226536,2374.896044
858.357660,-9918.759623,-222.061783,1991.848295
858.357981,-9918.759623,740.205942,1149.143247
858.358301,-8364.327145,1554.432478,2298.286494
858.358622,-8956.491898,666.185348,0.000000
858.358943,-8438.347739,370.102971,-1532.190996
858.359263,-9178.553681,370.102971,-1225.752797
858.359584,-9474.636058,814.226536,536.266849
858.359905,-10362.883188,148.041188,1991.848295
858.360225,-10881.027347,296.082377,3217.601092
858.360546,-11325.150913,-444.123565,3524.039291
858.360867,-10807.006753,-296.082377,3064.381992
858.361187,-10732.986159,148.041188,2528.115143
858.361508,-9696.697840,222.061783,1225.752797
858.361829,-9030.512492,518.144159,459.657299
858.362150,-8882.471304,148.041188,306.438199
858.362470,-9548.656652,-444.123565,-1762.019645
858.362791,-8808.450710,-1554.432478,-612.876398
858.363112,-9326.594869,-1776.494261,-459.657299
858.363433,-9474.636058,-1036.288319,1149.143247
858.363753,-10214.842000,-592.164754,2221.676944
858.364074,-10658.965565,-518.144159,3294.210641
858.364395,-10510.924376,-1110.308913,2451.505594
858.364716,-10066.800811,-1036.288319,1838.629195
858.365037,-9548.656652,-148.041188,1072.533697
858.365357,-9326.594869,1036.288319,919.314598
858.365678,-8956.491898,814.226536,919.314598
858.365999,-8660.409521,444.123565,306.438199
858.366320,-8586.388927,-518.144159,-536.266849
858.366640,-9104.533087,-962.267725,0.000000
858.366961,-9770.718434,-888.247130,689.485948
858.367282,-9992.780217,-444.123565,2528.115143
858.367603,-10732.986159,-888.247130,3524.039291
858.367923,-9992.780217,-1036.288319,2911.162892
858.368244,-9770.718434,-1110.308913,2298.286494
858.368565,-9696.697840,-1036.288319,766.095498
858.368886,-8734.430116,74.020594,-153.219100
858.369206,-9030.512492,444.123565,-766.095498
858.369527,-8290.306550,222.061783,-1225.752797
858.369848,-8586.388927,0.000000,-1608.800546
858.370169,-9030.512492,-740.205942,-1762.019645
858.370489,-9474.636058,-1036.288319,-766.095498
858.370810,-10214.842000,-888.247130,766.095498
858.371131,-9844.739029,-296.082377,2987.772442
858.371452,-11177.109724,-666.185348,3140.991542
858.371773,-11251.130318,-1036.288319,3294.210641
858.372093,-10584.944971,-666.185348,2911.162892
858.372414,-10066.800811,-518.144159,2451.505594
858.372735,-9326.594869,0.000000,1378.971896
858.373056,-9326.594869,0.000000,1149.143247
858.373376,-8512.368333,-222.061783,383.047749
858.373697,-8438.347739,-592.164754,-536.266849
858.374018,-8956.491898,-296.082377,-689.485948
858.374339,-9326.594869,0.000000,919.314598
858.374659,-9844.739029,296.082377,1991.848295
858.374980,-10807.006753,370.102971,3370.820191
858.375301,-11103.089130,0.000000,3907.087040
858.375622,-10955.047942,0.000000,2604.724693
858.375942,-10436.903782,-296.082377,2221.676944
858.376263,-9770.718434,296.082377,1838.629195
858.376584,-9030.512492,296.082377,842.705048
858.376905,-8734.430116,74.020594,153.219100
858.377225,-8660.409521,-666.185348,-612.876398
858.377546,-8734.430116,-888.247130,-995.924147
858.377867,-9400.615463,-1480.411884,-919.314598
858.378188,-9326.594869,-592.164754,383.047749
858.378508,-9548.656652,-370.102971,1991.848295
858.378829,-10436.903782,222.061783,2987.772442
858.379150,-10584.944971,-592.164754,3217.601092
858.379471,-10140.821405,-962.267725,2681.334243
858.379792,-9474.636058,-518.144159,1838.629195
858.380112,-9252.574275,444.123565,689.485948
858.380433,-8956.491898,962.267725,766.095498
858.380754,-8512.368333,296.082377,153.219100
858.381075,-8216.285956,-148.041188,-766.095498
858.381395,-8808.450710,-740.205942,-995.924147
858.381716,-9178.553681,-518.144159,-153.219100
858.382037,-10066.800811,-518.144159,1225.752797
858.382358,-10881.027347,-222.061783,2681.334243
858.382678,-10955.047942,222.061783,3677.258390
858.382999,-10955.047942,-1184.329507,2451.505594
858.383320,-10066.800811,-592.164754,1685.410096
858.383641,-9844.739029,-666.185348,766.095498
858.383961,-8956.491898,-222.061783,-1302.362347
858.384282,-8956.491898,518.144159,-383.047749
858.384603,-8956.491898,74.020594,-995.924147
858.384924,-8882.471304,-370.102971,-1225.752797
858.385244,-9548.656652,-888.247130,-842.705048
858.385565,-9622.677246,-1184.329507,0.000000
858.385886,-10362.883188,-592.164754,1225.752797
858.386207,-10807.006753,-370.102971,2911.162892
858.386527,-10658.965565,-814.226536,2757.943793
858.386848,-10214.842000,-1258.350101,2221.676944
858.387169,-10066.800811,-148.041188,1225.752797
858.387490,-9844.739029,444.123565,919.314598
858.387811,-9104.533087,592.164754,842.705048
858.388131,-8956.491898,444.123565,229.828649
858.388452,-9178.553681,-444.123565,-459.657299
858.388773,-8956.491898,-962.267725,-153.219100
858.389094,-9474.636058,-1110.308913,612.876398
858.389414,-9548.656652,-888.247130,1532.190996
858.389735,-10214.842000,-666.185348,2834.553343
858.390056,-10510.924376,-370.102971,3830.477490
858.390377,-10436.903782,-518.144159,3524.039291
858.390697,-10140.821405,-666.185348,2528.115143
858.391018,-9104.533087,-370.102971,1455.581446
858.391339,-8808.450710,296.082377,919.314598
858.391660,-8586.388927,74.020594,76.609550
858.391980,-8364.327145,-444.123565,-536.266849
858.392301,-7624.121203,-1924.535449,0.000000
858.392622,-8734.430116,-1702.473667,-919.314598
858.392943,-9252.574275,-1628.453072,-306.438199
858.393263,-9770.718434,-592.164754,1455.581446
858.393584,-10288.862594,0.000000,2757.943793
858.393905,-10658.965565,148.041188,2757.943793
858.394226,-10214.842000,0.000000,3064.381992
858.394547,-10362.883188,-1036.288319,2145.067394
858.394867,-8882.471304,444.123565,842.705048
858.395188,-8586.388927,444.123565,459.657299
858.395509,-7846.182985,1480.411884,-229.828649
858.395830,-9104.533087,222.061783,-306.438199
858.396150,-8438.347739,222.061783,-842.705048
858.396471,-9400.615463,74.020594,-229.828649
858.396792,-9548.656652,74.020594,1225.752797
858.397113,-10510.924376,444.123565,2987.772442
858.397433,-11473.192101,-296.082377,4366.744339
858.397754,-11029.068536,-1332.370696,3447.429741
858.398075,-10288.862594,-1110.308913,2681.334243
858.398396,-10584.944971,-740.205942,1762.019645
858.398716,-9474.636058,888.247130,536.266849
858.399037,-9696.697840,1924.535449,383.047749
858.399358,-8512.368333,1406.391290,-153.219100
858.399679,-9326.594869,74.020594,-1225.752797
858.399999,-9400.615463,-666.185348,-1915.238745
858.400320,-9400.615463,-1258.350101,-1072.533697
858.400641,-9548.656652,-1036.288319,-459.657299
858.400962,-10658.965565,0.000000,2451.505594
858.401282,-10584.944971,-148.041188,2528.115143
858.401603,-10214.842000,-814.226536,2451.505594
858.401924,-9622.677246,-814.226536,1532.190996
858.402245,-9696.697840,-296.082377,919.314598
858.402566,-9178.553681,592.164754,536.266849
858.402886,-8734.430116,296.082377,612.876398
858.403207,-8438.347739,74.020594,76.609550
858.403528,-8660.409521,-1036.288319,-153.219100
858.403849,-9326.594869,-1850.514855,-306.438199
858.404169,-9178.553681,-814.226536,842.705048
858.404490,-9844.739029,-222.061783,2451.505594
858.404811,-10214.842000,370.102971,2987.772442
858.405132,-10140.821405,-222.061783,3830.477490
858.405452,-9622.677246,-888.247130,2298.286494
858.405773,-9548.656652,-444.123565,1608.800546
858.406094,-8956.491898,-518.144159,229.828649
858.406415,-8882.471304,74.020594,766.095498
858.406735,-8808.450710,-370.102971,0.000000
858.407056,-8660.409521,-962.267725,-306.438199
858.407377,-9104.533087,-1850.514855,-1072.533697
858.407698,-9474.636058,-1628.453072,0.000000
858.408018,-9696.697840,-888.247130,612.876398
858.408339,-10881.027347,296.082377,2834.553343
858.408660,-10658.965565,74.020594,3600.648841
858.408981,-10066.800811,-444.123565,2604.724693
858.409301,-10510.924376,-444.123565,2145.067394
858.409622,-9770.718434,-518.144159,1225.752797
858.409943,-9400.615463,0.000000,1149.143247
858.410264,-9104.533087,1110.308913,689.485948
858.410585,-8956.491898,222.061783,536.266849
858.410905,-9178.553681,-148.041188,-536.266849
858.411226,-9400.615463,-1036.288319,-76.609550
858.411547,-9770.718434,-148.041188,383.047749
858.411868,-10436.903782,0.000000,1838.629195
858.412188,-10807.006753,370.102971,3294.210641
858.412509,-10584.944971,-296.082377,3677.258390
858.412830,-10658.965565,-1184.329507,2757.943793
858.413151,-9770.718434,-888.247130,2145.067394
858.413471,-9474.636058,-518.144159,1225.752797
858.413792,-9252.574275,-296.082377,842.705048
858.414113,-8660.409521,-444.123565,153.219100
858.414434,-8290.306550,-444.123565,-1991.848295
858.414754,-8882.471304,-1036.288319,-1149.143247
858.415075,-9030.512492,-814.226536,-459.657299
858.415396,-9622.677246,-592.164754,689.485948
858.415717,-9844.739029,-296.082377,1608.800546
858.416037,-10066.800811,0.000000,2374.896044
858.416358,-10140.821405,-888.247130,2145.067394
858.416679,-10066.800811,-1036.288319,1838.629195
858.417000,-9622.677246,-444.123565,995.924147
858.417320,-9104.533087,296.082377,383.047749
858.417641,-9030.512492,962.267725,0.000000
858.417962,-8512.368333,592.164754,-229.828649
858.418283,-8882.471304,-444.123565,-995.924147
858.418604,-8956.491898,-1184.329507,-1302.362347
858.418924,-9474.636058,-1258.350101,-459.657299
858.419245,-9770.718434,-592.164754,1302.362347
858.419566,-10436.903782,0.000000,2834.553343
858.419887,-10955.047942,74.020594,3294.210641
858.420207,-10732.986159,0.000000,3064.381992
858.420528,-10214.842000,-518.144159,1762.019645
858.420849,-9548.656652,0.000000,306.438199
858.421170,-9474.636058,0.000000,153.219100
858.421490,-8882.471304,-222.061783,-612.876398
858.421811,-8808.450710,-296.082377,-306.438199
858.422132,-9400.615463,-1332.370696,-766.095498
858.422453,-9474.636058,-1406.391290,0.000000
858.422773,-10436.903782,-1036.288319,536.266849
858.423094,-10214.842000,-148.041188,1915.238745
858.423415,-10955.047942,222.061783,2987.772442
858.423736,-11103.089130,0.000000,3753.867940
858.424056,-10362.883188,-666.185348,2451.505594
858.424377,-9696.697840,-740.205942,1532.190996
858.424698,-9252.574275,-1184.329507,306.438199
858.425019,-8438.347739,0.000000,229.828649
858.425340,-8586.388927,0.000000,76.609550
858.425660,-8068.244768,370.102971,-1225.752797
858.425981,-8734.430116,666.185348,-229.828649
858.426302,-9474.636058,592.164754,842.705048
858.426623,-10214.842000,-148.041188,1762.019645
858.426943,-10066.800811,296.082377,3830.477490
858.427264,-11251.130318,-444.123565,4136.915689
858.427585,-10214.842000,-888.247130,3447.429741
858.427906,-9622.677246,-1258.350101,2374.896044
858.428226,-9474.636058,-592.164754,1838.629195
858.428547,-8290.306550,0.000000,766.095498
858.428868,-8586.388927,0.000000,689.485948
858.429189,-8364.327145,-148.041188,536.266849
858.429509,-8364.327145,-1406.391290,-536.266849
858.429830,-9178.553681,-1628.453072,-536.266849
858.430151,-9252.574275,-888.247130,229.828649
858.430472,-9474.636058,-296.082377,1455.581446
858.430792,-10584.944971,0.000000,3294.210641
858.431113,-9918.759623,-74.020594,3753.867940
858.431434,-10658.965565,-666.185348,2068.457845
858.431755,-10214.842000,-370.102971,1991.848295
858.432075,-9696.697840,592.164754,689.485948
858.432396,-9474.636058,1480.411884,842.705048
858.432717,-9326.594869,1184.329507,-153.219100
858.433038,-8512.368333,740.205942,-689.485948
858.433359,-9178.553681,-296.082377,-1455.581446
858.433679,-9844.739029,-592.164754,-536.266849
858.434000,-9918.759623,-148.041188,1149.143247
858.434321,-10510.924376,74.020594,2298.286494
858.434642,-10881.027347,666.185348,3064.381992
858.434962,-10584.944971,0.000000,2757.943793
858.435283,-10807.006753,-814.226536,1302.362347
858.435604,-9770.718434,-592.164754,1149.143247
858.435925,-9252.574275,-370.102971,76.609550
858.436245,-9104.533087,-222.061783,-306.438199
858.436566,-8882.471304,-222.061783,-229.828649
858.436887,-8808.450710,-740.205942,-766.095498
858.437208,-9252.574275,-1110.308913,-919.314598
858.437528,-9474.636058,-888.247130,76.609550
858.437849,-9770.718434,-814.226536,689.485948
858.438170,-10214.842000,-148.041188,1915.238745
858.438491,-10066.800811,-666.185348,2604.724693
858.438811,-10066.800811,-1110.308913,2451.505594
858.439132,-9696.697840,-1258.350101,1455.581446
858.439453,-9474.636058,0.000000,1225.752797
858.439774,-9030.512492,518.144159,689.485948
858.440094,-9030.512492,518.144159,1072.533697
858.440415,-8882.471304,-148.041188,612.876398
858.440736,-8808.450710,-1628.453072,-459.657299
858.441057,-8808.450710,-1850.514855,-689.485948
858.441378,-9030.512492,-666.185348,612.876398
858.441698,-9770.718434,0.000000,2298.286494
858.442019,-10436.903782,592.164754,3370.820191
858.442340,-10288.862594,370.102971,3830.477490
858.442661,-10732.986159,-666.185348,2604.724693
858.442981,-10066.800811,-592.164754,2145.067394
858.443302,-9918.759623,-888.247130,1685.410096
858.443623,-7994.224174,-1406.391290,766.095498
858.443944,-8734.430116,-370.102971,536.266849
858.444264,-8438.347739,-1184.329507,-766.095498
858.444585,-8660.409521,-1184.329507,-612.876398
858.444906,-9474.636058,-1628.453072,0.000000
858.445227,-9548.656652,-222.061783,995.924147
858.445547,-10584.944971,222.061783,2298.286494
858.445868,-10881.027347,518.144159,3294.210641
858.446189,-10658.965565,-518.144159,3294.210641
858.446510,-10881.027347,-1258.350101,2528.115143
858.446830,-9918.759623,-1258.350101,1072.533697
858.447151,-9474.636058,-296.082377,459.657299
858.447472,-9178.553681,370.102971,536.266849
858.447793,-8808.450710,444.123565,459.657299
858.448114,-8808.450710,222.061783,-842.705048
858.448434,-9104.533087,-296.082377,-919.314598
858.448755,-9326.594869,-222.061783,0.000000
858.449076,-9992.780217,-370.102971,1378.971896
858.449397,-10732.986159,0.000000,3064.381992
858.449717,-10658.965565,-222.061783,3524.039291
858.450038,-10732.986159,-888.247130,2834.553343
858.450359,-9770.718434,-666.185348,1915.238745
858.450680,-9474.636058,0.000000,536.266849
858.451000,-8734.430116,518.144159,306.438199
858.451321,-8586.388927,74.020594,-383.047749
858.451642,-8216.285956,-518.144159,-1225.752797
858.451963,-9178.553681,-888.247130,-2681.334243
858.452283,-8734.430116,-962.267725,-1455.581446
858.452604,-9474.636058,-666.185348,383.047749
858.452925,-10214.842000,-148.041188,1608.800546
858.453246,-10214.842000,296.082377,3830.477490
858.453566,-10658.965565,0.000000,2834.553343
858.453887,-10362.883188,74.020594,2528.115143
858.454208,-10214.842000,0.000000,1991.848295
858.454529,-9770.718434,444.123565,2145.067394
858.454849,-9400.615463,518.144159,1225.752797
858.455170,-8734.430116,0.000000,919.314598
858.455491,-9030.512492,-1332.370696,-459.657299
858.455812,-8882.471304,-1184.329507,-766.095498
858.456133,-8808.450710,-1184.329507,842.705048
858.456453,-9696.697840,-518.144159,1455.581446
858.456774,-10214.842000,-740.205942,2451.505594
858.457095,-10288.862594,-444.123565,2911.162892
858.457416,-10881.027347,-1110.308913,842.705048
858.457736,-10510.924376,-370.102971,2145.067394
858.458057,-10214.842000,-444.123565,1685.410096
858.458378,-9474.636058,296.082377,1378.971896
858.458699,-9770.718434,-296.082377,842.705048
858.459019,-9326.594869,-740.205942,1149.143247
858.459340,-9400.615463,-1628.453072,0.000000
858.459661,-9400.615463,-2072.576638,-383.047749
858.459982,-9400.615463,-740.205942,459.657299
858.460302,-10436.903782,370.102971,1455.581446
858.460623,-10436.903782,1184.329507,3064.381992
858.460944,-10436.903782,518.144159,2528.115143
858.461265,-10214.842000,-296.082377,1915.238745
858.461586,-9918.759623,-1110.308913,842.705048
858.461907,-9622.677246,296.082377,536.266849
858.462227,-9696.697840,740.205942,612.876398
858.462548,-8660.409521,814.226536,0.000000
858.462869,-8512.368333,148.041188,-1225.752797
858.463190,-8512.368333,-592.164754,-1532.190996
858.463511,-9178.553681,-592.164754,-766.095498
858.463831,-9474.636058,-740.205942,0.000000
858.464152,-10140.821405,-148.041188,1838.629195
858.464473,-10214.842000,-370.102971,1532.190996
858.464794,-10140.821405,-1184.329507,2451.505594
858.465115,-9918.759623,-1480.411884,1762.019645
858.465435,-9696.697840,-1554.432478,995.924147
858.465756,-8882.471304,-370.102971,1608.800546
858.466077,-8882.471304,0.000000,-153.219100
858.466398,-8364.327145,0.000000,0.000000
858.466719,-8586.388927,-666.185348,-536.266849
858.467039,-8808.450710,-814.226536,-383.047749
858.467360,-9104.533087,-666.185348,383.047749
858.467681,-9548.656652,148.041188,1378.971896
858.468002,-10066.800811,296.082377,3370.820191
858.468323,-10584.944971,-74.020594,3370.820191
858.468644,-10362.883188,-1036.288319,3064.381992
858.468964,-10140.821405,-740.205942,2145.067394
858.469285,-9622.677246,0.000000,1378.971896
858.469606,-9104.533087,1406.391290,766.095498
858.469927,-9326.594869,1110.308913,689.485948
858.470248,-8068.244768,1184.329507,0.000000
858.470568,-9104.533087,0.000000,-536.266849
858.470889,-9474.636058,-518.144159,0.000000
858.471210,-9918.759623,0.000000,1149.143247
858.471531,-10955.047942,148.041188,2681.334243
858.471852,-10584.944971,370.102971,4060.306139
858.472172,-11103.089130,-666.185348,3524.039291
858.472493,-10066.800811,-592.164754,2221.676944
858.472814,-9622.677246,-888.247130,1072.533697
858.473135,-9400.615463,222.061783,919.314598
858.473456,-8956.491898,518.144159,919.314598
858.473777,-8882.471304,-296.082377,-459.657299
858.474097,-8586.388927,0.000000,306.438199
858.474418,-8956.491898,-1258.350101,-306.438199
858.474739,-9548.656652,-1110.308913,229.828649
858.475060,-9844.739029,-444.123565,1532.190996
858.475381,-10584.944971,0.000000,2757.943793
858.475701,-10066.800811,0.000000,3600.648841
858.476022,-10436.903782,-592.164754,2757.943793
858.476343,-10066.800811,-740.205942,1991.848295
858.476664,-9178.553681,-296.082377,229.828649
858.476985,-8734.430116,1036.288319,1302.362347
858.477305,-8956.491898,740.205942,76.609550
858.477626,-8364.327145,0.000000,-459.657299
858.477947,-8586.388927,-1480.411884,-1378.971896
858.478268,-8660.409521,-962.267725,-76.609550
858.478589,-9030.512492,-1184.329507,-306.438199
858.478910,-9844.739029,-296.082377,1378.971896
858.479230,-10140.821405,296.082377,2834.553343
858.479551,-10584.944971,-370.102971,3064.381992
858.479872,-10214.842000,-1702.473667,2451.505594
858.480193,-9992.780217,-2072.576638,1532.190996
858.480514,-9474.636058,-1258.350101,536.266849
858.480834,-9252.574275,-592.164754,612.876398
858.481155,-8512.368333,222.061783,1072.533697
858.481476,-8956.491898,-370.102971,-689.485948
858.481797,-9474.636058,-962.267725,-842.705048
858.482118,-9178.553681,-814.226536,-383.047749
858.482438,-9992.780217,-1480.411884,229.828649
858.482759,-10288.862594,-222.061783,2298.286494
858.483080,-10732.986159,-296.082377,2681.334243
858.483401,-10881.027347,-592.164754,2911.162892
858.483722,-10214.842000,-666.185348,2145.067394
858.484042,-10288.862594,-518.144159,1378.971896
858.484363,-9474.636058,74.020594,689.485948
858.484684,-9474.636058,592.164754,536.266849
858.485005,-9104.533087,222.061783,76.609550
858.485326,-8364.327145,-222.061783,-689.485948
858.485647,-8956.491898,-888.247130,-536.266849
858.485967,-9474.636058,-592.164754,0.000000
858.486288,-9992.780217,0.000000,1838.629195
858.486609,-10658.965565,0.000000,2604.724693
858.486930,-10732.986159,-222.061783,3677.258390
858.487251,-10140.821405,-1110.308913,2681.334243
858.487571,-9622.677246,-518.144159,1762.019645
858.487892,-9252.574275,0.000000,536.266849
858.488213,-8882.471304,296.082377,383.047749
858.488534,-8290.306550,296.082377,-229.828649
858.488855,-8216.285956,-592.164754,-383.047749
858.489175,-8586.388927,-1332.370696,-995.924147
858.489496,-9548.656652,-1776.494261,0.000000
858.489817,-9326.594869,-1036.288319,1149.143247
858.490138,-10066.800811,-296.082377,2451.505594
858.490459,-10288.862594,444.123565,3830.477490
858.490780,-10066.800811,-296.082377,3064.381992
858.491100,-9918.759623,-740.205942,2604.724693
858.491421,-9548.656652,-740.205942,1685.410096
858.491742,-9252.574275,0.000000,766.095498
858.492063,-9030.512492,962.267725,689.485948
858.492384,-8438.347739,518.144159,0.000000
858.492704,-8364.327145,0.000000,-536.266849
858.493025,-8882.471304,-518.144159,-536.266849
858.493346,-9400.615463,-592.164754,-612.876398
858.493667,-9992.780217,-148.041188,919.314598
858.493988,-10732.986159,0.000000,2298.286494
858.494308,-10807.006753,0.000000,3294.210641
858.494629,-11177.109724,-370.102971,2451.505594
858.494950,-10732.986159,-962.267725,3140.991542
858.495271,-10140.821405,-444.123565,1149.143247
858.495592,-9474.636058,370.102971,842.705048
858.495913,-9400.615463,222.061783,459.657299
858.496233,-8882.471304,-296.082377,-306.438199
858.496554,-8882.471304,-888.247130,-995.924147
858.496875,-9400.615463,-1110.308913,-919.314598
858.497196,-9622.677246,-666.185348,0.000000
858.497517,-10288.862594,-74.020594,1762.019645
858.497837,-10510.924376,0.000000,3370.820191
858.498158,-11103.089130,-444.123565,3677.258390
858.498479,-10658.965565,-1480.411884,2374.896044
858.498800,-9770.718434,-1258.350101,1991.848295
858.499121,-10140.821405,-666.185348,1685.410096
858.499441,-8956.491898,444.123565,766.095498
858.499762,-8956.491898,222.061783,459.657299
858.500083,-8290.306550,-296.082377,-536.266849
858.500404,-8586.388927,-962.267725,-766.095498
858.500725,-9252.574275,-518.144159,-229.828649
858.501045,-9770.718434,370.102971,1532.190996
858.501366,-10362.883188,296.082377,2451.505594
858.501687,-10140.821405,518.144159,3677.258390
858.502008,-10732.986159,0.000000,2528.115143
858.502329,-9696.697840,-666.185348,1991.848295
858.502650,-9622.677246,-962.267725,995.924147
858.502970,-8586.388927,-296.082377,306.438199
858.503291,-8364.327145,296.082377,-153.219100
858.503612,-8364.327145,-370.102971,-766.095498
858.503933,-8290.306550,-962.267725,-919.314598
858.504254,-9104.533087,-1184.329507,-1225.752797
858.504574,-9548.656652,-666.185348,-153.219100
858.504895,-10362.883188,-592.164754,2068.457845
858.505216,-10584.944971,-222.061783,3370.820191
858.505537,-10881.027347,-740.205942,3677.258390
858.505858,-10732.986159,-1258.350101,2757.943793
858.506178,-9992.780217,-962.267725,1838.629195
858.506499,-9548.656652,148.041188,1149.143247
858.506820,-8956.491898,1628.453072,1225.752797
858.507141,-8512.368333,1184.329507,0.000000
858.507462,-8290.306550,592.164754,-1991.848295
858.507783,-8882.471304,666.185348,-1378.971896
858.508103,-9400.615463,518.144159,-306.438199
858.508424,-10140.821405,-518.144159,689.485948
858.508745,-9622.677246,518.144159,2221.676944
858.509066,-11399.171507,0.000000,3064.381992
858.509387,-11177.109724,0.000000,3753.867940
858.509707,-10288.862594,-444.123565,2911.162892
858.510028,-10881.027347,-814.226536,1838.629195
858.510349,-8734.430116,0.000000,306.438199
858.510670,-9400.615463,0.000000,306.438199
858.510991,-8438.347739,0.000000,459.657299
858.511311,-8734.430116,-1332.370696,-919.314598
858.511632,-9178.553681,-1776.494261,0.000000
858.511953,-9178.553681,-1480.411884,0.000000
858.512274,-9696.697840,-222.061783,995.924147
858.512595,-10881.027347,222.061783,3140.991542
858.512916,-10288.862594,592.164754,4290.134789
858.513236,-10288.862594,-444.123565,2604.724693
858.513557,-9918.759623,-740.205942,1762.019645
858.513878,-9474.636058,-740.205942,842.705048
858.514199,-8734.430116,0.000000,1072.533697
858.514520,-9030.512492,148.041188,919.314598
858.514840,-8438.347739,-370.102971,229.828649
858.515161,-8808.450710,-1110.308913,-612.876398
858.515482,-9326.594869,-962.267725,-306.438199
858.515803,-10140.821405,-518.144159,1225.752797
858.516124,-9844.739029,222.061783,2221.676944
858.516444,-10584.944971,0.000000,3294.210641
858.516765,-10362.883188,-814.226536,2681.334243
858.517086,-9770.718434,-1258.350101,3064.381992
858.517407,-9918.759623,-1332.370696,995.924147
858.517728,-9326.594869,-444.123565,0.000000
858.518048,-9326.594869,370.102971,76.609550
858.518369,-8956.491898,148.041188,-306.438199
858.518690,-7994.224174,-148.041188,-1225.752797
858.519011,-9400.615463,-962.267725,-612.876398
858.519332,-9548.656652,-1184.329507,-536.266849
858.519653,-9548.656652,-444.123565,459.657299
858.519973,-9992.780217,-666.185348,2374.896044
858.520294,-10584.944971,-148.041188,2987.772442
858.520615,-10658.965565,-666.185348,2987.772442
858.520936,-10584.944971,-888.247130,2298.286494
858.521257,-9992.780217,-592.164754,1072.533697
858.521577,-9326.594869,0.000000,1302.362347
858.521898,-9326.594869,666.185348,919.314598
858.522219,-8956.491898,222.061783,306.438199
858.522540,-8882.471304,-518.144159,-459.657299
858.522861,-9104.533087,-888.247130,0.000000
858.523181,-9474.636058,-370.102971,766.095498
858.523502,-10288.862594,0.000000,2068.457845
858.523823,-10807.006753,296.082377,3294.210641
858.524144,-11251.130318,296.082377,3217.601092
858.524465,-10881.027347,0.000000,2451.505594
858.524786,-9918.759623,-148.041188,2068.457845
858.525106,-9326.594869,0.000000,459.657299
858.525427,-9326.594869,1628.453072,-229.828649
858.525748,-8956.491898,-296.082377,229.828649
858.526069,-8216.285956,-1036.288319,-612.876398
858.526390,-9030.512492,-1776.494261,-612.876398
858.526710,-9030.512492,-1480.411884,-153.219100
858.527031,-9548.656652,-666.185348,536.266849
858.527352,-10436.903782,74.020594,2298.286494
858.527673,-10288.862594,74.020594,3140.991542
858.527994,-10362.883188,-222.061783,2528.115143
858.528314,-9918.759623,-518.144159,2451.505594
858.528635,-9770.718434,-370.102971,1532.190996
858.528956,-9400.615463,444.123565,919.314598
858.529277,-9178.553681,888.247130,689.485948
858.529598,-8660.409521,1036.288319,536.266849
858.529919,-8512.368333,-518.144159,0.000000
858.530239,-8808.450710,-1258.350101,-766.095498
858.530560,-9326.594869,-1110.308913,0.000000
858.530881,-9770.718434,-666.185348,1532.190996
858.531202,-10658.965565,-296.082377,2987.772442
858.531523,-10288.862594,-296.082377,3370.820191
858.531843,-10584.944971,-1184.329507,2221.676944
858.532164,-10066.800811,-814.226536,1455.581446
858.532485,-9992.780217,-1036.288319,153.219100
858.532806,-9252.574275,0.000000,0.000000
858.533127,-9104.533087,74.020594,306.438199
858.533447,-9030.512492,-666.185348,-689.485948
858.533768,-9030.512492,-1184.329507,-306.438199
858.534089,-9326.594869,-1258.350101,-1532.190996
858.534410,-9474.636058,-962.267725,-689.485948
858.534731,-9844.739029,-740.205942,766.095498
858.535051,-10362.883188,-370.102971,1915.238745
858.535372,-10288.862594,-740.205942,2145.067394
858.535693,-10584.944971,-518.144159,1762.019645
858.536014,-9992.780217,-592.164754,1455.581446
858.536335,-9474.636058,74.020594,612.876398
858.536656,-9400.615463,1554.432478,459.657299
858.536976,-9622.677246,1702.473667,1149.143247
858.537297,-9474.636058,148.041188,766.095498
858.537618,-8956.491898,-740.205942,76.609550
858.537939,-9030.512492,-2146.597232,1225.752797
858.538260,-9548.656652,-518.144159,1991.848295
858.538580,-10510.924376,-814.226536,2757.943793
858.538901,-10214.842000,74.020594,3753.867940
858.539222,-10214.842000,-666.185348,3064.381992
858.539543,-9548.656652,0.000000,2068.457845
858.539864,-9548.656652,-148.041188,1455.581446
858.540184,-8808.450710,74.020594,995.924147
858.540505,-8808.450710,0.000000,689.485948
858.540826,-8808.450710,148.041188,842.705048
858.541147,-9252.574275,-1036.288319,459.657299
858.541468,-9474.636058,-1554.432478,689.485948
