#time,accel_x,accel_y,accel_z
794.359705,-9548.656652,-2294.638420,-612.876398
794.360026,-9696.697840,-2072.576638,0.000000
794.360347,-9918.759623,-1850.514855,0.000000
794.360667,-10066.800811,-1184.329507,383.047749
794.360988,-10214.842000,-296.082377,612.876398
794.361309,-10510.924376,-666.185348,919.314598
794.361630,-10140.821405,-962.267725,995.924147
794.361950,-9918.759623,-1258.350101,459.657299
794.362271,-9326.594869,-888.247130,842.705048
794.362592,-9474.636058,-518.144159,612.876398
794.362912,-9844.739029,-74.020594,1225.752797
794.363233,-9696.697840,-518.144159,1072.533697
794.363554,-9622.677246,-888.247130,689.485948
794.363875,-9622.677246,-592.164754,995.924147
794.364195,-9770.718434,-1258.350101,995.924147
794.364516,-9844.739029,-1184.329507,1378.971896
794.364837,-9474.636058,-1924.535449,1072.533697
794.365158,-9326.594869,-1850.514855,1991.848295
794.365478,-9474.636058,-2442.679609,383.047749
794.365799,-9326.594869,-2442.679609,689.485948
794.366120,-9548.656652,-2368.659014,1072.533697
794.366441,-9252.574275,-2590.720797,689.485948
794.366761,-9178.553681,-2590.720797,306.438199
794.367082,-9030.512492,-2886.803174,229.828649
794.367403,-9400.615463,-2664.741391,0.000000
794.367724,-9178.553681,-2664.741391,-76.609550
794.368044,-9400.615463,-2294.638420,0.000000
794.368365,-8956.491898,-2442.679609,-1149.143247
794.368686,-8956.491898,-2368.659014,-1685.410096
794.369006,-9326.594869,-2442.679609,-2068.457845
794.369327,-9104.533087,-3256.906145,-2681.334243
794.369648,-9326.594869,-2738.761985,-2911.162892
794.369969,-9696.697840,-2886.803174,-3447.429741
794.370289,-9844.739029,-2886.803174,-3677.258390
794.370610,-9696.697840,-3182.885551,-4366.744339
794.370931,-9844.739029,-3182.885551,-5056.230287
794.371252,-9474.636058,-3108.864956,-5286.058936
794.371572,-9770.718434,-3108.864956,-5209.449386
794.371893,-9770.718434,-3034.844362,-5515.887586
794.372214,-9696.697840,-2664.741391,-4826.401637
794.372535,-9548.656652,-2812.782580,-4903.011187
794.372855,-9992.780217,-2516.700203,-4060.306139
794.373176,-10362.883188,-3108.864956,-3753.867940
794.373497,-9770.718434,-2886.803174,-3370.820191
794.373818,-10214.842000,-2812.782580,-2834.553343
794.374138,-9992.780217,-2442.679609,-2604.724693
794.374459,-9548.656652,-2442.679609,-2298.286494
794.374780,-9992.780217,-2072.576638,-1685.410096
794.375100,-9696.697840,-1702.473667,-1455.581446
794.375421,-9400.615463,-1628.453072,-1225.752797
794.375742,-9622.677246,-1924.535449,-689.485948
794.376063,-9770.718434,-2146.597232,0.000000
794.376383,-9844.739029,-1998.556043,1838.629195
794.376704,-9844.739029,-2368.659014,1991.848295
794.377025,-9992.780217,-2146.597232,2757.943793
794.377346,-10214.842000,-1850.514855,4213.525239
794.377666,-10362.883188,-1110.308913,5592.497135
794.377987,-9622.677246,-1332.370696,5669.106685
794.378308,-9770.718434,-1036.288319,5592.497135
794.378629,-9178.553681,-740.205942,4826.401637
794.378949,-8956.491898,0.000000,5209.449386
794.379270,-9030.512492,148.041188,4979.620737
794.379591,-8438.347739,0.000000,4290.134789
794.379912,-8660.409521,-296.082377,3677.258390
794.380232,-8882.471304,-370.102971,3140.991542
794.380553,-8956.491898,-518.144159,2451.505594
794.380874,-9622.677246,-592.164754,2757.943793
794.381194,-9844.739029,-666.185348,2911.162892
794.381515,-9770.718434,-814.226536,2604.724693
794.381836,-10288.862594,-518.144159,2834.553343
794.382157,-10140.821405,-370.102971,2911.162892
794.382477,-9992.780217,0.000000,2451.505594
794.382798,-9696.697840,148.041188,1685.410096
794.383119,-9400.615463,1332.370696,1302.362347
794.383440,-8956.491898,1406.391290,612.876398
794.383761,-9252.574275,1850.514855,536.266849
794.384082,-9030.512492,1406.391290,0.000000
794.384402,-8808.450710,1110.308913,-612.876398
794.384723,-9252.574275,1036.288319,-919.314598
794.385044,-9770.718434,1554.432478,0.000000
794.385365,-10436.903782,1850.514855,536.266849
794.385686,-10436.903782,1776.494261,536.266849
794.386006,-10658.965565,1628.453072,536.266849
794.386327,-10436.903782,1702.473667,-229.828649
794.386648,-10288.862594,1406.391290,-383.047749
794.386969,-10140.821405,1776.494261,-1455.581446
794.387290,-9548.656652,1628.453072,-2145.067394
794.387611,-9104.533087,1406.391290,-3217.601092
794.387931,-8956.491898,1332.370696,-3753.867940
794.388252,-8956.491898,888.247130,-3677.258390
794.388573,-9326.594869,444.123565,-3217.601092
794.388894,-9400.615463,666.185348,-2451.505594
794.389215,-10214.842000,148.041188,-1915.238745
794.389535,-10436.903782,0.000000,-842.705048
794.389856,-10658.965565,-296.082377,0.000000
794.390177,-10881.027347,-888.247130,842.705048
794.390498,-9918.759623,-1036.288319,1072.533697
794.390819,-10066.800811,-1184.329507,919.314598
794.391139,-9474.636058,-888.247130,919.314598
794.391460,-9104.533087,-592.164754,1149.143247
794.391781,-9178.553681,0.000000,995.924147
794.392102,-8808.450710,-370.102971,1762.019645
794.392423,-8734.430116,-370.102971,2681.334243
794.392744,-9178.553681,-962.267725,3524.039291
794.393064,-8364.327145,-1036.288319,5669.106685
794.393385,-9622.677246,-1776.494261,5669.106685
794.393706,-9622.677246,-1924.535449,5592.497135
794.394027,-9622.677246,-2072.576638,5515.887586
794.394348,-9548.656652,-1480.411884,5132.839837
794.394668,-9844.739029,-1850.514855,4290.134789
794.394989,-9326.594869,-1702.473667,3677.258390
794.395310,-9400.615463,-1924.535449,2834.553343
794.395631,-9178.553681,-1924.535449,2298.286494
794.395952,-8882.471304,-2368.659014,1762.019645
794.396273,-9178.553681,-1850.514855,1608.800546
794.396593,-9400.615463,-1184.329507,1915.238745
794.396914,-9548.656652,-592.164754,2221.676944
794.397235,-10881.027347,370.102971,3907.087040
794.397556,-9918.759623,-888.247130,2451.505594
794.397877,-9918.759623,-1184.329507,1838.629195
794.398197,-9844.739029,-1110.308913,1532.190996
794.398518,-9622.677246,-592.164754,919.314598
794.398839,-9474.636058,-518.144159,612.876398
794.399160,-9104.533087,-444.123565,0.000000
794.399481,-9104.533087,-444.123565,-612.876398
794.399802,-9252.574275,-296.082377,-919.314598
794.400122,-9918.759623,222.061783,-919.314598
794.400443,-9622.677246,296.082377,76.609550
794.400764,-10066.800811,296.082377,536.266849
794.401085,-10214.842000,592.164754,612.876398
794.401406,-10288.862594,1332.370696,0.000000
794.401726,-10362.883188,666.185348,0.000000
794.402047,-10066.800811,444.123565,-306.438199
794.402368,-9696.697840,74.020594,-1072.533697
794.402689,-9252.574275,0.000000,-2068.457845
794.403010,-8660.409521,-222.061783,-2757.943793
794.403331,-9030.512492,-222.061783,-3140.991542
794.403651,-9104.533087,-296.082377,-2451.505594
794.403972,-9474.636058,-296.082377,-1685.410096
794.404293,-9696.697840,-296.082377,-1455.581446
794.404614,-10288.862594,0.000000,-689.485948
794.404935,-10436.903782,-296.082377,229.828649
794.405255,-10288.862594,0.000000,1302.362347
794.405576,-10436.903782,444.123565,536.266849
794.405897,-10066.800811,370.102971,1838.629195
794.406218,-9622.677246,666.185348,1762.019645
794.406539,-9400.615463,592.164754,1762.019645
794.406860,-9252.574275,814.226536,1762.019645
794.407180,-8956.491898,962.267725,2145.067394
794.407501,-9400.615463,1184.329507,2757.943793
794.407822,-9622.677246,1184.329507,3064.381992
794.408143,-9696.697840,740.205942,3753.867940
794.408464,-10214.842000,444.123565,4060.306139
794.408784,-10140.821405,444.123565,4443.353888
794.409105,-10362.883188,222.061783,4519.963438
794.409426,-10214.842000,0.000000,3983.696590
794.409747,-10066.800811,0.000000,3447.429741
794.410068,-9548.656652,-592.164754,2528.115143
794.410389,-9326.594869,-592.164754,1915.238745
794.410709,-9252.574275,-962.267725,1608.800546
794.411030,-9030.512492,-1184.329507,1762.019645
794.411351,-9326.594869,-1110.308913,1532.190996
794.411672,-9400.615463,-1184.329507,1915.238745
794.411993,-9474.636058,-888.247130,2451.505594
794.412313,-9548.656652,-814.226536,2451.505594
794.412634,-9622.677246,-888.247130,2451.505594
794.412955,-9400.615463,-740.205942,1455.581446
794.413276,-9474.636058,-444.123565,1149.143247
794.413597,-9326.594869,-222.061783,689.485948
794.413918,-9474.636058,-74.020594,459.657299
794.414238,-8586.388927,0.000000,0.000000
794.414559,-9326.594869,-592.164754,-383.047749
794.414880,-9326.594869,0.000000,153.219100
794.415201,-9696.697840,0.000000,612.876398
794.415522,-9844.739029,0.000000,842.705048
794.415842,-10214.842000,296.082377,766.095498
794.416163,-10214.842000,-74.020594,766.095498
794.416484,-9918.759623,0.000000,383.047749
794.416805,-9474.636058,-222.061783,229.828649
794.417126,-9326.594869,-518.144159,536.266849
794.417447,-8956.491898,-740.205942,-1608.800546
794.417767,-8956.491898,-1184.329507,-2374.896044
794.418088,-8808.450710,-1702.473667,-2911.162892
794.418409,-9326.594869,-1554.432478,-2681.334243
794.418730,-9622.677246,-1924.535449,0.000000
794.419051,-9918.759623,-1702.473667,-1532.190996
794.419371,-10140.821405,-1554.432478,-536.266849
794.419692,-10214.842000,-1924.535449,-229.828649
794.420013,-10214.842000,-1850.514855,306.438199
794.420334,-9844.739029,-1776.494261,995.924147
794.420655,-9622.677246,-1110.308913,1149.143247
794.420976,-9474.636058,-518.144159,1378.971896
794.421296,-9252.574275,-444.123565,1378.971896
794.421617,-8956.491898,-592.164754,1762.019645
794.421938,-8956.491898,-518.144159,1455.581446
794.422259,-8956.491898,-296.082377,2145.067394
794.422580,-9326.594869,0.000000,2451.505594
794.422900,-9474.636058,0.000000,3370.820191
794.423221,-10066.800811,370.102971,3983.696590
794.423542,-10510.924376,-666.185348,4290.134789
794.423863,-9622.677246,-148.041188,4290.134789
794.424184,-10658.965565,-518.144159,3677.258390
794.424505,-9844.739029,-444.123565,3600.648841
794.424825,-9548.656652,-370.102971,2374.896044
794.425146,-9844.739029,-222.061783,2298.286494
794.425467,-8734.430116,-518.144159,842.705048
794.425788,-9104.533087,-370.102971,1072.533697
794.426109,-9400.615463,-888.247130,2221.676944
794.426429,-9474.636058,-1036.288319,1455.581446
794.426750,-9992.780217,-518.144159,2528.115143
794.427071,-9918.759623,-370.102971,2681.334243
794.427392,-9770.718434,-370.102971,1991.848295
794.427713,-10140.821405,-666.185348,2068.457845
794.428034,-9474.636058,-444.123565,1532.190996
794.428354,-9178.553681,0.000000,536.266849
794.428675,-9400.615463,74.020594,76.609550
794.428996,-8882.471304,222.061783,-995.924147
794.429317,-9252.574275,592.164754,-459.657299
794.429638,-9474.636058,666.185348,0.000000
794.429958,-9548.656652,1184.329507,306.438199
794.430279,-10140.821405,1258.350101,1072.533697
794.430600,-10288.862594,518.144159,1608.800546
794.430921,-10288.862594,666.185348,1532.190996
794.431242,-10140.821405,74.020594,1149.143247
794.431563,-10288.862594,518.144159,689.485948
794.431883,-9326.594869,666.185348,153.219100
794.432204,-9400.615463,222.061783,-1225.752797
794.432525,-8956.491898,0.000000,-1608.800546
794.432846,-8882.471304,-222.061783,-2757.943793
794.433167,-8808.450710,-888.247130,-2451.505594
794.433487,-9400.615463,-962.267725,-2068.457845
794.433808,-9696.697840,-1036.288319,-1762.019645
794.434129,-10510.924376,-1036.288319,-919.314598
794.434450,-9992.780217,-1332.370696,1378.971896
794.434771,-10510.924376,-1036.288319,383.047749
794.435092,-10807.006753,-814.226536,919.314598
794.435412,-9844.739029,-666.185348,1225.752797
794.435733,-9474.636058,-740.205942,1072.533697
794.436054,-9104.533087,-740.205942,766.095498
794.436375,-8512.368333,-518.144159,766.095498
794.436696,-8660.409521,-666.185348,1072.533697
794.437016,-8512.368333,-740.205942,1532.190996
794.437337,-9030.512492,-444.123565,2221.676944
794.437658,-9474.636058,-444.123565,2681.334243
794.437979,-9844.739029,-592.164754,3217.601092
794.438300,-9992.780217,-370.102971,4060.306139
794.438621,-10732.986159,-666.185348,3447.429741
794.438941,-10362.883188,-814.226536,3753.867940
794.439262,-10140.821405,-888.247130,3370.820191
794.439583,-9770.718434,-888.247130,2681.334243
794.439904,-9400.615463,-962.267725,1991.848295
794.440225,-8734.430116,-962.267725,1225.752797
794.440545,-8882.471304,-1406.391290,612.876398
794.440866,-8956.491898,-888.247130,842.705048
794.441187,-9326.594869,-592.164754,1608.800546
794.441508,-9474.636058,-666.185348,2451.505594
794.441829,-9844.739029,-222.061783,2221.676944
794.442150,-10214.842000,-148.041188,2374.896044
794.442470,-10066.800811,-370.102971,2298.286494
794.442791,-9474.636058,0.000000,3217.601092
794.443112,-9770.718434,-296.082377,1608.800546
794.443433,-9400.615463,-222.061783,842.705048
794.443754,-9326.594869,0.000000,306.438199
794.444074,-9104.533087,148.041188,0.000000
794.444395,-9400.615463,148.041188,153.219100
794.444716,-9474.636058,370.102971,766.095498
794.445037,-9844.739029,370.102971,1149.143247
794.445358,-10066.800811,222.061783,2068.457845
794.445679,-9548.656652,-148.041188,2528.115143
794.445999,-10066.800811,0.000000,2374.896044
794.446320,-9992.780217,296.082377,1838.629195
794.446641,-9770.718434,666.185348,995.924147
794.446962,-9474.636058,962.267725,-1072.533697
794.447283,-9252.574275,148.041188,-995.924147
794.447603,-9030.512492,-148.041188,-2068.457845
794.447924,-8808.450710,-370.102971,-2451.505594
794.448245,-9178.553681,-592.164754,-2298.286494
794.448566,-9770.718434,-222.061783,-1532.190996
794.448887,-10288.862594,-592.164754,-842.705048
794.449208,-10214.842000,-518.144159,0.000000
794.449528,-10510.924376,-296.082377,76.609550
794.449849,-9770.718434,-592.164754,229.828649
794.450170,-10140.821405,-148.041188,995.924147
794.450491,-10140.821405,296.082377,842.705048
794.450812,-9474.636058,222.061783,842.705048
794.451132,-9104.533087,740.205942,689.485948
794.451453,-8808.450710,0.000000,1302.362347
794.451774,-9030.512492,0.000000,1532.190996
794.452095,-9252.574275,-370.102971,2145.067394
794.452416,-9474.636058,0.000000,2757.943793
794.452737,-9770.718434,0.000000,3600.648841
794.453057,-10214.842000,-148.041188,4136.915689
794.453378,-10140.821405,74.020594,4213.525239
794.453699,-10510.924376,-222.061783,3753.867940
794.454020,-10214.842000,74.020594,3600.648841
794.454341,-9622.677246,-592.164754,2528.115143
794.454661,-9622.677246,-518.144159,1685.410096
794.454982,-9104.533087,-666.185348,689.485948
794.455303,-9474.636058,518.144159,229.828649
794.455624,-8956.491898,-592.164754,153.219100
794.455945,-8882.471304,-740.205942,459.657299
794.456266,-9326.594869,-740.205942,919.314598
794.456586,-9844.739029,-592.164754,1915.238745
794.456907,-10066.800811,-740.205942,1915.238745
794.457228,-9918.759623,-814.226536,1991.848295
794.457549,-9696.697840,-888.247130,1532.190996
794.457870,-9474.636058,-518.144159,1225.752797
794.458190,-9104.533087,-666.185348,229.828649
794.458511,-8882.471304,-370.102971,153.219100
794.458832,-8660.409521,-518.144159,-153.219100
794.459153,-9030.512492,-296.082377,-306.438199
794.459474,-9178.553681,-148.041188,1455.581446
794.459795,-9400.615463,296.082377,1225.752797
794.460115,-10066.800811,592.164754,2221.676944
794.460436,-10288.862594,296.082377,2681.334243
794.460757,-10140.821405,0.000000,3140.991542
794.461078,-10066.800811,-296.082377,2451.505594
794.461399,-9992.780217,-518.144159,2298.286494
794.461719,-9548.656652,-592.164754,1378.971896
794.462040,-9400.615463,-296.082377,383.047749
794.462361,-8586.388927,-962.267725,-536.266849
794.462682,-8956.491898,-370.102971,-1532.190996
794.463003,-9326.594869,-592.164754,-1608.800546
794.463324,-9474.636058,-962.267725,-1072.533697
794.463644,-9326.594869,-1776.494261,-689.485948
794.463965,-10436.903782,-1258.350101,229.828649
794.464286,-10214.842000,-1184.329507,536.266849
794.464607,-10881.027347,-1406.391290,1302.362347
794.464928,-10362.883188,-962.267725,1608.800546
794.465248,-10066.800811,-666.185348,1532.190996
794.465569,-9474.636058,-518.144159,1149.143247
794.465890,-9030.512492,-518.144159,919.314598
794.466211,-8808.450710,-518.144159,689.485948
794.466532,-8956.491898,-222.061783,919.314598
794.466852,-8808.450710,-370.102971,1225.752797
794.467173,-8882.471304,-444.123565,1838.629195
794.467494,-9474.636058,0.000000,2451.505594
794.467815,-9326.594869,-1628.453072,4596.572988
794.468136,-10288.862594,-370.102971,3294.210641
794.468457,-10436.903782,-518.144159,3524.039291
794.468777,-10362.883188,-518.144159,2757.943793
794.469098,-9918.759623,-296.082377,1915.238745
794.469419,-9770.718434,0.000000,1532.190996
794.469740,-9326.594869,0.000000,306.438199
794.470061,-9104.533087,0.000000,-383.047749
794.470381,-8882.471304,-296.082377,-229.828649
794.470702,-9474.636058,-148.041188,0.000000
794.471023,-9474.636058,-592.164754,689.485948
794.471344,-9992.780217,-74.020594,1072.533697
794.471665,-9918.759623,-592.164754,1532.190996
794.471986,-10510.924376,-740.205942,2221.676944
794.472306,-9992.780217,-518.144159,1838.629195
794.472627,-9992.780217,-592.164754,1378.971896
794.472948,-9030.512492,-222.061783,919.314598
794.473269,-9474.636058,-666.185348,153.219100
794.473590,-9178.553681,74.020594,0.000000
794.473910,-9474.636058,74.020594,0.000000
794.474231,-9326.594869,148.041188,383.047749
794.474552,-9770.718434,370.102971,1149.143247
794.474873,-9326.594869,0.000000,2298.286494
794.475194,-9918.759623,0.000000,2451.505594
794.475515,-9992.780217,74.020594,2221.676944
794.475835,-10066.800811,74.020594,2298.286494
794.476156,-8808.450710,-296.082377,2757.943793
794.476477,-9474.636058,296.082377,1072.533697
794.476798,-9400.615463,222.061783,229.828649
794.477119,-8808.450710,-296.082377,-536.266849
794.477439,-9178.553681,-888.247130,-1225.752797
794.477760,-9104.533087,-962.267725,-1532.190996
794.478081,-9400.615463,-1184.329507,-1608.800546
794.478402,-9622.677246,-1184.329507,-459.657299
794.478723,-10288.862594,-1258.350101,-153.219100
794.479044,-10510.924376,-1036.288319,153.219100
794.479364,-10066.800811,-1036.288319,612.876398
794.479685,-10436.903782,-666.185348,1302.362347
794.480006,-10140.821405,-296.082377,1149.143247
794.480327,-10066.800811,148.041188,1072.533697
794.480648,-9400.615463,0.000000,612.876398
794.480968,-9030.512492,0.000000,612.876398
794.481289,-8956.491898,0.000000,612.876398
794.481610,-8956.491898,370.102971,1378.971896
794.481931,-9178.553681,0.000000,1608.800546
794.482252,-9474.636058,-222.061783,1991.848295
794.482572,-9844.739029,-296.082377,2681.334243
794.482893,-9770.718434,-444.123565,3140.991542
794.483214,-10140.821405,-740.205942,4673.182538
794.483534,-10288.862594,-444.123565,2834.553343
794.483855,-9992.780217,-592.164754,2451.505594
794.484176,-9622.677246,-592.164754,1762.019645
794.484496,-9622.677246,-518.144159,689.485948
794.484817,-9178.553681,-444.123565,459.657299
794.485138,-8956.491898,-666.185348,306.438199
794.485458,-8882.471304,-962.267725,0.000000
794.485779,-9178.553681,-962.267725,229.828649
794.486100,-9622.677246,-1258.350101,689.485948
794.486420,-9696.697840,-1036.288319,1532.190996
794.486741,-10214.842000,-1036.288319,2145.067394
794.487062,-9844.739029,-888.247130,2068.457845
794.487382,-10362.883188,0.000000,2757.943793
794.487703,-9474.636058,-1036.288319,1302.362347
794.488024,-9252.574275,-740.205942,919.314598
794.488344,-9030.512492,-518.144159,229.828649
794.488665,-8956.491898,0.000000,76.609550
794.488986,-9178.553681,0.000000,0.000000
794.489306,-9474.636058,222.061783,995.924147
794.489627,-9992.780217,296.082377,1532.190996
794.489948,-10066.800811,444.123565,2451.505594
794.490268,-9844.739029,0.000000,2604.724693
794.490589,-10288.862594,148.041188,2911.162892
794.490910,-10214.842000,74.020594,2681.334243
794.491230,-9770.718434,74.020594,2068.457845
794.491551,-9104.533087,0.000000,459.657299
794.491872,-9252.574275,148.041188,0.000000
794.492193,-9252.574275,0.000000,-842.705048
794.492513,-9104.533087,-296.082377,-1455.581446
794.492834,-9178.553681,-444.123565,-2068.457845
794.493155,-9326.594869,-962.267725,-1532.190996
794.493475,-9844.739029,-1110.308913,-842.705048
794.493796,-10510.924376,-1036.288319,0.000000
794.494117,-10732.986159,-1258.350101,612.876398
794.494437,-10066.800811,-1184.329507,459.657299
794.494758,-10214.842000,-888.247130,995.924147
794.495079,-10066.800811,-666.185348,1149.143247
794.495399,-9622.677246,-296.082377,1302.362347
794.495720,-9770.718434,-222.061783,919.314598
794.496041,-8808.450710,0.000000,383.047749
794.496361,-8734.430116,-148.041188,612.876398
794.496682,-8808.450710,0.000000,1072.533697
794.497003,-9252.574275,-148.041188,1455.581446
794.497323,-9400.615463,-74.020594,2451.505594
794.497644,-9770.718434,0.000000,2757.943793
794.497965,-10288.862594,0.000000,3370.820191
794.498285,-10436.903782,74.020594,3600.648841
794.498606,-10214.842000,-74.020594,2681.334243
794.498927,-9844.739029,0.000000,2757.943793
794.499247,-9474.636058,-592.164754,1915.238745
794.499568,-9326.594869,-592.164754,1225.752797
794.499889,-8882.471304,-888.247130,919.314598
794.500209,-8734.430116,-592.164754,459.657299
794.500530,-8808.450710,-814.226536,689.485948
794.500851,-9400.615463,-296.082377,842.705048
794.501171,-9844.739029,-296.082377,1532.190996
794.501492,-9770.718434,-296.082377,2145.067394
794.501813,-10140.821405,-518.144159,2068.457845
794.502133,-10140.821405,-370.102971,2298.286494
794.502454,-10066.800811,-518.144159,1455.581446
794.502775,-10510.924376,0.000000,2221.676944
794.503095,-9474.636058,-222.061783,1072.533697
794.503416,-9326.594869,148.041188,459.657299
794.503737,-9400.615463,222.061783,383.047749
794.504057,-9400.615463,296.082377,842.705048
794.504378,-9696.697840,222.061783,1072.533697
794.504699,-9770.718434,296.082377,1915.238745
794.505019,-9918.759623,444.123565,2298.286494
794.505340,-9770.718434,0.000000,2451.505594
794.505661,-10214.842000,148.041188,2451.505594
794.505981,-9770.718434,0.000000,1685.410096
794.506302,-9622.677246,0.000000,1072.533697
794.506623,-9474.636058,0.000000,536.266849
794.506944,-9474.636058,370.102971,-919.314598
794.507264,-9400.615463,-296.082377,-1302.362347
794.507585,-9326.594869,-222.061783,-1225.752797
794.507906,-9252.574275,-444.123565,-1532.190996
794.508226,-10066.800811,-1332.370696,-1532.190996
794.508547,-9992.780217,-1184.329507,-306.438199
794.508868,-9992.780217,-1258.350101,383.047749
794.509188,-10288.862594,-1332.370696,766.095498
794.509509,-10140.821405,-888.247130,1072.533697
794.509830,-9770.718434,-666.185348,995.924147
794.510150,-9474.636058,0.000000,1225.752797
794.510471,-9400.615463,-148.041188,995.924147
794.510792,-8882.471304,74.020594,689.485948
794.511112,-9326.594869,296.082377,842.705048
794.511433,-8882.471304,0.000000,1302.362347
794.511754,-9178.553681,0.000000,1532.190996
794.512074,-9474.636058,-74.020594,2221.676944
794.512395,-9696.697840,1184.329507,3140.991542
794.512716,-10288.862594,74.020594,3370.820191
794.513036,-10362.883188,-222.061783,3217.601092
794.513357,-10362.883188,-592.164754,3140.991542
794.513678,-10066.800811,-814.226536,2451.505594
794.513998,-9474.636058,-518.144159,1378.971896
794.514319,-9400.615463,-518.144159,1149.143247
794.514640,-9252.574275,-296.082377,612.876398
794.514960,-9030.512492,-592.164754,0.000000
794.515281,-9326.594869,-148.041188,612.876398
794.515602,-9474.636058,-592.164754,459.657299
794.515922,-9844.739029,-888.247130,1608.800546
794.516243,-10066.800811,-888.247130,1838.629195
794.516564,-10658.965565,-222.061783,1378.971896
794.516884,-10066.800811,-888.247130,1915.238745
794.517205,-9992.780217,-592.164754,1762.019645
794.517526,-9844.739029,-444.123565,1455.581446
794.517846,-9696.697840,-222.061783,1378.971896
794.518167,-9400.615463,-74.020594,536.266849
794.518488,-8882.471304,-222.061783,-153.219100
794.518808,-9030.512492,0.000000,383.047749
794.519129,-9252.574275,0.000000,612.876398
794.519450,-9622.677246,0.000000,1608.800546
794.519770,-9696.697840,0.000000,1762.019645
794.520091,-9992.780217,74.020594,2145.067394
794.520412,-9992.780217,0.000000,2451.505594
794.520732,-9844.739029,-592.164754,2451.505594
794.521053,-9474.636058,-222.061783,1532.190996
794.521374,-9400.615463,-370.102971,459.657299
794.521695,-9104.533087,-740.205942,0.000000
794.522015,-8808.450710,-1110.308913,-919.314598
794.522336,-8808.450710,-1258.350101,-1532.190996
794.522657,-8882.471304,-1184.329507,-1608.800546
794.522977,-9178.553681,-962.267725,-1149.143247
794.523298,-9474.636058,-1258.350101,-689.485948
794.523619,-9844.739029,-888.247130,0.000000
794.523939,-10140.821405,-666.185348,383.047749
794.524260,-10436.903782,-962.267725,766.095498
794.524581,-9992.780217,-592.164754,842.705048
794.524901,-9992.780217,-888.247130,76.609550
794.525222,-9474.636058,74.020594,842.705048
794.525543,-9400.615463,222.061783,153.219100
794.525863,-9178.553681,666.185348,689.485948
794.526184,-9400.615463,666.185348,919.314598
794.526505,-9252.574275,592.164754,1072.533697
794.526825,-9622.677246,444.123565,1302.362347
794.527146,-9844.739029,518.144159,2374.896044
794.527467,-10362.883188,296.082377,3064.381992
794.527787,-10362.883188,592.164754,3140.991542
794.528108,-10066.800811,0.000000,3140.991542
794.528429,-9918.759623,74.020594,2374.896044
794.528749,-9992.780217,-222.061783,2068.457845
794.529070,-9104.533087,-518.144159,2374.896044
794.529391,-9326.594869,-740.205942,766.095498
794.529711,-9030.512492,-740.205942,306.438199
794.530032,-9178.553681,-1110.308913,0.000000
794.530353,-8956.491898,-1110.308913,1532.190996
794.530673,-9474.636058,-1332.370696,1072.533697
794.530994,-9696.697840,-1258.350101,1915.238745
794.531315,-9696.697840,-1332.370696,1838.629195
794.531635,-9770.718434,-888.247130,2298.286494
794.531956,-9622.677246,-888.247130,1838.629195
794.532277,-9770.718434,-148.041188,1838.629195
794.532597,-9104.533087,0.000000,1532.190996
794.532918,-9178.553681,-74.020594,689.485948
794.533239,-8512.368333,-222.061783,0.000000
794.533559,-8882.471304,-296.082377,153.219100
794.533880,-9104.533087,0.000000,919.314598
794.534201,-9474.636058,0.000000,1225.752797
794.534521,-9844.739029,296.082377,1838.629195
794.534842,-10066.800811,222.061783,2374.896044
794.535163,-9992.780217,370.102971,2374.896044
794.535483,-10510.924376,444.123565,2451.505594
794.535804,-10140.821405,296.082377,1991.848295
794.536125,-9770.718434,0.000000,842.705048
794.536446,-9326.594869,-592.164754,76.609550
794.536766,-9252.574275,-592.164754,-536.266849
794.537087,-8882.471304,-518.144159,-1762.019645
794.537408,-8734.430116,-1332.370696,-919.314598
794.537728,-9326.594869,-962.267725,-1532.190996
794.538049,-9696.697840,-740.205942,-612.876398
794.538370,-10140.821405,-1110.308913,0.000000
794.538690,-10510.924376,-962.267725,612.876398
794.539011,-10584.944971,-1332.370696,689.485948
794.539332,-10288.862594,-814.226536,919.314598
794.539652,-10066.800811,-814.226536,1072.533697
794.539973,-9474.636058,-222.061783,689.485948
794.540294,-9622.677246,-370.102971,1532.190996
794.540614,-9030.512492,-592.164754,766.095498
794.540935,-9252.574275,-518.144159,612.876398
794.541256,-9030.512492,-74.020594,919.314598
794.541576,-9252.574275,222.061783,2681.334243
794.541897,-9474.636058,0.000000,1991.848295
794.542218,-9844.739029,0.000000,2604.724693
794.542538,-9844.739029,-296.082377,3064.381992
794.542859,-10140.821405,0.000000,3064.381992
794.543180,-9918.759623,0.000000,3294.210641
794.543500,-10066.800811,-148.041188,2681.334243
794.543821,-9474.636058,0.000000,1838.629195
794.544142,-9178.553681,-74.020594,1149.143247
794.544462,-9030.512492,-518.144159,0.000000
794.544783,-9104.533087,-814.226536,0.000000
794.545104,-8956.491898,-740.205942,229.828649
794.545424,-9178.553681,-888.247130,459.657299
794.545745,-9474.636058,-1036.288319,1149.143247
794.546066,-10066.800811,-370.102971,2374.896044
794.546386,-10362.883188,-962.267725,2298.286494
794.546707,-9992.780217,-888.247130,2145.067394
794.547028,-9770.718434,-666.185348,1838.629195
794.547348,-8734.430116,-148.041188,383.047749
794.547669,-9474.636058,-666.185348,1072.533697
794.547990,-9326.594869,-592.164754,383.047749
794.548310,-8956.491898,-370.102971,153.219100
794.548631,-8882.471304,0.000000,306.438199
794.548952,-9400.615463,222.061783,842.705048
794.549272,-9548.656652,518.144159,1685.410096
794.549593,-9770.718434,444.123565,1915.238745
794.549914,-9770.718434,370.102971,2298.286494
794.550234,-9992.780217,0.000000,2298.286494
794.550555,-10288.862594,74.020594,1915.238745
794.550876,-9992.780217,74.020594,1149.143247
794.551197,-9474.636058,0.000000,383.047749
794.551517,-8660.409521,-666.185348,1072.533697
794.551838,-9030.512492,-518.144159,-919.314598
794.552159,-9326.594869,-296.082377,-1302.362347
794.552479,-9252.574275,-592.164754,-1302.362347
794.552800,-9400.615463,-814.226536,-1455.581446
794.553121,-9474.636058,-740.205942,-306.438199
794.553441,-10214.842000,-592.164754,0.000000
794.553762,-10510.924376,-296.082377,842.705048
794.554083,-10288.862594,-740.205942,1149.143247
794.554403,-10436.903782,-296.082377,919.314598
794.554724,-9844.739029,-222.061783,995.924147
794.555045,-9326.594869,0.000000,612.876398
794.555365,-9326.594869,0.000000,383.047749
794.555686,-8808.450710,592.164754,1455.581446
794.556007,-9326.594869,-222.061783,842.705048
794.556327,-9252.574275,-222.061783,1149.143247
794.556648,-9400.615463,-148.041188,1608.800546
794.556969,-9844.739029,-222.061783,2145.067394
794.557289,-9844.739029,0.000000,3064.381992
794.557610,-10066.800811,-222.061783,2681.334243
794.557931,-10214.842000,0.000000,2757.943793
794.558251,-9992.780217,0.000000,2451.505594
794.558572,-9696.697840,0.000000,2451.505594
794.558893,-9474.636058,-370.102971,1302.362347
794.559213,-9104.533087,-592.164754,1149.143247
794.559534,-8882.471304,-814.226536,76.609550
794.559855,-8364.327145,-1702.473667,76.609550
794.560175,-9030.512492,-1184.329507,229.828649
794.560496,-9474.636058,-1110.308913,689.485948
794.560817,-9770.718434,-888.247130,1762.019645
794.561137,-10066.800811,-1924.535449,3217.601092
794.561458,-10066.800811,-1110.308913,2374.896044
794.561779,-9992.780217,-1110.308913,1991.848295
794.562099,-9548.656652,-666.185348,1685.410096
794.562420,-9548.656652,-222.061783,1302.362347
794.562741,-9474.636058,444.123565,1302.362347
794.563061,-9178.553681,370.102971,536.266849
794.563382,-9178.553681,518.144159,766.095498
794.563703,-9400.615463,296.082377,689.485948
794.564023,-9918.759623,222.061783,919.314598
794.564344,-9770.718434,148.041188,1915.238745
794.564665,-9770.718434,0.000000,2451.505594
794.564985,-9918.759623,0.000000,2374.896044
794.565306,-9844.739029,-148.041188,3830.477490
794.565627,-9992.780217,0.000000,1838.629195
794.565948,-9548.656652,74.020594,689.485948
794.566268,-9326.594869,-148.041188,0.000000
794.566589,-9178.553681,-222.061783,-995.924147
794.566910,-9030.512492,0.000000,-1302.362347
794.567230,-9252.574275,-148.041188,-1072.533697
794.567551,-9252.574275,-518.144159,-995.924147
794.567872,-9770.718434,-814.226536,-612.876398
794.568192,-10214.842000,-296.082377,766.095498
794.568513,-10362.883188,-740.205942,766.095498
794.568834,-10214.842000,-888.247130,766.095498
794.569154,-10288.862594,-888.247130,919.314598
794.569475,-9548.656652,0.000000,459.657299
794.569796,-9770.718434,-222.061783,842.705048
794.570116,-9104.533087,-74.020594,919.314598
794.570437,-8956.491898,0.000000,229.828649
794.570758,-8956.491898,0.000000,536.266849
794.571078,-8956.491898,148.041188,1378.971896
794.571399,-9474.636058,0.000000,1762.019645
794.571720,-9622.677246,370.102971,1685.410096
794.572040,-9696.697840,222.061783,2451.505594
794.572361,-9770.718434,0.000000,3140.991542
794.572682,-10214.842000,-148.041188,3370.820191
794.573002,-10214.842000,-518.144159,2604.724693
794.573323,-9844.739029,-518.144159,1991.848295
794.573644,-9326.594869,-740.205942,3140.991542
794.573964,-9178.553681,-1110.308913,306.438199
794.574285,-9030.512492,-1184.329507,0.000000
794.574606,-8882.471304,-1110.308913,0.000000
794.574926,-9104.533087,-1480.411884,0.000000
794.575247,-9104.533087,-1258.350101,306.438199
794.575568,-9992.780217,-1036.288319,1149.143247
794.575888,-10066.800811,-888.247130,1838.629195
794.576209,-10288.862594,-592.164754,2221.676944
794.576530,-10436.903782,-296.082377,1378.971896
794.576850,-10066.800811,-592.164754,1838.629195
794.577171,-9474.636058,-370.102971,1302.362347
794.577492,-9252.574275,-296.082377,995.924147
794.577812,-8956.491898,148.041188,76.609550
794.578133,-8808.450710,0.000000,306.438199
794.578454,-9178.553681,222.061783,689.485948
794.578774,-9400.615463,296.082377,1532.190996
794.579095,-9844.739029,222.061783,1838.629195
794.579416,-9918.759623,0.000000,2374.896044
794.579736,-10288.862594,74.020594,2604.724693
794.580057,-10510.924376,370.102971,2374.896044
794.580378,-10066.800811,296.082377,1991.848295
794.580699,-10140.821405,444.123565,1302.362347
794.581019,-9548.656652,0.000000,612.876398
794.581340,-9474.636058,-222.061783,-383.047749
794.581661,-9104.533087,-592.164754,-919.314598
794.581981,-9104.533087,-222.061783,-2221.676944
794.582302,-9326.594869,-888.247130,-1608.800546
794.582622,-9474.636058,-962.267725,-1149.143247
794.582943,-9844.739029,-888.247130,-383.047749
794.583264,-10288.862594,-888.247130,76.609550
794.583584,-10362.883188,-814.226536,612.876398
794.583905,-10288.862594,-370.102971,459.657299
794.584226,-10066.800811,222.061783,919.314598
794.584546,-9918.759623,592.164754,1225.752797
794.584867,-9400.615463,666.185348,612.876398
794.585188,-9178.553681,592.164754,919.314598
794.585508,-9030.512492,296.082377,842.705048
794.585829,-8882.471304,148.041188,612.876398
794.586150,-8956.491898,222.061783,4443.353888
794.586470,-9326.594869,222.061783,2145.067394
794.586791,-9474.636058,148.041188,2451.505594
794.587112,-9918.759623,148.041188,3370.820191
794.587432,-10066.800811,-222.061783,3447.429741
794.587753,-9696.697840,-592.164754,3064.381992
794.588074,-9770.718434,-518.144159,2451.505594
794.588394,-9474.636058,-740.205942,2145.067394
794.588715,-9326.594869,-962.267725,1072.533697
794.589036,-8734.430116,-1036.288319,-306.438199
794.589356,-9030.512492,-962.267725,76.609550
794.589677,-8956.491898,-1184.329507,76.609550
794.589998,-9474.636058,-1036.288319,536.266849
794.590318,-9770.718434,-814.226536,1378.971896
794.590639,-10066.800811,-740.205942,1915.238745
794.590959,-10288.862594,-1258.350101,2298.286494
794.591280,-10140.821405,-962.267725,2145.067394
794.591601,-9992.780217,-1184.329507,1915.238745
794.591921,-9770.718434,-740.205942,1149.143247
794.592242,-9622.677246,0.000000,1378.971896
794.592563,-9252.574275,0.000000,766.095498
794.592883,-9326.594869,148.041188,689.485948
794.593204,-7846.182985,-592.164754,0.000000
794.593525,-9400.615463,222.061783,536.266849
794.593845,-9918.759623,0.000000,1608.800546
794.594166,-9992.780217,148.041188,2221.676944
794.594487,-10140.821405,0.000000,2451.505594
794.594807,-10362.883188,74.020594,2604.724693
794.595128,-10066.800811,-148.041188,2528.115143
794.595449,-10066.800811,-148.041188,1532.190996
794.595769,-9696.697840,0.000000,766.095498
794.596090,-9252.574275,370.102971,-153.219100
794.596411,-9252.574275,-444.123565,-1072.533697
794.596731,-9030.512492,-518.144159,-1532.190996
794.597052,-9178.553681,-592.164754,-1685.410096
794.597373,-9030.512492,-296.082377,-1225.752797
794.597693,-9474.636058,-1110.308913,-1225.752797
794.598014,-10066.800811,-666.185348,0.000000
794.598335,-10362.883188,-740.205942,229.828649
794.598655,-10214.842000,-444.123565,536.266849
794.598976,-9696.697840,-592.164754,1072.533697
794.599296,-9770.718434,-592.164754,842.705048
794.599617,-9474.636058,-592.164754,919.314598
794.599938,-9326.594869,-370.102971,383.047749
794.600258,-9030.512492,-518.144159,0.000000
794.600579,-9030.512492,0.000000,306.438199
794.600900,-9178.553681,148.041188,1072.533697
794.601220,-9326.594869,370.102971,1608.800546
794.601541,-9622.677246,592.164754,3217.601092
794.601862,-9992.780217,296.082377,2757.943793
794.602182,-9918.759623,-148.041188,3677.258390
794.602503,-10140.821405,-296.082377,3524.039291
794.602824,-10066.800811,-296.082377,3064.381992
794.603144,-9030.512492,-592.164754,2987.772442
794.603465,-9474.636058,-444.123565,1685.410096
794.603786,-9030.512492,-518.144159,919.314598
794.604106,-9178.553681,-740.205942,306.438199
794.604427,-9474.636058,-444.123565,766.095498
794.604748,-9178.553681,-888.247130,0.000000
794.605068,-9474.636058,-888.247130,995.924147
794.605389,-10066.800811,-592.164754,1378.971896
794.605710,-10066.800811,-888.247130,1685.410096
794.606030,-10140.821405,-814.226536,2604.724693
794.606351,-10140.821405,-740.205942,2068.457845
794.606672,-10066.800811,-518.144159,2068.457845
794.606992,-9548.656652,-518.144159,1302.362347
794.607313,-9400.615463,-814.226536,689.485948
794.607633,-8956.491898,-148.041188,536.266849
794.607954,-9178.553681,-74.020594,306.438199
794.608275,-9252.574275,0.000000,842.705048
794.608595,-9548.656652,0.000000,919.314598
794.608916,-9474.636058,222.061783,2068.457845
794.609237,-10066.800811,296.082377,2298.286494
794.609557,-10066.800811,222.061783,2528.115143
794.609878,-10288.862594,444.123565,2451.505594
794.610199,-9992.780217,444.123565,2451.505594
794.610519,-9622.677246,74.020594,1532.190996
794.610840,-9400.615463,-222.061783,306.438199
794.611161,-8660.409521,-592.164754,-306.438199
794.611481,-8734.430116,-888.247130,-612.876398
794.611802,-8734.430116,-740.205942,-1378.971896
794.612123,-9178.553681,-444.123565,-1532.190996
794.612443,-9548.656652,-666.185348,-1225.752797
794.612764,-9770.718434,-888.247130,-229.828649
794.613085,-10214.842000,-962.267725,229.828649
794.613405,-10288.862594,-1036.288319,536.266849
794.613726,-10140.821405,-666.185348,995.924147
794.614047,-10214.842000,-592.164754,842.705048
794.614367,-9844.739029,-370.102971,1072.533697
794.614688,-9400.615463,-370.102971,842.705048
794.615009,-9030.512492,-74.020594,612.876398
794.615329,-9178.553681,0.000000,612.876398
794.615650,-8216.285956,-148.041188,536.266849
794.615970,-9030.512492,74.020594,1532.190996
794.616291,-9474.636058,148.041188,1991.848295
794.616612,-9770.718434,74.020594,2451.505594
794.616932,-10288.862594,74.020594,3064.381992
794.617253,-10658.965565,0.000000,3370.820191
794.617574,-10510.924376,-74.020594,3064.381992
794.617894,-9918.759623,-740.205942,2298.286494
794.618215,-9622.677246,-296.082377,1685.410096
794.618536,-9252.574275,-296.082377,1762.019645
794.618856,-9326.594869,-444.123565,459.657299
794.619177,-8734.430116,-740.205942,0.000000
794.619498,-9030.512492,-666.185348,-306.438199
794.619818,-9178.553681,-888.247130,0.000000
794.620139,-9622.677246,-962.267725,766.095498
794.620460,-10140.821405,-888.247130,1762.019645
794.620780,-10066.800811,-592.164754,1915.238745
794.621101,-10066.800811,-518.144159,2068.457845
794.621422,-10214.842000,0.000000,1838.629195
794.621742,-9770.718434,-148.041188,1378.971896
794.622063,-9400.615463,148.041188,995.924147
794.622384,-9178.553681,-222.061783,383.047749
794.622704,-8438.347739,-1036.288319,-766.095498
794.623025,-9030.512492,-666.185348,0.000000
794.623346,-8956.491898,0.000000,459.657299
794.623666,-9696.697840,0.000000,1149.143247
794.623987,-9696.697840,222.061783,2145.067394
794.624308,-9918.759623,0.000000,2834.553343
794.624628,-10140.821405,74.020594,2604.724693
794.624949,-10288.862594,-222.061783,2604.724693
794.625269,-9770.718434,-296.082377,2221.676944
794.625590,-9770.718434,-148.041188,1149.143247
794.625911,-9474.636058,-370.102971,612.876398
794.626231,-8956.491898,-666.185348,-229.828649
794.626552,-8808.450710,-518.144159,-919.314598
794.626873,-8364.327145,518.144159,-153.219100
794.627193,-9252.574275,-962.267725,-766.095498
794.627514,-9770.718434,-1036.288319,0.000000
794.627835,-10066.800811,-962.267725,536.266849
794.628155,-10214.842000,-962.267725,842.705048
794.628476,-10214.842000,-962.267725,995.924147
794.628797,-10288.862594,-814.226536,1225.752797
794.629117,-9992.780217,-370.102971,1378.971896
794.629438,-9696.697840,-444.123565,1225.752797
794.629759,-9178.553681,-370.102971,1455.581446
794.630079,-9030.512492,-222.061783,689.485948
794.630400,-9030.512492,-222.061783,919.314598
794.630721,-9252.574275,-444.123565,1302.362347
794.631041,-8956.491898,222.061783,3600.648841
794.631362,-9474.636058,-444.123565,1838.629195
794.631683,-9918.759623,-370.102971,2528.115143
794.632003,-10140.821405,-148.041188,2681.334243
794.632324,-10214.842000,0.000000,2987.772442
794.632645,-10140.821405,-148.041188,2451.505594
794.632965,-9918.759623,0.000000,1915.238745
794.633286,-9770.718434,-296.082377,919.314598
794.633606,-9326.594869,-518.144159,153.219100
794.633927,-9474.636058,0.000000,0.000000
794.634248,-9178.553681,-740.205942,-612.876398
794.634568,-9030.512492,-1184.329507,-383.047749
794.634889,-9548.656652,-1184.329507,76.609550
794.635210,-10436.903782,222.061783,919.314598
794.635530,-9918.759623,-666.185348,1532.190996
794.635851,-10140.821405,-518.144159,1685.410096
794.636172,-10066.800811,-518.144159,1991.848295
794.636492,-9844.739029,-148.041188,1838.629195
794.636813,-9696.697840,-296.082377,1455.581446
794.637134,-9178.553681,-74.020594,612.876398
794.637454,-8882.471304,-296.082377,76.609550
794.637775,-8882.471304,148.041188,0.000000
794.638096,-9178.553681,444.123565,76.609550
794.638416,-9474.636058,592.164754,766.095498
794.638737,-9622.677246,222.061783,1838.629195
794.639058,-10140.821405,0.000000,2374.896044
794.639378,-9918.759623,-592.164754,1838.629195
794.639699,-10362.883188,-740.205942,2681.334243
794.640020,-9918.759623,-592.164754,2298.286494
794.640340,-9548.656652,-296.082377,1532.190996
794.640661,-9104.533087,-444.123565,306.438199
794.640982,-8734.430116,-518.144159,-306.438199
794.641302,-8808.450710,-740.205942,-1072.533697
794.641623,-9030.512492,-1110.308913,-1455.581446
794.641943,-8956.491898,-888.247130,-1225.752797
794.642264,-9474.636058,-1184.329507,-153.219100
794.642585,-9770.718434,-1184.329507,229.828649
794.642905,-10214.842000,-1258.350101,842.705048
794.643226,-10362.883188,-1110.308913,1149.143247
794.643547,-10881.027347,-962.267725,1685.410096
794.643867,-10214.842000,-740.205942,1532.190996
794.644188,-9622.677246,-148.041188,1838.629195
794.644509,-9400.615463,222.061783,1149.143247
794.644829,-9178.553681,-518.144159,2374.896044
794.645150,-8660.409521,444.123565,919.314598
794.645471,-9104.533087,444.123565,1225.752797
794.645791,-9252.574275,518.144159,1915.238745
794.646112,-9474.636058,592.164754,2221.676944
794.646433,-10066.800811,518.144159,2911.162892
794.646753,-10066.800811,222.061783,3524.039291
794.647074,-10584.944971,74.020594,3677.258390
794.647395,-10510.924376,222.061783,3217.601092
794.647715,-10881.027347,-148.041188,2757.943793
794.648036,-9622.677246,-296.082377,1608.800546
794.648357,-9548.656652,-740.205942,306.438199
794.648677,-9326.594869,-444.123565,0.000000
794.648998,-8956.491898,-962.267725,766.095498
794.649319,-8956.491898,-962.267725,-306.438199
794.649639,-9178.553681,-888.247130,-153.219100
794.649960,-9548.656652,-592.164754,842.705048
794.650280,-9992.780217,-814.226536,1455.581446
794.650601,-9770.718434,-740.205942,1532.190996
794.650922,-10066.800811,-1036.288319,2068.457845
794.651242,-9696.697840,-444.123565,1685.410096
794.651563,-9474.636058,0.000000,1608.800546
794.651884,-8734.430116,74.020594,1455.581446
794.652204,-8956.491898,74.020594,536.266849
794.652525,-8734.430116,0.000000,-76.609550
794.652846,-8956.491898,592.164754,0.000000
794.653166,-9474.636058,1036.288319,1225.752797
794.653487,-9622.677246,666.185348,1149.143247
794.653808,-9918.759623,296.082377,1532.190996
794.654128,-9918.759623,592.164754,2298.286494
794.654449,-10362.883188,0.000000,2604.724693
794.654770,-10362.883188,222.061783,2451.505594
794.655090,-9992.780217,74.020594,2374.896044
794.655411,-9474.636058,0.000000,919.314598
794.655732,-9326.594869,0.000000,76.609550
794.656052,-8882.471304,-1110.308913,-459.657299
794.656373,-9178.553681,-148.041188,-919.314598
794.656694,-9252.574275,-74.020594,-1072.533697
794.657014,-9400.615463,-296.082377,-536.266849
794.657335,-9770.718434,-592.164754,1838.629195
794.657656,-10140.821405,-1036.288319,536.266849
794.657976,-10288.862594,-962.267725,766.095498
794.658297,-10288.862594,-888.247130,1149.143247
794.658617,-10140.821405,-666.185348,1455.581446
794.658938,-9992.780217,-666.185348,1685.410096
794.659259,-9770.718434,-296.082377,1455.581446
794.659579,-9400.615463,-370.102971,1149.143247
794.659900,-9104.533087,-222.061783,919.314598
794.660221,-9252.574275,-666.185348,995.924147
794.660541,-9030.512492,-296.082377,1455.581446
794.660862,-9104.533087,-222.061783,2145.067394
794.661183,-9326.594869,-518.144159,2451.505594
794.661503,-9622.677246,-370.102971,2681.334243
794.661824,-9918.759623,-518.144159,2681.334243
794.662145,-9696.697840,-888.247130,2757.943793
794.662465,-9770.718434,-740.205942,2298.286494
794.662786,-9474.636058,-814.226536,1915.238745
794.663107,-9252.574275,-296.082377,229.828649
794.663427,-9030.512492,-1332.370696,459.657299
794.663748,-8956.491898,-1480.411884,-689.485948
794.664069,-9178.553681,-1036.288319,0.000000
794.664389,-9178.553681,-1184.329507,153.219100
794.664710,-9622.677246,-666.185348,1072.533697
794.665031,-9918.759623,-814.226536,1072.533697
794.665351,-10066.800811,-592.164754,1455.581446
794.665672,-10510.924376,-888.247130,1762.019645
794.665993,-10140.821405,-518.144159,1915.238745
794.666313,-10140.821405,-444.123565,1225.752797
794.666634,-9770.718434,-148.041188,689.485948
794.666954,-9400.615463,148.041188,76.609550
794.667275,-9400.615463,148.041188,-229.828649
794.667596,-9696.697840,370.102971,0.000000
794.667916,-9252.574275,666.185348,0.000000
794.668237,-9844.739029,740.205942,919.314598
794.668558,-10140.821405,296.082377,1455.581446
794.668878,-10362.883188,0.000000,2298.286494
794.669199,-10362.883188,74.020594,2374.896044
794.669520,-10436.903782,74.020594,2298.286494
794.669840,-10066.800811,0.000000,2068.457845
794.670161,-9696.697840,148.041188,766.095498
794.670482,-9696.697840,0.000000,306.438199
794.670802,-8956.491898,0.000000,-766.095498
794.671123,-8882.471304,-592.164754,-1378.971896
794.671444,-8956.491898,-592.164754,-1762.019645
794.671764,-9326.594869,-888.247130,-1149.143247
794.672085,-9696.697840,-518.144159,-306.438199
794.672406,-10066.800811,-888.247130,536.266849
794.672726,-9992.780217,-1110.308913,1072.533697
794.673047,-9844.739029,-962.267725,1149.143247
794.673368,-10066.800811,-518.144159,1608.800546
794.673688,-9770.718434,-148.041188,1455.581446
794.674009,-9252.574275,0.000000,1685.410096
794.674330,-8882.471304,148.041188,1455.581446
794.674650,-8808.450710,0.000000,1302.362347
794.674971,-8956.491898,0.000000,1072.533697
794.675292,-8882.471304,0.000000,2298.286494
794.675612,-9326.594869,0.000000,2298.286494
794.675933,-9474.636058,148.041188,3140.991542
794.676253,-9992.780217,370.102971,4673.182538
794.676574,-10140.821405,74.020594,3907.087040
794.676895,-10288.862594,-148.041188,3677.258390
794.677215,-10214.842000,74.020594,3217.601092
794.677536,-9992.780217,0.000000,2298.286494
794.677857,-9104.533087,-148.041188,1532.190996
794.678177,-9400.615463,-370.102971,689.485948
794.678498,-9030.512492,-296.082377,-153.219100
794.678819,-9178.553681,-592.164754,-306.438199
794.679139,-8734.430116,-1702.473667,-1762.019645
794.679460,-9696.697840,-740.205942,306.438199
794.679781,-10066.800811,-666.185348,995.924147
794.680101,-10510.924376,-740.205942,1838.629195
794.680422,-10436.903782,-518.144159,1608.800546
794.680743,-10214.842000,-814.226536,1455.581446
794.681063,-9918.759623,-296.082377,1225.752797
794.681384,-9696.697840,-518.144159,995.924147
794.681705,-9474.636058,-370.102971,459.657299
794.682025,-8956.491898,0.000000,76.609550
794.682346,-8956.491898,0.000000,-383.047749
794.682667,-9178.553681,0.000000,76.609550
794.682987,-9622.677246,444.123565,842.705048
794.683308,-9770.718434,370.102971,2068.457845
794.683629,-9992.780217,-74.020594,1991.848295
794.683949,-10066.800811,0.000000,2221.676944
794.684270,-10288.862594,0.000000,2374.896044
794.684591,-9770.718434,-148.041188,2145.067394
794.684911,-9548.656652,0.000000,1455.581446
794.685232,-9030.512492,-296.082377,76.609550
794.685553,-8660.409521,-222.061783,-459.657299
794.685874,-8808.450710,-888.247130,-995.924147
794.686194,-9030.512492,-518.144159,-1608.800546
794.686515,-9400.615463,-888.247130,-1149.143247
794.686836,-9252.574275,-888.247130,-919.314598
794.687156,-9622.677246,-1184.329507,0.000000
794.687477,-9992.780217,-1184.329507,383.047749
794.687798,-10362.883188,-1184.329507,689.485948
794.688119,-9992.780217,-740.205942,995.924147
794.688439,-9992.780217,-370.102971,1225.752797
794.688760,-9696.697840,-444.123565,1378.971896
794.689081,-9474.636058,0.000000,1225.752797
794.689402,-9326.594869,-296.082377,1225.752797
794.689722,-8956.491898,-370.102971,1455.581446
794.690043,-8882.471304,-370.102971,1532.190996
794.690364,-9104.533087,296.082377,1532.190996
794.690684,-9474.636058,-370.102971,2374.896044
794.691005,-9918.759623,0.000000,2681.334243
794.691326,-10140.821405,-148.041188,2987.772442
794.691647,-10140.821405,0.000000,5056.230287
794.691967,-10584.944971,74.020594,3217.601092
794.692288,-10140.821405,-148.041188,2451.505594
794.692609,-9918.759623,-296.082377,1685.410096
794.692930,-9622.677246,-222.061783,1302.362347
794.693250,-9696.697840,-370.102971,0.000000
794.693571,-9400.615463,-296.082377,-153.219100
794.693892,-9474.636058,-370.102971,0.000000
794.694213,-9326.594869,-518.144159,0.000000
794.694533,-9474.636058,-148.041188,1762.019645
794.694854,-10066.800811,-296.082377,1225.752797
794.695175,-10214.842000,-148.041188,1838.629195
794.695495,-10140.821405,-370.102971,1532.190996
794.695816,-9918.759623,-370.102971,1532.190996
794.696137,-9622.677246,-148.041188,1225.752797
794.696458,-9252.574275,-370.102971,1225.752797
794.696778,-9104.533087,-370.102971,459.657299
794.697099,-8808.450710,-222.061783,0.000000
794.697420,-9104.533087,0.000000,0.000000
794.697741,-9178.553681,222.061783,612.876398
794.698061,-9548.656652,0.000000,1762.019645
794.698382,-9696.697840,0.000000,1685.410096
794.698703,-9844.739029,-518.144159,1915.238745
794.699023,-9844.739029,0.000000,2528.115143
794.699344,-9844.739029,-222.061783,2528.115143
794.699665,-9548.656652,-444.123565,1685.410096
794.699986,-9252.574275,-370.102971,766.095498
794.700306,-8956.491898,-518.144159,-153.219100
794.700627,-9030.512492,-518.144159,-536.266849
794.700948,-8734.430116,-740.205942,-1302.362347
794.701269,-9252.574275,-370.102971,-1302.362347
794.701589,-9326.594869,-814.226536,-1225.752797
794.701910,-9474.636058,-888.247130,-612.876398
794.702231,-10288.862594,-666.185348,306.438199
794.702551,-10362.883188,-814.226536,919.314598
794.702872,-11177.109724,222.061783,919.314598
794.703193,-10214.842000,-296.082377,1072.533697
794.703514,-10140.821405,-296.082377,1072.533697
794.703834,-9770.718434,0.000000,1455.581446
794.704155,-9474.636058,0.000000,1149.143247
794.704476,-9400.615463,222.061783,919.314598
794.704797,-9252.574275,296.082377,842.705048
794.705117,-9474.636058,296.082377,1378.971896
794.705438,-9696.697840,148.041188,2145.067394
794.705759,-9844.739029,370.102971,2298.286494
794.706080,-10288.862594,0.000000,2604.724693
794.706400,-10288.862594,148.041188,2911.162892
794.706721,-10732.986159,0.000000,2834.553343
794.707042,-10881.027347,222.061783,2298.286494
794.707362,-10066.800811,-222.061783,1915.238745
794.707683,-9622.677246,-518.144159,1302.362347
794.708004,-9474.636058,-444.123565,612.876398
794.708325,-9252.574275,-444.123565,-612.876398
794.708645,-9178.553681,-814.226536,76.609550
794.708966,-9030.512492,-1184.329507,153.219100
794.709287,-9252.574275,-888.247130,612.876398
794.709608,-9548.656652,-888.247130,1455.581446
794.709928,-9918.759623,-888.247130,1838.629195
794.710249,-9918.759623,-1036.288319,2145.067394
794.710570,-9696.697840,-888.247130,1455.581446
794.710890,-9474.636058,-518.144159,1455.581446
794.711211,-9178.553681,0.000000,1225.752797
794.711532,-9178.553681,-370.102971,459.657299
794.711853,-8734.430116,-222.061783,383.047749
794.712173,-8808.450710,-222.061783,306.438199
794.712494,-8956.491898,0.000000,0.000000
794.712815,-9548.656652,148.041188,1225.752797
794.713136,-9844.739029,74.020594,1685.410096
794.713456,-9770.718434,0.000000,2145.067394
794.713777,-9992.780217,0.000000,2298.286494
794.714098,-10214.842000,74.020594,2298.286494
794.714418,-10066.800811,0.000000,2298.286494
794.714739,-9548.656652,-74.020594,1302.362347
794.715060,-8956.491898,0.000000,306.438199
794.715381,-9548.656652,-296.082377,-612.876398
794.715701,-9252.574275,-666.185348,-1149.143247
794.716022,-9326.594869,-1036.288319,-1455.581446
794.716343,-9252.574275,-740.205942,-995.924147
794.716664,-9844.739029,-1110.308913,-306.438199
794.716984,-9992.780217,-1184.329507,-229.828649
794.717305,-10658.965565,-740.205942,459.657299
794.717626,-10510.924376,-1184.329507,842.705048
794.717947,-10584.944971,-666.185348,1225.752797
794.718267,-10362.883188,-518.144159,1072.533697
794.718588,-9992.780217,0.000000,1378.971896
794.718909,-9474.636058,0.000000,766.095498
794.719229,-9104.533087,296.082377,1225.752797
794.719550,-9474.636058,0.000000,842.705048
794.719871,-9252.574275,0.000000,1302.362347
794.720192,-9474.636058,0.000000,1685.410096
794.720512,-9474.636058,148.041188,2221.676944
794.720833,-10066.800811,-444.123565,2221.676944
794.721154,-9844.739029,0.000000,3217.601092
794.721475,-10362.883188,0.000000,3140.991542
794.721795,-10140.821405,0.000000,3140.991542
794.722116,-9918.759623,-296.082377,2451.505594
794.722437,-9326.594869,-592.164754,1915.238745
794.722757,-9252.574275,-666.185348,842.705048
794.723078,-9252.574275,-888.247130,76.609550
794.723399,-8808.450710,-666.185348,0.000000
794.723720,-8660.409521,-444.123565,306.438199
794.724040,-9178.553681,-518.144159,229.828649
794.724361,-9474.636058,0.000000,1149.143247
794.724682,-9844.739029,-592.164754,1455.581446
794.725003,-10214.842000,740.205942,2528.115143
794.725323,-10066.800811,-444.123565,1915.238745
794.725644,-9844.739029,-518.144159,1225.752797
794.725965,-9474.636058,0.000000,842.705048
794.726285,-9400.615463,0.000000,536.266849
794.726606,-9178.553681,740.205942,-153.219100
794.726927,-9252.574275,518.144159,0.000000
794.727248,-9104.533087,592.164754,0.000000
794.727568,-9696.697840,518.144159,612.876398
794.727889,-9696.697840,666.185348,1455.581446
794.728210,-10288.862594,148.041188,1838.629195
794.728531,-10066.800811,0.000000,2374.896044
794.728851,-10436.903782,296.082377,2298.286494
794.729172,-9548.656652,0.000000,2451.505594
794.729493,-9696.697840,148.041188,1762.019645
794.729814,-9400.615463,0.000000,383.047749
794.730134,-9326.594869,0.000000,-306.438199
794.730455,-9104.533087,-518.144159,-919.314598
794.730776,-8956.491898,-518.144159,-1302.362347
794.731096,-9178.553681,-1036.288319,-1149.143247
794.731417,-9474.636058,-1110.308913,-995.924147
794.731738,-9844.739029,-1554.432478,-306.438199
794.732059,-10362.883188,-1332.370696,153.219100
794.732379,-10288.862594,-1332.370696,689.485948
794.732700,-10214.842000,-888.247130,1302.362347
794.733021,-9844.739029,-296.082377,1378.971896
794.733342,-9030.512492,-370.102971,1532.190996
794.733662,-9474.636058,0.000000,1378.971896
794.733983,-8956.491898,0.000000,1455.581446
794.734304,-8808.450710,-222.061783,1149.143247
794.734624,-9104.533087,148.041188,1455.581446
794.734945,-9474.636058,148.041188,2374.896044
794.735266,-9252.574275,222.061783,2451.505594
794.735587,-9696.697840,296.082377,3064.381992
794.735907,-9918.759623,-222.061783,3370.820191
794.736228,-10140.821405,0.000000,3524.039291
794.736549,-10288.862594,-296.082377,2987.772442
794.736870,-9770.718434,-370.102971,2451.505594
794.737190,-9622.677246,-444.123565,1762.019645
794.737511,-10066.800811,-740.205942,383.047749
794.737832,-9400.615463,-962.267725,612.876398
794.738152,-9326.594869,-888.247130,0.000000
794.738473,-9178.553681,-962.267725,383.047749
794.738794,-9104.533087,-1554.432478,153.219100
794.739115,-9474.636058,-1110.308913,842.705048
794.739435,-9992.780217,-1406.391290,1532.190996
794.739756,-10362.883188,-962.267725,2068.457845
794.740077,-10066.800811,-1036.288319,1838.629195
794.740398,-9844.739029,-592.164754,1991.848295
794.740718,-9474.636058,-222.061783,1149.143247
794.741039,-9474.636058,-296.082377,536.266849
794.741360,-9104.533087,0.000000,0.000000
794.741681,-8216.285956,518.144159,-612.876398
794.742001,-9104.533087,0.000000,-229.828649
794.742322,-9326.594869,74.020594,459.657299
794.742643,-9770.718434,148.041188,919.314598
794.742963,-9992.780217,-222.061783,2987.772442
794.743284,-10140.821405,296.082377,2068.457845
794.743605,-10436.903782,0.000000,2374.896044
794.743926,-10140.821405,148.041188,2298.286494
794.744246,-10066.800811,222.061783,1608.800546
794.744567,-9622.677246,148.041188,995.924147
794.744888,-9400.615463,0.000000,0.000000
794.745209,-8882.471304,-296.082377,-689.485948
794.745529,-8882.471304,-592.164754,-1532.190996
794.745850,-8808.450710,-222.061783,-1762.019645
794.746171,-9252.574275,-740.205942,-1378.971896
794.746491,-9696.697840,-1184.329507,-1225.752797
794.746812,-10140.821405,-1258.350101,-306.438199
794.747133,-10066.800811,-1480.411884,306.438199
794.747454,-10362.883188,-962.267725,689.485948
794.747774,-10140.821405,-296.082377,1302.362347
794.748095,-10288.862594,0.000000,1838.629195
794.748416,-9770.718434,222.061783,1225.752797
794.748737,-9104.533087,0.000000,919.314598
794.749057,-9104.533087,74.020594,766.095498
794.749378,-9104.533087,148.041188,1225.752797
794.749699,-9252.574275,444.123565,1532.190996
794.750019,-8734.430116,74.020594,1915.238745
794.750340,-9326.594869,74.020594,2451.505594
794.750661,-9770.718434,0.000000,2911.162892
794.750982,-10140.821405,74.020594,3524.039291
794.751302,-9548.656652,-296.082377,4136.915689
794.751623,-10140.821405,-296.082377,2911.162892
794.751944,-9696.697840,-148.041188,2298.286494
794.752265,-9400.615463,-370.102971,1608.800546
794.752585,-9548.656652,-370.102971,995.924147
794.752906,-8956.491898,-592.164754,536.266849
794.753227,-8882.471304,-1110.308913,153.219100
794.753548,-8956.491898,-1184.329507,689.485948
794.753868,-9548.656652,-1036.288319,1072.533697
794.754189,-9770.718434,-518.144159,1762.019645
794.754510,-9770.718434,-1036.288319,2528.115143
794.754830,-9696.697840,-1110.308913,2528.115143
794.755151,-9548.656652,-888.247130,2145.067394
794.755472,-9474.636058,-370.102971,2528.115143
794.755793,-9400.615463,0.000000,1762.019645
794.756113,-9474.636058,74.020594,995.924147
794.756434,-9104.533087,0.000000,536.266849
794.756755,-9104.533087,0.000000,0.000000
794.757076,-9400.615463,0.000000,0.000000
794.757396,-9622.677246,0.000000,995.924147
794.757717,-9844.739029,0.000000,1302.362347
794.758038,-10214.842000,222.061783,1608.800546
794.758358,-10066.800811,0.000000,2374.896044
794.758679,-9918.759623,0.000000,1762.019645
794.759000,-9548.656652,0.000000,1532.190996
794.759321,-9844.739029,-370.102971,842.705048
794.759641,-9474.636058,-518.144159,-76.609550
794.759962,-9030.512492,-592.164754,-612.876398
794.760283,-8956.491898,-592.164754,-1302.362347
794.760604,-9252.574275,-666.185348,-1532.190996
794.760924,-9104.533087,-1110.308913,-1838.629195
794.761245,-9548.656652,-962.267725,-1762.019645
794.761566,-9844.739029,-962.267725,-919.314598
794.761886,-10362.883188,-814.226536,-153.219100
794.762207,-10658.965565,-888.247130,153.219100
794.762528,-9992.780217,-518.144159,0.000000
794.762849,-10140.821405,-296.082377,459.657299
794.763169,-9918.759623,0.000000,919.314598
794.763490,-9622.677246,-148.041188,1225.752797
794.763811,-9696.697840,888.247130,766.095498
794.764132,-8956.491898,-222.061783,1149.143247
794.764452,-9326.594869,0.000000,1455.581446
794.764773,-9252.574275,0.000000,2068.457845
794.765094,-9104.533087,0.000000,2298.286494
794.765415,-9400.615463,0.000000,2604.724693
794.765735,-9844.739029,222.061783,3064.381992
794.766056,-10140.821405,74.020594,3217.601092
794.766377,-10214.842000,148.041188,3294.210641
794.766697,-9770.718434,0.000000,2681.334243
794.767018,-9918.759623,-296.082377,2068.457845
794.767339,-9696.697840,-444.123565,1685.410096
794.767660,-9178.553681,-1036.288319,1072.533697
794.767980,-8808.450710,-1332.370696,0.000000
794.768301,-9030.512492,-1110.308913,306.438199
794.768622,-9178.553681,-1332.370696,459.657299
794.768943,-9252.574275,-1036.288319,1378.971896
794.769263,-9474.636058,-666.185348,1225.752797
794.769584,-9918.759623,-666.185348,2298.286494
794.769905,-9918.759623,-444.123565,2451.505594
794.770225,-9992.780217,-148.041188,2374.896044
794.770546,-9770.718434,0.000000,2068.457845
794.770867,-9622.677246,-148.041188,1072.533697
794.771188,-9326.594869,0.000000,919.314598
794.771508,-9252.574275,74.020594,306.438199
794.771829,-9178.553681,296.082377,383.047749
794.772150,-9474.636058,444.123565,0.000000
794.772471,-9622.677246,222.061783,1225.752797
794.772791,-9844.739029,0.000000,1608.800546
794.773112,-9992.780217,0.000000,1915.238745
794.773433,-10214.842000,296.082377,1149.143247
794.773754,-9918.759623,222.061783,2221.676944
794.774074,-9918.759623,74.020594,1762.019645
794.774395,-9548.656652,0.000000,1072.533697
794.774716,-9104.533087,-296.082377,0.000000
794.775036,-9474.636058,-370.102971,-842.705048
794.775357,-9030.512492,-888.247130,-1685.410096
794.775678,-9474.636058,-1184.329507,-2374.896044
794.775999,-9252.574275,-962.267725,-1455.581446
794.776319,-10140.821405,-1036.288319,-1378.971896
794.776640,-9770.718434,-1258.350101,-536.266849
794.776961,-10214.842000,-962.267725,-306.438199
794.777282,-10584.944971,-888.247130,229.828649
794.777602,-10214.842000,-592.164754,0.000000
794.777923,-9844.739029,-222.061783,995.924147
794.778244,-9770.718434,0.000000,689.485948
794.778564,-9252.574275,0.000000,612.876398
794.778885,-9104.533087,-148.041188,766.095498
794.779206,-8956.491898,-444.123565,919.314598
794.779527,-9326.594869,0.000000,1378.971896
794.779847,-9474.636058,-148.041188,1915.238745
794.780168,-9474.636058,-148.041188,2528.115143
794.780489,-9400.615463,-370.102971,2987.772442
794.780810,-10214.842000,0.000000,3907.087040
794.781130,-10140.821405,-814.226536,3753.867940
794.781451,-10140.821405,-740.205942,3064.381992
794.781772,-9474.636058,-740.205942,2911.162892
794.782092,-9622.677246,-444.123565,1685.410096
794.782413,-9400.615463,-518.144159,842.705048
794.782734,-9252.574275,-370.102971,306.438199
794.783055,-8882.471304,-814.226536,0.000000
794.783375,-9252.574275,-666.185348,459.657299
794.783696,-9622.677246,-1184.329507,842.705048
794.784017,-9918.759623,-740.205942,1608.800546
794.784338,-10288.862594,-518.144159,1991.848295
794.784659,-10214.842000,-888.247130,1378.971896
794.784979,-9770.718434,-740.205942,1608.800546
794.785300,-9696.697840,-592.164754,1532.190996
794.785621,-9622.677246,-370.102971,995.924147
794.785942,-9474.636058,-444.123565,459.657299
794.786263,-9030.512492,-518.144159,-229.828649
794.786583,-9104.533087,0.000000,-383.047749
794.786904,-9178.553681,0.000000,0.000000
794.787225,-9474.636058,740.205942,536.266849
794.787546,-9696.697840,962.267725,1991.848295
794.787867,-10436.903782,0.000000,1838.629195
794.788187,-9770.718434,370.102971,1991.848295
794.788508,-10362.883188,0.000000,1762.019645
794.788829,-9326.594869,74.020594,1532.190996
794.789150,-9548.656652,296.082377,536.266849
794.789471,-9474.636058,74.020594,0.000000
794.789791,-9030.512492,0.000000,-689.485948
794.790112,-8142.265362,-740.205942,-1455.581446
794.790433,-9326.594869,-518.144159,-1685.410096
794.790754,-9030.512492,-1036.288319,-1762.019645
794.791075,-9696.697840,-888.247130,-1072.533697
794.791395,-9844.739029,-1258.350101,0.000000
794.791716,-9918.759623,-1480.411884,536.266849
794.792037,-10436.903782,-1480.411884,1302.362347
794.792358,-10436.903782,-962.267725,1685.410096
794.792679,-9918.759623,-814.226536,1991.848295
794.792999,-9696.697840,-518.144159,2451.505594
794.793320,-9474.636058,74.020594,1991.848295
794.793641,-9400.615463,222.061783,1838.629195
794.793962,-9252.574275,0.000000,2374.896044
794.794283,-9252.574275,-370.102971,2221.676944
794.794603,-8956.491898,-296.082377,1838.629195
794.794924,-9178.553681,-74.020594,2681.334243
794.795245,-9770.718434,0.000000,3447.429741
794.795566,-10066.800811,222.061783,3370.820191
794.795886,-10436.903782,592.164754,3677.258390
794.796207,-10362.883188,296.082377,3370.820191
794.796528,-10436.903782,74.020594,2681.334243
794.796849,-9992.780217,-296.082377,2298.286494
794.797170,-9844.739029,-444.123565,2451.505594
794.797490,-9474.636058,-592.164754,306.438199
794.797811,-9326.594869,-296.082377,0.000000
794.798132,-9030.512492,-444.123565,-229.828649
794.798453,-9696.697840,0.000000,1838.629195
794.798774,-9622.677246,-518.144159,689.485948
794.799094,-9770.718434,-518.144159,842.705048
794.799415,-10140.821405,-296.082377,1302.362347
794.799736,-10288.862594,-222.061783,2145.067394
794.800057,-10214.842000,-148.041188,2068.457845
794.800378,-9918.759623,-148.041188,1378.971896
794.800698,-9326.594869,74.020594,995.924147
794.801019,-9104.533087,0.000000,0.000000
794.801340,-9178.553681,222.061783,153.219100
794.801661,-9104.533087,222.061783,-306.438199
794.801982,-9178.553681,814.226536,76.609550
794.802302,-9474.636058,740.205942,459.657299
794.802623,-9696.697840,370.102971,1225.752797
794.802944,-9844.739029,370.102971,1685.410096
794.803265,-10288.862594,0.000000,2145.067394
794.803586,-9918.759623,-148.041188,1608.800546
794.803906,-9918.759623,-222.061783,1455.581446
794.804227,-9400.615463,-296.082377,766.095498
794.804548,-9326.594869,-444.123565,-76.609550
794.804869,-8808.450710,-962.267725,-995.924147
794.805190,-8734.430116,-1258.350101,-1685.410096
794.805510,-8808.450710,-1702.473667,-1762.019645
794.805831,-9030.512492,-1702.473667,-1532.190996
794.806152,-9326.594869,-1628.453072,-919.314598
794.806473,-9918.759623,-1628.453072,0.000000
794.806794,-10362.883188,-1036.288319,-383.047749
794.807114,-10214.842000,-1406.391290,919.314598
794.807435,-10140.821405,-1184.329507,1608.800546
794.807756,-10066.800811,-296.082377,1378.971896
794.808077,-9696.697840,0.000000,1532.190996
794.808398,-9400.615463,0.000000,919.314598
794.808718,-9474.636058,222.061783,1072.533697
794.809039,-9252.574275,222.061783,1302.362347
794.809360,-9326.594869,296.082377,1838.629195
794.809681,-10288.862594,518.144159,2528.115143
794.810002,-9918.759623,148.041188,3064.381992
794.810322,-10066.800811,0.000000,3217.601092
794.810643,-10584.944971,0.000000,3447.429741
794.810964,-10510.924376,0.000000,3677.258390
794.811285,-10436.903782,0.000000,3217.601092
794.811606,-9770.718434,-222.061783,2451.505594
794.811926,-9474.636058,-444.123565,1225.752797
794.812247,-9178.553681,-666.185348,1225.752797
794.812568,-9104.533087,-962.267725,383.047749
794.812889,-9104.533087,-1554.432478,612.876398
794.813210,-9104.533087,-1332.370696,306.438199
794.813530,-9474.636058,-1258.350101,1072.533697
794.813851,-9474.636058,-1184.329507,1608.800546
794.814172,-10362.883188,-962.267725,1991.848295
794.814493,-10066.800811,-888.247130,2374.896044
794.814814,-9844.739029,-814.226536,2145.067394
794.815134,-10140.821405,148.041188,306.438199
794.815455,-8882.471304,-740.205942,842.705048
794.815776,-8660.409521,-518.144159,153.219100
794.816097,-8808.450710,-222.061783,0.000000
794.816418,-8808.450710,0.000000,459.657299
794.816738,-9030.512492,222.061783,306.438199
794.817059,-9400.615463,148.041188,1072.533697
794.817380,-9770.718434,518.144159,1532.190996
794.817701,-10140.821405,296.082377,2221.676944
794.818021,-10066.800811,0.000000,2145.067394
794.818342,-10066.800811,0.000000,2068.457845
794.818663,-9918.759623,0.000000,1685.410096
794.818984,-9696.697840,222.061783,995.924147
794.819305,-9252.574275,444.123565,536.266849
794.819625,-9178.553681,0.000000,-766.095498
794.819946,-9030.512492,0.000000,-1225.752797
794.820267,-9326.594869,-148.041188,-1685.410096
794.820588,-9548.656652,-222.061783,-1225.752797
794.820909,-10066.800811,-518.144159,-459.657299
794.821229,-10140.821405,-740.205942,76.609550
794.821550,-10881.027347,-888.247130,842.705048
794.821871,-10510.924376,-888.247130,1302.362347
794.822192,-10955.047942,-592.164754,1149.143247
794.822513,-10214.842000,-296.082377,1225.752797
794.822833,-9992.780217,0.000000,995.924147
794.823154,-9474.636058,0.000000,919.314598
794.823475,-9696.697840,148.041188,229.828649
794.823796,-9030.512492,222.061783,842.705048
794.824117,-9178.553681,222.061783,1225.752797
794.824437,-9252.574275,74.020594,1915.238745
794.824758,-9696.697840,0.000000,1991.848295
794.825079,-10066.800811,0.000000,3600.648841
794.825400,-10510.924376,-148.041188,3677.258390
794.825721,-10214.842000,-296.082377,3524.039291
794.826041,-10066.800811,-518.144159,2757.943793
794.826362,-9474.636058,-592.164754,2068.457845
794.826683,-9474.636058,-740.205942,1302.362347
794.827004,-8882.471304,-666.185348,306.438199
794.827325,-8586.388927,-814.226536,-459.657299
794.827645,-8142.265362,-1628.453072,-536.266849
794.827966,-8734.430116,-1332.370696,-153.219100
794.828287,-9326.594869,-1184.329507,383.047749
794.828608,-9696.697840,-1184.329507,1072.533697
794.828929,-9252.574275,-444.123565,3140.991542
794.829249,-10288.862594,-1184.329507,2298.286494
794.829570,-10214.842000,-1110.308913,2298.286494
794.829891,-9696.697840,-814.226536,1838.629195
794.830212,-9474.636058,-370.102971,1225.752797
794.830533,-8956.491898,-222.061783,1378.971896
794.830853,-9030.512492,-296.082377,536.266849
794.831174,-8808.450710,74.020594,229.828649
794.831495,-9326.594869,-148.041188,76.609550
794.831816,-9178.553681,444.123565,995.924147
794.832137,-9992.780217,0.000000,1455.581446
794.832457,-10362.883188,444.123565,2221.676944
794.832778,-10584.944971,74.020594,2374.896044
794.833099,-11251.130318,888.247130,2987.772442
794.833420,-10510.924376,296.082377,2221.676944
794.833741,-10066.800811,74.020594,1685.410096
794.834061,-9622.677246,444.123565,383.047749
794.834382,-9326.594869,0.000000,-459.657299
794.834703,-9104.533087,-444.123565,-1455.581446
794.835024,-9030.512492,-518.144159,-2068.457845
794.835345,-9326.594869,-814.226536,-1991.848295
794.835665,-9622.677246,-740.205942,-1149.143247
794.835986,-9844.739029,-888.247130,-1225.752797
794.836307,-10436.903782,-666.185348,0.000000
794.836628,-10362.883188,-1110.308913,536.266849
794.836949,-10510.924376,-962.267725,1149.143247
794.837269,-10436.903782,-1184.329507,1149.143247
794.837590,-9548.656652,-592.164754,536.266849
794.837911,-9326.594869,-296.082377,766.095498
794.838232,-9178.553681,-222.061783,842.705048
794.838553,-8808.450710,-296.082377,1149.143247
794.838873,-9030.512492,-370.102971,1532.190996
794.839194,-8956.491898,-296.082377,1685.410096
794.839515,-9474.636058,-370.102971,2221.676944
794.839836,-9474.636058,-296.082377,3447.429741
794.840157,-9474.636058,-518.144159,3064.381992
794.840477,-10066.800811,-444.123565,3677.258390
794.840798,-9918.759623,-592.164754,3064.381992
794.841119,-9918.759623,-296.082377,2528.115143
794.841440,-9474.636058,1480.411884,1455.581446
794.841760,-9474.636058,148.041188,1302.362347
794.842081,-9326.594869,0.000000,689.485948
794.842402,-9326.594869,-296.082377,306.438199
794.842723,-9252.574275,-962.267725,229.828649
794.843044,-9474.636058,-1036.288319,689.485948
794.843364,-9696.697840,-740.205942,1455.581446
794.843685,-9992.780217,-666.185348,2221.676944
794.844006,-10140.821405,-296.082377,2528.115143
794.844327,-10140.821405,-370.102971,2451.505594
794.844648,-9918.759623,74.020594,1838.629195
794.844968,-9918.759623,222.061783,1455.581446
794.845289,-9548.656652,296.082377,1149.143247
794.845610,-9992.780217,0.000000,0.000000
794.845931,-9178.553681,222.061783,-383.047749
794.846252,-9400.615463,296.082377,306.438199
794.846572,-9696.697840,518.144159,1072.533697
794.846893,-9696.697840,222.061783,1532.190996
794.847214,-10066.800811,0.000000,2145.067394
794.847535,-10362.883188,0.000000,2221.676944
794.847856,-10140.821405,0.000000,2528.115143
794.848176,-10140.821405,-370.102971,2298.286494
794.848497,-9696.697840,0.000000,1532.190996
794.848818,-9400.615463,-592.164754,612.876398
794.849139,-8882.471304,-592.164754,-306.438199
794.849460,-8882.471304,-1036.288319,-1302.362347
794.849780,-9030.512492,-814.226536,-1378.971896
794.850101,-9252.574275,-740.205942,-1532.190996
794.850422,-9252.574275,-592.164754,-1149.143247
794.850743,-9548.656652,-740.205942,-689.485948
794.851064,-10066.800811,-962.267725,0.000000
794.851384,-9992.780217,-1036.288319,1532.190996
794.851705,-10066.800811,-962.267725,459.657299
794.852026,-9844.739029,-666.185348,536.266849
794.852347,-9622.677246,-222.061783,766.095498
794.852668,-9400.615463,-74.020594,612.876398
794.852988,-9252.574275,740.205942,919.314598
794.853309,-9030.512492,74.020594,919.314598
794.853630,-9178.553681,0.000000,919.314598
794.853951,-9400.615463,0.000000,1915.238745
794.854272,-8438.347739,-296.082377,1838.629195
794.854592,-9400.615463,0.000000,2451.505594
794.854913,-9992.780217,0.000000,2834.553343
794.855234,-10214.842000,0.000000,3447.429741
794.855555,-10288.862594,-444.123565,2987.772442
794.855876,-9844.739029,-148.041188,2834.553343
794.856196,-9844.739029,-370.102971,2298.286494
794.856517,-9696.697840,-444.123565,1378.971896
794.856838,-9474.636058,-666.185348,995.924147
794.857159,-9474.636058,-444.123565,383.047749
794.857480,-9030.512492,-962.267725,153.219100
794.857800,-9474.636058,-962.267725,612.876398
794.858121,-9622.677246,-1184.329507,1225.752797
794.858442,-9844.739029,-1184.329507,1532.190996
794.858763,-10140.821405,-1036.288319,1915.238745
794.859084,-10140.821405,-962.267725,2221.676944
794.859404,-10288.862594,-1110.308913,2451.505594
794.859725,-9918.759623,-518.144159,1915.238745
794.860046,-9400.615463,-740.205942,1225.752797
794.860367,-9030.512492,-444.123565,842.705048
794.860688,-9474.636058,0.000000,536.266849
794.861008,-9326.594869,148.041188,306.438199
794.861329,-9400.615463,148.041188,153.219100
794.861650,-9326.594869,444.123565,1149.143247
794.861971,-9770.718434,222.061783,1608.800546
794.862292,-10140.821405,74.020594,2451.505594
794.862612,-10214.842000,370.102971,3907.087040
794.862933,-10140.821405,0.000000,2374.896044
794.863254,-9770.718434,222.061783,1685.410096
794.863575,-9474.636058,0.000000,1072.533697
794.863896,-9178.553681,0.000000,229.828649
794.864216,-9252.574275,-222.061783,-383.047749
794.864537,-8586.388927,-518.144159,-1225.752797
794.864858,-8956.491898,-222.061783,-1532.190996
794.865179,-9252.574275,-740.205942,-1762.019645
794.865499,-9844.739029,-962.267725,-1378.971896
794.865820,-9844.739029,-888.247130,-383.047749
794.866141,-10214.842000,-962.267725,153.219100
794.866462,-10288.862594,-1036.288319,229.828649
794.866783,-10066.800811,-222.061783,-689.485948
794.867103,-10140.821405,-740.205942,766.095498
794.867424,-9696.697840,-148.041188,766.095498
794.867745,-9474.636058,222.061783,842.705048
794.868066,-9030.512492,222.061783,536.266849
794.868387,-9400.615463,222.061783,459.657299
794.868707,-9326.594869,444.123565,1225.752797
794.869028,-9252.574275,296.082377,1762.019645
794.869349,-9548.656652,296.082377,2145.067394
794.869670,-9474.636058,222.061783,3294.210641
794.869991,-10140.821405,370.102971,3217.601092
794.870311,-10066.800811,74.020594,3140.991542
794.870632,-10436.903782,0.000000,2757.943793
794.870953,-10732.986159,0.000000,2374.896044
794.871274,-9918.759623,-148.041188,1685.410096
794.871595,-9548.656652,-296.082377,1225.752797
794.871915,-9326.594869,-370.102971,612.876398
794.872236,-9030.512492,-888.247130,76.609550
794.872557,-9178.553681,-740.205942,459.657299
794.872878,-9252.574275,-1184.329507,842.705048
794.873199,-9696.697840,-1036.288319,1532.190996
794.873519,-9696.697840,-1184.329507,1762.019645
794.873840,-9770.718434,-518.144159,2681.334243
794.874161,-9474.636058,-518.144159,2068.457845
794.874482,-9622.677246,-444.123565,2145.067394
794.874803,-9474.636058,-222.061783,1302.362347
794.875123,-9178.553681,0.000000,0.000000
794.875444,-8956.491898,-296.082377,612.876398
794.875765,-8956.491898,-296.082377,536.266849
794.876086,-9104.533087,0.000000,612.876398
794.876407,-9252.574275,74.020594,1378.971896
794.876727,-9474.636058,0.000000,1685.410096
794.877048,-9918.759623,148.041188,1991.848295
794.877369,-9992.780217,222.061783,2451.505594
794.877690,-9992.780217,370.102971,2604.724693
794.878011,-10066.800811,444.123565,2221.676944
794.878331,-9622.677246,0.000000,1838.629195
794.878652,-9252.574275,0.000000,689.485948
794.878973,-9104.533087,-518.144159,-383.047749
794.879294,-9474.636058,0.000000,-1378.971896
794.879615,-9030.512492,-962.267725,-1302.362347
794.879935,-9400.615463,-1110.308913,-1608.800546
794.880256,-9474.636058,-1110.308913,-919.314598
794.880577,-9918.759623,-1110.308913,-689.485948
794.880898,-10584.944971,-1036.288319,0.000000
794.881219,-10510.924376,-1036.288319,0.000000
794.881539,-10362.883188,-740.205942,0.000000
794.881860,-10362.883188,-444.123565,766.095498
794.882181,-10066.800811,-592.164754,1072.533697
794.882502,-9696.697840,-592.164754,689.485948
794.882823,-9400.615463,-222.061783,919.314598
794.883143,-9104.533087,-148.041188,766.095498
794.883464,-8586.388927,-370.102971,1302.362347
794.883784,-9326.594869,0.000000,1838.629195
794.884105,-9548.656652,0.000000,2068.457845
794.884425,-9622.677246,0.000000,2451.505594
794.884746,-9992.780217,0.000000,4903.011187
794.885066,-10288.862594,-296.082377,3447.429741
794.885387,-9918.759623,-148.041188,2757.943793
794.885708,-9844.739029,-148.041188,2298.286494
794.886028,-9548.656652,0.000000,1608.800546
794.886349,-9400.615463,-296.082377,1225.752797
794.886669,-9474.636058,-148.041188,842.705048
794.886990,-8956.491898,-370.102971,229.828649
794.887310,-9030.512492,-1036.288319,0.000000
794.887631,-8216.285956,-1184.329507,2068.457845
794.887951,-9400.615463,-962.267725,1302.362347
794.888272,-9844.739029,-1036.288319,1685.410096
794.888593,-9770.718434,-888.247130,2221.676944
794.888913,-9992.780217,-666.185348,1991.848295
794.889234,-9770.718434,-740.205942,1685.410096
794.889554,-9548.656652,-370.102971,1532.190996
794.889875,-9400.615463,-148.041188,1302.362347
794.890195,-8956.491898,-296.082377,459.657299
794.890516,-8438.347739,-740.205942,0.000000
794.890836,-8956.491898,-222.061783,153.219100
794.891157,-9474.636058,0.000000,536.266849
794.891478,-9548.656652,0.000000,1378.971896
794.891798,-9844.739029,0.000000,1762.019645
794.892119,-10436.903782,370.102971,2451.505594
794.892439,-10362.883188,148.041188,2604.724693
794.892760,-10288.862594,296.082377,2681.334243
794.893080,-10066.800811,296.082377,2068.457845
794.893401,-9474.636058,0.000000,1378.971896
794.893721,-9252.574275,148.041188,459.657299
794.894042,-8956.491898,-296.082377,-612.876398
794.894363,-9104.533087,0.000000,-1072.533697
794.894683,-9178.553681,-296.082377,-1378.971896
794.895004,-9844.739029,-518.144159,-1225.752797
794.895324,-9770.718434,-666.185348,-459.657299
794.895645,-10140.821405,-814.226536,-536.266849
794.895965,-10584.944971,-592.164754,-229.828649
794.896286,-10362.883188,-888.247130,306.438199
794.896606,-10066.800811,-518.144159,766.095498
794.896927,-9770.718434,-592.164754,766.095498
794.897248,-9474.636058,-592.164754,459.657299
794.897568,-9474.636058,-592.164754,689.485948
794.897889,-8882.471304,-148.041188,689.485948
794.898209,-9178.553681,-296.082377,995.924147
794.898530,-9030.512492,-222.061783,1378.971896
794.898850,-9030.512492,-370.102971,1532.190996
794.899171,-9474.636058,-296.082377,2068.457845
794.899491,-9770.718434,-222.061783,2528.115143
794.899812,-9696.697840,-222.061783,2987.772442
794.900133,-10584.944971,-296.082377,1762.019645
794.900453,-10140.821405,-148.041188,2834.553343
794.900774,-9844.739029,0.000000,2681.334243
794.901094,-9474.636058,-444.123565,1685.410096
794.901415,-9178.553681,-370.102971,-536.266849
794.901735,-9252.574275,-666.185348,536.266849
794.902056,-9252.574275,-814.226536,459.657299
794.902376,-9252.574275,-740.205942,536.266849
794.902697,-9474.636058,-1036.288319,995.924147
794.903018,-9548.656652,-814.226536,1455.581446
794.903338,-9918.759623,-592.164754,1838.629195
794.903659,-10214.842000,-370.102971,2451.505594
794.903979,-10066.800811,-666.185348,2451.505594
794.904300,-10510.924376,-444.123565,2528.115143
794.904620,-9770.718434,-666.185348,1378.971896
794.904941,-9474.636058,-296.082377,766.095498
794.905261,-9400.615463,-222.061783,536.266849
794.905582,-9104.533087,-74.020594,1302.362347
794.905903,-9474.636058,74.020594,459.657299
794.906223,-9400.615463,74.020594,919.314598
794.906544,-9992.780217,-222.061783,1532.190996
794.906864,-10140.821405,0.000000,1991.848295
794.907185,-10214.842000,0.000000,2298.286494
794.907505,-10140.821405,74.020594,2145.067394
794.907826,-10214.842000,0.000000,1991.848295
794.908146,-9696.697840,0.000000,1762.019645
794.908467,-10066.800811,518.144159,306.438199
794.908788,-9178.553681,74.020594,0.000000
794.909108,-9178.553681,-592.164754,-995.924147
794.909429,-8956.491898,-740.205942,-1302.362347
794.909749,-9178.553681,-740.205942,-1149.143247
794.910070,-9400.615463,-888.247130,-995.924147
794.910390,-9548.656652,-1258.350101,-612.876398
794.910711,-9844.739029,-1036.288319,0.000000
794.911031,-9770.718434,-1184.329507,306.438199
794.911352,-9474.636058,-1036.288319,995.924147
794.911673,-10214.842000,-592.164754,1149.143247
794.911993,-9696.697840,-148.041188,1072.533697
794.912314,-9548.656652,0.000000,919.314598
794.912634,-8512.368333,-1480.411884,995.924147
794.912955,-8956.491898,-148.041188,766.095498
794.913275,-9178.553681,0.000000,1072.533697
794.913596,-9104.533087,148.041188,1455.581446
794.913916,-9474.636058,148.041188,1915.238745
794.914237,-8438.347739,148.041188,2145.067394
794.914558,-10214.842000,74.020594,2604.724693
794.914878,-10066.800811,0.000000,3064.381992
794.915199,-10288.862594,-148.041188,2604.724693
794.915519,-9992.780217,-296.082377,2221.676944
794.915840,-9770.718434,-518.144159,1608.800546
794.916160,-9770.718434,-370.102971,1149.143247
794.916481,-9326.594869,-296.082377,689.485948
794.916801,-9104.533087,-518.144159,229.828649
794.917122,-8882.471304,370.102971,1225.752797
794.917443,-9326.594869,-518.144159,689.485948
794.917763,-9770.718434,-518.144159,1149.143247
794.918084,-9918.759623,-740.205942,1838.629195
794.918404,-10140.821405,-592.164754,2068.457845
794.918725,-10214.842000,-740.205942,1915.238745
794.919045,-9844.739029,-518.144159,2221.676944
794.919366,-9622.677246,-148.041188,1838.629195
794.919686,-9474.636058,0.000000,1378.971896
794.920007,-9326.594869,74.020594,842.705048
794.920328,-9178.553681,-296.082377,459.657299
794.920648,-9030.512492,0.000000,612.876398
794.920969,-9474.636058,148.041188,1149.143247
794.921289,-9844.739029,370.102971,1455.581446
794.921610,-10140.821405,592.164754,2604.724693
794.921930,-10214.842000,296.082377,2604.724693
794.922251,-9918.759623,0.000000,2681.334243
794.922571,-9918.759623,222.061783,2681.334243
794.922892,-9548.656652,148.041188,1991.848295
794.923213,-9474.636058,0.000000,766.095498
794.923533,-9326.594869,-222.061783,383.047749
794.923854,-8808.450710,-518.144159,-919.314598
794.924174,-8660.409521,-592.164754,-1072.533697
794.924495,-8586.388927,-962.267725,-1225.752797
794.924815,-9326.594869,-962.267725,-1225.752797
794.925136,-9474.636058,-814.226536,-612.876398
794.925456,-9992.780217,-1332.370696,0.000000
794.925777,-10066.800811,-1184.329507,153.219100
794.926098,-10066.800811,-1258.350101,766.095498
794.926418,-10066.800811,-1036.288319,919.314598
794.926739,-9548.656652,-518.144159,995.924147
794.927059,-9474.636058,-148.041188,1072.533697
794.927380,-9252.574275,222.061783,1072.533697
794.927700,-9030.512492,0.000000,536.266849
794.928021,-9178.553681,0.000000,689.485948
794.928341,-9030.512492,-222.061783,842.705048
794.928662,-9474.636058,-370.102971,1685.410096
794.928983,-9622.677246,0.000000,2145.067394
794.929303,-9992.780217,0.000000,2451.505594
794.929624,-10362.883188,222.061783,3064.381992
794.929944,-10362.883188,0.000000,3064.381992
794.930265,-10510.924376,0.000000,2528.115143
794.930585,-10140.821405,-222.061783,1838.629195
794.930906,-9548.656652,-518.144159,919.314598
794.931226,-9326.594869,-666.185348,536.266849
794.931547,-9252.574275,-740.205942,306.438199
794.931868,-8956.491898,-1036.288319,0.000000
794.932188,-9326.594869,-1036.288319,0.000000
794.932509,-9548.656652,-1184.329507,153.219100
794.932829,-9030.512492,-222.061783,383.047749
794.933150,-10288.862594,-1036.288319,1991.848295
794.933470,-10140.821405,-1036.288319,1838.629195
794.933791,-9844.739029,-1184.329507,2068.457845
794.934111,-9696.697840,-592.164754,2068.457845
794.934432,-9548.656652,-370.102971,1302.362347
794.934753,-9178.553681,-148.041188,1225.752797
794.935073,-8882.471304,-444.123565,689.485948
794.935394,-8660.409521,-296.082377,153.219100
794.935714,-8808.450710,148.041188,766.095498
794.936035,-9474.636058,148.041188,1149.143247
794.936355,-9696.697840,0.000000,2068.457845
794.936676,-9918.759623,-370.102971,2757.943793
794.936996,-10140.821405,-814.226536,2987.772442
794.937317,-10214.842000,-222.061783,2604.724693
794.937638,-9918.759623,-222.061783,2374.896044
794.937958,-9548.656652,74.020594,1685.410096
794.938279,-9400.615463,148.041188,842.705048
794.938599,-9030.512492,74.020594,0.000000
794.938920,-9252.574275,-370.102971,-842.705048
794.939240,-9400.615463,-222.061783,-919.314598
794.939561,-9400.615463,-518.144159,-1072.533697
794.939882,-8956.491898,-1036.288319,-1225.752797
794.940202,-10066.800811,-592.164754,-306.438199
794.940523,-10214.842000,-444.123565,306.438199
794.940843,-10436.903782,-740.205942,766.095498
794.941164,-10288.862594,0.000000,459.657299
794.941484,-10066.800811,-740.205942,995.924147
794.941805,-9696.697840,74.020594,766.095498
794.942125,-9844.739029,222.061783,995.924147
794.942446,-9252.574275,222.061783,766.095498
794.942767,-8808.450710,74.020594,306.438199
794.943087,-9178.553681,370.102971,766.095498
794.943408,-9474.636058,444.123565,1302.362347
794.943728,-9548.656652,148.041188,1685.410096
794.944049,-9918.759623,0.000000,1838.629195
794.944369,-9992.780217,148.041188,2451.505594
794.944690,-10362.883188,0.000000,2528.115143
794.945010,-10214.842000,0.000000,2451.505594
794.945331,-10288.862594,222.061783,1838.629195
794.945652,-9622.677246,-222.061783,1302.362347
794.945972,-9326.594869,-592.164754,536.266849
794.946293,-9178.553681,-444.123565,0.000000
794.946613,-9104.533087,-814.226536,-76.609550
794.946934,-9252.574275,-888.247130,-229.828649
794.947254,-9252.574275,-740.205942,229.828649
794.947575,-9474.636058,-740.205942,842.705048
794.947895,-9844.739029,-666.185348,1685.410096
794.948216,-9548.656652,-814.226536,2604.724693
794.948537,-9918.759623,-962.267725,1838.629195
794.948857,-9474.636058,-592.164754,1455.581446
794.949178,-9474.636058,-592.164754,1378.971896
794.949498,-9548.656652,666.185348,612.876398
794.949819,-9030.512492,-444.123565,842.705048
794.950139,-8882.471304,0.000000,536.266849
794.950460,-9252.574275,-148.041188,689.485948
794.950780,-9326.594869,0.000000,1378.971896
794.951101,-9622.677246,-518.144159,1455.581446
794.951422,-9474.636058,0.000000,1991.848295
794.951742,-9992.780217,444.123565,2451.505594
794.952063,-10140.821405,222.061783,2604.724693
794.952383,-9844.739029,962.267725,3217.601092
794.952704,-10066.800811,518.144159,2298.286494
794.953024,-9844.739029,370.102971,1455.581446
794.953345,-9400.615463,-148.041188,383.047749
794.953665,-9178.553681,0.000000,-536.266849
794.953986,-9252.574275,-592.164754,-689.485948
794.954307,-9104.533087,-888.247130,-842.705048
794.954627,-9252.574275,-1258.350101,-766.095498
794.954948,-9548.656652,-1184.329507,-383.047749
794.955268,-10214.842000,-888.247130,459.657299
794.955589,-10288.862594,-962.267725,689.485948
794.955909,-10140.821405,-888.247130,1302.362347
794.956230,-10436.903782,-1036.288319,1685.410096
794.956550,-9844.739029,-370.102971,1762.019645
794.956871,-9770.718434,-740.205942,1762.019645
794.957192,-9252.574275,-1036.288319,1302.362347
794.957512,-9030.512492,-666.185348,1378.971896
794.957833,-9178.553681,-666.185348,1991.848295
794.958153,-9030.512492,-296.082377,1378.971896
794.958474,-9178.553681,-148.041188,1608.800546
794.958794,-9474.636058,-222.061783,2221.676944
794.959115,-9696.697840,0.000000,2451.505594
794.959435,-10066.800811,0.000000,3064.381992
794.959756,-9992.780217,-222.061783,2451.505594
794.960077,-9992.780217,-296.082377,2374.896044
794.960397,-9918.759623,-518.144159,1378.971896
794.960718,-9474.636058,-222.061783,1838.629195
794.961038,-9252.574275,-296.082377,0.000000
794.961359,-9104.533087,-296.082377,-383.047749
794.961679,-9104.533087,-296.082377,-689.485948
794.962000,-8586.388927,-222.061783,306.438199
794.962320,-9548.656652,-814.226536,0.000000
794.962641,-9622.677246,-740.205942,383.047749
794.962962,-10140.821405,-666.185348,1225.752797
794.963282,-10140.821405,-888.247130,1915.238745
794.963603,-10140.821405,-666.185348,1608.800546
794.963923,-9918.759623,-666.185348,1608.800546
794.964244,-9770.718434,-296.082377,1072.533697
794.964564,-9474.636058,-222.061783,689.485948
794.964885,-9104.533087,0.000000,383.047749
794.965205,-9030.512492,370.102971,-229.828649
794.965526,-9326.594869,444.123565,306.438199
794.965847,-9696.697840,740.205942,1532.190996
794.966167,-9918.759623,518.144159,1225.752797
794.966488,-10362.883188,370.102971,2681.334243
794.966808,-10214.842000,0.000000,2681.334243
794.967129,-10288.862594,370.102971,2834.553343
794.967449,-10362.883188,222.061783,2374.896044
794.967770,-9622.677246,222.061783,1378.971896
794.968090,-9326.594869,0.000000,919.314598
794.968411,-8882.471304,-296.082377,-383.047749
794.968732,-8882.471304,-740.205942,-766.095498
794.969052,-9474.636058,-444.123565,-1302.362347
794.969373,-9030.512492,-666.185348,-919.314598
794.969693,-9474.636058,-814.226536,-229.828649
794.970014,-9696.697840,-962.267725,0.000000
794.970334,-9918.759623,-1110.308913,0.000000
794.970655,-10362.883188,-1110.308913,1149.143247
794.970975,-9992.780217,-1036.288319,1455.581446
794.971296,-9992.780217,-814.226536,1072.533697
794.971617,-9474.636058,0.000000,1225.752797
794.971937,-9400.615463,0.000000,1455.581446
794.972258,-9030.512492,0.000000,1149.143247
794.972578,-9030.512492,0.000000,995.924147
794.972899,-8956.491898,0.000000,1302.362347
794.973219,-9474.636058,148.041188,1455.581446
794.973540,-9622.677246,296.082377,2298.286494
794.973860,-9918.759623,518.144159,2681.334243
794.974181,-10288.862594,296.082377,3064.381992
794.974502,-10362.883188,592.164754,2528.115143
794.974822,-10140.821405,-222.061783,2604.724693
794.975143,-10288.862594,-148.041188,2221.676944
794.975463,-9992.780217,-370.102971,1838.629195
794.975784,-9622.677246,-814.226536,766.095498
794.976104,-9474.636058,-740.205942,76.609550
794.976425,-9030.512492,-1110.308913,-459.657299
794.976745,-9252.574275,-592.164754,-306.438199
794.977066,-9844.739029,-592.164754,229.828649
794.977387,-9770.718434,-814.226536,995.924147
794.977707,-10214.842000,-814.226536,1225.752797
794.978028,-9992.780217,-1036.288319,1991.848295
794.978348,-9992.780217,-1036.288319,1685.410096
794.978669,-9622.677246,-666.185348,919.314598
794.978989,-9474.636058,-518.144159,1149.143247
794.979310,-9178.553681,-370.102971,459.657299
794.979630,-9030.512492,-370.102971,76.609550
794.979951,-9030.512492,-148.041188,-306.438199
794.980272,-8882.471304,74.020594,153.219100
794.980592,-9474.636058,74.020594,612.876398
794.980913,-9474.636058,148.041188,1455.581446
794.981233,-9622.677246,0.000000,2145.067394
794.981554,-10584.944971,74.020594,3524.039291
794.981874,-10288.862594,-148.041188,2911.162892
794.982195,-9770.718434,0.000000,2757.943793
794.982515,-9622.677246,-148.041188,1915.238745
794.982836,-8586.388927,814.226536,1915.238745
794.983157,-8956.491898,-370.102971,76.609550
794.983477,-8438.347739,-592.164754,-842.705048
794.983798,-8586.388927,-740.205942,-1302.362347
794.984118,-9030.512492,-888.247130,-1608.800546
794.984439,-8882.471304,-888.247130,-995.924147
794.984759,-9844.739029,-1110.308913,-459.657299
794.985080,-10362.883188,-962.267725,229.828649
794.985400,-10510.924376,-1184.329507,536.266849
794.985721,-10807.006753,-1110.308913,842.705048
794.986042,-10214.842000,-518.144159,1225.752797
794.986363,-10066.800811,-74.020594,1532.190996
794.986683,-9548.656652,0.000000,1302.362347
794.987004,-9474.636058,0.000000,1838.629195
794.987325,-9178.553681,0.000000,689.485948
794.987645,-9030.512492,0.000000,1302.362347
794.987966,-8956.491898,-370.102971,1608.800546
794.988287,-9474.636058,74.020594,2068.457845
794.988607,-9622.677246,74.020594,2528.115143
794.988928,-10214.842000,0.000000,2834.553343
794.989249,-10214.842000,148.041188,3140.991542
794.989569,-10584.944971,-74.020594,3217.601092
794.989890,-10140.821405,0.000000,1378.971896
794.990211,-10066.800811,-148.041188,1685.410096
794.990531,-9548.656652,0.000000,1225.752797
794.990852,-9178.553681,-518.144159,689.485948
794.991173,-9104.533087,-296.082377,0.000000
794.991494,-9178.553681,-592.164754,-306.438199
794.991814,-9178.553681,-814.226536,-383.047749
794.992135,-9252.574275,-962.267725,306.438199
794.992456,-9770.718434,-518.144159,1378.971896
794.992776,-9844.739029,-592.164754,1685.410096
794.993097,-9770.718434,-740.205942,1915.238745
794.993418,-9918.759623,-370.102971,1608.800546
794.993738,-9400.615463,0.000000,1762.019645
794.994059,-9474.636058,-148.041188,1225.752797
794.994380,-9326.594869,222.061783,1455.581446
794.994700,-8808.450710,-518.144159,0.000000
794.995021,-8882.471304,-296.082377,76.609550
794.995342,-8956.491898,0.000000,612.876398
794.995662,-9326.594869,0.000000,1225.752797
794.995983,-9844.739029,0.000000,1455.581446
794.996304,-9992.780217,-222.061783,2451.505594
794.996625,-9992.780217,-444.123565,2681.334243
794.996945,-10214.842000,0.000000,2681.334243
794.997266,-9326.594869,370.102971,2604.724693
794.997587,-9844.739029,148.041188,1378.971896
794.997907,-9178.553681,0.000000,766.095498
794.998228,-9030.512492,-444.123565,-306.438199
794.998549,-8808.450710,-518.144159,-1455.581446
794.998869,-9178.553681,-444.123565,-1455.581446
794.999190,-9326.594869,-518.144159,-766.095498
794.999511,-9696.697840,-740.205942,-842.705048
794.999831,-9770.718434,-740.205942,-153.219100
795.000152,-10362.883188,-1036.288319,153.219100
795.000473,-10288.862594,-1036.288319,612.876398
795.000793,-10510.924376,-592.164754,995.924147
795.001114,-9992.780217,-296.082377,1072.533697
795.001435,-9992.780217,-370.102971,383.047749
795.001756,-9474.636058,0.000000,1149.143247
795.002076,-9178.553681,74.020594,1149.143247
795.002397,-9178.553681,74.020594,1149.143247
795.002718,-9326.594869,74.020594,1455.581446
795.003038,-9030.512492,0.000000,1762.019645
795.003359,-9548.656652,0.000000,2298.286494
795.003680,-9918.759623,222.061783,2681.334243
795.004000,-9918.759623,0.000000,2987.772442
795.004321,-10214.842000,-296.082377,2681.334243
795.004642,-9992.780217,0.000000,2604.724693
795.004962,-9844.739029,-370.102971,1838.629195
795.005283,-9622.677246,-666.185348,1455.581446
795.005604,-9918.759623,148.041188,0.000000
795.005924,-9326.594869,-518.144159,76.609550
795.006245,-9030.512492,-1036.288319,0.000000
795.006566,-9178.553681,-1258.350101,76.609550
795.006887,-9474.636058,-1332.370696,383.047749
795.007207,-9622.677246,-1184.329507,919.314598
795.007528,-9696.697840,-814.226536,1532.190996
795.007849,-9622.677246,-1036.288319,2145.067394
795.008169,-10066.800811,-740.205942,2145.067394
795.008490,-9622.677246,-666.185348,1532.190996
795.008811,-9400.615463,-592.164754,1225.752797
795.009131,-9326.594869,-296.082377,689.485948
795.009452,-9252.574275,-296.082377,536.266849
795.009773,-9178.553681,148.041188,-612.876398
795.010093,-9326.594869,296.082377,306.438199
795.010414,-9622.677246,518.144159,995.924147
795.010735,-9992.780217,666.185348,1532.190996
795.011055,-10510.924376,222.061783,2221.676944
795.011376,-10510.924376,0.000000,2681.334243
795.011697,-10214.842000,0.000000,2528.115143
795.012018,-9992.780217,-222.061783,2374.896044
795.012338,-9622.677246,-444.123565,1685.410096
795.012659,-9548.656652,0.000000,766.095498
795.012980,-9178.553681,-592.164754,0.000000
795.013300,-8882.471304,-666.185348,-919.314598
795.013621,-9326.594869,-740.205942,-1455.581446
795.013942,-8808.450710,-1480.411884,-995.924147
795.014262,-9548.656652,-1110.308913,-995.924147
795.014583,-10066.800811,-1184.329507,0.000000
795.014904,-10214.842000,-1184.329507,306.438199
795.015224,-10362.883188,-1110.308913,612.876398
795.015545,-10140.821405,-666.185348,1225.752797
795.015866,-9770.718434,-370.102971,1225.752797
795.016186,-9770.718434,0.000000,995.924147
795.016507,-9548.656652,222.061783,995.924147
795.016828,-9030.512492,0.000000,842.705048
795.017149,-9400.615463,148.041188,995.924147
795.017469,-9178.553681,444.123565,1455.581446
795.017790,-9104.533087,222.061783,1378.971896
795.018111,-9844.739029,222.061783,1838.629195
795.018431,-9622.677246,148.041188,2911.162892
795.018752,-10066.800811,0.000000,3370.820191
795.019073,-10436.903782,-74.020594,3600.648841
795.019393,-10140.821405,-148.041188,3370.820191
795.019714,-9918.759623,-148.041188,2451.505594
795.020035,-9622.677246,-148.041188,1762.019645
795.020355,-9252.574275,-222.061783,1072.533697
795.020676,-9252.574275,-592.164754,383.047749
795.020997,-8364.327145,-444.123565,-153.219100
795.021317,-9104.533087,-1110.308913,-383.047749
795.021638,-9400.615463,-814.226536,229.828649
795.021959,-9770.718434,-666.185348,842.705048
795.022280,-9918.759623,0.000000,1302.362347
795.022600,-9770.718434,-148.041188,2068.457845
795.022921,-10140.821405,-666.185348,1455.581446
795.023242,-9770.718434,-444.123565,1302.362347
795.023562,-9844.739029,-592.164754,2911.162892
795.023883,-9474.636058,74.020594,689.485948
795.024204,-9326.594869,0.000000,0.000000
795.024524,-9104.533087,296.082377,0.000000
795.024845,-9178.553681,370.102971,0.000000
795.025166,-9178.553681,222.061783,383.047749
795.025486,-9696.697840,296.082377,766.095498
795.025807,-9770.718434,74.020594,1532.190996
795.026128,-10066.800811,0.000000,1762.019645
795.026448,-9696.697840,888.247130,1915.238745
795.026769,-9918.759623,74.020594,2298.286494
795.027090,-9696.697840,74.020594,1762.019645
795.027411,-9474.636058,-222.061783,1149.143247
795.027731,-9104.533087,0.000000,919.314598
795.028052,-9030.512492,-444.123565,-153.219100
795.028373,-8882.471304,-888.247130,-1302.362347
795.028693,-9104.533087,-1036.288319,-1149.143247
795.029014,-9252.574275,-1480.411884,-1072.533697
795.029335,-9474.636058,-1184.329507,-383.047749
795.029655,-10362.883188,-1332.370696,153.219100
795.029976,-10066.800811,-1184.329507,536.266849
795.030297,-10362.883188,-1036.288319,1225.752797
795.030617,-10436.903782,-296.082377,766.095498
795.030938,-10066.800811,-518.144159,1608.800546
795.031259,-9770.718434,0.000000,1455.581446
795.031579,-9326.594869,0.000000,1532.190996
795.031900,-9104.533087,-148.041188,995.924147
795.032221,-9030.512492,0.000000,1685.410096
795.032542,-9326.594869,74.020594,1685.410096
795.032862,-9474.636058,0.000000,2145.067394
795.033183,-9696.697840,222.061783,2757.943793
795.033504,-10066.800811,74.020594,3140.991542
795.033824,-10214.842000,-222.061783,3370.820191
795.034145,-10436.903782,-148.041188,3217.601092
795.034466,-10140.821405,-296.082377,2834.553343
795.034786,-10436.903782,-296.082377,2145.067394
795.035107,-9622.677246,-518.144159,1455.581446
795.035428,-9104.533087,-592.164754,306.438199
795.035748,-9178.553681,-814.226536,0.000000
795.036069,-8956.491898,-888.247130,-383.047749
795.036390,-9030.512492,-1110.308913,0.000000
795.036710,-9474.636058,-1110.308913,536.266849
795.037031,-9770.718434,-888.247130,1149.143247
795.037352,-10214.842000,-888.247130,1608.800546
795.037673,-9326.594869,-1036.288319,2451.505594
795.037993,-10140.821405,-814.226536,1838.629195
795.038314,-9474.636058,-518.144159,1302.362347
795.038635,-9400.615463,-296.082377,229.828649
795.038955,-9104.533087,148.041188,-842.705048
795.039276,-9400.615463,370.102971,-153.219100
795.039597,-8956.491898,296.082377,0.000000
795.039917,-9326.594869,370.102971,0.000000
795.040238,-9474.636058,296.082377,766.095498
795.040559,-9844.739029,148.041188,2068.457845
795.040879,-10214.842000,222.061783,2145.067394
795.041200,-9992.780217,444.123565,2681.334243
795.041521,-10066.800811,444.123565,2298.286494
795.041841,-9104.533087,592.164754,1762.019645
795.042162,-9696.697840,74.020594,1225.752797
795.042483,-9400.615463,0.000000,229.828649
795.042804,-9252.574275,-592.164754,-536.266849
795.043124,-8512.368333,-1184.329507,-1762.019645
795.043445,-9400.615463,-814.226536,-1149.143247
795.043766,-9400.615463,-888.247130,-995.924147
795.044086,-9770.718434,-962.267725,-536.266849
795.044407,-9770.718434,-1036.288319,306.438199
795.044728,-10436.903782,-1184.329507,229.828649
795.045048,-10436.903782,-814.226536,919.314598
795.045369,-10362.883188,-148.041188,1302.362347
795.045690,-9770.718434,0.000000,1532.190996
795.046010,-9622.677246,444.123565,1225.752797
795.046331,-9252.574275,-148.041188,1302.362347
795.046652,-9252.574275,-296.082377,1225.752797
795.046972,-9104.533087,-296.082377,1762.019645
795.047293,-8438.347739,370.102971,1838.629195
795.047614,-9326.594869,-148.041188,2068.457845
795.047935,-9400.615463,0.000000,2681.334243
795.048255,-9622.677246,0.000000,2987.772442
795.048576,-10066.800811,370.102971,3217.601092
795.048897,-10214.842000,0.000000,2911.162892
795.049217,-10066.800811,0.000000,2911.162892
795.049538,-9918.759623,0.000000,2221.676944
795.049859,-9548.656652,74.020594,1762.019645
795.050179,-9622.677246,0.000000,1532.190996
795.050500,-9252.574275,-370.102971,383.047749
795.050821,-9252.574275,-888.247130,0.000000
795.051141,-8956.491898,-1332.370696,-153.219100
795.051462,-9104.533087,-1924.535449,383.047749
795.051783,-9400.615463,-1184.329507,459.657299
795.052103,-9548.656652,-962.267725,995.924147
795.052424,-9770.718434,-1110.308913,1302.362347
795.052745,-10066.800811,-962.267725,1302.362347
795.053066,-9622.677246,-962.267725,1455.581446
795.053386,-9548.656652,-444.123565,689.485948
795.053707,-9622.677246,-518.144159,689.485948
795.054028,-8956.491898,-444.123565,153.219100
795.054348,-8956.491898,-518.144159,-689.485948
795.054669,-9326.594869,222.061783,-229.828649
795.054990,-9696.697840,222.061783,766.095498
795.055310,-9548.656652,-444.123565,1225.752797
795.055631,-10436.903782,-370.102971,2145.067394
795.055952,-9918.759623,-518.144159,2221.676944
795.056272,-10066.800811,0.000000,2451.505594
795.056593,-9548.656652,148.041188,2068.457845
795.056914,-9918.759623,148.041188,2145.067394
795.057234,-9474.636058,296.082377,919.314598
795.057555,-9400.615463,0.000000,306.438199
795.057876,-9252.574275,-444.123565,-459.657299
795.058197,-9178.553681,0.000000,-919.314598
795.058517,-9622.677246,0.000000,-919.314598
795.058838,-9622.677246,-370.102971,-689.485948
795.059159,-9918.759623,-888.247130,0.000000
795.059479,-9992.780217,-1110.308913,459.657299
795.059800,-11769.274478,-592.164754,-612.876398
795.060121,-10140.821405,-814.226536,1225.752797
795.060441,-9918.759623,-518.144159,1762.019645
795.060762,-9696.697840,-296.082377,1532.190996
795.061083,-9326.594869,-296.082377,1608.800546
795.061403,-9030.512492,-296.082377,1072.533697
795.061724,-9178.553681,-222.061783,1608.800546
795.062045,-9104.533087,-518.144159,1378.971896
795.062365,-9400.615463,74.020594,1608.800546
795.062686,-9474.636058,0.000000,1762.019645
795.063007,-9474.636058,0.000000,2528.115143
795.063328,-9992.780217,0.000000,2911.162892
795.063648,-9696.697840,0.000000,3370.820191
795.063969,-9326.594869,-888.247130,3524.039291
795.064290,-9992.780217,-74.020594,2451.505594
795.064610,-9844.739029,-666.185348,1838.629195
795.064931,-9474.636058,-518.144159,995.924147
795.065252,-9178.553681,-518.144159,766.095498
795.065572,-9030.512492,-592.164754,153.219100
795.065893,-8956.491898,-888.247130,76.609550
795.066214,-9252.574275,-740.205942,229.828649
795.066534,-9622.677246,-740.205942,1149.143247
795.066855,-10436.903782,222.061783,1072.533697
795.067176,-9992.780217,-740.205942,1608.800546
795.067496,-9770.718434,-666.185348,1302.362347
795.067817,-9770.718434,-518.144159,1455.581446
795.068138,-9252.574275,-518.144159,2298.286494
795.068459,-9474.636058,-222.061783,766.095498
795.068779,-9548.656652,-518.144159,76.609550
795.069100,-9326.594869,0.000000,153.219100
795.069421,-9400.615463,-370.102971,0.000000
795.069741,-9696.697840,666.185348,612.876398
795.070062,-9770.718434,0.000000,842.705048
795.070383,-9844.739029,222.061783,1378.971896
795.070703,-10140.821405,0.000000,1685.410096
795.071024,-9622.677246,0.000000,2298.286494
795.071345,-10140.821405,0.000000,2221.676944
795.071665,-9770.718434,222.061783,1838.629195
795.071986,-9696.697840,222.061783,1225.752797
795.072307,-9548.656652,1036.288319,842.705048
795.072627,-9400.615463,-444.123565,-306.438199
795.072948,-9030.512492,-666.185348,-842.705048
795.073269,-9178.553681,-1110.308913,-1685.410096
795.073590,-9326.594869,-1036.288319,-1072.533697
795.073910,-9696.697840,-1036.288319,-1072.533697
795.074231,-9992.780217,-1110.308913,0.000000
795.074552,-10066.800811,-518.144159,153.219100
795.074872,-9992.780217,-962.267725,766.095498
795.075193,-10362.883188,-666.185348,1149.143247
795.075514,-9622.677246,-370.102971,1608.800546
795.075834,-9844.739029,-222.061783,1762.019645
795.076155,-9326.594869,-370.102971,1532.190996
795.076476,-9104.533087,-296.082377,306.438199
795.076796,-8956.491898,-444.123565,1455.581446
795.077117,-8882.471304,-148.041188,1685.410096
795.077438,-9252.574275,-296.082377,2221.676944
795.077758,-9178.553681,-444.123565,2221.676944
795.078079,-9474.636058,-296.082377,2528.115143
795.078400,-9918.759623,-444.123565,3064.381992
795.078721,-10140.821405,-222.061783,3294.210641
795.079041,-9992.780217,-370.102971,2987.772442
795.079362,-10510.924376,148.041188,2221.676944
795.079683,-9474.636058,-592.164754,1762.019645
795.080003,-9474.636058,-740.205942,1225.752797
795.080324,-9030.512492,-666.185348,689.485948
795.080645,-9474.636058,-740.205942,-536.266849
795.080965,-9326.594869,-518.144159,229.828649
795.081286,-9474.636058,-1036.288319,459.657299
795.081607,-9622.677246,-370.102971,766.095498
795.081927,-9992.780217,-518.144159,1532.190996
795.082248,-9918.759623,-592.164754,1838.629195
795.082569,-9918.759623,-518.144159,1302.362347
795.082890,-9992.780217,0.000000,1608.800546
795.083210,-9770.718434,-296.082377,842.705048
795.083531,-8956.491898,0.000000,229.828649
795.083852,-9252.574275,-592.164754,0.000000
795.084172,-9252.574275,74.020594,0.000000
795.084493,-9474.636058,74.020594,0.000000
795.084814,-8734.430116,148.041188,842.705048
795.085134,-9770.718434,0.000000,1302.362347
795.085455,-10140.821405,148.041188,1991.848295
795.085776,-10436.903782,0.000000,2374.896044
795.086096,-10214.842000,0.000000,2604.724693
795.086417,-9918.759623,0.000000,2145.067394
795.086738,-9770.718434,0.000000,1455.581446
795.087058,-9252.574275,74.020594,612.876398
795.087379,-9104.533087,-222.061783,76.609550
795.087700,-8364.327145,-444.123565,-842.705048
795.088021,-8956.491898,-592.164754,-1532.190996
795.088341,-9104.533087,-740.205942,-1532.190996
795.088662,-9252.574275,-1036.288319,-919.314598
795.088983,-9548.656652,0.000000,995.924147
795.089303,-10214.842000,-1258.350101,153.219100
795.089624,-9844.739029,-1480.411884,459.657299
795.089945,-10214.842000,-1554.432478,1149.143247
795.090266,-9844.739029,-814.226536,1455.581446
795.090586,-9992.780217,-592.164754,995.924147
795.090907,-9474.636058,-444.123565,1762.019645
795.091228,-9104.533087,-518.144159,1225.752797
795.091548,-8956.491898,-222.061783,1302.362347
795.091869,-8808.450710,0.000000,919.314598
795.092190,-9326.594869,296.082377,1915.238745
795.092511,-9622.677246,370.102971,2604.724693
795.092831,-9696.697840,518.144159,2681.334243
795.093152,-9992.780217,1480.411884,4519.963438
795.093473,-10362.883188,518.144159,2987.772442
795.093793,-10214.842000,0.000000,2834.553343
795.094114,-10066.800811,0.000000,2374.896044
795.094435,-9992.780217,0.000000,1532.190996
795.094756,-9770.718434,74.020594,1455.581446
795.095076,-9474.636058,0.000000,766.095498
795.095397,-9326.594869,-296.082377,306.438199
795.095718,-9474.636058,-740.205942,536.266849
795.096038,-9696.697840,-1110.308913,459.657299
795.096359,-9548.656652,-888.247130,1608.800546
795.096680,-9918.759623,-444.123565,1302.362347
795.097001,-9918.759623,-518.144159,1991.848295
795.097321,-10066.800811,666.185348,4213.525239
795.097642,-9770.718434,-518.144159,1608.800546
795.097963,-9696.697840,-296.082377,1149.143247
795.098283,-9326.594869,0.000000,689.485948
795.098604,-9178.553681,0.000000,229.828649
795.098925,-9178.553681,74.020594,153.219100
795.099246,-9326.594869,148.041188,0.000000
795.099566,-9178.553681,0.000000,459.657299
795.099887,-9548.656652,74.020594,1072.533697
795.100208,-10066.800811,0.000000,2451.505594
795.100528,-9844.739029,148.041188,2068.457845
795.100849,-9992.780217,296.082377,2528.115143
795.101170,-9770.718434,148.041188,2374.896044
795.101491,-9474.636058,740.205942,1838.629195
795.101811,-9326.594869,0.000000,1072.533697
795.102132,-9104.533087,-296.082377,229.828649
795.102453,-9104.533087,-518.144159,-689.485948
795.102773,-9104.533087,-666.185348,-1225.752797
795.103094,-9326.594869,-740.205942,-1532.190996
795.103415,-9326.594869,-592.164754,-1225.752797
795.103736,-9696.697840,-888.247130,-766.095498
795.104056,-10066.800811,-666.185348,-153.219100
795.104377,-10288.862594,-740.205942,995.924147
795.104698,-10214.842000,-592.164754,919.314598
795.105019,-10288.862594,-666.185348,1149.143247
795.105339,-10066.800811,-148.041188,1378.971896
795.105660,-9622.677246,0.000000,2604.724693
795.105981,-9474.636058,0.000000,1302.362347
795.106301,-9326.594869,-296.082377,1149.143247
795.106622,-9326.594869,0.000000,1302.362347
795.106943,-9474.636058,0.000000,1915.238745
795.107264,-9622.677246,0.000000,2145.067394
795.107584,-9474.636058,0.000000,2528.115143
795.107905,-9770.718434,-148.041188,2911.162892
795.108226,-10362.883188,0.000000,3140.991542
795.108546,-9474.636058,-296.082377,3983.696590
795.108867,-10140.821405,-148.041188,2834.553343
795.109188,-9770.718434,-370.102971,2145.067394
795.109509,-9622.677246,-296.082377,1532.190996
795.109829,-9548.656652,-444.123565,766.095498
795.110150,-9326.594869,-592.164754,383.047749
795.110471,-9104.533087,-962.267725,0.000000
795.110791,-9104.533087,-1406.391290,0.000000
795.111112,-9178.553681,-1480.411884,229.828649
795.111433,-9474.636058,-1184.329507,766.095498
795.111754,-9844.739029,-1184.329507,1838.629195
795.112074,-9918.759623,-962.267725,2145.067394
795.112395,-9992.780217,-888.247130,1685.410096
795.112716,-9696.697840,-222.061783,919.314598
795.113036,-9400.615463,-296.082377,766.095498
795.113357,-9326.594869,0.000000,306.438199
795.113678,-9178.553681,-370.102971,-306.438199
795.113999,-8956.491898,74.020594,1149.143247
795.114319,-9400.615463,296.082377,-229.828649
795.114640,-9474.636058,444.123565,459.657299
795.114961,-9844.739029,370.102971,1302.362347
795.115281,-10214.842000,370.102971,1915.238745
795.115602,-10436.903782,518.144159,2221.676944
795.115923,-9992.780217,0.000000,2221.676944
795.116244,-9770.718434,222.061783,1685.410096
795.116564,-9770.718434,0.000000,1225.752797
795.116885,-8882.471304,370.102971,306.438199
795.117206,-9178.553681,-592.164754,-536.266849
795.117526,-8512.368333,-370.102971,-1149.143247
795.117847,-9178.553681,-888.247130,-1608.800546
795.118168,-9622.677246,-592.164754,-1378.971896
795.118489,-9622.677246,-740.205942,-459.657299
795.118809,-10066.800811,-1110.308913,306.438199
795.119130,-10288.862594,-1036.288319,689.485948
795.119451,-9992.780217,-1258.350101,1302.362347
795.119771,-10584.944971,-518.144159,1608.800546
795.120092,-9622.677246,-444.123565,1838.629195
795.120413,-9548.656652,-222.061783,1915.238745
795.120734,-9474.636058,-296.082377,1991.848295
795.121054,-9770.718434,-296.082377,1608.800546
795.121375,-9252.574275,0.000000,2298.286494
795.121696,-9252.574275,-148.041188,2451.505594
795.122017,-9252.574275,0.000000,2681.334243
795.122337,-9400.615463,444.123565,4903.011187
795.122658,-9770.718434,0.000000,3524.039291
795.122979,-9918.759623,0.000000,3600.648841
795.123299,-9918.759623,148.041188,3370.820191
795.123620,-10066.800811,370.102971,2911.162892
795.123941,-9770.718434,0.000000,2451.505594
795.124262,-9696.697840,0.000000,1838.629195
795.124582,-9474.636058,-370.102971,1302.362347
795.124903,-9400.615463,-370.102971,612.876398
795.125224,-9844.739029,-1110.308913,919.314598
795.125544,-9178.553681,-814.226536,383.047749
795.125865,-9400.615463,-814.226536,383.047749
795.126186,-9474.636058,-666.185348,766.095498
795.126507,-10140.821405,148.041188,995.924147
795.126827,-9622.677246,-666.185348,1225.752797
795.127148,-9992.780217,-592.164754,1455.581446
795.127469,-9918.759623,-666.185348,1302.362347
795.127789,-9474.636058,-814.226536,612.876398
795.128110,-9548.656652,-962.267725,76.609550
795.128431,-9326.594869,-370.102971,-306.438199
795.128752,-9104.533087,-296.082377,-383.047749
795.129072,-9400.615463,222.061783,-383.047749
795.129393,-9770.718434,370.102971,0.000000
795.129714,-9474.636058,222.061783,612.876398
795.130034,-10140.821405,0.000000,1685.410096
795.130355,-10436.903782,74.020594,1685.410096
795.130676,-9992.780217,222.061783,2298.286494
795.130997,-9992.780217,74.020594,1608.800546
795.131317,-9622.677246,74.020594,1455.581446
795.131638,-9400.615463,0.000000,612.876398
795.131959,-9326.594869,0.000000,-153.219100
795.132279,-8882.471304,-148.041188,-995.924147
795.132600,-9030.512492,0.000000,-1608.800546
795.132921,-9104.533087,-592.164754,-1532.190996
795.133242,-9622.677246,-518.144159,-1378.971896
795.133562,-10140.821405,-370.102971,-383.047749
795.133883,-10066.800811,-1258.350101,0.000000
795.134204,-10214.842000,-1184.329507,766.095498
795.134524,-10658.965565,-1628.453072,1302.362347
795.134845,-10140.821405,-444.123565,3140.991542
795.135166,-10436.903782,-1110.308913,1762.019645
795.135487,-9104.533087,-518.144159,1532.190996
795.135807,-9252.574275,-740.205942,842.705048
795.136128,-9252.574275,0.000000,1608.800546
795.136449,-8956.491898,-222.061783,2221.676944
795.136769,-9252.574275,-222.061783,2145.067394
795.137090,-9474.636058,-370.102971,2604.724693
795.137411,-9326.594869,-592.164754,2987.772442
795.137732,-10658.965565,0.000000,3600.648841
795.138052,-9918.759623,-296.082377,4136.915689
795.138373,-10362.883188,0.000000,3447.429741
795.138694,-10288.862594,-222.061783,3294.210641
795.139015,-9474.636058,296.082377,1762.019645
795.139335,-9622.677246,-444.123565,1685.410096
795.139656,-9326.594869,-296.082377,919.314598
795.139977,-8882.471304,-222.061783,76.609550
795.140297,-9104.533087,-444.123565,76.609550
795.140618,-9030.512492,-444.123565,536.266849
795.140939,-9400.615463,-370.102971,842.705048
795.141260,-9992.780217,-370.102971,1532.190996
795.141580,-10140.821405,-518.144159,1838.629195
795.141901,-10436.903782,-370.102971,1378.971896
795.142222,-9770.718434,-296.082377,1455.581446
795.142542,-9770.718434,74.020594,1072.533697
795.142863,-9400.615463,0.000000,612.876398
795.143184,-9400.615463,444.123565,153.219100
795.143505,-9030.512492,0.000000,-459.657299
795.143825,-9030.512492,0.000000,-459.657299
795.144146,-9252.574275,-296.082377,0.000000
795.144467,-9548.656652,222.061783,842.705048
795.144787,-10066.800811,0.000000,1302.362347
795.145108,-10140.821405,0.000000,1838.629195
795.145429,-10066.800811,0.000000,2298.286494
795.145750,-10214.842000,-222.061783,2451.505594
795.146070,-9104.533087,0.000000,2757.943793
795.146391,-9474.636058,-222.061783,1149.143247
795.146712,-9474.636058,-370.102971,383.047749
795.147032,-8956.491898,-444.123565,-689.485948
795.147353,-8882.471304,-740.205942,0.000000
795.147674,-8956.491898,-1184.329507,-1608.800546
795.147995,-9252.574275,-814.226536,-1378.971896
795.148315,-9548.656652,-888.247130,-919.314598
795.148636,-10066.800811,-962.267725,-306.438199
795.148957,-10066.800811,-962.267725,536.266849
795.149277,-10214.842000,-962.267725,612.876398
795.149598,-10214.842000,-592.164754,842.705048
795.149919,-10214.842000,0.000000,1532.190996
795.150240,-10140.821405,74.020594,2298.286494
795.150560,-9622.677246,0.000000,1378.971896
795.150881,-9104.533087,222.061783,1302.362347
795.151202,-9252.574275,148.041188,1455.581446
795.151522,-9178.553681,370.102971,2221.676944
795.151843,-9252.574275,148.041188,2145.067394
795.152164,-9400.615463,74.020594,2528.115143
795.152485,-9548.656652,0.000000,2911.162892
795.152805,-10066.800811,-148.041188,3524.039291
795.153126,-10288.862594,-814.226536,3217.601092
795.153447,-9918.759623,-666.185348,2681.334243
795.153767,-9844.739029,-888.247130,2145.067394
795.154088,-9548.656652,-592.164754,1608.800546
795.154409,-9474.636058,-592.164754,612.876398
795.154730,-9400.615463,-740.205942,459.657299
795.155050,-8882.471304,-1036.288319,306.438199
795.155371,-9178.553681,-888.247130,306.438199
795.155692,-9400.615463,-1850.514855,-536.266849
795.156013,-9400.615463,-814.226536,1532.190996
795.156333,-9844.739029,-666.185348,1762.019645
795.156654,-9918.759623,-222.061783,1915.238745
795.156975,-10066.800811,-222.061783,1762.019645
795.157295,-9696.697840,-222.061783,1225.752797
795.157616,-9474.636058,0.000000,1149.143247
795.157937,-9326.594869,74.020594,306.438199
795.158258,-9178.553681,222.061783,-153.219100
795.158578,-9326.594869,148.041188,-383.047749
795.158899,-9252.574275,222.061783,0.000000
795.159220,-9474.636058,0.000000,766.095498
795.159540,-9696.697840,-296.082377,1302.362347
795.159861,-10436.903782,444.123565,1762.019645
795.160182,-10362.883188,0.000000,2374.896044
795.160503,-10066.800811,-222.061783,2911.162892
795.160823,-9918.759623,148.041188,2451.505594
795.161144,-9474.636058,-370.102971,1762.019645
795.161465,-9622.677246,0.000000,1378.971896
795.161785,-9252.574275,-444.123565,153.219100
795.162106,-9104.533087,-740.205942,-919.314598
795.162427,-8956.491898,-592.164754,-842.705048
795.162748,-9178.553681,222.061783,-2757.943793
795.163068,-9548.656652,-592.164754,-1225.752797
795.163389,-9696.697840,-1036.288319,-842.705048
795.163710,-10066.800811,-888.247130,-306.438199
795.164030,-10436.903782,-1332.370696,306.438199
795.164351,-10066.800811,-1258.350101,1072.533697
795.164672,-10140.821405,-814.226536,1072.533697
795.164993,-9696.697840,-444.123565,919.314598
795.165313,-9548.656652,-518.144159,1072.533697
795.165634,-9326.594869,370.102971,459.657299
795.165955,-8808.450710,-370.102971,383.047749
795.166275,-9252.574275,-296.082377,842.705048
795.166596,-8956.491898,-518.144159,1302.362347
795.166917,-9474.636058,-222.061783,1685.410096
795.167238,-8956.491898,0.000000,2757.943793
795.167558,-10066.800811,370.102971,2604.724693
795.167879,-10066.800811,0.000000,2911.162892
795.168200,-10214.842000,-74.020594,2528.115143
795.168520,-10214.842000,-74.020594,2451.505594
795.168841,-9770.718434,-148.041188,1991.848295
795.169162,-9844.739029,-370.102971,995.924147
795.169483,-9326.594869,-666.185348,766.095498
795.169803,-9252.574275,-740.205942,459.657299
795.170124,-9252.574275,-1480.411884,76.609550
795.170445,-9400.615463,-962.267725,995.924147
795.170765,-9474.636058,-1184.329507,1149.143247
795.171086,-9622.677246,-962.267725,1685.410096
795.171407,-9844.739029,-370.102971,2298.286494
795.171728,-10140.821405,-148.041188,2298.286494
795.172048,-9844.739029,0.000000,2374.896044
795.172369,-9696.697840,222.061783,1991.848295
795.172690,-9548.656652,74.020594,1225.752797
795.173011,-9400.615463,296.082377,1072.533697
795.173331,-9548.656652,74.020594,766.095498
