#time,accel_x,accel_y,accel_z
1159.664744,-10214.842000,-1628.453072,2451.505594
1159.665065,-9770.718434,-2220.617826,1762.019645
1159.665386,-9178.553681,-2072.576638,766.095498
1159.665707,-9696.697840,-1628.453072,1455.581446
1159.666028,-9844.739029,-1554.432478,1915.238745
1159.666348,-9474.636058,-1332.370696,1762.019645
1159.666669,-9770.718434,-1184.329507,1225.752797
1159.666990,-9696.697840,-1258.350101,1302.362347
1159.667311,-9622.677246,-962.267725,1532.190996
1159.667632,-9770.718434,-1110.308913,1838.629195
1159.667952,-9326.594869,-592.164754,1532.190996
1159.668273,-9548.656652,-370.102971,1455.581446
1159.668594,-9400.615463,0.000000,1532.190996
1159.668915,-9178.553681,-518.144159,1225.752797
1159.669236,-9474.636058,-888.247130,1608.800546
1159.669556,-9326.594869,-1036.288319,1455.581446
1159.669877,-9474.636058,-1480.411884,1838.629195
1159.670198,-9696.697840,-2220.617826,2374.896044
1159.670519,-9400.615463,-2368.659014,2298.286494
1159.670840,-9474.636058,-2664.741391,3907.087040
1159.671161,-9770.718434,-2886.803174,2528.115143
1159.671481,-9696.697840,-2664.741391,2528.115143
1159.671802,-9178.553681,-2516.700203,2681.334243
1159.672123,-9474.636058,-2516.700203,2604.724693
1159.672444,-9696.697840,-2368.659014,2987.772442
1159.672765,-9400.615463,-2738.761985,3217.601092
1159.673085,-9548.656652,-2812.782580,3217.601092
1159.673406,-9474.636058,-2738.761985,3370.820191
1159.673727,-8586.388927,-3108.864956,3983.696590
1159.674048,-9474.636058,-3256.906145,4826.401637
1159.674369,-9326.594869,-3552.988522,4749.792088
1159.674689,-9548.656652,-3478.967927,4979.620737
1159.675010,-9548.656652,-3108.864956,4213.525239
1159.675331,-9252.574275,-3775.050304,5056.230287
1159.675652,-9474.636058,-4071.132681,5592.497135
1159.675973,-9326.594869,-3775.050304,5209.449386
1159.676294,-9178.553681,-3775.050304,5209.449386
1159.676614,-9326.594869,-3330.926739,4749.792088
1159.676935,-9252.574275,-3404.947333,4366.744339
1159.677256,-9030.512492,-2886.803174,4136.915689
1159.677577,-9474.636058,-2738.761985,3524.039291
1159.677898,-9474.636058,-2072.576638,3677.258390
1159.678218,-9474.636058,-2146.597232,3677.258390
1159.678539,-9770.718434,-1850.514855,2911.162892
1159.678860,-9918.759623,-962.267725,2911.162892
1159.679181,-10140.821405,-296.082377,4826.401637
1159.679502,-9992.780217,-1184.329507,2528.115143
1159.679822,-10066.800811,-1258.350101,2298.286494
1159.680143,-9918.759623,-1998.556043,1991.848295
1159.680464,-10140.821405,-2146.597232,1915.238745
1159.680785,-9696.697840,-2294.638420,2068.457845
1159.681106,-9622.677246,-3034.844362,1991.848295
1159.681427,-9622.677246,-3108.864956,919.314598
1159.681747,-9104.533087,-2960.823768,1302.362347
1159.682068,-9992.780217,-3256.906145,1838.629195
1159.682389,-9178.553681,-2590.720797,536.266849
1159.682710,-9400.615463,-2368.659014,-536.266849
1159.683031,-9326.594869,-1258.350101,-919.314598
1159.683351,-9030.512492,-962.267725,-2298.286494
1159.683672,-9844.739029,1110.308913,-1072.533697
1159.683993,-9548.656652,1850.514855,-1225.752797
1159.684314,-9992.780217,1628.453072,-1762.019645
1159.684635,-10140.821405,1184.329507,-919.314598
1159.684955,-9918.759623,1110.308913,-1149.143247
1159.685276,-10140.821405,888.247130,-229.828649
1159.685597,-10140.821405,74.020594,153.219100
1159.685918,-9252.574275,-370.102971,0.000000
1159.686239,-9178.553681,-666.185348,-76.609550
1159.686560,-9252.574275,-444.123565,-229.828649
1159.686880,-8512.368333,-222.061783,-306.438199
1159.687201,-9104.533087,0.000000,-612.876398
1159.687522,-7994.224174,2146.597232,-1685.410096
1159.687842,-9252.574275,2812.782580,-919.314598
1159.688163,-9844.739029,3330.926739,-306.438199
1159.688484,-10066.800811,3997.112087,0.000000
1159.688804,-10510.924376,3627.009116,229.828649
1159.689125,-10584.944971,2960.823768,766.095498
1159.689445,-10510.924376,2146.597232,2145.067394
1159.689766,-10362.883188,1036.288319,2911.162892
1159.690087,-9770.718434,-148.041188,3447.429741
1159.690407,-9992.780217,-370.102971,3524.039291
1159.690728,-9178.553681,-2072.576638,3600.648841
1159.691049,-8808.450710,-2590.720797,3830.477490
1159.691369,-8512.368333,-2442.679609,3524.039291
1159.691690,-8364.327145,-1406.391290,2068.457845
1159.692011,-9030.512492,-370.102971,3370.820191
1159.692331,-9030.512492,444.123565,2757.943793
1159.692652,-9548.656652,1332.370696,2911.162892
1159.692973,-10140.821405,1924.535449,2604.724693
1159.693293,-10066.800811,1776.494261,2221.676944
1159.693614,-10510.924376,1702.473667,2298.286494
1159.693935,-10362.883188,1702.473667,2374.896044
1159.694255,-10066.800811,1110.308913,1915.238745
1159.694576,-9844.739029,74.020594,1225.752797
1159.694896,-9474.636058,-814.226536,1838.629195
1159.695217,-9326.594869,-1406.391290,1149.143247
1159.695538,-8956.491898,-1924.535449,306.438199
1159.695858,-8808.450710,-1480.411884,1072.533697
1159.696179,-9030.512492,-1110.308913,0.000000
1159.696500,-8660.409521,-666.185348,-306.438199
1159.696820,-9326.594869,0.000000,153.219100
1159.697141,-9474.636058,222.061783,-153.219100
1159.697462,-9992.780217,0.000000,-153.219100
1159.697782,-10214.842000,0.000000,229.828649
1159.698103,-10066.800811,-148.041188,383.047749
1159.698424,-10288.862594,-666.185348,536.266849
1159.698744,-9844.739029,-1406.391290,1302.362347
1159.699065,-9548.656652,-2146.597232,612.876398
1159.699385,-9474.636058,-2812.782580,76.609550
1159.699706,-9252.574275,-3256.906145,-306.438199
1159.700027,-7994.224174,-2664.741391,-995.924147
1159.700347,-8882.471304,-2664.741391,-153.219100
1159.700668,-8882.471304,-2220.617826,153.219100
1159.700989,-9326.594869,-1480.411884,0.000000
1159.701309,-9622.677246,-1332.370696,383.047749
1159.701630,-9548.656652,-888.247130,459.657299
1159.701951,-10066.800811,-814.226536,689.485948
1159.702271,-10214.842000,-962.267725,995.924147
1159.702592,-9844.739029,-888.247130,995.924147
1159.702913,-9918.759623,-962.267725,459.657299
1159.703233,-9474.636058,-888.247130,383.047749
1159.703554,-9474.636058,-740.205942,229.828649
1159.703875,-9696.697840,-518.144159,76.609550
1159.704195,-9326.594869,148.041188,-306.438199
1159.704516,-9474.636058,518.144159,153.219100
1159.704836,-9770.718434,1406.391290,1072.533697
1159.705157,-9992.780217,1554.432478,1072.533697
1159.705478,-10214.842000,962.267725,1608.800546
1159.705798,-10066.800811,1036.288319,2145.067394
1159.706119,-9992.780217,666.185348,2298.286494
1159.706440,-9844.739029,296.082377,2757.943793
1159.706760,-9770.718434,-444.123565,2911.162892
1159.707081,-9400.615463,-962.267725,3140.991542
1159.707402,-9326.594869,-1332.370696,3140.991542
1159.707722,-9252.574275,-1850.514855,3140.991542
1159.708043,-9178.553681,-1554.432478,3064.381992
1159.708364,-9474.636058,-1332.370696,2604.724693
1159.708684,-9548.656652,-296.082377,2451.505594
1159.709005,-9696.697840,74.020594,2145.067394
1159.709325,-9474.636058,296.082377,1838.629195
1159.709646,-9844.739029,740.205942,1608.800546
1159.709967,-9992.780217,888.247130,995.924147
1159.710287,-9770.718434,1110.308913,766.095498
1159.710608,-9844.739029,592.164754,459.657299
1159.710929,-9548.656652,592.164754,229.828649
1159.711249,-9400.615463,74.020594,306.438199
1159.711570,-9474.636058,0.000000,0.000000
1159.711891,-9252.574275,-296.082377,-383.047749
1159.712211,-9252.574275,0.000000,-842.705048
1159.712532,-8216.285956,-148.041188,-229.828649
1159.712853,-9178.553681,518.144159,-689.485948
1159.713173,-9474.636058,1184.329507,-689.485948
1159.713494,-9696.697840,1628.453072,-383.047749
1159.713814,-9770.718434,2072.576638,-306.438199
1159.714135,-9844.739029,1406.391290,229.828649
1159.714456,-9992.780217,962.267725,1302.362347
1159.714776,-9696.697840,370.102971,1455.581446
1159.715097,-9992.780217,0.000000,1685.410096
1159.715418,-9622.677246,-962.267725,2068.457845
1159.715738,-9252.574275,-1480.411884,2374.896044
1159.716059,-9104.533087,-1924.535449,1762.019645
1159.716380,-9030.512492,-1702.473667,1378.971896
1159.716700,-9252.574275,-814.226536,-153.219100
1159.717021,-9104.533087,-740.205942,1149.143247
1159.717342,-9474.636058,-370.102971,1225.752797
1159.717662,-9474.636058,148.041188,1608.800546
1159.717983,-10288.862594,1036.288319,919.314598
1159.718304,-10436.903782,148.041188,2298.286494
1159.718624,-10140.821405,-296.082377,2145.067394
1159.718945,-10288.862594,-592.164754,2298.286494
1159.719265,-9918.759623,-1110.308913,2145.067394
1159.719586,-9918.759623,-1406.391290,1685.410096
1159.719907,-9252.574275,-1924.535449,1378.971896
1159.720227,-9104.533087,-2220.617826,689.485948
1159.720548,-9104.533087,-1850.514855,306.438199
1159.720869,-9548.656652,-1776.494261,0.000000
1159.721189,-9326.594869,-518.144159,-76.609550
1159.721510,-9622.677246,0.000000,0.000000
1159.721831,-9696.697840,518.144159,306.438199
1159.722151,-10066.800811,592.164754,383.047749
1159.722472,-10066.800811,444.123565,842.705048
1159.722793,-10288.862594,0.000000,1608.800546
1159.723113,-10066.800811,-518.144159,1838.629195
1159.723434,-10066.800811,-1184.329507,2221.676944
1159.723754,-9474.636058,-2072.576638,2068.457845
1159.724075,-9252.574275,-2738.761985,2221.676944
1159.724396,-8882.471304,-3182.885551,2451.505594
1159.724716,-8660.409521,-3182.885551,2145.067394
1159.725037,-8808.450710,-2738.761985,1685.410096
1159.725358,-9104.533087,-1998.556043,1225.752797
1159.725678,-9104.533087,-962.267725,1149.143247
1159.725999,-9400.615463,-222.061783,995.924147
1159.726320,-9252.574275,814.226536,919.314598
1159.726640,-10066.800811,814.226536,689.485948
1159.726961,-10066.800811,888.247130,306.438199
1159.727282,-10214.842000,592.164754,306.438199
1159.727602,-9918.759623,666.185348,612.876398
1159.727923,-9770.718434,0.000000,612.876398
1159.728244,-9474.636058,-444.123565,306.438199
1159.728564,-9548.656652,-962.267725,0.000000
1159.728885,-9474.636058,-1184.329507,0.000000
1159.729205,-9474.636058,-888.247130,0.000000
1159.729526,-9474.636058,-814.226536,-612.876398
1159.729847,-9474.636058,0.000000,0.000000
1159.730167,-9770.718434,518.144159,306.438199
1159.730488,-10214.842000,740.205942,76.609550
1159.730809,-9696.697840,592.164754,995.924147
1159.731129,-10140.821405,370.102971,1455.581446
1159.731450,-10288.862594,222.061783,1532.190996
1159.731771,-9770.718434,-148.041188,2068.457845
1159.732091,-9844.739029,-518.144159,2145.067394
1159.732412,-9548.656652,-1110.308913,2068.457845
1159.732733,-9548.656652,-1554.432478,2298.286494
1159.733053,-9326.594869,-1628.453072,1608.800546
1159.733374,-9326.594869,-1480.411884,1302.362347
1159.733694,-9252.574275,-888.247130,1762.019645
1159.734015,-9252.574275,0.000000,1762.019645
1159.734336,-9548.656652,518.144159,1685.410096
1159.734656,-8882.471304,1406.391290,2298.286494
1159.734977,-9844.739029,740.205942,1838.629195
1159.735298,-9992.780217,592.164754,2068.457845
1159.735618,-10066.800811,296.082377,1072.533697
1159.735939,-9696.697840,0.000000,2757.943793
1159.736260,-9622.677246,296.082377,1225.752797
1159.736580,-9474.636058,0.000000,689.485948
1159.736901,-9474.636058,-370.102971,459.657299
1159.737222,-9178.553681,-296.082377,-229.828649
1159.737542,-9474.636058,74.020594,0.000000
1159.737863,-9252.574275,962.267725,-153.219100
1159.738184,-9474.636058,1258.350101,0.000000
1159.738504,-9770.718434,1332.370696,459.657299
1159.738825,-9844.739029,1406.391290,1455.581446
1159.739145,-9770.718434,592.164754,536.266849
1159.739466,-9622.677246,296.082377,995.924147
1159.739787,-9696.697840,-222.061783,1302.362347
1159.740107,-9548.656652,-888.247130,1762.019645
1159.740428,-9400.615463,-1480.411884,1915.238745
1159.740749,-9178.553681,-1924.535449,2374.896044
1159.741069,-9326.594869,-2368.659014,2451.505594
1159.741390,-9252.574275,-2368.659014,1838.629195
1159.741711,-8882.471304,-2294.638420,1838.629195
1159.742031,-9474.636058,-1406.391290,1072.533697
1159.742352,-9474.636058,-592.164754,919.314598
1159.742673,-9622.677246,148.041188,1455.581446
1159.742993,-10436.903782,222.061783,153.219100
1159.743314,-9918.759623,296.082377,842.705048
1159.743634,-9992.780217,444.123565,766.095498
1159.743955,-10140.821405,296.082377,1225.752797
1159.744276,-9992.780217,-148.041188,1149.143247
1159.744596,-9918.759623,-444.123565,995.924147
1159.744917,-9474.636058,-740.205942,612.876398
1159.745238,-9400.615463,-1184.329507,536.266849
1159.745558,-9474.636058,-888.247130,536.266849
1159.745879,-9474.636058,-592.164754,0.000000
1159.746200,-9474.636058,-74.020594,0.000000
1159.746520,-9474.636058,666.185348,0.000000
1159.746841,-9622.677246,740.205942,0.000000
1159.747162,-9474.636058,888.247130,689.485948
1159.747482,-9770.718434,370.102971,995.924147
1159.747803,-10066.800811,-222.061783,1149.143247
1159.748123,-9844.739029,-444.123565,1455.581446
1159.748444,-9770.718434,-148.041188,2987.772442
1159.748765,-9474.636058,-1332.370696,2604.724693
1159.749085,-9252.574275,-2146.597232,2374.896044
1159.749406,-8956.491898,-2220.617826,1991.848295
1159.749727,-8882.471304,-2368.659014,1762.019645
1159.750047,-9178.553681,-1702.473667,1455.581446
1159.750368,-9178.553681,-1628.453072,1225.752797
1159.750689,-9178.553681,-592.164754,1225.752797
1159.751009,-9548.656652,74.020594,1302.362347
1159.751330,-9696.697840,888.247130,2374.896044
1159.751651,-10214.842000,592.164754,1762.019645
1159.751971,-10066.800811,370.102971,1685.410096
1159.752292,-10140.821405,296.082377,1378.971896
1159.752613,-9992.780217,-518.144159,1455.581446
1159.752933,-9696.697840,-296.082377,1455.581446
1159.753254,-9474.636058,-814.226536,995.924147
1159.753574,-9326.594869,-740.205942,306.438199
1159.753895,-9252.574275,-740.205942,0.000000
1159.754216,-9326.594869,0.000000,229.828649
1159.754536,-9326.594869,444.123565,0.000000
1159.754857,-9474.636058,1036.288319,153.219100
1159.755178,-9844.739029,1628.453072,306.438199
1159.755498,-10955.047942,1628.453072,306.438199
1159.755819,-10288.862594,1480.411884,689.485948
1159.756140,-10214.842000,740.205942,1149.143247
1159.756460,-10066.800811,296.082377,1455.581446
1159.756781,-10140.821405,592.164754,1149.143247
1159.757102,-9770.718434,-888.247130,2221.676944
1159.757422,-9548.656652,-1554.432478,2298.286494
1159.757743,-9104.533087,-2072.576638,1838.629195
1159.758063,-9030.512492,-2072.576638,1915.238745
1159.758384,-9252.574275,-1850.514855,1378.971896
1159.758705,-9030.512492,-1258.350101,1762.019645
1159.759025,-9326.594869,-962.267725,1532.190996
1159.759346,-9400.615463,-296.082377,1225.752797
1159.759667,-9400.615463,0.000000,1072.533697
1159.759987,-10066.800811,518.144159,1225.752797
1159.760308,-10140.821405,518.144159,1225.752797
1159.760629,-10140.821405,444.123565,1072.533697
1159.760949,-9474.636058,-444.123565,306.438199
1159.761270,-9770.718434,-148.041188,842.705048
1159.761591,-9844.739029,-518.144159,536.266849
1159.761911,-9474.636058,-444.123565,459.657299
1159.762232,-9474.636058,-370.102971,-919.314598
1159.762553,-9326.594869,-148.041188,-153.219100
1159.762873,-9400.615463,0.000000,-229.828649
1159.763194,-9178.553681,0.000000,0.000000
1159.763514,-9696.697840,0.000000,383.047749
1159.763835,-9178.553681,74.020594,383.047749
1159.764156,-9844.739029,222.061783,766.095498
1159.764476,-9770.718434,0.000000,919.314598
1159.764797,-9992.780217,-296.082377,1302.362347
1159.765118,-10436.903782,-370.102971,1225.752797
1159.765438,-9696.697840,-1480.411884,1685.410096
1159.765759,-9474.636058,-1924.535449,1455.581446
1159.766080,-9178.553681,-1850.514855,1302.362347
1159.766400,-9474.636058,-1628.453072,1302.362347
1159.766721,-9252.574275,-1110.308913,1532.190996
1159.767042,-9252.574275,-1110.308913,1072.533697
1159.767362,-9252.574275,-296.082377,612.876398
1159.767683,-9622.677246,0.000000,919.314598
1159.768003,-9252.574275,0.000000,1532.190996
1159.768324,-9918.759623,0.000000,1455.581446
1159.768645,-9696.697840,-222.061783,1532.190996
1159.768965,-10066.800811,-518.144159,1302.362347
1159.769286,-9696.697840,-370.102971,1225.752797
1159.769607,-9696.697840,-962.267725,1302.362347
1159.769927,-9474.636058,-962.267725,842.705048
1159.770248,-9622.677246,-666.185348,229.828649
1159.770569,-9252.574275,-148.041188,-689.485948
1159.770889,-9474.636058,518.144159,0.000000
1159.771210,-9400.615463,1036.288319,-229.828649
1159.771531,-9474.636058,1480.411884,-306.438199
1159.771851,-9548.656652,1554.432478,0.000000
1159.772172,-9770.718434,1332.370696,153.219100
1159.772492,-9918.759623,518.144159,459.657299
1159.772813,-9992.780217,222.061783,842.705048
1159.773134,-9770.718434,0.000000,1838.629195
1159.773454,-9918.759623,-962.267725,1991.848295
1159.773775,-9326.594869,-1776.494261,2528.115143
1159.774096,-9474.636058,-2368.659014,2528.115143
1159.774416,-9400.615463,-2368.659014,2451.505594
1159.774737,-8660.409521,-2220.617826,2221.676944
1159.775058,-8956.491898,-1924.535449,1915.238745
1159.775378,-9104.533087,-1406.391290,1455.581446
1159.775699,-8956.491898,-296.082377,1149.143247
1159.776020,-9474.636058,592.164754,1455.581446
1159.776340,-9918.759623,888.247130,1378.971896
1159.776661,-10140.821405,962.267725,1225.752797
1159.776982,-10362.883188,962.267725,1302.362347
1159.777302,-10140.821405,592.164754,1302.362347
1159.777623,-11103.089130,740.205942,1532.190996
1159.777943,-9992.780217,-518.144159,1378.971896
1159.778264,-9770.718434,-962.267725,1225.752797
1159.778585,-9326.594869,-1258.350101,842.705048
1159.778905,-9474.636058,-1332.370696,2528.115143
1159.779226,-9400.615463,-518.144159,536.266849
1159.779547,-9400.615463,0.000000,383.047749
1159.779867,-9400.615463,296.082377,229.828649
1159.780188,-9622.677246,740.205942,229.828649
1159.780509,-9844.739029,814.226536,1149.143247
1159.780829,-10066.800811,592.164754,1072.533697
1159.781150,-10066.800811,296.082377,1378.971896
1159.781471,-10214.842000,-148.041188,1608.800546
1159.781791,-10066.800811,-148.041188,1991.848295
1159.782112,-9844.739029,-666.185348,1762.019645
1159.782432,-9622.677246,-1554.432478,1455.581446
1159.782753,-9178.553681,-1628.453072,1149.143247
1159.783074,-8956.491898,-1332.370696,229.828649
1159.783394,-9104.533087,-1110.308913,689.485948
1159.783715,-9326.594869,-666.185348,459.657299
1159.784036,-9326.594869,-296.082377,536.266849
1159.784356,-9622.677246,148.041188,919.314598
1159.784677,-9474.636058,0.000000,1072.533697
1159.784998,-9770.718434,-296.082377,536.266849
1159.785318,-10066.800811,-296.082377,842.705048
1159.785639,-10066.800811,-222.061783,919.314598
1159.785960,-10066.800811,-222.061783,459.657299
1159.786280,-9548.656652,-592.164754,229.828649
1159.786601,-9474.636058,-888.247130,153.219100
1159.786921,-9474.636058,-1110.308913,0.000000
1159.787242,-9474.636058,-518.144159,536.266849
1159.787563,-9326.594869,-222.061783,-76.609550
1159.787883,-9474.636058,370.102971,-383.047749
1159.788204,-9474.636058,592.164754,0.000000
1159.788525,-9548.656652,814.226536,76.609550
1159.788845,-9696.697840,888.247130,459.657299
1159.789166,-9844.739029,962.267725,995.924147
1159.789486,-9844.739029,518.144159,1455.581446
1159.789807,-9548.656652,0.000000,1532.190996
1159.790128,-9326.594869,-1036.288319,2068.457845
1159.790448,-9474.636058,-1110.308913,2681.334243
1159.790769,-9474.636058,-1850.514855,2757.943793
1159.791090,-9474.636058,-2294.638420,2528.115143
1159.791410,-9326.594869,-2960.823768,1915.238745
1159.791731,-9400.615463,-1924.535449,1838.629195
1159.792051,-9030.512492,-1036.288319,2221.676944
1159.792372,-9326.594869,-518.144159,1608.800546
1159.792693,-9400.615463,148.041188,1532.190996
1159.793013,-9474.636058,222.061783,1455.581446
1159.793334,-9992.780217,296.082377,1608.800546
1159.793655,-10066.800811,296.082377,1302.362347
1159.793975,-10140.821405,-222.061783,1608.800546
1159.794296,-10362.883188,-518.144159,1149.143247
1159.794616,-9844.739029,-962.267725,1225.752797
1159.794937,-9770.718434,-962.267725,1225.752797
1159.795258,-9918.759623,-740.205942,766.095498
1159.795578,-9252.574275,-296.082377,1838.629195
1159.795899,-9030.512492,-370.102971,383.047749
1159.796219,-9400.615463,0.000000,0.000000
1159.796540,-9474.636058,814.226536,0.000000
1159.796861,-9622.677246,740.205942,76.609550
1159.797181,-9622.677246,888.247130,689.485948
1159.797502,-9770.718434,444.123565,919.314598
1159.797823,-9844.739029,74.020594,919.314598
1159.798143,-10066.800811,-222.061783,1608.800546
1159.798464,-9622.677246,-444.123565,2374.896044
1159.798784,-9844.739029,-814.226536,1991.848295
1159.799105,-9178.553681,-1406.391290,1608.800546
1159.799426,-9400.615463,-1924.535449,1532.190996
1159.799746,-8660.409521,-1924.535449,2068.457845
1159.800067,-8956.491898,-962.267725,995.924147
1159.800388,-9178.553681,-518.144159,919.314598
1159.800708,-9326.594869,0.000000,919.314598
1159.801029,-9548.656652,296.082377,842.705048
1159.801349,-9918.759623,592.164754,995.924147
1159.801670,-10140.821405,370.102971,1455.581446
1159.801991,-9992.780217,0.000000,689.485948
1159.802311,-9918.759623,0.000000,1072.533697
1159.802632,-10140.821405,-222.061783,995.924147
1159.802953,-9474.636058,-592.164754,766.095498
1159.803273,-9474.636058,-1332.370696,459.657299
1159.803594,-9400.615463,-962.267725,306.438199
1159.803914,-8956.491898,296.082377,1225.752797
1159.804235,-9474.636058,0.000000,0.000000
1159.804556,-9548.656652,592.164754,0.000000
1159.804876,-9622.677246,1036.288319,0.000000
1159.805197,-9622.677246,1184.329507,1302.362347
1159.805518,-9474.636058,1110.308913,459.657299
1159.805838,-9844.739029,962.267725,995.924147
1159.806159,-10066.800811,592.164754,1378.971896
1159.806479,-9770.718434,0.000000,1838.629195
1159.806800,-9474.636058,-888.247130,2068.457845
1159.807121,-9474.636058,-1480.411884,2298.286494
1159.807441,-9474.636058,-1998.556043,2757.943793
1159.807762,-9400.615463,-2368.659014,2681.334243
1159.808082,-9104.533087,-2368.659014,2068.457845
1159.808403,-9030.512492,-1850.514855,2298.286494
1159.808724,-9400.615463,-1184.329507,1838.629195
1159.809044,-9252.574275,-592.164754,1608.800546
1159.809365,-9474.636058,0.000000,2221.676944
1159.809686,-9770.718434,592.164754,995.924147
1159.810006,-9992.780217,740.205942,1149.143247
1159.810327,-10066.800811,740.205942,1225.752797
1159.810647,-10214.842000,888.247130,1455.581446
1159.810968,-9844.739029,148.041188,1072.533697
1159.811289,-9918.759623,-222.061783,612.876398
1159.811609,-9474.636058,-666.185348,1072.533697
1159.811930,-9474.636058,-888.247130,766.095498
1159.812251,-9770.718434,-888.247130,842.705048
1159.812571,-9400.615463,-444.123565,153.219100
1159.812892,-8956.491898,-148.041188,0.000000
1159.813212,-9326.594869,148.041188,76.609550
1159.813533,-9474.636058,296.082377,229.828649
1159.813854,-9696.697840,592.164754,689.485948
1159.814174,-9918.759623,444.123565,1072.533697
1159.814495,-10214.842000,370.102971,1762.019645
1159.814816,-10066.800811,0.000000,2068.457845
1159.815136,-9548.656652,-518.144159,2374.896044
1159.815457,-9474.636058,-1110.308913,1915.238745
1159.815777,-9400.615463,-1480.411884,1762.019645
1159.816098,-9104.533087,-1850.514855,1302.362347
1159.816419,-8734.430116,-1924.535449,2757.943793
1159.816739,-8808.450710,-1554.432478,1225.752797
1159.817060,-9178.553681,-1036.288319,1225.752797
1159.817381,-9474.636058,-740.205942,1072.533697
1159.817701,-9622.677246,74.020594,766.095498
1159.818022,-9622.677246,148.041188,1302.362347
1159.818342,-10066.800811,0.000000,1302.362347
1159.818663,-9918.759623,0.000000,1608.800546
1159.818984,-10214.842000,-296.082377,1149.143247
1159.819304,-9992.780217,-296.082377,1225.752797
1159.819625,-9770.718434,-888.247130,919.314598
1159.819945,-9622.677246,-814.226536,536.266849
1159.820266,-9400.615463,-740.205942,153.219100
1159.820587,-8660.409521,-444.123565,-229.828649
1159.820907,-9474.636058,74.020594,0.000000
1159.821228,-9622.677246,444.123565,0.000000
1159.821549,-9622.677246,740.205942,153.219100
1159.821869,-9770.718434,1850.514855,1838.629195
1159.822190,-9918.759623,1110.308913,689.485948
1159.822510,-9992.780217,740.205942,919.314598
1159.822831,-9770.718434,444.123565,1225.752797
1159.823152,-9844.739029,-148.041188,1608.800546
1159.823472,-9548.656652,-888.247130,1838.629195
1159.823793,-9474.636058,-1332.370696,2068.457845
1159.824114,-9474.636058,-1850.514855,2528.115143
1159.824434,-9474.636058,-2220.617826,2145.067394
1159.824755,-9104.533087,-2294.638420,2221.676944
1159.825075,-9252.574275,-1924.535449,1378.971896
1159.825396,-9178.553681,-1258.350101,1225.752797
1159.825717,-9400.615463,-370.102971,1072.533697
1159.826037,-9252.574275,0.000000,995.924147
1159.826358,-9992.780217,370.102971,919.314598
1159.826679,-9992.780217,444.123565,995.924147
1159.826999,-9992.780217,222.061783,1149.143247
1159.827320,-10066.800811,0.000000,842.705048
1159.827640,-10066.800811,0.000000,995.924147
1159.827961,-9844.739029,-444.123565,536.266849
1159.828282,-9474.636058,-740.205942,383.047749
1159.828602,-9474.636058,-666.185348,229.828649
1159.828923,-8956.491898,-592.164754,-306.438199
1159.829244,-9326.594869,-222.061783,-153.219100
1159.829564,-9252.574275,222.061783,0.000000
1159.829885,-9474.636058,518.144159,536.266849
1159.830205,-9696.697840,1258.350101,1455.581446
1159.830526,-9918.759623,740.205942,995.924147
1159.830847,-10066.800811,592.164754,1072.533697
1159.831167,-10066.800811,518.144159,1762.019645
1159.831488,-9844.739029,148.041188,1685.410096
1159.831809,-9548.656652,-592.164754,1838.629195
1159.832129,-9326.594869,-1332.370696,2221.676944
1159.832450,-9252.574275,-1924.535449,1762.019645
1159.832770,-9104.533087,-2072.576638,1302.362347
1159.833091,-8808.450710,-2368.659014,1072.533697
1159.833412,-8808.450710,-1332.370696,1608.800546
1159.833732,-9474.636058,-814.226536,1455.581446
1159.834053,-9474.636058,0.000000,1532.190996
1159.834373,-10140.821405,0.000000,2145.067394
1159.834694,-10066.800811,666.185348,1532.190996
1159.835015,-10140.821405,444.123565,1532.190996
1159.835335,-9918.759623,0.000000,1455.581446
1159.835656,-9992.780217,-296.082377,2834.553343
1159.835977,-9548.656652,-592.164754,689.485948
1159.836297,-9696.697840,-740.205942,1072.533697
1159.836618,-9474.636058,-1184.329507,612.876398
1159.836938,-9326.594869,-814.226536,0.000000
1159.837259,-8808.450710,0.000000,0.000000
1159.837580,-9326.594869,222.061783,0.000000
1159.837900,-9474.636058,518.144159,-229.828649
1159.838221,-9770.718434,1110.308913,0.000000
1159.838542,-9918.759623,1110.308913,459.657299
1159.838862,-10140.821405,1110.308913,766.095498
1159.839183,-10066.800811,518.144159,1302.362347
1159.839503,-9770.718434,74.020594,1608.800546
1159.839824,-9622.677246,-592.164754,1685.410096
1159.840145,-9918.759623,-1184.329507,1991.848295
1159.840465,-9326.594869,-1998.556043,2298.286494
1159.840786,-9326.594869,-2516.700203,2374.896044
1159.841107,-9178.553681,-2442.679609,2221.676944
1159.841427,-8956.491898,-1998.556043,1991.848295
1159.841748,-9030.512492,-1628.453072,1378.971896
1159.842068,-9252.574275,-888.247130,1608.800546
1159.842389,-9400.615463,-296.082377,1455.581446
1159.842710,-9622.677246,0.000000,1072.533697
1159.843030,-8956.491898,0.000000,1072.533697
1159.843351,-10066.800811,370.102971,766.095498
1159.843672,-10066.800811,666.185348,536.266849
1159.843992,-10288.862594,296.082377,842.705048
1159.844313,-10066.800811,0.000000,766.095498
1159.844633,-9844.739029,-592.164754,459.657299
1159.844954,-9474.636058,-962.267725,229.828649
1159.845275,-9474.636058,-962.267725,76.609550
1159.845595,-9474.636058,-592.164754,76.609550
1159.845916,-9474.636058,0.000000,0.000000
1159.846236,-9400.615463,296.082377,153.219100
1159.846557,-9548.656652,370.102971,306.438199
1159.846878,-9992.780217,592.164754,842.705048
1159.847198,-9622.677246,444.123565,1072.533697
1159.847519,-9918.759623,444.123565,1455.581446
1159.847840,-9770.718434,-222.061783,1838.629195
1159.848160,-9992.780217,-518.144159,1991.848295
1159.848481,-9696.697840,-740.205942,2451.505594
1159.848801,-9474.636058,-1628.453072,2145.067394
1159.849122,-9474.636058,-1628.453072,1608.800546
1159.849443,-9178.553681,-1332.370696,1991.848295
1159.849763,-9104.533087,-740.205942,1532.190996
1159.850084,-9326.594869,-444.123565,1225.752797
1159.850405,-9400.615463,0.000000,1225.752797
1159.850725,-9696.697840,518.144159,1378.971896
1159.851046,-9918.759623,444.123565,1455.581446
1159.851366,-11103.089130,1628.453072,1455.581446
1159.851687,-10066.800811,0.000000,1302.362347
1159.852008,-9696.697840,0.000000,1072.533697
1159.852328,-9844.739029,-370.102971,842.705048
1159.852649,-9474.636058,-222.061783,1378.971896
1159.852970,-9474.636058,-1258.350101,76.609550
1159.853290,-9252.574275,-1184.329507,-612.876398
1159.853611,-9030.512492,-740.205942,-459.657299
1159.853931,-9252.574275,0.000000,-536.266849
1159.854252,-9548.656652,370.102971,-306.438199
1159.854573,-9400.615463,814.226536,0.000000
1159.854893,-9548.656652,1036.288319,-306.438199
1159.855214,-9844.739029,1036.288319,76.609550
1159.855535,-9918.759623,814.226536,306.438199
1159.855855,-10066.800811,444.123565,1149.143247
1159.856176,-9992.780217,0.000000,1455.581446
1159.856496,-9622.677246,-444.123565,2145.067394
1159.856817,-10066.800811,0.000000,1991.848295
1159.857138,-9622.677246,-1702.473667,2834.553343
1159.857458,-9326.594869,-2072.576638,2604.724693
1159.857779,-9178.553681,-2072.576638,2451.505594
1159.858099,-9030.512492,-1924.535449,2221.676944
1159.858420,-9030.512492,-1110.308913,2145.067394
1159.858741,-9474.636058,-740.205942,1838.629195
1159.859061,-9622.677246,0.000000,1762.019645
1159.859382,-9844.739029,444.123565,1532.190996
1159.859703,-10288.862594,1036.288319,1225.752797
1159.860023,-10214.842000,814.226536,1455.581446
1159.860344,-10214.842000,518.144159,1532.190996
1159.860664,-10288.862594,222.061783,1072.533697
1159.860985,-9992.780217,-296.082377,1991.848295
1159.861306,-10140.821405,-592.164754,1072.533697
1159.861626,-9548.656652,-1110.308913,842.705048
1159.861947,-9252.574275,-740.205942,76.609550
1159.862268,-9474.636058,-518.144159,0.000000
1159.862588,-9474.636058,0.000000,-306.438199
1159.862909,-9474.636058,444.123565,-153.219100
1159.863229,-9622.677246,592.164754,306.438199
1159.863550,-9770.718434,666.185348,536.266849
1159.863871,-9178.553681,296.082377,919.314598
1159.864191,-9622.677246,370.102971,1302.362347
1159.864512,-9844.739029,0.000000,1685.410096
1159.864833,-9992.780217,-296.082377,1532.190996
1159.865153,-9474.636058,-592.164754,2298.286494
1159.865474,-9326.594869,-1628.453072,1608.800546
1159.865794,-8882.471304,-1998.556043,1378.971896
1159.866115,-8808.450710,-1850.514855,1378.971896
1159.866436,-9030.512492,-1406.391290,1302.362347
1159.866756,-9104.533087,-1332.370696,1302.362347
1159.867077,-9030.512492,-888.247130,1072.533697
1159.867398,-9326.594869,0.000000,1225.752797
1159.867718,-9548.656652,222.061783,1302.362347
1159.868039,-9918.759623,518.144159,1225.752797
1159.868359,-10066.800811,74.020594,1685.410096
1159.868680,-9844.739029,0.000000,1149.143247
1159.869001,-10066.800811,-370.102971,1225.752797
1159.869321,-9770.718434,-1036.288319,536.266849
1159.869642,-9474.636058,-1036.288319,612.876398
1159.869962,-9400.615463,-962.267725,229.828649
1159.870283,-9400.615463,-444.123565,76.609550
1159.870604,-9474.636058,148.041188,459.657299
1159.870924,-9400.615463,666.185348,0.000000
1159.871245,-9844.739029,1036.288319,0.000000
1159.871566,-9844.739029,1332.370696,459.657299
1159.871886,-10066.800811,1110.308913,612.876398
1159.872207,-9770.718434,1036.288319,459.657299
1159.872527,-10214.842000,1110.308913,1608.800546
1159.872848,-9992.780217,0.000000,1838.629195
1159.873169,-9844.739029,-666.185348,2451.505594
1159.873489,-9474.636058,-1332.370696,1532.190996
1159.873810,-9474.636058,-2220.617826,2681.334243
1159.874131,-9474.636058,-2368.659014,2528.115143
1159.874451,-9104.533087,-2590.720797,2451.505594
1159.874772,-9030.512492,-2368.659014,2145.067394
1159.875092,-9104.533087,-1332.370696,1762.019645
1159.875413,-9326.594869,-740.205942,1838.629195
1159.875734,-9474.636058,0.000000,1455.581446
1159.876054,-9474.636058,370.102971,1378.971896
1159.876375,-10066.800811,666.185348,1072.533697
1159.876696,-10066.800811,740.205942,995.924147
1159.877016,-10436.903782,592.164754,1378.971896
1159.877337,-10214.842000,0.000000,1532.190996
1159.877657,-10140.821405,0.000000,766.095498
1159.877978,-9548.656652,-814.226536,536.266849
1159.878299,-9252.574275,-814.226536,306.438199
1159.878619,-9326.594869,-962.267725,0.000000
1159.878940,-8808.450710,-740.205942,0.000000
1159.879261,-9474.636058,-518.144159,-306.438199
1159.879581,-9326.594869,0.000000,-229.828649
1159.879902,-9548.656652,370.102971,0.000000
1159.880222,-9696.697840,518.144159,153.219100
1159.880543,-9548.656652,814.226536,153.219100
1159.880864,-10066.800811,444.123565,689.485948
1159.881184,-9844.739029,148.041188,689.485948
1159.881505,-9696.697840,-148.041188,766.095498
1159.881825,-9178.553681,-962.267725,1608.800546
1159.882146,-9474.636058,-1332.370696,1378.971896
1159.882467,-9252.574275,-1776.494261,689.485948
1159.882787,-9030.512492,-1628.453072,919.314598
1159.883108,-9178.553681,-1406.391290,919.314598
1159.883429,-9400.615463,-1480.411884,919.314598
1159.883749,-9474.636058,-740.205942,1072.533697
1159.884070,-9474.636058,-518.144159,766.095498
1159.884390,-9918.759623,0.000000,842.705048
1159.884711,-9696.697840,74.020594,1072.533697
1159.885032,-10140.821405,74.020594,1225.752797
1159.885352,-9992.780217,74.020594,1378.971896
1159.885673,-9918.759623,0.000000,1072.533697
1159.885994,-9178.553681,-444.123565,0.000000
1159.886314,-9696.697840,-814.226536,536.266849
1159.886635,-9474.636058,-444.123565,536.266849
1159.886956,-9548.656652,-296.082377,229.828649
1159.887277,-9474.636058,296.082377,0.000000
1159.887597,-9548.656652,666.185348,0.000000
1159.887918,-9548.656652,1258.350101,536.266849
1159.888239,-9918.759623,1332.370696,842.705048
1159.888560,-10066.800811,1406.391290,1072.533697
1159.888880,-10066.800811,1036.288319,1455.581446
1159.889201,-9918.759623,148.041188,1608.800546
1159.889522,-9696.697840,0.000000,2374.896044
1159.889843,-9696.697840,-592.164754,2374.896044
1159.890164,-8660.409521,-2294.638420,2911.162892
1159.890484,-9178.553681,-2146.597232,2987.772442
1159.890805,-9030.512492,-2516.700203,2451.505594
1159.891126,-9030.512492,-2442.679609,2145.067394
1159.891447,-8882.471304,-2146.597232,2068.457845
1159.891767,-8956.491898,-1184.329507,2068.457845
1159.892088,-9178.553681,-370.102971,1532.190996
1159.892409,-9474.636058,-296.082377,1378.971896
1159.892730,-9622.677246,0.000000,995.924147
1159.893050,-9918.759623,370.102971,1455.581446
1159.893371,-9992.780217,296.082377,1302.362347
1159.893692,-9992.780217,74.020594,1149.143247
1159.894013,-9918.759623,0.000000,919.314598
1159.894333,-9474.636058,-814.226536,689.485948
1159.894654,-9622.677246,-740.205942,306.438199
1159.894975,-9548.656652,-814.226536,0.000000
1159.895296,-9400.615463,-592.164754,76.609550
1159.895616,-9548.656652,-592.164754,-229.828649
1159.895937,-9474.636058,0.000000,-536.266849
1159.896258,-9474.636058,666.185348,-612.876398
1159.896579,-9918.759623,962.267725,-306.438199
1159.896899,-9770.718434,1110.308913,153.219100
1159.897220,-10362.883188,74.020594,-1149.143247
1159.897541,-10140.821405,74.020594,306.438199
1159.897862,-9992.780217,-444.123565,995.924147
1159.898182,-9992.780217,-592.164754,919.314598
1159.898503,-9030.512492,-1036.288319,2451.505594
1159.898824,-9474.636058,-1998.556043,1608.800546
1159.899145,-9178.553681,-1850.514855,1225.752797
1159.899465,-9030.512492,-1554.432478,1149.143247
1159.899786,-9326.594869,-1110.308913,1532.190996
1159.900107,-9252.574275,-296.082377,1302.362347
1159.900428,-9400.615463,0.000000,1302.362347
1159.900748,-9474.636058,222.061783,1225.752797
1159.901069,-9770.718434,592.164754,1762.019645
1159.901390,-10140.821405,148.041188,1762.019645
1159.901711,-10214.842000,-370.102971,2298.286494
1159.902031,-10288.862594,-370.102971,2145.067394
1159.902352,-9770.718434,-592.164754,1915.238745
1159.902673,-9104.533087,-592.164754,3064.381992
1159.902994,-9474.636058,-888.247130,1302.362347
1159.903314,-9178.553681,-888.247130,919.314598
1159.903635,-9104.533087,-666.185348,229.828649
1159.903956,-9104.533087,0.000000,0.000000
1159.904277,-9400.615463,296.082377,0.000000
1159.904597,-9400.615463,1036.288319,459.657299
1159.904918,-9696.697840,1110.308913,766.095498
1159.905239,-9992.780217,1110.308913,1072.533697
1159.905560,-10214.842000,1258.350101,1225.752797
1159.905880,-10066.800811,148.041188,1915.238745
1159.906201,-9844.739029,-444.123565,2068.457845
1159.906522,-9474.636058,-1332.370696,2528.115143
1159.906843,-9400.615463,-1702.473667,2528.115143
1159.907163,-9178.553681,-2220.617826,2911.162892
1159.907484,-9104.533087,-2590.720797,2604.724693
1159.907805,-8956.491898,-2516.700203,2145.067394
1159.908126,-9030.512492,-2146.597232,2221.676944
1159.908446,-9104.533087,-1480.411884,2298.286494
1159.908767,-9030.512492,-592.164754,1608.800546
1159.909088,-9474.636058,0.000000,995.924147
1159.909409,-9622.677246,666.185348,689.485948
1159.909730,-9548.656652,222.061783,1302.362347
1159.910050,-10214.842000,740.205942,536.266849
1159.910371,-10584.944971,592.164754,0.000000
1159.910692,-10362.883188,370.102971,536.266849
1159.911013,-9992.780217,-74.020594,-459.657299
1159.911333,-9770.718434,-296.082377,76.609550
1159.911654,-9622.677246,-740.205942,0.000000
1159.911975,-9474.636058,-740.205942,-383.047749
1159.912296,-9474.636058,-444.123565,-842.705048
1159.912616,-9104.533087,0.000000,-612.876398
1159.912937,-9474.636058,444.123565,-536.266849
1159.913258,-9548.656652,962.267725,-459.657299
1159.913579,-9622.677246,1110.308913,-153.219100
1159.913899,-9992.780217,1036.288319,0.000000
1159.914220,-10066.800811,518.144159,689.485948
1159.914541,-10066.800811,222.061783,1302.362347
1159.914862,-9992.780217,-444.123565,1685.410096
1159.915182,-9622.677246,-666.185348,1838.629195
1159.915503,-9622.677246,-1406.391290,2068.457845
1159.915824,-8956.491898,-1998.556043,1762.019645
1159.916145,-8956.491898,-1702.473667,1762.019645
1159.916465,-8882.471304,-1110.308913,1838.629195
1159.916786,-8956.491898,-1110.308913,1532.190996
1159.917107,-8956.491898,-592.164754,1302.362347
1159.917428,-9104.533087,-296.082377,1608.800546
1159.917748,-9622.677246,-222.061783,1838.629195
1159.918069,-9918.759623,-444.123565,1991.848295
1159.918390,-9770.718434,-370.102971,2221.676944
1159.918711,-9992.780217,-444.123565,2374.896044
1159.919031,-9992.780217,-740.205942,2068.457845
1159.919352,-9844.739029,-592.164754,2604.724693
1159.919673,-9474.636058,-888.247130,1762.019645
1159.919994,-9252.574275,-962.267725,689.485948
1159.920314,-9178.553681,-740.205942,689.485948
1159.920635,-9474.636058,0.000000,306.438199
1159.920956,-9474.636058,518.144159,383.047749
1159.921277,-9474.636058,888.247130,229.828649
1159.921597,-9770.718434,1332.370696,306.438199
1159.921918,-9844.739029,1184.329507,689.485948
1159.922239,-9844.739029,1110.308913,2604.724693
1159.922560,-10066.800811,518.144159,1455.581446
1159.922880,-9992.780217,0.000000,1685.410096
1159.923201,-9918.759623,-1110.308913,2298.286494
1159.923522,-9622.677246,-1480.411884,4519.963438
1159.923843,-9696.697840,-1998.556043,2604.724693
1159.924163,-9474.636058,-2146.597232,2451.505594
1159.924484,-9178.553681,-2146.597232,1991.848295
1159.924805,-9178.553681,-1998.556043,1608.800546
1159.925126,-9400.615463,-888.247130,1149.143247
1159.925446,-9400.615463,-444.123565,1378.971896
1159.925767,-9326.594869,0.000000,919.314598
1159.926088,-9918.759623,370.102971,766.095498
1159.926409,-10214.842000,740.205942,689.485948
1159.926729,-10140.821405,296.082377,536.266849
1159.927050,-10140.821405,296.082377,536.266849
1159.927371,-9918.759623,222.061783,766.095498
1159.927692,-10066.800811,0.000000,919.314598
1159.928013,-9696.697840,-666.185348,306.438199
1159.928333,-9548.656652,-296.082377,0.000000
1159.928654,-9474.636058,-370.102971,-306.438199
1159.928975,-9178.553681,0.000000,-229.828649
1159.929296,-9178.553681,0.000000,-612.876398
1159.929616,-9326.594869,592.164754,0.000000
1159.929937,-9548.656652,666.185348,229.828649
1159.930258,-9770.718434,370.102971,536.266849
1159.930579,-9252.574275,0.000000,0.000000
1159.930899,-9844.739029,0.000000,1072.533697
1159.931220,-9844.739029,0.000000,1838.629195
1159.931541,-9474.636058,-518.144159,1532.190996
1159.931862,-9474.636058,-962.267725,1762.019645
1159.932182,-8956.491898,-1554.432478,1915.238745
1159.932503,-9030.512492,-1850.514855,1532.190996
1159.932824,-9030.512492,-1554.432478,1608.800546
1159.933145,-8808.450710,-1480.411884,919.314598
1159.933465,-9326.594869,-740.205942,919.314598
1159.933786,-9252.574275,74.020594,995.924147
1159.934107,-9622.677246,444.123565,1455.581446
1159.934428,-10066.800811,592.164754,1991.848295
1159.934748,-10288.862594,222.061783,3217.601092
1159.935069,-10066.800811,0.000000,1608.800546
1159.935390,-10362.883188,-296.082377,1608.800546
1159.935711,-9992.780217,-666.185348,1838.629195
1159.936031,-9548.656652,-962.267725,1762.019645
1159.936352,-9474.636058,-888.247130,689.485948
1159.936673,-9474.636058,-962.267725,306.438199
1159.936994,-9326.594869,-518.144159,0.000000
1159.937314,-9474.636058,148.041188,76.609550
1159.937635,-9548.656652,666.185348,76.609550
1159.937956,-9770.718434,1036.288319,76.609550
1159.938277,-9844.739029,1184.329507,383.047749
1159.938597,-10066.800811,1036.288319,689.485948
1159.938918,-9400.615463,0.000000,766.095498
1159.939239,-9770.718434,148.041188,1378.971896
1159.939560,-9844.739029,-444.123565,1915.238745
1159.939880,-9622.677246,-1184.329507,2145.067394
1159.940201,-9474.636058,-1628.453072,1072.533697
1159.940522,-9326.594869,-2516.700203,2221.676944
1159.940843,-9252.574275,-2368.659014,2451.505594
1159.941163,-8956.491898,-2886.803174,2145.067394
1159.941484,-9252.574275,-1850.514855,1838.629195
1159.941805,-8956.491898,-1036.288319,1608.800546
1159.942126,-9252.574275,-518.144159,1225.752797
1159.942446,-9548.656652,222.061783,1225.752797
1159.942767,-9622.677246,148.041188,1149.143247
1159.943088,-10066.800811,518.144159,995.924147
1159.943409,-9918.759623,74.020594,1072.533697
1159.943729,-9992.780217,74.020594,536.266849
1159.944050,-10066.800811,-148.041188,459.657299
1159.944371,-9548.656652,-740.205942,1072.533697
1159.944692,-9696.697840,-1332.370696,229.828649
1159.945012,-9400.615463,-1184.329507,76.609550
1159.945333,-9474.636058,-740.205942,-153.219100
1159.945654,-9474.636058,-296.082377,-153.219100
1159.945975,-9474.636058,370.102971,-536.266849
1159.946296,-9474.636058,666.185348,0.000000
1159.946616,-9918.759623,1036.288319,76.609550
1159.946937,-9992.780217,1110.308913,536.266849
1159.947258,-10140.821405,1258.350101,1149.143247
1159.947579,-10066.800811,296.082377,1302.362347
1159.947899,-10140.821405,-296.082377,1455.581446
1159.948220,-9992.780217,-518.144159,1915.238745
1159.948541,-9548.656652,-1332.370696,2451.505594
1159.948862,-9474.636058,-1332.370696,1762.019645
1159.949182,-9326.594869,-1554.432478,1302.362347
1159.949503,-8956.491898,-1184.329507,1378.971896
1159.949824,-9178.553681,-666.185348,1302.362347
1159.950145,-9030.512492,-370.102971,1378.971896
1159.950465,-9474.636058,0.000000,1378.971896
1159.950786,-9474.636058,370.102971,1608.800546
1159.951107,-10066.800811,296.082377,1608.800546
1159.951428,-10732.986159,296.082377,2145.067394
1159.951748,-10066.800811,-222.061783,2068.457845
1159.952069,-9918.759623,-370.102971,1762.019645
1159.952390,-9622.677246,-518.144159,1915.238745
1159.952711,-9474.636058,-1332.370696,842.705048
1159.953031,-9474.636058,-814.226536,612.876398
1159.953352,-9104.533087,-814.226536,383.047749
1159.953673,-9400.615463,-444.123565,-306.438199
1159.953994,-9326.594869,296.082377,153.219100
1159.954314,-9548.656652,1036.288319,-153.219100
1159.954635,-9622.677246,1406.391290,76.609550
1159.954956,-9844.739029,1406.391290,459.657299
1159.955277,-9844.739029,1258.350101,536.266849
1159.955597,-10066.800811,814.226536,1378.971896
1159.955918,-9548.656652,222.061783,1838.629195
1159.956239,-9548.656652,-444.123565,1838.629195
1159.956560,-9400.615463,-962.267725,2145.067394
1159.956880,-8956.491898,-1554.432478,3370.820191
1159.957201,-9030.512492,-2442.679609,2221.676944
1159.957522,-8586.388927,-2368.659014,1991.848295
1159.957843,-9030.512492,-2146.597232,1838.629195
1159.958163,-9178.553681,-1406.391290,1915.238745
1159.958484,-9400.615463,-962.267725,1685.410096
1159.958805,-9622.677246,-222.061783,1762.019645
1159.959126,-9696.697840,0.000000,1149.143247
1159.959446,-10066.800811,148.041188,919.314598
1159.959767,-10288.862594,740.205942,1455.581446
1159.960088,-10288.862594,592.164754,766.095498
1159.960409,-9992.780217,740.205942,689.485948
1159.960729,-9992.780217,0.000000,919.314598
1159.961050,-10362.883188,-296.082377,229.828649
1159.961371,-9992.780217,-740.205942,383.047749
1159.961692,-9474.636058,-962.267725,153.219100
1159.962012,-9474.636058,-666.185348,229.828649
1159.962333,-9326.594869,-444.123565,306.438199
1159.962654,-9548.656652,0.000000,229.828649
1159.962975,-9548.656652,296.082377,459.657299
1159.963295,-9844.739029,518.144159,229.828649
1159.963616,-9844.739029,518.144159,689.485948
1159.963937,-10066.800811,222.061783,995.924147
1159.964258,-9992.780217,222.061783,1608.800546
1159.964579,-9844.739029,-296.082377,1532.190996
1159.964899,-9770.718434,-444.123565,1991.848295
1159.965220,-9400.615463,-1332.370696,1532.190996
1159.965541,-9178.553681,-1924.535449,1838.629195
1159.965862,-9030.512492,-2146.597232,2068.457845
1159.966182,-9178.553681,-1850.514855,1915.238745
1159.966503,-9178.553681,-1406.391290,1762.019645
1159.966824,-8808.450710,-740.205942,1455.581446
1159.967145,-9474.636058,-444.123565,1608.800546
1159.967465,-9696.697840,74.020594,1532.190996
1159.967786,-9770.718434,148.041188,1532.190996
1159.968107,-9474.636058,-222.061783,1302.362347
1159.968428,-9696.697840,-296.082377,1378.971896
1159.968748,-9918.759623,-592.164754,1302.362347
1159.969069,-9622.677246,-592.164754,995.924147
1159.969390,-9770.718434,-1406.391290,612.876398
1159.969711,-9400.615463,-1036.288319,0.000000
1159.970031,-9474.636058,-592.164754,0.000000
1159.970352,-9474.636058,-444.123565,-459.657299
1159.970673,-9474.636058,370.102971,0.000000
1159.970994,-9548.656652,888.247130,-229.828649
1159.971314,-9770.718434,1110.308913,-306.438199
1159.971635,-9992.780217,962.267725,-229.828649
1159.971956,-10066.800811,1036.288319,153.219100
1159.972277,-9474.636058,518.144159,689.485948
1159.972597,-9992.780217,222.061783,1149.143247
1159.972918,-9696.697840,0.000000,1608.800546
1159.973239,-9548.656652,-740.205942,1991.848295
1159.973560,-9548.656652,-2146.597232,0.000000
1159.973880,-9326.594869,-1850.514855,1991.848295
1159.974201,-9178.553681,-2146.597232,1532.190996
1159.974522,-8956.491898,-1998.556043,1762.019645
1159.974843,-9326.594869,-1480.411884,2145.067394
1159.975163,-9400.615463,-888.247130,1302.362347
1159.975484,-9622.677246,-296.082377,1302.362347
1159.975805,-9696.697840,222.061783,1149.143247
1159.976126,-9992.780217,518.144159,919.314598
1159.976446,-9918.759623,666.185348,1302.362347
1159.976767,-9992.780217,370.102971,919.314598
1159.977088,-9992.780217,74.020594,766.095498
1159.977409,-9696.697840,-148.041188,919.314598
1159.977729,-9844.739029,0.000000,612.876398
1159.978050,-9400.615463,-1110.308913,842.705048
1159.978371,-9400.615463,-814.226536,536.266849
1159.978692,-9178.553681,-740.205942,0.000000
1159.979012,-9474.636058,0.000000,306.438199
1159.979333,-9252.574275,296.082377,76.609550
1159.979654,-9548.656652,814.226536,306.438199
1159.979975,-9770.718434,1036.288319,612.876398
1159.980295,-9844.739029,740.205942,612.876398
1159.980616,-10066.800811,370.102971,1302.362347
1159.980937,-9992.780217,74.020594,1455.581446
1159.981258,-9696.697840,0.000000,1762.019645
1159.981578,-9400.615463,-814.226536,1838.629195
1159.981899,-9030.512492,-1480.411884,2987.772442
1159.982220,-9178.553681,-1776.494261,1532.190996
1159.982541,-9030.512492,-1924.535449,1225.752797
1159.982862,-9252.574275,-1258.350101,1225.752797
1159.983182,-9178.553681,-888.247130,1378.971896
1159.983503,-9104.533087,-370.102971,1378.971896
1159.983824,-9548.656652,-222.061783,1072.533697
1159.984145,-9770.718434,370.102971,1149.143247
1159.984465,-10288.862594,518.144159,1455.581446
1159.984786,-10436.903782,296.082377,1302.362347
1159.985107,-10214.842000,-444.123565,1302.362347
1159.985428,-9992.780217,-148.041188,1225.752797
1159.985748,-9844.739029,-518.144159,919.314598
1159.986069,-9104.533087,-1184.329507,2145.067394
1159.986390,-9178.553681,-1184.329507,383.047749
1159.986711,-9252.574275,-888.247130,0.000000
1159.987031,-9400.615463,0.000000,-459.657299
1159.987352,-9622.677246,518.144159,0.000000
1159.987673,-9548.656652,666.185348,0.000000
1159.987994,-9844.739029,1036.288319,0.000000
1159.988314,-9844.739029,740.205942,306.438199
1159.988635,-9918.759623,592.164754,459.657299
1159.988956,-10066.800811,444.123565,919.314598
1159.989277,-10066.800811,0.000000,1378.971896
1159.989597,-9844.739029,-814.226536,1838.629195
1159.989918,-9548.656652,-1406.391290,2298.286494
1159.990239,-9104.533087,-1480.411884,2604.724693
1159.990560,-9326.594869,-2294.638420,2757.943793
1159.990881,-9030.512492,-2516.700203,2451.505594
1159.991201,-8882.471304,-2072.576638,2374.896044
1159.991522,-9030.512492,-1480.411884,2068.457845
1159.991843,-9252.574275,-592.164754,1991.848295
1159.992164,-9252.574275,0.000000,1302.362347
1159.992484,-9474.636058,296.082377,1149.143247
1159.992805,-9844.739029,444.123565,842.705048
1159.993126,-9770.718434,962.267725,1685.410096
1159.993447,-10140.821405,592.164754,919.314598
1159.993768,-9918.759623,148.041188,766.095498
1159.994088,-9770.718434,0.000000,842.705048
1159.994409,-9474.636058,-666.185348,1991.848295
1159.994730,-9474.636058,-962.267725,383.047749
1159.995051,-9474.636058,-1036.288319,153.219100
1159.995371,-9252.574275,-888.247130,153.219100
1159.995692,-9030.512492,-592.164754,0.000000
1159.996013,-9326.594869,0.000000,-229.828649
1159.996334,-9622.677246,518.144159,536.266849
1159.996655,-9474.636058,888.247130,536.266849
1159.996975,-9844.739029,888.247130,689.485948
1159.997296,-9622.677246,444.123565,766.095498
1159.997617,-9844.739029,444.123565,1149.143247
1159.997938,-9918.759623,0.000000,1455.581446
1159.998258,-9696.697840,-592.164754,1685.410096
1159.998579,-9252.574275,-1036.288319,1991.848295
1159.998900,-9326.594869,-1702.473667,1225.752797
1159.999221,-9178.553681,-1702.473667,995.924147
1159.999542,-9178.553681,-1406.391290,995.924147
1159.999862,-9178.553681,-1036.288319,1225.752797
1160.000183,-9548.656652,-518.144159,1072.533697
1160.000504,-9474.636058,-222.061783,995.924147
1160.000825,-9844.739029,148.041188,1455.581446
1160.001145,-10066.800811,0.000000,1378.971896
1160.001466,-10214.842000,-518.144159,1455.581446
1160.001787,-9992.780217,-296.082377,1149.143247
1160.002108,-9622.677246,-370.102971,1072.533697
1160.002429,-9696.697840,-592.164754,995.924147
1160.002749,-9474.636058,148.041188,229.828649
1160.003070,-9474.636058,-888.247130,153.219100
1160.003391,-9252.574275,-444.123565,-383.047749
1160.003712,-9400.615463,222.061783,-229.828649
1160.004032,-9548.656652,518.144159,76.609550
1160.004353,-9474.636058,1554.432478,76.609550
1160.004674,-9770.718434,1184.329507,459.657299
1160.004995,-9844.739029,1184.329507,612.876398
1160.005316,-9918.759623,962.267725,1072.533697
1160.005636,-9918.759623,370.102971,1072.533697
1160.005957,-9622.677246,148.041188,1762.019645
1160.006278,-9548.656652,-666.185348,2451.505594
1160.006599,-9474.636058,-1036.288319,2911.162892
1160.006919,-9326.594869,-2368.659014,2834.553343
1160.007240,-9104.533087,-2368.659014,2604.724693
1160.007561,-9178.553681,-2516.700203,2451.505594
1160.007882,-9030.512492,-2220.617826,2145.067394
1160.008203,-9030.512492,-1258.350101,1685.410096
1160.008523,-9548.656652,-518.144159,1532.190996
1160.008844,-9474.636058,-444.123565,1455.581446
1160.009165,-9474.636058,0.000000,1225.752797
1160.009486,-10362.883188,0.000000,1072.533697
1160.009806,-9992.780217,-148.041188,995.924147
1160.010127,-10362.883188,0.000000,1149.143247
1160.010448,-10066.800811,-370.102971,1225.752797
1160.010769,-9770.718434,-740.205942,1149.143247
1160.011090,-9474.636058,-814.226536,-383.047749
1160.011410,-9474.636058,-1184.329507,229.828649
1160.011731,-9252.574275,-1184.329507,306.438199
1160.012052,-9474.636058,-888.247130,229.828649
1160.012373,-9252.574275,-370.102971,-1149.143247
1160.012693,-9474.636058,444.123565,0.000000
1160.013014,-9696.697840,814.226536,153.219100
1160.013335,-9992.780217,740.205942,842.705048
1160.013656,-10066.800811,592.164754,1149.143247
1160.013977,-9992.780217,370.102971,766.095498
1160.014297,-9992.780217,-148.041188,1149.143247
1160.014618,-9844.739029,-592.164754,1608.800546
1160.014939,-9696.697840,-814.226536,1838.629195
1160.015260,-9252.574275,-1184.329507,612.876398
1160.015580,-9252.574275,-1332.370696,1149.143247
1160.015901,-9326.594869,-1184.329507,919.314598
1160.016222,-9252.574275,-1036.288319,1072.533697
1160.016543,-9400.615463,-518.144159,995.924147
1160.016864,-9474.636058,-296.082377,842.705048
1160.017184,-9474.636058,296.082377,536.266849
1160.017505,-9918.759623,444.123565,1302.362347
1160.017826,-10362.883188,814.226536,1149.143247
1160.018147,-10288.862594,888.247130,842.705048
1160.018467,-10214.842000,296.082377,766.095498
1160.018788,-9918.759623,0.000000,919.314598
1160.019109,-9770.718434,-592.164754,995.924147
1160.019430,-9474.636058,-962.267725,0.000000
1160.019751,-9326.594869,-814.226536,229.828649
1160.020071,-9400.615463,-444.123565,0.000000
1160.020392,-9252.574275,74.020594,-153.219100
1160.020713,-9622.677246,592.164754,842.705048
1160.021034,-9548.656652,1110.308913,0.000000
1160.021354,-9770.718434,1184.329507,153.219100
1160.021675,-9844.739029,962.267725,536.266849
1160.021996,-9918.759623,888.247130,766.095498
1160.022317,-9844.739029,666.185348,2068.457845
1160.022638,-9770.718434,0.000000,2145.067394
1160.022958,-9474.636058,-518.144159,1991.848295
1160.023279,-9474.636058,-666.185348,2451.505594
1160.023600,-9622.677246,-1480.411884,2834.553343
1160.023921,-9474.636058,-1480.411884,2911.162892
1160.024241,-9178.553681,-1702.473667,2451.505594
1160.024562,-8956.491898,-1776.494261,2145.067394
1160.024883,-8734.430116,-1480.411884,536.266849
1160.025204,-9622.677246,-666.185348,1685.410096
1160.025525,-9474.636058,0.000000,1532.190996
1160.025845,-9770.718434,74.020594,1762.019645
1160.026166,-9918.759623,444.123565,1378.971896
1160.026487,-10140.821405,592.164754,919.314598
1160.026808,-10140.821405,518.144159,1225.752797
1160.027129,-9918.759623,0.000000,1455.581446
1160.027449,-9622.677246,-444.123565,689.485948
1160.027770,-9770.718434,-518.144159,306.438199
1160.028091,-9474.636058,-1110.308913,153.219100
1160.028412,-9474.636058,-888.247130,0.000000
1160.028732,-9474.636058,-666.185348,-153.219100
1160.029053,-9400.615463,-814.226536,-612.876398
1160.029374,-9622.677246,444.123565,-306.438199
1160.029695,-9770.718434,814.226536,0.000000
1160.030016,-10066.800811,1110.308913,229.828649
1160.030336,-9770.718434,740.205942,229.828649
1160.030657,-10066.800811,444.123565,919.314598
1160.030978,-9844.739029,74.020594,1072.533697
1160.031299,-9844.739029,0.000000,1685.410096
1160.031619,-9696.697840,-962.267725,2068.457845
1160.031940,-8734.430116,-1776.494261,2145.067394
1160.032261,-9104.533087,-1924.535449,1762.019645
1160.032582,-8956.491898,-1702.473667,1455.581446
1160.032903,-8956.491898,-1554.432478,1608.800546
1160.033223,-9474.636058,-666.185348,1838.629195
1160.033544,-9326.594869,-888.247130,1302.362347
1160.033865,-9548.656652,0.000000,1532.190996
1160.034186,-10140.821405,0.000000,2068.457845
1160.034506,-9992.780217,0.000000,2221.676944
1160.034827,-9844.739029,-222.061783,2145.067394
1160.035148,-9622.677246,-592.164754,1455.581446
1160.035469,-9622.677246,-740.205942,1838.629195
1160.035790,-9474.636058,-1036.288319,1455.581446
1160.036110,-9178.553681,-1332.370696,459.657299
1160.036431,-9104.533087,-1184.329507,229.828649
1160.036752,-8956.491898,-1110.308913,-536.266849
1160.037073,-9326.594869,-592.164754,-459.657299
1160.037393,-9252.574275,148.041188,1149.143247
1160.037714,-9548.656652,518.144159,-153.219100
1160.038035,-9844.739029,592.164754,0.000000
1160.038356,-9770.718434,740.205942,306.438199
1160.038677,-10066.800811,592.164754,689.485948
1160.038997,-10066.800811,296.082377,1455.581446
1160.039318,-9844.739029,-74.020594,1838.629195
1160.039639,-9696.697840,-962.267725,2221.676944
1160.039960,-9548.656652,-1184.329507,2451.505594
1160.040280,-9400.615463,-1850.514855,2604.724693
1160.040601,-9030.512492,-2368.659014,2145.067394
1160.040922,-8956.491898,-2220.617826,1991.848295
1160.041243,-9326.594869,-1702.473667,1532.190996
1160.041564,-9696.697840,-296.082377,459.657299
1160.041884,-9474.636058,-296.082377,1149.143247
1160.042205,-9844.739029,296.082377,1378.971896
1160.042526,-10066.800811,740.205942,919.314598
1160.042847,-10510.924376,1110.308913,1072.533697
1160.043167,-10288.862594,888.247130,1072.533697
1160.043488,-10288.862594,740.205942,766.095498
1160.043809,-10288.862594,148.041188,1149.143247
1160.044130,-9770.718434,-222.061783,842.705048
1160.044451,-9252.574275,-962.267725,766.095498
1160.044771,-9400.615463,-1184.329507,383.047749
1160.045092,-9178.553681,-888.247130,229.828649
1160.045413,-9252.574275,-666.185348,229.828649
1160.045734,-8290.306550,74.020594,76.609550
1160.046054,-9326.594869,296.082377,383.047749
1160.046375,-9474.636058,148.041188,383.047749
1160.046696,-9548.656652,444.123565,766.095498
1160.047017,-9844.739029,814.226536,1532.190996
1160.047338,-9770.718434,370.102971,1378.971896
1160.047658,-9770.718434,74.020594,1685.410096
1160.047979,-9770.718434,-296.082377,1838.629195
1160.048300,-9400.615463,-592.164754,1915.238745
1160.048621,-9178.553681,-1480.411884,1685.410096
1160.048941,-9030.512492,-1776.494261,1608.800546
1160.049262,-9030.512492,-1776.494261,1455.581446
1160.049583,-8956.491898,-1110.308913,1149.143247
1160.049904,-9252.574275,-222.061783,1149.143247
1160.050225,-9474.636058,0.000000,1072.533697
1160.050545,-9548.656652,0.000000,1378.971896
1160.050866,-9844.739029,148.041188,1378.971896
1160.051187,-10140.821405,222.061783,383.047749
1160.051508,-10066.800811,0.000000,1685.410096
1160.051828,-9992.780217,-370.102971,1455.581446
1160.052149,-9918.759623,-444.123565,1378.971896
1160.052470,-9696.697840,-666.185348,1072.533697
1160.052791,-9474.636058,-888.247130,383.047749
1160.053112,-9400.615463,-370.102971,-153.219100
1160.053432,-9474.636058,0.000000,-306.438199
1160.053753,-9326.594869,518.144159,-306.438199
1160.054074,-9844.739029,1110.308913,0.000000
1160.054395,-9992.780217,1480.411884,76.609550
1160.054715,-9992.780217,1184.329507,153.219100
1160.055036,-10362.883188,592.164754,536.266849
1160.055357,-10066.800811,74.020594,919.314598
1160.055678,-9918.759623,0.000000,1302.362347
1160.055999,-9622.677246,-222.061783,1685.410096
1160.056319,-9622.677246,-888.247130,1838.629195
1160.056640,-9474.636058,-1628.453072,2451.505594
1160.056961,-9326.594869,-2368.659014,2681.334243
1160.057282,-9104.533087,-2368.659014,2451.505594
1160.057602,-9178.553681,-2442.679609,1915.238745
1160.057923,-8882.471304,-1998.556043,1915.238745
1160.058244,-8660.409521,-1184.329507,2068.457845
1160.058565,-9178.553681,-222.061783,1685.410096
1160.058886,-9474.636058,0.000000,1302.362347
1160.059206,-9622.677246,444.123565,1378.971896
1160.059527,-10362.883188,1184.329507,919.314598
1160.059848,-10066.800811,370.102971,1302.362347
1160.060169,-10066.800811,74.020594,1225.752797
1160.060489,-9770.718434,-148.041188,1302.362347
1160.060810,-9622.677246,-814.226536,1072.533697
1160.061131,-9474.636058,-1258.350101,1149.143247
1160.061452,-9548.656652,-1184.329507,995.924147
1160.061773,-9474.636058,-1258.350101,766.095498
1160.062093,-9252.574275,-740.205942,306.438199
1160.062414,-9252.574275,148.041188,0.000000
1160.062735,-9474.636058,592.164754,229.828649
1160.063056,-9918.759623,888.247130,459.657299
1160.063376,-9770.718434,814.226536,689.485948
1160.063697,-9474.636058,296.082377,919.314598
1160.064018,-9696.697840,148.041188,1072.533697
1160.064339,-10066.800811,74.020594,1532.190996
1160.064660,-9918.759623,-296.082377,1838.629195
1160.064980,-9548.656652,-814.226536,1225.752797
1160.065301,-9400.615463,-1036.288319,1455.581446
1160.065622,-9400.615463,-1258.350101,1149.143247
1160.065943,-9474.636058,-1184.329507,1149.143247
1160.066263,-9474.636058,-1110.308913,1532.190996
1160.066584,-9326.594869,-1036.288319,919.314598
1160.066905,-9474.636058,-518.144159,536.266849
1160.067226,-9474.636058,222.061783,612.876398
1160.067547,-9918.759623,592.164754,1072.533697
1160.067867,-9474.636058,1110.308913,1225.752797
1160.068188,-10140.821405,296.082377,1072.533697
1160.068509,-9992.780217,0.000000,536.266849
1160.068830,-9918.759623,-518.144159,766.095498
1160.069150,-9622.677246,-592.164754,766.095498
1160.069471,-9474.636058,-1110.308913,306.438199
1160.069792,-9252.574275,-888.247130,76.609550
1160.070113,-9474.636058,-518.144159,0.000000
1160.070434,-9474.636058,74.020594,153.219100
1160.070754,-9548.656652,518.144159,612.876398
1160.071075,-9548.656652,814.226536,459.657299
1160.071396,-9622.677246,962.267725,459.657299
1160.071717,-9770.718434,888.247130,766.095498
1160.072037,-10362.883188,592.164754,1302.362347
1160.072358,-9844.739029,148.041188,2068.457845
1160.072679,-9696.697840,-444.123565,2145.067394
1160.073000,-9770.718434,-1332.370696,2451.505594
1160.073321,-9326.594869,-888.247130,2681.334243
1160.073641,-9474.636058,-1998.556043,2911.162892
1160.073962,-9252.574275,-2072.576638,2528.115143
1160.074283,-8956.491898,-1776.494261,1838.629195
1160.074604,-9104.533087,-1332.370696,1991.848295
1160.074924,-9326.594869,-666.185348,1685.410096
1160.075245,-9326.594869,-370.102971,1608.800546
1160.075566,-9622.677246,0.000000,1225.752797
1160.075887,-9548.656652,74.020594,1302.362347
1160.076208,-10732.986159,444.123565,229.828649
1160.076528,-10140.821405,370.102971,1378.971896
1160.076849,-10214.842000,222.061783,1532.190996
1160.077170,-9844.739029,-296.082377,919.314598
1160.077491,-9992.780217,-592.164754,612.876398
1160.077811,-9696.697840,-1036.288319,536.266849
1160.078132,-9474.636058,-1258.350101,0.000000
1160.078453,-9548.656652,-740.205942,-229.828649
1160.078774,-9548.656652,-444.123565,0.000000
1160.079095,-9400.615463,0.000000,-536.266849
1160.079415,-9622.677246,518.144159,0.000000
1160.079736,-9770.718434,888.247130,0.000000
1160.080057,-9918.759623,740.205942,0.000000
1160.080378,-10658.965565,592.164754,-229.828649
1160.080698,-9918.759623,370.102971,919.314598
1160.081019,-9992.780217,-370.102971,1072.533697
1160.081340,-9770.718434,-962.267725,1302.362347
1160.081661,-9474.636058,-1776.494261,842.705048
1160.081982,-9474.636058,-1554.432478,1378.971896
1160.082302,-9252.574275,-1480.411884,1072.533697
1160.082623,-9104.533087,-1110.308913,1302.362347
1160.082944,-9030.512492,-962.267725,1072.533697
1160.083265,-9252.574275,-222.061783,766.095498
1160.083585,-9474.636058,0.000000,842.705048
1160.083906,-9474.636058,74.020594,919.314598
1160.084227,-9696.697840,74.020594,1762.019645
1160.084548,-9548.656652,0.000000,1685.410096
1160.084869,-10066.800811,-222.061783,1991.848295
1160.085189,-9548.656652,-666.185348,1991.848295
1160.085510,-9622.677246,-962.267725,1838.629195
1160.085831,-10288.862594,-1184.329507,1455.581446
1160.086152,-9252.574275,-1406.391290,766.095498
1160.086472,-9252.574275,-1110.308913,689.485948
1160.086793,-9104.533087,-296.082377,229.828649
1160.087114,-9326.594869,148.041188,459.657299
1160.087435,-9622.677246,888.247130,459.657299
1160.087756,-9770.718434,1184.329507,536.266849
1160.088076,-9770.718434,1184.329507,689.485948
1160.088397,-9844.739029,962.267725,919.314598
1160.088718,-9918.759623,1184.329507,1608.800546
1160.089039,-9918.759623,148.041188,1915.238745
1160.089359,-9622.677246,-370.102971,1838.629195
1160.089680,-9770.718434,-1110.308913,2528.115143
1160.090001,-9548.656652,-1702.473667,2911.162892
1160.090322,-9326.594869,-2220.617826,2451.505594
1160.090643,-9178.553681,-2664.741391,2374.896044
1160.090963,-9178.553681,-2220.617826,1991.848295
1160.091284,-9326.594869,-1332.370696,2451.505594
1160.091605,-8956.491898,-222.061783,383.047749
1160.091926,-9474.636058,-222.061783,1225.752797
1160.092247,-9622.677246,666.185348,1225.752797
1160.092568,-9844.739029,592.164754,766.095498
1160.092888,-10140.821405,370.102971,612.876398
1160.093209,-9622.677246,592.164754,383.047749
1160.093530,-10436.903782,0.000000,612.876398
1160.093851,-9770.718434,222.061783,919.314598
1160.094172,-9844.739029,-888.247130,0.000000
1160.094493,-9548.656652,-1480.411884,1685.410096
1160.094813,-9400.615463,-1406.391290,-383.047749
1160.095134,-9474.636058,-1258.350101,-459.657299
1160.095455,-9474.636058,-296.082377,-153.219100
1160.095776,-9178.553681,148.041188,-536.266849
1160.096097,-9400.615463,518.144159,0.000000
1160.096418,-9474.636058,666.185348,-229.828649
1160.096739,-9918.759623,814.226536,0.000000
1160.097059,-10140.821405,370.102971,612.876398
1160.097380,-9918.759623,370.102971,689.485948
1160.097701,-9696.697840,-222.061783,995.924147
1160.098022,-9918.759623,-592.164754,1455.581446
1160.098343,-9474.636058,-1184.329507,1685.410096
1160.098664,-9474.636058,-1702.473667,2757.943793
1160.098984,-9252.574275,-1776.494261,689.485948
1160.099305,-9104.533087,-1036.288319,842.705048
1160.099626,-9326.594869,-1036.288319,919.314598
1160.099947,-9474.636058,-444.123565,1149.143247
1160.100268,-9326.594869,0.000000,689.485948
1160.100589,-9548.656652,0.000000,919.314598
1160.100909,-9992.780217,0.000000,1072.533697
1160.101230,-10066.800811,0.000000,1532.190996
1160.101551,-10436.903782,74.020594,1915.238745
1160.101872,-9918.759623,-296.082377,1378.971896
1160.102193,-9696.697840,-222.061783,1302.362347
1160.102514,-9696.697840,-592.164754,1072.533697
1160.102834,-9474.636058,-740.205942,1838.629195
1160.103155,-9474.636058,-592.164754,459.657299
1160.103476,-9326.594869,0.000000,229.828649
1160.103797,-9548.656652,740.205942,153.219100
1160.104118,-9696.697840,1110.308913,229.828649
1160.104439,-9770.718434,1332.370696,459.657299
1160.104760,-9770.718434,1480.411884,383.047749
1160.105080,-9696.697840,1480.411884,766.095498
1160.105401,-10214.842000,740.205942,1685.410096
1160.105722,-9474.636058,0.000000,1915.238745
1160.106043,-9844.739029,-666.185348,2374.896044
1160.106364,-9474.636058,-1110.308913,2757.943793
1160.106685,-9474.636058,-1554.432478,2681.334243
1160.107005,-8956.491898,-1850.514855,2834.553343
1160.107326,-9252.574275,-2146.597232,2834.553343
1160.107647,-9400.615463,-1628.453072,2681.334243
1160.107968,-9104.533087,-962.267725,1991.848295
1160.108289,-9178.553681,-444.123565,1762.019645
1160.108610,-9252.574275,0.000000,1608.800546
1160.108930,-9474.636058,444.123565,919.314598
1160.109251,-9696.697840,518.144159,842.705048
1160.109572,-9992.780217,740.205942,459.657299
1160.109893,-10362.883188,74.020594,995.924147
1160.110214,-9918.759623,0.000000,1378.971896
1160.110535,-9770.718434,-666.185348,1072.533697
1160.110856,-9696.697840,-1036.288319,842.705048
1160.111176,-9696.697840,-1184.329507,0.000000
1160.111497,-9252.574275,-1554.432478,229.828649
1160.111818,-9400.615463,-1110.308913,76.609550
1160.112139,-9104.533087,-888.247130,0.000000
1160.112460,-9104.533087,-74.020594,-383.047749
1160.112781,-9474.636058,518.144159,0.000000
1160.113101,-9622.677246,592.164754,229.828649
1160.113422,-9770.718434,888.247130,383.047749
1160.113743,-9992.780217,592.164754,919.314598
1160.114064,-9770.718434,518.144159,1455.581446
1160.114385,-9918.759623,148.041188,1685.410096
1160.114706,-9696.697840,-370.102971,1532.190996
1160.115026,-9622.677246,-1184.329507,1762.019645
1160.115347,-9992.780217,-740.205942,766.095498
1160.115668,-9252.574275,-1554.432478,842.705048
1160.115989,-9178.553681,-1110.308913,995.924147
1160.116310,-9400.615463,-666.185348,1455.581446
1160.116631,-9474.636058,0.000000,2068.457845
1160.116951,-9474.636058,0.000000,1225.752797
1160.117272,-9770.718434,0.000000,1302.362347
1160.117593,-9992.780217,74.020594,1685.410096
1160.117914,-10214.842000,-222.061783,1225.752797
1160.118235,-10214.842000,0.000000,1225.752797
1160.118556,-9770.718434,-666.185348,1225.752797
1160.118877,-9918.759623,-518.144159,995.924147
1160.119197,-9548.656652,-740.205942,689.485948
1160.119518,-9474.636058,-962.267725,-306.438199
1160.119839,-9474.636058,-740.205942,153.219100
1160.120160,-9474.636058,-148.041188,-306.438199
1160.120481,-9474.636058,370.102971,0.000000
1160.120802,-9548.656652,1702.473667,-612.876398
1160.121122,-9844.739029,1406.391290,153.219100
1160.121443,-9696.697840,1110.308913,459.657299
1160.121764,-10066.800811,1110.308913,612.876398
1160.122085,-9622.677246,592.164754,1302.362347
1160.122406,-9548.656652,0.000000,1455.581446
1160.122727,-9474.636058,-370.102971,2298.286494
1160.123047,-9548.656652,-1036.288319,2757.943793
1160.123368,-9326.594869,-2146.597232,2911.162892
1160.123689,-9400.615463,-2442.679609,3447.429741
1160.124010,-9178.553681,-2812.782580,2681.334243
1160.124331,-9030.512492,-2146.597232,2298.286494
1160.124652,-9252.574275,-1332.370696,2451.505594
1160.124973,-8956.491898,-148.041188,1762.019645
1160.125293,-9178.553681,0.000000,1378.971896
1160.125614,-9474.636058,0.000000,1225.752797
1160.125935,-9548.656652,296.082377,1149.143247
1160.126256,-9918.759623,296.082377,1149.143247
1160.126577,-9992.780217,222.061783,995.924147
1160.126898,-9992.780217,0.000000,1225.752797
1160.127218,-10066.800811,0.000000,842.705048
1160.127539,-9918.759623,-592.164754,612.876398
1160.127860,-10436.903782,-592.164754,689.485948
1160.128181,-9474.636058,-1036.288319,383.047749
1160.128502,-9326.594869,-592.164754,0.000000
1160.128823,-9474.636058,0.000000,0.000000
1160.129143,-9400.615463,0.000000,-1302.362347
1160.129464,-9622.677246,962.267725,0.000000
1160.129785,-9918.759623,1110.308913,229.828649
1160.130106,-10214.842000,1332.370696,383.047749
1160.130427,-10214.842000,740.205942,919.314598
1160.130748,-10140.821405,518.144159,1149.143247
1160.131068,-10066.800811,0.000000,1532.190996
1160.131389,-9770.718434,-814.226536,1608.800546
1160.131710,-9474.636058,-1110.308913,1608.800546
1160.132031,-9548.656652,-1702.473667,1838.629195
1160.132352,-9104.533087,-1702.473667,1455.581446
1160.132673,-9178.553681,-1332.370696,919.314598
1160.132994,-9474.636058,-1332.370696,1149.143247
1160.133314,-8364.327145,-592.164754,2911.162892
1160.133635,-9770.718434,0.000000,1608.800546
1160.133956,-9696.697840,74.020594,1532.190996
1160.134277,-9992.780217,222.061783,1838.629195
1160.134598,-9992.780217,0.000000,1762.019645
1160.134919,-9770.718434,-148.041188,1532.190996
1160.135239,-9696.697840,-666.185348,1378.971896
1160.135560,-9400.615463,-962.267725,1149.143247
1160.135881,-9326.594869,-888.247130,842.705048
1160.136202,-8956.491898,-666.185348,306.438199
1160.136523,-9178.553681,-888.247130,0.000000
1160.136844,-9474.636058,0.000000,-153.219100
1160.137164,-9474.636058,296.082377,0.000000
1160.137485,-8512.368333,740.205942,76.609550
1160.137806,-9770.718434,814.226536,536.266849
1160.138127,-9844.739029,814.226536,766.095498
1160.138448,-10140.821405,444.123565,1225.752797
1160.138769,-9622.677246,0.000000,1455.581446
1160.139090,-9474.636058,-296.082377,1838.629195
1160.139410,-9400.615463,-666.185348,2145.067394
1160.139731,-9252.574275,-1036.288319,1838.629195
1160.140052,-9252.574275,-1480.411884,2068.457845
1160.140373,-8956.491898,-1998.556043,1685.410096
1160.140694,-9178.553681,-1850.514855,2068.457845
1160.141015,-9474.636058,-1554.432478,2145.067394
1160.141335,-9474.636058,-1184.329507,1915.238745
1160.141656,-10214.842000,370.102971,1072.533697
1160.141977,-9696.697840,0.000000,1455.581446
1160.142298,-9992.780217,296.082377,995.924147
1160.142619,-10140.821405,370.102971,995.924147
1160.142940,-10362.883188,148.041188,1685.410096
1160.143260,-10214.842000,0.000000,766.095498
1160.143581,-9770.718434,-296.082377,919.314598
1160.143902,-9844.739029,-518.144159,842.705048
1160.144223,-9474.636058,-962.267725,153.219100
1160.144544,-9696.697840,-1332.370696,0.000000
1160.144865,-9548.656652,-1332.370696,0.000000
1160.145185,-9474.636058,-814.226536,0.000000
1160.145506,-9474.636058,-518.144159,0.000000
1160.145827,-9844.739029,444.123565,0.000000
1160.146148,-9622.677246,740.205942,306.438199
1160.146469,-9844.739029,1036.288319,689.485948
1160.146790,-9770.718434,666.185348,766.095498
1160.147111,-10214.842000,592.164754,2757.943793
1160.147431,-9844.739029,148.041188,1838.629195
1160.147752,-9770.718434,-148.041188,2145.067394
1160.148073,-9400.615463,-814.226536,2221.676944
1160.148394,-9178.553681,-1480.411884,1915.238745
1160.148715,-8882.471304,-1776.494261,1455.581446
1160.149036,-8808.450710,-1998.556043,1302.362347
1160.149356,-8956.491898,-1628.453072,1302.362347
1160.149677,-9252.574275,-1184.329507,1149.143247
1160.149998,-9622.677246,148.041188,76.609550
1160.150319,-9696.697840,148.041188,1455.581446
1160.150640,-9770.718434,592.164754,1532.190996
1160.150961,-10362.883188,0.000000,1991.848295
1160.151281,-9844.739029,-370.102971,1072.533697
1160.151602,-9992.780217,-740.205942,1149.143247
1160.151923,-9844.739029,-740.205942,1378.971896
1160.152244,-9548.656652,-1110.308913,1302.362347
1160.152565,-9474.636058,-1258.350101,766.095498
1160.152886,-9474.636058,-592.164754,0.000000
1160.153207,-9252.574275,-296.082377,-306.438199
1160.153527,-9474.636058,74.020594,-383.047749
1160.153848,-9474.636058,888.247130,-536.266849
1160.154169,-9622.677246,1406.391290,383.047749
1160.154490,-10140.821405,1850.514855,76.609550
1160.154811,-10140.821405,1776.494261,229.828649
1160.155132,-10066.800811,1258.350101,766.095498
1160.155452,-10066.800811,666.185348,0.000000
1160.155773,-10066.800811,296.082377,1455.581446
1160.156094,-9844.739029,-222.061783,1991.848295
1160.156415,-9474.636058,-888.247130,2298.286494
1160.156736,-9326.594869,-1554.432478,2374.896044
1160.157057,-9326.594869,-1924.535449,2374.896044
1160.157377,-9400.615463,-2146.597232,2221.676944
1160.157698,-9104.533087,-1702.473667,1838.629195
1160.158019,-9104.533087,-1184.329507,1685.410096
1160.158340,-9474.636058,-148.041188,1225.752797
1160.158661,-9474.636058,296.082377,1378.971896
1160.158982,-9622.677246,666.185348,1072.533697
1160.159302,-9918.759623,814.226536,1149.143247
1160.159623,-9918.759623,666.185348,306.438199
1160.159944,-9918.759623,518.144159,919.314598
1160.160265,-10066.800811,0.000000,766.095498
1160.160586,-9696.697840,-296.082377,919.314598
1160.160907,-9548.656652,-1184.329507,536.266849
1160.161228,-9474.636058,-1110.308913,766.095498
1160.161548,-9400.615463,-1184.329507,383.047749
1160.161869,-9400.615463,-1036.288319,0.000000
1160.162190,-9252.574275,-296.082377,0.000000
1160.162511,-9178.553681,-148.041188,-383.047749
1160.162832,-9474.636058,888.247130,612.876398
1160.163153,-9770.718434,740.205942,919.314598
1160.163473,-9844.739029,666.185348,1149.143247
1160.163794,-9844.739029,148.041188,1149.143247
1160.164115,-9844.739029,0.000000,1608.800546
1160.164436,-9918.759623,-296.082377,2145.067394
1160.164757,-9474.636058,-888.247130,1991.848295
1160.165078,-9400.615463,-1332.370696,1762.019645
1160.165398,-8882.471304,-1924.535449,1455.581446
1160.165719,-9252.574275,-1480.411884,1378.971896
1160.166040,-9252.574275,-1110.308913,1225.752797
1160.166361,-9400.615463,-1036.288319,1225.752797
1160.166682,-9622.677246,-444.123565,1455.581446
1160.167003,-9844.739029,0.000000,1685.410096
1160.167324,-9918.759623,-222.061783,1838.629195
1160.167644,-9992.780217,-444.123565,1608.800546
1160.167965,-9770.718434,-1924.535449,1532.190996
1160.168286,-10066.800811,-666.185348,1302.362347
1160.168607,-9844.739029,-666.185348,1072.533697
1160.168928,-9992.780217,-814.226536,612.876398
1160.169249,-9474.636058,-888.247130,689.485948
1160.169569,-9474.636058,-814.226536,153.219100
1160.169890,-9474.636058,-666.185348,-306.438199
1160.170211,-9474.636058,0.000000,-306.438199
1160.170532,-9770.718434,370.102971,-306.438199
1160.170853,-9622.677246,962.267725,0.000000
1160.171174,-10214.842000,1184.329507,459.657299
1160.171494,-9844.739029,1036.288319,689.485948
1160.171815,-10066.800811,518.144159,612.876398
1160.172136,-10658.965565,74.020594,1149.143247
1160.172457,-9696.697840,-296.082377,1532.190996
1160.172778,-9622.677246,-814.226536,1915.238745
1160.173099,-9474.636058,-1480.411884,2298.286494
1160.173419,-9178.553681,-2368.659014,2681.334243
1160.173740,-9326.594869,-2294.638420,2298.286494
1160.174061,-9252.574275,-2220.617826,2145.067394
1160.174382,-9178.553681,-1776.494261,2221.676944
1160.174703,-9400.615463,-962.267725,2145.067394
1160.175024,-9474.636058,-148.041188,1915.238745
1160.175345,-9474.636058,370.102971,1455.581446
1160.175665,-9696.697840,666.185348,1455.581446
1160.175986,-9844.739029,592.164754,1302.362347
1160.176307,-10140.821405,0.000000,766.095498
1160.176628,-9770.718434,148.041188,1225.752797
1160.176949,-9844.739029,-222.061783,995.924147
1160.177270,-9770.718434,-444.123565,612.876398
1160.177590,-9622.677246,-740.205942,306.438199
1160.177911,-9326.594869,-1036.288319,306.438199
1160.178232,-9400.615463,-962.267725,459.657299
1160.178553,-9326.594869,-592.164754,229.828649
1160.178874,-9252.574275,-296.082377,0.000000
1160.179195,-9622.677246,0.000000,459.657299
1160.179515,-9696.697840,518.144159,306.438199
1160.179836,-9918.759623,444.123565,842.705048
1160.180157,-9992.780217,1036.288319,1072.533697
1160.180478,-10362.883188,222.061783,229.828649
1160.180799,-10066.800811,148.041188,1378.971896
1160.181120,-10066.800811,-370.102971,1915.238745
1160.181441,-9474.636058,-814.226536,1838.629195
1160.181761,-9474.636058,-1332.370696,1608.800546
1160.182082,-8882.471304,-1406.391290,1072.533697
1160.182403,-9474.636058,-962.267725,1225.752797
1160.182724,-9178.553681,-592.164754,1302.362347
1160.183045,-9326.594869,-148.041188,1149.143247
1160.183366,-9400.615463,0.000000,919.314598
1160.183686,-9844.739029,444.123565,995.924147
1160.184007,-9992.780217,666.185348,1532.190996
1160.184328,-10066.800811,370.102971,1532.190996
1160.184649,-9252.574275,-148.041188,612.876398
1160.184970,-9844.739029,-148.041188,995.924147
1160.185291,-9622.677246,-592.164754,1149.143247
1160.185611,-9548.656652,-740.205942,995.924147
1160.185932,-9400.615463,-1480.411884,0.000000
1160.186253,-9178.553681,-1036.288319,0.000000
1160.186574,-9104.533087,-740.205942,-229.828649
1160.186895,-9252.574275,0.000000,0.000000
1160.187216,-9548.656652,740.205942,229.828649
1160.187536,-9474.636058,1110.308913,306.438199
1160.187857,-9622.677246,814.226536,306.438199
1160.188178,-9548.656652,666.185348,306.438199
1160.188499,-9918.759623,518.144159,995.924147
1160.188820,-9474.636058,-518.144159,1225.752797
1160.189141,-9696.697840,-518.144159,1838.629195
1160.189462,-9400.615463,-1110.308913,2221.676944
1160.189782,-9252.574275,-1628.453072,2451.505594
1160.190103,-9474.636058,-2072.576638,3600.648841
1160.190424,-9400.615463,-2368.659014,2298.286494
1160.190745,-9030.512492,-1850.514855,2298.286494
1160.191066,-9326.594869,-1036.288319,1762.019645
1160.191387,-9326.594869,-222.061783,1685.410096
1160.191707,-9252.574275,148.041188,1608.800546
1160.192028,-9622.677246,666.185348,1378.971896
1160.192349,-9844.739029,740.205942,842.705048
1160.192670,-10955.047942,1258.350101,612.876398
1160.192991,-9696.697840,518.144159,1302.362347
1160.193312,-10362.883188,592.164754,1072.533697
1160.193633,-9992.780217,148.041188,919.314598
1160.193953,-9918.759623,-148.041188,842.705048
1160.194274,-9844.739029,-1036.288319,76.609550
1160.194595,-9474.636058,-740.205942,536.266849
1160.194916,-9622.677246,-666.185348,229.828649
1160.195237,-9400.615463,-370.102971,459.657299
1160.195558,-9400.615463,0.000000,306.438199
1160.195879,-9474.636058,296.082377,0.000000
1160.196199,-9622.677246,814.226536,612.876398
1160.196520,-9918.759623,666.185348,995.924147
1160.196841,-9918.759623,518.144159,1225.752797
1160.197162,-9252.574275,0.000000,919.314598
1160.197483,-9918.759623,-222.061783,1685.410096
1160.197804,-9696.697840,-666.185348,1838.629195
1160.198125,-9252.574275,-1184.329507,2221.676944
1160.198445,-8438.347739,-1998.556043,2298.286494
1160.198766,-8882.471304,-2294.638420,1455.581446
1160.199087,-8882.471304,-1924.535449,1149.143247
1160.199408,-9030.512492,-1480.411884,1455.581446
1160.199729,-9178.553681,-1036.288319,1225.752797
1160.200050,-9548.656652,-518.144159,1532.190996
1160.200371,-9400.615463,-148.041188,1838.629195
1160.200691,-10066.800811,-148.041188,1455.581446
1160.201012,-9918.759623,-296.082377,1608.800546
1160.201333,-10066.800811,-592.164754,1378.971896
1160.201654,-9770.718434,-888.247130,1225.752797
1160.201975,-9548.656652,-740.205942,1225.752797
1160.202296,-9548.656652,-962.267725,842.705048
1160.202617,-8586.388927,-1924.535449,1838.629195
1160.202937,-8882.471304,-740.205942,153.219100
1160.203258,-9622.677246,-592.164754,76.609550
1160.203579,-9696.697840,222.061783,76.609550
1160.203900,-9696.697840,518.144159,0.000000
1160.204221,-10066.800811,1036.288319,0.000000
1160.204542,-9770.718434,1184.329507,0.000000
1160.204863,-10066.800811,1184.329507,459.657299
1160.205183,-10066.800811,1036.288319,995.924147
1160.205504,-9548.656652,592.164754,919.314598
1160.205825,-10140.821405,296.082377,1838.629195
1160.206146,-9844.739029,-222.061783,2221.676944
1160.206467,-9844.739029,-1332.370696,2145.067394
1160.206788,-9770.718434,-2294.638420,1838.629195
1160.207109,-9178.553681,-2368.659014,2451.505594
1160.207429,-9400.615463,-2368.659014,2145.067394
1160.207750,-9326.594869,-1998.556043,1991.848295
1160.208071,-9252.574275,-1036.288319,1991.848295
1160.208392,-9474.636058,-296.082377,1302.362347
1160.208713,-9474.636058,74.020594,1378.971896
1160.209034,-9622.677246,740.205942,1302.362347
1160.209355,-9844.739029,666.185348,766.095498
1160.209675,-9696.697840,518.144159,766.095498
1160.209996,-10066.800811,74.020594,766.095498
1160.210317,-9770.718434,-370.102971,842.705048
1160.210638,-9770.718434,-592.164754,612.876398
1160.210959,-9548.656652,-962.267725,459.657299
1160.211280,-9474.636058,-962.267725,383.047749
1160.211601,-9104.533087,-814.226536,0.000000
1160.211921,-9178.553681,-740.205942,-229.828649
1160.212242,-9178.553681,0.000000,0.000000
1160.212563,-9400.615463,296.082377,153.219100
1160.212884,-9474.636058,592.164754,76.609550
1160.213205,-9770.718434,888.247130,612.876398
1160.213526,-9622.677246,666.185348,1072.533697
1160.213847,-9844.739029,444.123565,1685.410096
1160.214167,-9548.656652,0.000000,1685.410096
1160.214488,-9770.718434,-370.102971,1762.019645
1160.214809,-9474.636058,-1110.308913,2145.067394
1160.215130,-9474.636058,-1036.288319,2451.505594
1160.215451,-8956.491898,-1776.494261,1608.800546
1160.215772,-8882.471304,-1628.453072,1378.971896
1160.216093,-9104.533087,-962.267725,1455.581446
1160.216413,-9326.594869,-518.144159,2604.724693
1160.216734,-9548.656652,-222.061783,1838.629195
1160.217055,-9696.697840,0.000000,1762.019645
1160.217376,-9844.739029,444.123565,1991.848295
1160.217697,-10288.862594,222.061783,2374.896044
1160.218018,-10362.883188,-148.041188,1991.848295
1160.218339,-10214.842000,-370.102971,1532.190996
1160.218659,-9992.780217,-740.205942,1149.143247
1160.218980,-9696.697840,-962.267725,919.314598
1160.219301,-9918.759623,-1184.329507,383.047749
1160.219622,-9326.594869,-1184.329507,76.609550
1160.219943,-9326.594869,-370.102971,-229.828649
1160.220264,-9474.636058,148.041188,0.000000
1160.220585,-9548.656652,444.123565,-766.095498
1160.220905,-9696.697840,666.185348,76.609550
1160.221226,-9844.739029,740.205942,-153.219100
1160.221547,-9696.697840,666.185348,536.266849
1160.221868,-10066.800811,518.144159,459.657299
1160.222189,-9622.677246,0.000000,1072.533697
1160.222510,-9770.718434,-444.123565,1608.800546
1160.222831,-9474.636058,-1258.350101,1455.581446
1160.223151,-9326.594869,-1850.514855,1532.190996
1160.223472,-9400.615463,-2368.659014,1915.238745
1160.223793,-8882.471304,-2368.659014,1762.019645
1160.224114,-8808.450710,-2146.597232,2145.067394
1160.224435,-8882.471304,-1628.453072,1532.190996
1160.224756,-8660.409521,0.000000,919.314598
1160.225077,-9326.594869,0.000000,1532.190996
1160.225397,-9474.636058,0.000000,919.314598
1160.225718,-9696.697840,592.164754,536.266849
1160.226039,-10066.800811,518.144159,689.485948
1160.226360,-10288.862594,888.247130,995.924147
1160.226681,-10066.800811,518.144159,1378.971896
1160.227002,-9992.780217,74.020594,536.266849
1160.227323,-9622.677246,-148.041188,536.266849
1160.227643,-9104.533087,-518.144159,306.438199
1160.227964,-9400.615463,-740.205942,229.828649
1160.228285,-9400.615463,-740.205942,153.219100
1160.228606,-9474.636058,-296.082377,306.438199
1160.228927,-8512.368333,-370.102971,1762.019645
1160.229248,-9844.739029,222.061783,612.876398
1160.229569,-9770.718434,666.185348,536.266849
1160.229889,-9844.739029,222.061783,1378.971896
1160.230210,-9918.759623,518.144159,1149.143247
1160.230531,-10066.800811,74.020594,1762.019645
1160.230852,-10140.821405,-444.123565,1685.410096
1160.231173,-9474.636058,-814.226536,2068.457845
1160.231494,-9474.636058,-1628.453072,1532.190996
1160.231815,-9252.574275,-1850.514855,1455.581446
1160.232135,-8808.450710,-1998.556043,995.924147
1160.232456,-9252.574275,-1332.370696,1378.971896
1160.232777,-9252.574275,-888.247130,1378.971896
1160.233098,-9474.636058,-148.041188,1532.190996
1160.233419,-9844.739029,296.082377,1838.629195
1160.233740,-10584.944971,592.164754,1991.848295
1160.234061,-10066.800811,592.164754,1915.238745
1160.234381,-9918.759623,222.061783,1915.238745
1160.234702,-9770.718434,0.000000,1532.190996
1160.235023,-9844.739029,-370.102971,1455.581446
1160.235344,-9474.636058,-814.226536,1072.533697
1160.235665,-9326.594869,-814.226536,689.485948
1160.235986,-9252.574275,-888.247130,76.609550
1160.236307,-9252.574275,-518.144159,0.000000
1160.236627,-9622.677246,1110.308913,766.095498
1160.236948,-9474.636058,666.185348,0.000000
1160.237269,-9622.677246,814.226536,0.000000
1160.237590,-9474.636058,888.247130,0.000000
1160.237911,-9770.718434,814.226536,229.828649
1160.238232,-9696.697840,962.267725,612.876398
1160.238553,-9918.759623,592.164754,1072.533697
1160.238873,-9992.780217,74.020594,1838.629195
1160.239194,-9622.677246,-518.144159,1762.019645
1160.239515,-8882.471304,-1406.391290,1685.410096
1160.239836,-9030.512492,-2072.576638,1915.238745
1160.240157,-9104.533087,-2368.659014,1991.848295
1160.240478,-9030.512492,-2294.638420,1685.410096
1160.240799,-9252.574275,-1776.494261,1532.190996
1160.241119,-9030.512492,-814.226536,1685.410096
1160.241440,-9474.636058,-370.102971,1149.143247
1160.241761,-9548.656652,0.000000,1072.533697
1160.242082,-9918.759623,370.102971,1378.971896
1160.242403,-9622.677246,444.123565,1608.800546
1160.242724,-10362.883188,444.123565,995.924147
1160.243045,-10436.903782,222.061783,1149.143247
1160.243365,-10214.842000,0.000000,1149.143247
1160.243686,-9622.677246,518.144159,2068.457845
1160.244007,-9844.739029,-740.205942,689.485948
1160.244328,-9474.636058,-1036.288319,383.047749
1160.244649,-9400.615463,-962.267725,229.828649
1160.244970,-9252.574275,-888.247130,306.438199
1160.245291,-9326.594869,-296.082377,76.609550
1160.245611,-9474.636058,0.000000,153.219100
1160.245932,-9474.636058,888.247130,536.266849
1160.246253,-9844.739029,962.267725,1072.533697
1160.246574,-10066.800811,888.247130,1838.629195
1160.246895,-10066.800811,592.164754,2068.457845
1160.247216,-9918.759623,222.061783,1915.238745
1160.247537,-9548.656652,-370.102971,2068.457845
1160.247857,-9548.656652,-888.247130,1455.581446
1160.248178,-9178.553681,-1480.411884,1532.190996
1160.248499,-8956.491898,-1924.535449,1532.190996
1160.248820,-8882.471304,-1924.535449,1608.800546
1160.249141,-8808.450710,-1776.494261,1225.752797
1160.249462,-9030.512492,-1406.391290,1225.752797
1160.249783,-9326.594869,-518.144159,1072.533697
1160.250103,-9474.636058,444.123565,1532.190996
1160.250424,-9918.759623,370.102971,1532.190996
1160.250745,-9992.780217,0.000000,1532.190996
1160.251066,-9770.718434,-148.041188,1302.362347
1160.251387,-10140.821405,-444.123565,1838.629195
1160.251708,-9548.656652,-518.144159,1302.362347
1160.252029,-10066.800811,-518.144159,0.000000
1160.252349,-9622.677246,-1110.308913,536.266849
1160.252670,-9474.636058,-1258.350101,-153.219100
1160.252991,-9252.574275,-1110.308913,0.000000
1160.253312,-9474.636058,-148.041188,0.000000
1160.253633,-9622.677246,296.082377,-153.219100
1160.253954,-9770.718434,888.247130,229.828649
1160.254275,-9992.780217,1332.370696,153.219100
1160.254595,-9992.780217,1184.329507,536.266849
1160.254916,-10288.862594,888.247130,1072.533697
1160.255237,-10066.800811,518.144159,919.314598
1160.255558,-9770.718434,148.041188,1225.752797
1160.255879,-9622.677246,-444.123565,1532.190996
1160.256200,-9400.615463,-888.247130,1532.190996
1160.256521,-9104.533087,-1554.432478,1915.238745
1160.256841,-9252.574275,-2146.597232,2145.067394
1160.257162,-9252.574275,-2220.617826,2221.676944
1160.257483,-9400.615463,-1850.514855,1685.410096
1160.257804,-9252.574275,-1332.370696,1685.410096
1160.258125,-9474.636058,-518.144159,1302.362347
1160.258446,-9400.615463,0.000000,1302.362347
1160.258767,-9548.656652,444.123565,1225.752797
1160.259087,-9770.718434,444.123565,842.705048
1160.259408,-9770.718434,666.185348,766.095498
1160.259729,-10066.800811,296.082377,842.705048
1160.260050,-9992.780217,0.000000,842.705048
1160.260371,-9992.780217,0.000000,306.438199
1160.260692,-9474.636058,-962.267725,306.438199
1160.261013,-9474.636058,-1036.288319,689.485948
1160.261333,-9474.636058,-1036.288319,612.876398
1160.261654,-9474.636058,-888.247130,306.438199
1160.261975,-9474.636058,-296.082377,0.000000
1160.262296,-9474.636058,370.102971,76.609550
1160.262617,-9770.718434,666.185348,383.047749
1160.262938,-9696.697840,592.164754,689.485948
1160.263259,-9770.718434,296.082377,995.924147
1160.263579,-9844.739029,74.020594,1225.752797
1160.263900,-9770.718434,0.000000,1378.971896
1160.264221,-9696.697840,-592.164754,1685.410096
1160.264542,-8734.430116,-740.205942,1685.410096
1160.264863,-9474.636058,-1480.411884,2145.067394
1160.265184,-9252.574275,-1702.473667,1838.629195
1160.265505,-9104.533087,-1702.473667,1762.019645
1160.265825,-9178.553681,-1258.350101,2068.457845
1160.266146,-9252.574275,-740.205942,1915.238745
1160.266467,-9474.636058,-296.082377,1608.800546
1160.266788,-9622.677246,148.041188,1838.629195
1160.267109,-9770.718434,296.082377,1915.238745
1160.267430,-9474.636058,0.000000,2221.676944
1160.267751,-9992.780217,0.000000,1915.238745
1160.268071,-10066.800811,0.000000,1838.629195
1160.268392,-9844.739029,-444.123565,1302.362347
1160.268713,-9770.718434,-740.205942,612.876398
1160.269034,-9474.636058,-962.267725,919.314598
1160.269355,-9326.594869,-1110.308913,612.876398
1160.269676,-9178.553681,-592.164754,0.000000
1160.269997,-9474.636058,0.000000,536.266849
1160.270317,-9400.615463,518.144159,-153.219100
1160.270638,-9696.697840,1036.288319,76.609550
1160.270959,-9918.759623,1480.411884,229.828649
1160.271280,-10140.821405,1332.370696,76.609550
1160.271601,-10140.821405,1110.308913,306.438199
1160.271922,-9992.780217,814.226536,842.705048
1160.272243,-9696.697840,222.061783,1072.533697
1160.272563,-9622.677246,-518.144159,1455.581446
1160.272884,-8734.430116,-1184.329507,1608.800546
1160.273205,-9252.574275,-2072.576638,1532.190996
1160.273526,-9326.594869,-2442.679609,1455.581446
1160.273847,-9104.533087,-2220.617826,1532.190996
1160.274168,-9326.594869,-1998.556043,459.657299
1160.274489,-9252.574275,-1184.329507,1149.143247
1160.274809,-9400.615463,-592.164754,919.314598
1160.275130,-9622.677246,296.082377,1225.752797
1160.275451,-9696.697840,518.144159,766.095498
1160.275772,-9622.677246,888.247130,612.876398
1160.276093,-9844.739029,666.185348,536.266849
1160.276414,-10140.821405,740.205942,383.047749
1160.276735,-9918.759623,148.041188,459.657299
1160.277055,-10066.800811,0.000000,383.047749
1160.277376,-9474.636058,-592.164754,536.266849
1160.277697,-9400.615463,-1036.288319,766.095498
1160.278018,-9400.615463,-814.226536,612.876398
1160.278339,-8956.491898,-1258.350101,383.047749
1160.278660,-9178.553681,-296.082377,459.657299
1160.278981,-9326.594869,370.102971,612.876398
1160.279301,-9548.656652,740.205942,842.705048
1160.279622,-9696.697840,1110.308913,766.095498
1160.279943,-10140.821405,888.247130,1532.190996
1160.280264,-9918.759623,296.082377,1685.410096
1160.280585,-9918.759623,-222.061783,1762.019645
1160.280906,-9696.697840,-518.144159,2145.067394
1160.281227,-10288.862594,-1184.329507,2298.286494
1160.281547,-9474.636058,-1776.494261,1991.848295
1160.281868,-9104.533087,-1480.411884,1685.410096
1160.282189,-9252.574275,-1480.411884,1915.238745
1160.282510,-10140.821405,-370.102971,995.924147
1160.282831,-9474.636058,-962.267725,1762.019645
1160.283152,-9474.636058,-666.185348,1532.190996
1160.283473,-9622.677246,0.000000,1685.410096
1160.283793,-10066.800811,0.000000,2298.286494
1160.284114,-10214.842000,0.000000,2298.286494
1160.284435,-10066.800811,-592.164754,1762.019645
1160.284756,-9918.759623,-592.164754,1532.190996
1160.285077,-9548.656652,-962.267725,1149.143247
1160.285398,-10066.800811,-814.226536,842.705048
1160.285719,-9474.636058,-1258.350101,536.266849
1160.286039,-9326.594869,-962.267725,689.485948
1160.286360,-9400.615463,-444.123565,0.000000
1160.286681,-8216.285956,-740.205942,919.314598
1160.287002,-9474.636058,518.144159,-383.047749
1160.287323,-9474.636058,1184.329507,0.000000
1160.287644,-9696.697840,1184.329507,-306.438199
1160.287965,-9844.739029,1036.288319,-153.219100
1160.288285,-9770.718434,518.144159,306.438199
1160.288606,-9844.739029,296.082377,612.876398
1160.288927,-9696.697840,-370.102971,1225.752797
1160.289248,-9474.636058,-1036.288319,1455.581446
1160.289569,-9326.594869,-1332.370696,1915.238745
1160.289890,-9474.636058,-2294.638420,2145.067394
1160.290211,-9474.636058,-2294.638420,2068.457845
1160.290531,-9178.553681,-2294.638420,1915.238745
1160.290852,-8882.471304,-518.144159,2834.553343
1160.291173,-9030.512492,-1480.411884,1608.800546
1160.291494,-9178.553681,-814.226536,1302.362347
1160.291815,-9474.636058,-370.102971,842.705048
1160.292136,-9770.718434,370.102971,842.705048
1160.292457,-9992.780217,444.123565,766.095498
1160.292777,-9918.759623,444.123565,612.876398
1160.293098,-10140.821405,370.102971,919.314598
1160.293419,-10214.842000,370.102971,1072.533697
1160.293740,-10140.821405,222.061783,1685.410096
1160.294061,-9918.759623,-296.082377,1072.533697
1160.294382,-9622.677246,-740.205942,919.314598
1160.294702,-9474.636058,-1184.329507,383.047749
1160.295023,-9326.594869,148.041188,1532.190996
1160.295344,-9622.677246,0.000000,229.828649
1160.295665,-9400.615463,666.185348,0.000000
1160.295986,-9622.677246,1110.308913,919.314598
1160.296307,-9844.739029,1036.288319,1378.971896
1160.296627,-9918.759623,888.247130,1532.190996
1160.296948,-10066.800811,370.102971,1455.581446
1160.297269,-9992.780217,74.020594,1762.019645
1160.297590,-9844.739029,-370.102971,2298.286494
1160.297911,-10140.821405,-962.267725,2681.334243
1160.298231,-9474.636058,-1184.329507,2145.067394
1160.298552,-9030.512492,-1110.308913,1762.019645
1160.298873,-9030.512492,-1332.370696,1455.581446
1160.299194,-9104.533087,-518.144159,1302.362347
1160.299515,-9326.594869,-370.102971,995.924147
1160.299836,-9326.594869,0.000000,1072.533697
1160.300156,-9474.636058,296.082377,1149.143247
1160.300477,-9770.718434,148.041188,1225.752797
1160.300798,-9844.739029,74.020594,842.705048
1160.301119,-9992.780217,-222.061783,1378.971896
1160.301440,-9992.780217,-370.102971,842.705048
1160.301760,-9696.697840,-370.102971,842.705048
1160.302081,-9474.636058,-814.226536,842.705048
1160.302402,-9474.636058,-1110.308913,536.266849
1160.302723,-9400.615463,-1110.308913,-229.828649
1160.303044,-9400.615463,-666.185348,-919.314598
1160.303365,-9474.636058,-222.061783,-612.876398
1160.303685,-9178.553681,444.123565,-229.828649
1160.304006,-9548.656652,740.205942,-153.219100
1160.304327,-9918.759623,1184.329507,76.609550
1160.304648,-10140.821405,1110.308913,383.047749
1160.304969,-10288.862594,592.164754,919.314598
1160.305289,-9992.780217,222.061783,1378.971896
1160.305610,-10066.800811,-296.082377,1838.629195
1160.305931,-9770.718434,-962.267725,2221.676944
1160.306252,-9474.636058,-1628.453072,1072.533697
1160.306573,-9178.553681,-2294.638420,2374.896044
1160.306894,-9178.553681,-2294.638420,2145.067394
1160.307214,-9252.574275,-1998.556043,1915.238745
1160.307535,-9104.533087,-1332.370696,1991.848295
1160.307856,-9178.553681,-962.267725,1149.143247
1160.308177,-9474.636058,-370.102971,1455.581446
1160.308498,-9548.656652,296.082377,995.924147
1160.308819,-9844.739029,370.102971,1149.143247
1160.309139,-10214.842000,296.082377,459.657299
1160.309460,-10140.821405,296.082377,1302.362347
1160.309781,-10288.862594,148.041188,1149.143247
1160.310102,-10066.800811,-296.082377,842.705048
1160.310423,-9844.739029,-962.267725,1302.362347
1160.310743,-9474.636058,-1480.411884,383.047749
1160.311064,-9326.594869,-1110.308913,306.438199
1160.311385,-8956.491898,-1332.370696,383.047749
1160.311706,-9400.615463,-1036.288319,0.000000
1160.312027,-8956.491898,-370.102971,0.000000
1160.312348,-9474.636058,0.000000,76.609550
1160.312668,-9548.656652,370.102971,306.438199
1160.312989,-9844.739029,592.164754,919.314598
1160.313310,-9844.739029,592.164754,2604.724693
1160.313631,-10066.800811,296.082377,1532.190996
1160.313952,-9770.718434,0.000000,1762.019645
1160.314272,-9844.739029,-444.123565,1991.848295
1160.314593,-9474.636058,-888.247130,2757.943793
1160.314914,-9252.574275,-1480.411884,1915.238745
1160.315235,-9030.512492,-1702.473667,1378.971896
1160.315556,-9030.512492,-1332.370696,1378.971896
1160.315877,-9104.533087,-962.267725,1302.362347
1160.316197,-9474.636058,-518.144159,1608.800546
1160.316518,-9548.656652,-222.061783,1149.143247
1160.316839,-9622.677246,370.102971,1302.362347
1160.317160,-10288.862594,740.205942,1378.971896
1160.317481,-10584.944971,888.247130,1685.410096
1160.317801,-10066.800811,222.061783,1378.971896
1160.318122,-10066.800811,-222.061783,1302.362347
1160.318443,-9770.718434,-444.123565,1302.362347
1160.318764,-9770.718434,-962.267725,1225.752797
1160.319085,-9770.718434,-962.267725,306.438199
1160.319406,-9474.636058,-962.267725,-153.219100
1160.319726,-9326.594869,-444.123565,-612.876398
1160.320047,-9178.553681,518.144159,-306.438199
1160.320368,-9474.636058,888.247130,0.000000
1160.320689,-9622.677246,962.267725,0.000000
1160.321010,-9622.677246,888.247130,229.828649
1160.321331,-9992.780217,888.247130,536.266849
1160.321651,-10510.924376,666.185348,689.485948
1160.321972,-9992.780217,0.000000,1455.581446
1160.322293,-9770.718434,-370.102971,1838.629195
1160.322614,-9548.656652,-1258.350101,2298.286494
1160.322935,-9400.615463,-1406.391290,2068.457845
1160.323255,-9326.594869,-1924.535449,2374.896044
1160.323576,-9474.636058,-1998.556043,2604.724693
1160.323897,-9104.533087,-2146.597232,2374.896044
1160.324218,-9030.512492,-1702.473667,1685.410096
1160.324539,-9178.553681,-1184.329507,1685.410096
1160.324860,-9252.574275,-518.144159,1149.143247
1160.325180,-9622.677246,148.041188,1378.971896
1160.325501,-9844.739029,518.144159,1378.971896
1160.325822,-9548.656652,888.247130,1762.019645
1160.326143,-10288.862594,814.226536,1532.190996
1160.326464,-10214.842000,592.164754,1455.581446
1160.326784,-10066.800811,148.041188,1302.362347
1160.327105,-9622.677246,-222.061783,766.095498
1160.327426,-9622.677246,-740.205942,612.876398
1160.327747,-9474.636058,-740.205942,383.047749
1160.328068,-9252.574275,-592.164754,0.000000
1160.328389,-9252.574275,-370.102971,-383.047749
1160.328709,-9252.574275,296.082377,0.000000
1160.329030,-9770.718434,962.267725,0.000000
1160.329351,-9992.780217,1036.288319,536.266849
1160.329672,-9992.780217,666.185348,1072.533697
1160.329993,-9992.780217,148.041188,1149.143247
1160.330313,-10214.842000,0.000000,1225.752797
1160.330634,-9992.780217,-370.102971,1455.581446
1160.330955,-9622.677246,-1184.329507,1838.629195
1160.331276,-9178.553681,-1554.432478,919.314598
1160.331597,-9252.574275,-1776.494261,1302.362347
1160.331918,-8808.450710,-1554.432478,1532.190996
1160.332238,-8956.491898,-1554.432478,1378.971896
1160.332559,-8956.491898,-1258.350101,1302.362347
1160.332880,-9104.533087,-814.226536,1302.362347
1160.333201,-9474.636058,-148.041188,1072.533697
1160.333522,-9548.656652,74.020594,1455.581446
1160.333842,-9992.780217,444.123565,1762.019645
1160.334163,-10584.944971,592.164754,1685.410096
1160.334484,-9992.780217,74.020594,1302.362347
1160.334805,-9918.759623,0.000000,1225.752797
1160.335126,-9770.718434,-296.082377,995.924147
1160.335447,-9104.533087,-370.102971,689.485948
1160.335767,-9400.615463,-1406.391290,153.219100
1160.336088,-9178.553681,-1258.350101,-229.828649
1160.336409,-9178.553681,-666.185348,-383.047749
1160.336730,-9252.574275,0.000000,-383.047749
1160.337051,-9548.656652,518.144159,-153.219100
1160.337372,-9770.718434,1110.308913,153.219100
1160.337692,-9992.780217,962.267725,306.438199
1160.338013,-9992.780217,888.247130,919.314598
1160.338334,-10066.800811,148.041188,459.657299
1160.338655,-9992.780217,0.000000,1838.629195
1160.338976,-9918.759623,-666.185348,1991.848295
1160.339296,-9474.636058,-1184.329507,2451.505594
1160.339617,-9548.656652,-1628.453072,4136.915689
1160.339938,-9474.636058,-2442.679609,2681.334243
1160.340259,-9104.533087,-2368.659014,2681.334243
1160.340580,-9326.594869,-2146.597232,2451.505594
1160.340901,-9178.553681,-1628.453072,2145.067394
1160.341221,-8956.491898,-814.226536,1532.190996
1160.341542,-9548.656652,-148.041188,1455.581446
1160.341863,-9696.697840,518.144159,1608.800546
1160.342184,-10214.842000,592.164754,1455.581446
1160.342505,-10140.821405,666.185348,1149.143247
1160.342825,-9992.780217,740.205942,1072.533697
1160.343146,-10214.842000,444.123565,1149.143247
1160.343467,-10066.800811,0.000000,1225.752797
1160.343788,-9844.739029,-444.123565,1072.533697
1160.344109,-9104.533087,-1406.391290,383.047749
1160.344430,-9178.553681,-1184.329507,229.828649
1160.344750,-9622.677246,-1184.329507,229.828649
1160.345071,-9252.574275,-518.144159,76.609550
1160.345392,-9178.553681,-148.041188,0.000000
1160.345713,-9474.636058,370.102971,0.000000
1160.346034,-9770.718434,444.123565,383.047749
1160.346354,-9992.780217,444.123565,689.485948
1160.346675,-9918.759623,0.000000,842.705048
1160.346996,-9400.615463,74.020594,1378.971896
1160.347317,-9622.677246,0.000000,1149.143247
1160.347638,-9770.718434,-296.082377,1455.581446
1160.347959,-9400.615463,-962.267725,1302.362347
1160.348279,-9474.636058,-1480.411884,536.266849
1160.348600,-9178.553681,-1406.391290,459.657299
1160.348921,-9178.553681,-1258.350101,689.485948
1160.349242,-9252.574275,-1184.329507,689.485948
1160.349563,-9178.553681,-666.185348,766.095498
1160.349884,-9474.636058,74.020594,995.924147
1160.350204,-9844.739029,148.041188,1149.143247
1160.350525,-9992.780217,592.164754,1532.190996
1160.350846,-10140.821405,296.082377,1455.581446
1160.351167,-9918.759623,74.020594,2145.067394
1160.351488,-9918.759623,74.020594,1455.581446
1160.351808,-9696.697840,-370.102971,1225.752797
1160.352129,-9548.656652,-296.082377,1302.362347
1160.352450,-8882.471304,0.000000,612.876398
1160.352771,-9548.656652,-148.041188,383.047749
1160.353092,-9326.594869,296.082377,306.438199
1160.353413,-9474.636058,888.247130,306.438199
1160.353733,-9918.759623,1332.370696,383.047749
1160.354054,-9992.780217,1406.391290,612.876398
1160.354375,-9770.718434,1332.370696,919.314598
1160.354696,-9844.739029,814.226536,919.314598
1160.355017,-10066.800811,296.082377,1608.800546
1160.355337,-10214.842000,444.123565,2298.286494
1160.355658,-9918.759623,-592.164754,2528.115143
1160.355979,-9548.656652,-814.226536,2911.162892
1160.356300,-9178.553681,-1480.411884,2681.334243
1160.356621,-9474.636058,-1480.411884,2681.334243
1160.356942,-8882.471304,-2294.638420,2374.896044
1160.357262,-9178.553681,-2146.597232,1838.629195
1160.357583,-8956.491898,-1776.494261,1838.629195
1160.357904,-9178.553681,-1036.288319,1685.410096
1160.358225,-9474.636058,0.000000,1225.752797
1160.358546,-9474.636058,222.061783,1072.533697
1160.358866,-9770.718434,592.164754,1149.143247
1160.359187,-10288.862594,592.164754,842.705048
1160.359508,-10066.800811,518.144159,536.266849
1160.359829,-9992.780217,0.000000,766.095498
1160.360150,-9844.739029,-148.041188,306.438199
1160.360471,-9548.656652,-740.205942,229.828649
1160.360791,-9252.574275,-1110.308913,-612.876398
1160.361112,-9252.574275,-666.185348,-383.047749
1160.361433,-9326.594869,-444.123565,-689.485948
1160.361754,-9252.574275,0.000000,-459.657299
1160.362075,-9548.656652,148.041188,766.095498
1160.362396,-9622.677246,370.102971,-153.219100
1160.362716,-9770.718434,444.123565,153.219100
1160.363037,-9844.739029,296.082377,612.876398
1160.363358,-9992.780217,296.082377,612.876398
1160.363679,-9844.739029,0.000000,1149.143247
1160.364000,-9548.656652,-296.082377,1072.533697
1160.364320,-9622.677246,-888.247130,1532.190996
1160.364641,-9474.636058,-1480.411884,1378.971896
1160.364962,-9400.615463,-1332.370696,1915.238745
1160.365283,-9178.553681,-1924.535449,1072.533697
1160.365604,-9178.553681,-1406.391290,1149.143247
1160.365925,-9326.594869,-1036.288319,1378.971896
1160.366245,-9548.656652,0.000000,1455.581446
1160.366566,-9844.739029,0.000000,1608.800546
1160.366887,-9992.780217,370.102971,1991.848295
1160.367208,-10066.800811,148.041188,2451.505594
1160.367529,-9844.739029,-148.041188,2145.067394
1160.367849,-10140.821405,0.000000,2068.457845
1160.368170,-9844.739029,-814.226536,1991.848295
1160.368491,-9474.636058,-1110.308913,1685.410096
1160.368812,-9326.594869,-1258.350101,995.924147
1160.369133,-9474.636058,-1110.308913,1532.190996
1160.369454,-9104.533087,-888.247130,612.876398
1160.369774,-9400.615463,-222.061783,459.657299
1160.370095,-9622.677246,296.082377,383.047749
1160.370416,-9918.759623,888.247130,0.000000
1160.370737,-9844.739029,888.247130,536.266849
1160.371058,-10140.821405,1036.288319,689.485948
1160.371378,-9992.780217,666.185348,1072.533697
1160.371699,-9770.718434,296.082377,1149.143247
1160.372020,-9326.594869,-222.061783,1225.752797
1160.372341,-9326.594869,-814.226536,1838.629195
1160.372662,-9474.636058,-1110.308913,2298.286494
1160.372983,-9252.574275,-1924.535449,2451.505594
1160.373303,-9326.594869,-2146.597232,2145.067394
1160.373624,-9030.512492,-2590.720797,1685.410096
1160.373945,-9030.512492,-2368.659014,2298.286494
1160.374266,-9178.553681,-1850.514855,1608.800546
1160.374587,-9252.574275,-962.267725,2298.286494
1160.374907,-9474.636058,-296.082377,995.924147
1160.375228,-9770.718434,370.102971,383.047749
1160.375549,-10140.821405,740.205942,536.266849
1160.375870,-10066.800811,1036.288319,459.657299
1160.376191,-10214.842000,666.185348,306.438199
1160.376512,-10362.883188,814.226536,306.438199
1160.376832,-10066.800811,74.020594,76.609550
1160.377153,-9918.759623,-148.041188,0.000000
1160.377474,-9770.718434,-814.226536,0.000000
1160.377795,-9548.656652,-444.123565,0.000000
1160.378116,-9474.636058,-222.061783,-229.828649
1160.378437,-9474.636058,0.000000,-306.438199
1160.378757,-9770.718434,518.144159,153.219100
1160.379078,-9474.636058,666.185348,0.000000
1160.379399,-9992.780217,814.226536,383.047749
1160.379720,-10066.800811,814.226536,612.876398
1160.380041,-10066.800811,444.123565,842.705048
1160.380361,-9696.697840,148.041188,1608.800546
1160.380682,-9844.739029,0.000000,1378.971896
1160.381003,-9474.636058,-518.144159,1762.019645
1160.381324,-9252.574275,-1480.411884,1685.410096
1160.381645,-9474.636058,-1406.391290,2298.286494
1160.381966,-8956.491898,-1924.535449,1072.533697
1160.382286,-8808.450710,-1406.391290,1455.581446
1160.382607,-8956.491898,-1258.350101,1455.581446
1160.382928,-9104.533087,-1406.391290,1532.190996
1160.383249,-9474.636058,-148.041188,1302.362347
1160.383570,-9474.636058,0.000000,1685.410096
1160.383890,-9844.739029,296.082377,1762.019645
1160.384211,-9918.759623,74.020594,1915.238745
1160.384532,-9548.656652,0.000000,2145.067394
1160.384853,-9622.677246,-222.061783,1532.190996
1160.385174,-9548.656652,-518.144159,1532.190996
1160.385495,-9474.636058,-666.185348,1225.752797
1160.385815,-9326.594869,-740.205942,766.095498
1160.386136,-9178.553681,-444.123565,383.047749
1160.386457,-9474.636058,0.000000,153.219100
1160.386778,-9548.656652,592.164754,383.047749
1160.387099,-9696.697840,666.185348,-306.438199
1160.387419,-9992.780217,740.205942,536.266849
1160.387740,-9918.759623,592.164754,459.657299
1160.388061,-9992.780217,592.164754,842.705048
1160.388382,-9918.759623,148.041188,2528.115143
1160.388703,-9918.759623,-370.102971,1149.143247
1160.389024,-9696.697840,-888.247130,2068.457845
1160.389344,-9696.697840,-1850.514855,2145.067394
1160.389665,-9252.574275,-2072.576638,1915.238745
1160.389986,-9548.656652,-2368.659014,1915.238745
1160.390307,-9252.574275,-2368.659014,2068.457845
1160.390628,-9474.636058,-1850.514855,1685.410096
1160.390949,-9400.615463,-1258.350101,1915.238745
1160.391269,-9548.656652,-1036.288319,1302.362347
1160.391590,-9696.697840,-592.164754,1378.971896
1160.391911,-9992.780217,0.000000,995.924147
1160.392232,-10066.800811,148.041188,612.876398
1160.392553,-10066.800811,518.144159,-383.047749
1160.392873,-9918.759623,296.082377,459.657299
1160.393194,-9844.739029,0.000000,76.609550
1160.393515,-9696.697840,-370.102971,459.657299
1160.393836,-9548.656652,-888.247130,306.438199
1160.394157,-9474.636058,-740.205942,229.828649
1160.394478,-9326.594869,-592.164754,0.000000
1160.394799,-9474.636058,-666.185348,229.828649
1160.395119,-9252.574275,-74.020594,0.000000
1160.395440,-10362.883188,592.164754,-306.438199
1160.395761,-9474.636058,370.102971,229.828649
1160.396082,-9770.718434,592.164754,536.266849
1160.396403,-9992.780217,518.144159,536.266849
1160.396724,-10140.821405,370.102971,1149.143247
1160.397044,-9696.697840,148.041188,1149.143247
1160.397365,-9622.677246,-296.082377,1378.971896
1160.397686,-9474.636058,-962.267725,1685.410096
1160.398007,-9178.553681,-1110.308913,1685.410096
1160.398328,-9178.553681,-1628.453072,1455.581446
1160.398649,-8956.491898,-1332.370696,1072.533697
1160.398969,-8956.491898,-1110.308913,1225.752797
1160.399290,-9252.574275,-370.102971,1455.581446
1160.399611,-8956.491898,518.144159,1532.190996
1160.399932,-9770.718434,1110.308913,1685.410096
1160.400253,-10066.800811,1036.288319,1915.238745
1160.400574,-10214.842000,592.164754,1838.629195
1160.400895,-10214.842000,296.082377,1685.410096
1160.401215,-10066.800811,222.061783,2145.067394
1160.401536,-9844.739029,0.000000,1915.238745
1160.401857,-9622.677246,-296.082377,1991.848295
1160.402178,-9548.656652,-814.226536,1302.362347
1160.402499,-9622.677246,-962.267725,919.314598
1160.402820,-9178.553681,-740.205942,383.047749
1160.403140,-9400.615463,-148.041188,766.095498
1160.403461,-9548.656652,222.061783,536.266849
1160.403782,-10140.821405,740.205942,-76.609550
1160.404103,-9696.697840,814.226536,459.657299
1160.404424,-9918.759623,740.205942,536.266849
1160.404745,-10066.800811,740.205942,1149.143247
1160.405065,-9696.697840,222.061783,1838.629195
1160.405386,-9770.718434,0.000000,1455.581446
1160.405707,-9474.636058,-666.185348,1838.629195
1160.406028,-9474.636058,-1406.391290,1991.848295
1160.406349,-9252.574275,-1998.556043,1991.848295
1160.406670,-9178.553681,-2812.782580,2374.896044
1160.406991,-9030.512492,-2664.741391,1608.800546
1160.407311,-9104.533087,-2368.659014,1378.971896
1160.407632,-9104.533087,-1628.453072,919.314598
1160.407953,-9178.553681,-370.102971,689.485948
1160.408274,-9326.594869,-222.061783,536.266849
1160.408595,-9474.636058,518.144159,76.609550
1160.408916,-9844.739029,518.144159,306.438199
1160.409236,-9770.718434,296.082377,995.924147
1160.409557,-10066.800811,296.082377,76.609550
1160.409878,-10066.800811,-222.061783,306.438199
1160.410199,-9770.718434,-370.102971,229.828649
1160.410520,-9844.739029,-666.185348,229.828649
1160.410841,-9770.718434,-740.205942,153.219100
1160.411162,-9696.697840,-592.164754,0.000000
1160.411482,-9622.677246,-518.144159,153.219100
1160.411803,-9326.594869,-296.082377,0.000000
1160.412124,-9178.553681,0.000000,0.000000
1160.412445,-9696.697840,592.164754,153.219100
1160.412766,-9844.739029,666.185348,612.876398
1160.413087,-10066.800811,518.144159,919.314598
1160.413407,-9474.636058,148.041188,1225.752797
1160.413728,-10066.800811,222.061783,1838.629195
1160.414049,-10140.821405,-296.082377,2298.286494
1160.414370,-9770.718434,-962.267725,2221.676944
1160.414691,-9474.636058,-1110.308913,1915.238745
1160.415012,-9252.574275,-1480.411884,1685.410096
1160.415332,-9252.574275,-1554.432478,1838.629195
1160.415653,-8956.491898,-1184.329507,1838.629195
1160.415974,-9474.636058,-1110.308913,1838.629195
1160.416295,-9178.553681,-444.123565,2221.676944
1160.416616,-9548.656652,-296.082377,1532.190996
1160.416937,-9918.759623,-148.041188,2374.896044
1160.417258,-9918.759623,-370.102971,2451.505594
1160.417578,-9104.533087,-814.226536,1685.410096
1160.417899,-9844.739029,-666.185348,2451.505594
1160.418220,-9548.656652,-888.247130,1532.190996
1160.418541,-9474.636058,-666.185348,1302.362347
1160.418862,-9474.636058,-1036.288319,1455.581446
1160.419183,-9474.636058,-592.164754,612.876398
1160.419503,-9326.594869,-518.144159,76.609550
1160.419824,-9400.615463,222.061783,76.609550
1160.420145,-9400.615463,814.226536,229.828649
1160.420466,-9622.677246,1332.370696,842.705048
1160.420787,-10066.800811,1406.391290,459.657299
1160.421108,-9770.718434,1332.370696,459.657299
1160.421428,-9770.718434,888.247130,536.266849
1160.421749,-9622.677246,0.000000,536.266849
1160.422070,-9548.656652,0.000000,1378.971896
1160.422391,-9844.739029,-814.226536,1608.800546
1160.422712,-9400.615463,-1184.329507,2068.457845
1160.423033,-9474.636058,-1998.556043,2298.286494
1160.423354,-9474.636058,-2220.617826,2681.334243
1160.423674,-9178.553681,-2368.659014,1991.848295
1160.423995,-9104.533087,-2072.576638,1685.410096
1160.424316,-9104.533087,-1184.329507,1302.362347
1160.424637,-9474.636058,-740.205942,1149.143247
1160.424958,-9474.636058,296.082377,842.705048
1160.425279,-9696.697840,444.123565,459.657299
1160.425599,-9770.718434,814.226536,0.000000
1160.425920,-9918.759623,962.267725,1685.410096
1160.426241,-10214.842000,592.164754,766.095498
1160.426562,-10214.842000,0.000000,842.705048
1160.426883,-10066.800811,-444.123565,459.657299
1160.427204,-9770.718434,-1036.288319,229.828649
1160.427524,-9474.636058,-1184.329507,-153.219100
1160.427845,-9474.636058,-1110.308913,229.828649
1160.428166,-9474.636058,-888.247130,229.828649
1160.428487,-9178.553681,-370.102971,0.000000
1160.428808,-9326.594869,148.041188,689.485948
1160.429129,-9770.718434,666.185348,766.095498
1160.429450,-9548.656652,666.185348,1225.752797
1160.429770,-9844.739029,444.123565,1072.533697
1160.430091,-9770.718434,592.164754,2757.943793
1160.430412,-9992.780217,0.000000,1762.019645
1160.430733,-9770.718434,-666.185348,2374.896044
1160.431054,-9474.636058,-1184.329507,2068.457845
1160.431375,-9474.636058,-1702.473667,1762.019645
1160.431695,-8956.491898,-1924.535449,1915.238745
1160.432016,-9104.533087,-1480.411884,1915.238745
1160.432337,-9400.615463,-1406.391290,1838.629195
1160.432658,-9474.636058,-962.267725,1685.410096
1160.432979,-8734.430116,-444.123565,1532.190996
1160.433300,-9474.636058,0.000000,1838.629195
1160.433621,-9844.739029,0.000000,1608.800546
1160.433941,-9918.759623,0.000000,1532.190996
1160.434262,-9696.697840,-296.082377,1991.848295
1160.434583,-9918.759623,-222.061783,1302.362347
1160.434904,-9770.718434,-444.123565,1455.581446
1160.435225,-9622.677246,-814.226536,995.924147
1160.435546,-9696.697840,-888.247130,1225.752797
1160.435866,-9178.553681,-814.226536,766.095498
1160.436187,-9548.656652,-222.061783,0.000000
1160.436508,-9696.697840,0.000000,76.609550
1160.436829,-9622.677246,592.164754,0.000000
1160.437150,-9770.718434,888.247130,0.000000
1160.437471,-9548.656652,962.267725,76.609550
1160.437791,-9992.780217,814.226536,306.438199
1160.438112,-9918.759623,592.164754,842.705048
1160.438433,-9400.615463,-148.041188,1225.752797
1160.438754,-9770.718434,-370.102971,1225.752797
1160.439075,-9622.677246,-740.205942,1838.629195
1160.439396,-9474.636058,-1332.370696,2068.457845
1160.439717,-9474.636058,-1850.514855,3524.039291
1160.440037,-9474.636058,-2072.576638,2451.505594
1160.440358,-9178.553681,-2294.638420,1991.848295
1160.440679,-9252.574275,-1702.473667,1532.190996
1160.441000,-9326.594869,-740.205942,1302.362347
1160.441321,-9548.656652,0.000000,1072.533697
1160.441642,-9474.636058,444.123565,1072.533697
1160.441962,-9696.697840,370.102971,459.657299
1160.442283,-9918.759623,740.205942,459.657299
1160.442604,-10362.883188,666.185348,-459.657299
1160.442925,-10066.800811,444.123565,842.705048
1160.443246,-10140.821405,0.000000,1149.143247
1160.443567,-9622.677246,-518.144159,612.876398
1160.443887,-9474.636058,0.000000,0.000000
1160.444208,-9326.594869,-962.267725,612.876398
1160.444529,-9474.636058,-962.267725,229.828649
1160.444850,-9252.574275,-370.102971,153.219100
1160.445171,-9474.636058,74.020594,0.000000
1160.445492,-9474.636058,666.185348,76.609550
1160.445813,-9474.636058,814.226536,229.828649
1160.446133,-9622.677246,740.205942,383.047749
1160.446454,-9844.739029,370.102971,536.266849
1160.446775,-9844.739029,740.205942,995.924147
1160.447096,-9770.718434,0.000000,1378.971896
1160.447417,-9622.677246,-222.061783,1915.238745
1160.447738,-9622.677246,-888.247130,1915.238745
1160.448058,-9252.574275,-1850.514855,1685.410096
1160.448379,-9400.615463,-1924.535449,1915.238745
1160.448700,-9252.574275,-1554.432478,1838.629195
1160.449021,-9252.574275,-1258.350101,1302.362347
1160.449342,-9178.553681,-666.185348,1685.410096
1160.449663,-9474.636058,0.000000,1915.238745
1160.449984,-9696.697840,444.123565,1838.629195
1160.450304,-9622.677246,296.082377,1991.848295
1160.450625,-10066.800811,0.000000,1915.238745
1160.450946,-9622.677246,0.000000,2834.553343
1160.451267,-9992.780217,-222.061783,2221.676944
1160.451588,-9918.759623,-370.102971,1685.410096
1160.451909,-9622.677246,-666.185348,1378.971896
1160.452229,-9548.656652,-740.205942,766.095498
1160.452550,-9474.636058,-592.164754,919.314598
1160.452871,-9474.636058,-222.061783,842.705048
1160.453192,-9548.656652,222.061783,689.485948
1160.453513,-9622.677246,666.185348,383.047749
1160.453834,-9104.533087,518.144159,842.705048
1160.454154,-9622.677246,814.226536,459.657299
1160.454475,-9696.697840,592.164754,459.657299
1160.454796,-9622.677246,370.102971,995.924147
1160.455117,-9844.739029,-296.082377,612.876398
1160.455438,-9548.656652,-740.205942,1685.410096
1160.455759,-9918.759623,-1332.370696,2374.896044
1160.456080,-9474.636058,-1776.494261,2451.505594
1160.456400,-9992.780217,-2294.638420,3217.601092
1160.456721,-9252.574275,-2664.741391,2221.676944
1160.457042,-9178.553681,-2664.741391,1762.019645
1160.457363,-9104.533087,-1998.556043,1455.581446
1160.457684,-9178.553681,-1184.329507,842.705048
1160.458005,-9252.574275,-592.164754,306.438199
1160.458325,-9474.636058,0.000000,766.095498
1160.458646,-9622.677246,74.020594,612.876398
1160.458967,-9918.759623,148.041188,153.219100
1160.459288,-10066.800811,296.082377,0.000000
1160.459609,-10140.821405,370.102971,459.657299
1160.459930,-10066.800811,-222.061783,229.828649
1160.460250,-9622.677246,-518.144159,536.266849
1160.460571,-9770.718434,-740.205942,-1378.971896
1160.460892,-9400.615463,-666.185348,0.000000
1160.461213,-9622.677246,-666.185348,76.609550
1160.461534,-9844.739029,-222.061783,0.000000
