#time,accel_x,accel_y,accel_z
1170.725107,-10140.821405,-1628.453072,2451.505594
1170.725428,-9622.677246,-1998.556043,2221.676944
1170.725749,-9548.656652,-2146.597232,2374.896044
1170.726070,-9696.697840,-2294.638420,1685.410096
1170.726391,-9252.574275,-1998.556043,1838.629195
1170.726712,-9400.615463,-2072.576638,1455.581446
1170.727033,-9474.636058,-1554.432478,1149.143247
1170.727355,-9770.718434,-814.226536,536.266849
1170.727676,-9770.718434,-1258.350101,383.047749
1170.727997,-9548.656652,-740.205942,153.219100
1170.728318,-9844.739029,0.000000,76.609550
1170.728639,-10584.944971,148.041188,995.924147
1170.728960,-10066.800811,296.082377,919.314598
1170.729281,-10362.883188,0.000000,842.705048
1170.729602,-9770.718434,-962.267725,842.705048
1170.729923,-9918.759623,-1184.329507,919.314598
1170.730244,-9770.718434,-1702.473667,1532.190996
1170.730565,-9474.636058,-1998.556043,1685.410096
1170.730886,-9178.553681,-2368.659014,1762.019645
1170.731208,-9474.636058,-2590.720797,1991.848295
1170.731529,-9326.594869,-2516.700203,1455.581446
1170.731850,-9474.636058,-1850.514855,2145.067394
1170.732171,-9400.615463,-1628.453072,2451.505594
1170.732492,-9474.636058,-1036.288319,2451.505594
1170.732813,-9400.615463,0.000000,3294.210641
1170.733134,-9474.636058,-1332.370696,2987.772442
1170.733455,-9326.594869,-1406.391290,3140.991542
1170.733776,-9474.636058,-2146.597232,3677.258390
1170.734097,-9104.533087,-2664.741391,4366.744339
1170.734418,-9474.636058,-2664.741391,4903.011187
1170.734739,-9326.594869,-3330.926739,5362.668486
1170.735061,-9030.512492,-3701.029710,5898.935335
1170.735382,-8808.450710,-4589.276840,6281.983084
1170.735703,-9326.594869,-4885.359217,6358.592633
1170.736024,-9030.512492,-4811.338623,6818.249932
1170.736345,-9178.553681,-4885.359217,6894.859482
1170.736666,-8956.491898,-4811.338623,7354.516781
1170.736987,-8734.430116,-3849.070898,7507.735880
1170.737308,-9030.512492,-4441.235652,6052.154434
1170.737629,-9474.636058,-4145.153275,5515.887586
1170.737950,-9474.636058,-3552.988522,5286.058936
1170.738271,-9474.636058,-3256.906145,4903.011187
1170.738592,-9548.656652,-2664.741391,4366.744339
1170.738914,-9918.759623,-2516.700203,4366.744339
1170.739235,-9844.739029,-2368.659014,3983.696590
1170.739556,-10140.821405,-2442.679609,3830.477490
1170.739877,-9844.739029,-2886.803174,4060.306139
1170.740198,-10436.903782,-2960.823768,3370.820191
1170.740519,-10584.944971,-3108.864956,3524.039291
1170.740840,-10436.903782,-3923.091493,3217.601092
1170.741161,-9622.677246,-3108.864956,3524.039291
1170.741482,-9696.697840,-3775.050304,2298.286494
1170.741803,-9474.636058,-3775.050304,919.314598
1170.742124,-9252.574275,-3330.926739,0.000000
1170.742445,-9474.636058,-2442.679609,-1532.190996
1170.742767,-9326.594869,-1184.329507,-2451.505594
1170.743088,-9770.718434,74.020594,-2374.896044
1170.743409,-10214.842000,888.247130,-3064.381992
1170.743730,-10436.903782,1998.556043,-2604.724693
1170.744051,-9770.718434,1480.411884,-2145.067394
1170.744372,-10732.986159,1110.308913,-1685.410096
1170.744693,-10362.883188,444.123565,-1225.752797
1170.745014,-10066.800811,-1184.329507,-766.095498
1170.745335,-9104.533087,-2590.720797,-689.485948
1170.745656,-9252.574275,-2516.700203,0.000000
1170.745977,-8808.450710,-2738.761985,-459.657299
1170.746297,-8364.327145,-2072.576638,-995.924147
1170.746618,-8216.285956,-1036.288319,-842.705048
1170.746939,-8142.265362,222.061783,-1149.143247
1170.747260,-8586.388927,888.247130,-689.485948
1170.747581,-8438.347739,1554.432478,-229.828649
1170.747902,-9548.656652,2368.659014,0.000000
1170.748223,-9474.636058,1998.556043,-919.314598
1170.748544,-9992.780217,2442.679609,995.924147
1170.748865,-10288.862594,2812.782580,1378.971896
1170.749186,-10066.800811,2220.617826,1532.190996
1170.749507,-9622.677246,1924.535449,1608.800546
1170.749828,-9326.594869,1110.308913,1149.143247
1170.750149,-9178.553681,888.247130,1762.019645
1170.750470,-9252.574275,888.247130,1915.238745
1170.750791,-9178.553681,888.247130,2604.724693
1170.751112,-9400.615463,1184.329507,3140.991542
1170.751433,-9474.636058,1036.288319,3217.601092
1170.751754,-10140.821405,1110.308913,3907.087040
1170.752075,-10214.842000,1110.308913,4749.792088
1170.752395,-10584.944971,1332.370696,5669.106685
1170.752716,-9918.759623,740.205942,4213.525239
1170.753037,-9992.780217,888.247130,3983.696590
1170.753358,-9622.677246,888.247130,3370.820191
1170.753679,-9770.718434,1036.288319,2834.553343
1170.754000,-9474.636058,1332.370696,2528.115143
1170.754321,-9622.677246,888.247130,2145.067394
1170.754642,-9622.677246,592.164754,2374.896044
1170.754963,-9844.739029,444.123565,1762.019645
1170.755284,-9326.594869,0.000000,2374.896044
1170.755605,-9844.739029,-370.102971,2145.067394
1170.755926,-9548.656652,-888.247130,1685.410096
1170.756247,-9696.697840,-1776.494261,919.314598
1170.756568,-9030.512492,-1332.370696,459.657299
1170.756889,-9252.574275,-1480.411884,-229.828649
1170.757210,-9326.594869,-592.164754,-536.266849
1170.757531,-9474.636058,0.000000,-689.485948
1170.757852,-9474.636058,296.082377,-995.924147
1170.758173,-9622.677246,222.061783,-612.876398
1170.758493,-9918.759623,0.000000,-306.438199
1170.758814,-10066.800811,-592.164754,0.000000
1170.759135,-9622.677246,-1554.432478,229.828649
1170.759456,-9622.677246,-1998.556043,76.609550
1170.759777,-9252.574275,-3256.906145,0.000000
1170.760098,-8734.430116,-3849.070898,-459.657299
1170.760419,-8882.471304,-3701.029710,-383.047749
1170.760740,-8438.347739,-2812.782580,-766.095498
1170.761061,-8882.471304,-1998.556043,0.000000
1170.761382,-9104.533087,-1332.370696,0.000000
1170.761703,-9326.594869,-1184.329507,-229.828649
1170.762024,-9474.636058,-740.205942,229.828649
1170.762345,-10066.800811,-962.267725,612.876398
1170.762666,-10436.903782,-666.185348,842.705048
1170.762987,-10288.862594,-1258.350101,689.485948
1170.763308,-9992.780217,-1258.350101,229.828649
1170.763629,-10066.800811,-962.267725,76.609550
1170.763950,-9696.697840,-814.226536,153.219100
1170.764270,-9696.697840,-296.082377,383.047749
1170.764591,-10214.842000,0.000000,689.485948
1170.764912,-9992.780217,370.102971,-766.095498
1170.765233,-10214.842000,296.082377,1455.581446
1170.765554,-10288.862594,148.041188,2068.457845
1170.765875,-10214.842000,296.082377,2451.505594
1170.766196,-9992.780217,-296.082377,3064.381992
1170.766517,-9992.780217,-740.205942,3294.210641
1170.766838,-9622.677246,-1406.391290,3217.601092
1170.767159,-9400.615463,-1850.514855,3370.820191
1170.767480,-8956.491898,-2072.576638,3140.991542
1170.767801,-8512.368333,-1998.556043,3064.381992
1170.768122,-9030.512492,-1110.308913,2681.334243
1170.768443,-9252.574275,74.020594,2681.334243
1170.768764,-9474.636058,814.226536,2681.334243
1170.769085,-9770.718434,740.205942,3217.601092
1170.769406,-9770.718434,592.164754,2221.676944
1170.769727,-9918.759623,740.205942,2374.896044
1170.770048,-9918.759623,740.205942,2298.286494
1170.770368,-9844.739029,444.123565,1838.629195
1170.770689,-9400.615463,74.020594,536.266849
1170.771010,-9474.636058,296.082377,0.000000
1170.771331,-9178.553681,888.247130,-153.219100
1170.771652,-9400.615463,1258.350101,-306.438199
1170.771973,-9104.533087,1406.391290,-459.657299
1170.772294,-9400.615463,1924.535449,-229.828649
1170.772615,-9474.636058,1998.556043,0.000000
1170.772936,-9696.697840,1554.432478,612.876398
1170.773257,-9770.718434,222.061783,153.219100
1170.773578,-9918.759623,148.041188,1378.971896
1170.773899,-9622.677246,-518.144159,1149.143247
1170.774220,-9548.656652,-592.164754,612.876398
1170.774541,-9474.636058,-592.164754,842.705048
1170.774862,-9474.636058,-296.082377,0.000000
1170.775183,-9252.574275,666.185348,0.000000
1170.775504,-9474.636058,814.226536,76.609550
1170.775825,-9474.636058,1184.329507,306.438199
1170.776146,-10066.800811,1258.350101,76.609550
1170.776466,-9918.759623,740.205942,306.438199
1170.776787,-9770.718434,444.123565,689.485948
1170.777108,-9844.739029,222.061783,842.705048
1170.777429,-9474.636058,370.102971,1455.581446
1170.777750,-9918.759623,-296.082377,306.438199
1170.778071,-9548.656652,-518.144159,0.000000
1170.778392,-9474.636058,-296.082377,-229.828649
1170.778713,-9918.759623,444.123565,-229.828649
1170.779034,-9844.739029,666.185348,153.219100
1170.779355,-9844.739029,1036.288319,153.219100
1170.779676,-9770.718434,370.102971,229.828649
1170.779997,-9844.739029,0.000000,536.266849
1170.780318,-8808.450710,-1332.370696,2451.505594
1170.780639,-9696.697840,-1258.350101,2451.505594
1170.780960,-9770.718434,-2220.617826,2374.896044
1170.781281,-9326.594869,-2738.761985,2528.115143
1170.781602,-9178.553681,-2960.823768,2145.067394
1170.781923,-8956.491898,-3404.947333,2528.115143
1170.782243,-9030.512492,-2886.803174,2604.724693
1170.782564,-8882.471304,-2368.659014,2757.943793
1170.782885,-9252.574275,-1702.473667,2528.115143
1170.783206,-8956.491898,-1406.391290,2221.676944
1170.783527,-9548.656652,-592.164754,2068.457845
1170.783848,-9474.636058,-370.102971,1991.848295
1170.784169,-9770.718434,-592.164754,2068.457845
1170.784490,-9918.759623,-370.102971,1455.581446
1170.784811,-9770.718434,-1036.288319,1378.971896
1170.785132,-10066.800811,-1184.329507,1378.971896
1170.785453,-9992.780217,-1184.329507,1225.752797
1170.785774,-10066.800811,-1036.288319,229.828649
1170.786095,-9770.718434,-740.205942,229.828649
1170.786416,-9400.615463,-444.123565,306.438199
1170.786737,-9474.636058,0.000000,306.438199
1170.787058,-9548.656652,0.000000,536.266849
1170.787379,-9548.656652,-888.247130,1072.533697
1170.787700,-9844.739029,-1258.350101,1378.971896
1170.788021,-9696.697840,-2072.576638,1762.019645
1170.788341,-9548.656652,-2516.700203,1455.581446
1170.788662,-9178.553681,-2590.720797,766.095498
1170.788983,-9622.677246,-2146.597232,1149.143247
1170.789304,-9474.636058,-1258.350101,842.705048
1170.789625,-9252.574275,-148.041188,536.266849
1170.789946,-10066.800811,666.185348,689.485948
1170.790267,-9474.636058,518.144159,459.657299
1170.790588,-9844.739029,666.185348,76.609550
1170.790909,-9918.759623,370.102971,383.047749
1170.791230,-9918.759623,0.000000,306.438199
1170.791551,-9992.780217,-444.123565,383.047749
1170.791872,-10066.800811,-592.164754,459.657299
1170.792193,-9622.677246,-296.082377,0.000000
1170.792514,-9548.656652,148.041188,0.000000
1170.792835,-9844.739029,814.226536,-612.876398
1170.793156,-9474.636058,1332.370696,-459.657299
1170.793477,-9622.677246,1924.535449,0.000000
1170.793798,-9770.718434,1702.473667,153.219100
1170.794119,-9474.636058,888.247130,536.266849
1170.794439,-9844.739029,296.082377,1302.362347
1170.794760,-9844.739029,-296.082377,1915.238745
1170.795081,-9622.677246,-962.267725,2451.505594
1170.795402,-9844.739029,-1554.432478,2681.334243
1170.795723,-9326.594869,-1850.514855,2451.505594
1170.796044,-9252.574275,-1628.453072,2298.286494
1170.796365,-9030.512492,-1258.350101,2145.067394
1170.796686,-8956.491898,-296.082377,1685.410096
1170.797007,-8956.491898,0.000000,1455.581446
1170.797328,-9104.533087,444.123565,1225.752797
1170.797649,-9178.553681,518.144159,995.924147
1170.797970,-9696.697840,518.144159,1302.362347
1170.798291,-10436.903782,1628.453072,766.095498
1170.798612,-10288.862594,740.205942,1608.800546
1170.798933,-10288.862594,666.185348,1072.533697
1170.799254,-10066.800811,666.185348,919.314598
1170.799575,-9992.780217,518.144159,689.485948
1170.799896,-9696.697840,222.061783,612.876398
1170.800216,-9918.759623,370.102971,383.047749
1170.800537,-9622.677246,74.020594,76.609550
1170.800858,-9844.739029,74.020594,919.314598
1170.801179,-9178.553681,148.041188,1915.238745
1170.801500,-9548.656652,-222.061783,1838.629195
1170.801821,-9770.718434,-740.205942,1838.629195
1170.802142,-9474.636058,-1258.350101,1762.019645
1170.802463,-8956.491898,-962.267725,2451.505594
1170.802784,-9400.615463,-1924.535449,1225.752797
1170.803105,-9474.636058,-1480.411884,1072.533697
1170.803426,-9252.574275,-814.226536,995.924147
1170.803747,-9400.615463,-296.082377,919.314598
1170.804068,-9622.677246,148.041188,612.876398
1170.804389,-9622.677246,444.123565,689.485948
1170.804710,-9844.739029,222.061783,536.266849
1170.805031,-10066.800811,148.041188,919.314598
1170.805352,-10288.862594,-370.102971,306.438199
1170.805673,-9696.697840,-962.267725,919.314598
1170.805994,-9696.697840,-1332.370696,689.485948
1170.806314,-9474.636058,-1406.391290,0.000000
1170.806635,-9104.533087,-1184.329507,-919.314598
1170.806956,-9178.553681,-592.164754,-689.485948
1170.807277,-9400.615463,74.020594,-536.266849
1170.807598,-9474.636058,444.123565,-459.657299
1170.807919,-9622.677246,518.144159,76.609550
1170.808240,-9844.739029,518.144159,459.657299
1170.808561,-10140.821405,222.061783,1302.362347
1170.808882,-10066.800811,-296.082377,1762.019645
1170.809203,-9622.677246,-1258.350101,2374.896044
1170.809524,-9696.697840,-1998.556043,3064.381992
1170.809845,-9326.594869,-2516.700203,2068.457845
1170.810166,-8956.491898,-2368.659014,2145.067394
1170.810487,-8956.491898,-2368.659014,1915.238745
1170.810808,-8882.471304,-1998.556043,1378.971896
1170.811129,-8882.471304,-1036.288319,1532.190996
1170.811450,-9178.553681,0.000000,1378.971896
1170.811771,-9252.574275,0.000000,1532.190996
1170.812092,-9844.739029,148.041188,1762.019645
1170.812412,-9770.718434,148.041188,1608.800546
1170.812733,-10066.800811,0.000000,1608.800546
1170.813054,-10214.842000,0.000000,1455.581446
1170.813375,-10140.821405,0.000000,995.924147
1170.813696,-9844.739029,814.226536,2451.505594
1170.814017,-10288.862594,148.041188,1149.143247
1170.814338,-9474.636058,74.020594,995.924147
1170.814659,-9844.739029,296.082377,536.266849
1170.814980,-10288.862594,666.185348,995.924147
1170.815301,-9770.718434,518.144159,1608.800546
1170.815622,-9844.739029,148.041188,2374.896044
1170.815943,-9770.718434,-296.082377,1685.410096
1170.816264,-9770.718434,-1036.288319,2145.067394
1170.816585,-9548.656652,-1776.494261,2528.115143
1170.816906,-9400.615463,-1850.514855,1455.581446
1170.817227,-9400.615463,-1184.329507,1378.971896
1170.817548,-9400.615463,0.000000,1072.533697
1170.817869,-9474.636058,962.267725,229.828649
1170.818190,-9474.636058,962.267725,842.705048
1170.818510,-9622.677246,962.267725,612.876398
1170.818831,-9622.677246,1036.288319,766.095498
1170.819152,-10288.862594,222.061783,919.314598
1170.819473,-9844.739029,444.123565,689.485948
1170.819794,-9696.697840,0.000000,689.485948
1170.820115,-9622.677246,-666.185348,536.266849
1170.820436,-9400.615463,-740.205942,0.000000
1170.820757,-9548.656652,-370.102971,153.219100
1170.821078,-9474.636058,0.000000,-229.828649
1170.821399,-9474.636058,592.164754,0.000000
1170.821720,-9252.574275,666.185348,0.000000
1170.822041,-9844.739029,1998.556043,383.047749
1170.822362,-9474.636058,1332.370696,536.266849
1170.822683,-9844.739029,444.123565,1302.362347
1170.823004,-9918.759623,-148.041188,2298.286494
1170.823325,-9622.677246,-962.267725,1455.581446
1170.823646,-9622.677246,-1702.473667,2681.334243
1170.823967,-9400.615463,-2146.597232,2681.334243
1170.824287,-9474.636058,-2368.659014,2451.505594
1170.824608,-9030.512492,-2146.597232,2528.115143
1170.824929,-9030.512492,-1776.494261,1838.629195
1170.825250,-9178.553681,-740.205942,1685.410096
1170.825571,-9400.615463,0.000000,1532.190996
1170.825892,-9474.636058,148.041188,1302.362347
1170.826213,-9770.718434,888.247130,1225.752797
1170.826534,-9844.739029,296.082377,919.314598
1170.826855,-9992.780217,0.000000,1225.752797
1170.827176,-10140.821405,0.000000,919.314598
1170.827497,-10066.800811,592.164754,1532.190996
1170.827818,-9992.780217,-296.082377,383.047749
1170.828139,-10066.800811,-296.082377,459.657299
1170.828460,-9844.739029,0.000000,612.876398
1170.828781,-9844.739029,0.000000,153.219100
1170.829102,-9548.656652,0.000000,612.876398
1170.829423,-9696.697840,-148.041188,1149.143247
1170.829744,-9400.615463,-592.164754,1455.581446
1170.830065,-9622.677246,-1110.308913,1991.848295
1170.830385,-9622.677246,-1924.535449,1608.800546
1170.830706,-9474.636058,-2146.597232,2068.457845
1170.831027,-9178.553681,-2368.659014,1991.848295
1170.831348,-9104.533087,-2220.617826,1149.143247
1170.831669,-9326.594869,-296.082377,612.876398
1170.831990,-9252.574275,-148.041188,995.924147
1170.832311,-9252.574275,222.061783,919.314598
1170.832632,-9252.574275,518.144159,612.876398
1170.832953,-9474.636058,370.102971,383.047749
1170.833274,-10214.842000,444.123565,536.266849
1170.833595,-9844.739029,0.000000,612.876398
1170.833916,-9770.718434,-740.205942,766.095498
1170.834237,-9400.615463,-888.247130,459.657299
1170.834558,-9548.656652,-962.267725,0.000000
1170.834879,-9548.656652,-962.267725,-153.219100
1170.835200,-9326.594869,-296.082377,153.219100
1170.835521,-9474.636058,148.041188,0.000000
1170.835842,-9400.615463,814.226536,459.657299
1170.836163,-9548.656652,814.226536,229.828649
1170.836483,-9696.697840,666.185348,229.828649
1170.836804,-9622.677246,444.123565,689.485948
1170.837125,-9844.739029,0.000000,1149.143247
1170.837446,-9696.697840,-518.144159,1532.190996
1170.837767,-9844.739029,-1628.453072,2221.676944
1170.838088,-9844.739029,-1776.494261,2451.505594
1170.838409,-9622.677246,-1924.535449,2374.896044
1170.838730,-9252.574275,-1628.453072,2145.067394
1170.839051,-9326.594869,-1110.308913,2068.457845
1170.839372,-9622.677246,-148.041188,2145.067394
1170.839693,-9400.615463,444.123565,1838.629195
1170.840014,-8808.450710,1332.370696,3140.991542
1170.840335,-9918.759623,1036.288319,1608.800546
1170.840656,-9918.759623,740.205942,995.924147
1170.840977,-9992.780217,666.185348,1072.533697
1170.841298,-9844.739029,444.123565,919.314598
1170.841619,-9770.718434,0.000000,383.047749
1170.841940,-10066.800811,0.000000,536.266849
1170.842260,-10066.800811,370.102971,459.657299
1170.842581,-9918.759623,592.164754,1072.533697
1170.842902,-10140.821405,370.102971,766.095498
1170.843223,-9844.739029,814.226536,766.095498
1170.843544,-9696.697840,666.185348,1302.362347
1170.843865,-9622.677246,74.020594,1225.752797
1170.844186,-9400.615463,-1184.329507,229.828649
1170.844507,-9548.656652,-1480.411884,1532.190996
1170.844828,-9104.533087,-2072.576638,1608.800546
1170.845149,-8956.491898,-2294.638420,1532.190996
1170.845470,-9104.533087,-1998.556043,919.314598
1170.845791,-9104.533087,-1036.288319,842.705048
1170.846112,-9326.594869,-592.164754,842.705048
1170.846433,-9030.512492,0.000000,689.485948
1170.846754,-9474.636058,296.082377,842.705048
1170.847074,-9548.656652,0.000000,306.438199
1170.847395,-9696.697840,0.000000,995.924147
1170.847716,-9992.780217,-296.082377,919.314598
1170.848037,-9918.759623,-740.205942,689.485948
1170.848357,-9696.697840,-1628.453072,1072.533697
1170.848678,-9474.636058,-888.247130,-153.219100
1170.848999,-9474.636058,-592.164754,-689.485948
1170.849319,-9474.636058,-518.144159,-689.485948
1170.849640,-9548.656652,444.123565,-306.438199
1170.849961,-10066.800811,1184.329507,-383.047749
1170.850281,-9622.677246,962.267725,0.000000
1170.850602,-10140.821405,666.185348,229.828649
1170.850923,-9696.697840,370.102971,1149.143247
1170.851243,-9918.759623,148.041188,229.828649
1170.851564,-9844.739029,-444.123565,1762.019645
1170.851885,-10066.800811,-1332.370696,2298.286494
1170.852206,-9696.697840,-1850.514855,2145.067394
1170.852526,-9326.594869,-2368.659014,1915.238745
1170.852847,-9030.512492,-1998.556043,1762.019645
1170.853168,-9326.594869,-1258.350101,1838.629195
1170.853488,-9252.574275,-518.144159,1608.800546
1170.853809,-9252.574275,-444.123565,1532.190996
1170.854130,-8808.450710,-296.082377,1149.143247
1170.854450,-9474.636058,0.000000,1455.581446
1170.854771,-9918.759623,148.041188,1302.362347
1170.855092,-10066.800811,0.000000,1302.362347
1170.855413,-9918.759623,518.144159,1072.533697
1170.855733,-9696.697840,-296.082377,995.924147
1170.856054,-9844.739029,-148.041188,689.485948
1170.856375,-9918.759623,148.041188,612.876398
1170.856695,-9548.656652,0.000000,995.924147
1170.857016,-9770.718434,74.020594,842.705048
1170.857337,-9622.677246,0.000000,536.266849
1170.857657,-9474.636058,0.000000,995.924147
1170.857978,-9770.718434,0.000000,1915.238745
1170.858299,-9178.553681,-592.164754,1915.238745
1170.858619,-9400.615463,-1776.494261,1991.848295
1170.858940,-9400.615463,-2220.617826,2298.286494
1170.859261,-9252.574275,-2294.638420,1838.629195
1170.859582,-8660.409521,-1998.556043,1608.800546
1170.859902,-9326.594869,-888.247130,1455.581446
1170.860223,-9326.594869,0.000000,1302.362347
1170.860544,-9474.636058,592.164754,1149.143247
1170.860864,-9548.656652,888.247130,1072.533697
1170.861185,-9844.739029,814.226536,919.314598
1170.861506,-9918.759623,444.123565,536.266849
1170.861826,-10066.800811,296.082377,995.924147
1170.862147,-9770.718434,-222.061783,689.485948
1170.862468,-9992.780217,-370.102971,536.266849
1170.862789,-9622.677246,-666.185348,306.438199
1170.863109,-9548.656652,-740.205942,0.000000
1170.863430,-9696.697840,-370.102971,0.000000
1170.863751,-9770.718434,518.144159,2911.162892
1170.864071,-9696.697840,296.082377,76.609550
1170.864392,-9770.718434,740.205942,0.000000
1170.864713,-9622.677246,888.247130,459.657299
1170.865033,-9622.677246,814.226536,919.314598
1170.865354,-9844.739029,0.000000,995.924147
1170.865675,-9844.739029,-444.123565,1378.971896
1170.865995,-9770.718434,-1258.350101,1685.410096
1170.866316,-9622.677246,-1850.514855,1608.800546
1170.866637,-9030.512492,-2072.576638,1838.629195
1170.866958,-9400.615463,-1554.432478,1455.581446
1170.867278,-9252.574275,-962.267725,1378.971896
1170.867599,-9030.512492,-592.164754,1378.971896
1170.867920,-8808.450710,518.144159,383.047749
1170.868240,-9400.615463,222.061783,1149.143247
1170.868561,-9548.656652,962.267725,919.314598
1170.868882,-9770.718434,296.082377,995.924147
1170.869202,-9918.759623,222.061783,536.266849
1170.869523,-9770.718434,0.000000,842.705048
1170.869844,-9844.739029,-222.061783,1072.533697
1170.870165,-10140.821405,-518.144159,689.485948
1170.870485,-9844.739029,-370.102971,766.095498
1170.870806,-9474.636058,-518.144159,536.266849
1170.871127,-9548.656652,148.041188,383.047749
1170.871447,-9474.636058,740.205942,612.876398
1170.871768,-9770.718434,592.164754,1072.533697
1170.872089,-9622.677246,888.247130,1225.752797
1170.872409,-9622.677246,-444.123565,2298.286494
1170.872730,-9622.677246,-1332.370696,1762.019645
1170.873051,-9400.615463,-2220.617826,2298.286494
1170.873371,-9400.615463,-2442.679609,2221.676944
1170.873692,-9548.656652,-2072.576638,1608.800546
1170.874013,-8808.450710,-1258.350101,1455.581446
1170.874334,-8956.491898,-296.082377,919.314598
1170.874654,-9178.553681,444.123565,1302.362347
1170.874975,-9474.636058,740.205942,1685.410096
1170.875296,-9474.636058,518.144159,766.095498
1170.875616,-9770.718434,518.144159,919.314598
1170.875937,-10066.800811,0.000000,1225.752797
1170.876258,-10288.862594,-370.102971,1532.190996
1170.876578,-10066.800811,-814.226536,1072.533697
1170.876899,-9548.656652,-370.102971,689.485948
1170.877220,-9770.718434,-592.164754,229.828649
1170.877541,-9474.636058,-444.123565,229.828649
1170.877861,-9030.512492,592.164754,-612.876398
1170.878182,-9474.636058,74.020594,0.000000
1170.878503,-9400.615463,888.247130,0.000000
1170.878823,-9622.677246,444.123565,612.876398
1170.879144,-9770.718434,296.082377,1378.971896
1170.879465,-9770.718434,-148.041188,1608.800546
1170.879785,-9992.780217,-1036.288319,2221.676944
1170.880106,-9918.759623,-1554.432478,2374.896044
1170.880427,-9770.718434,-2072.576638,2451.505594
1170.880747,-8734.430116,-2738.761985,3524.039291
1170.881068,-9400.615463,-2072.576638,2221.676944
1170.881389,-9252.574275,-1628.453072,2068.457845
1170.881710,-8956.491898,-1406.391290,1762.019645
1170.882030,-9178.553681,-296.082377,2834.553343
1170.882351,-9474.636058,444.123565,1225.752797
1170.882672,-9918.759623,592.164754,1532.190996
1170.882992,-9696.697840,740.205942,1149.143247
1170.883313,-10066.800811,222.061783,1072.533697
1170.883634,-9918.759623,814.226536,536.266849
1170.883954,-10510.924376,148.041188,842.705048
1170.884275,-9918.759623,-222.061783,612.876398
1170.884596,-9770.718434,-296.082377,536.266849
1170.884917,-10288.862594,370.102971,1302.362347
1170.885237,-9770.718434,296.082377,0.000000
1170.885558,-9474.636058,222.061783,459.657299
1170.885879,-9770.718434,148.041188,1149.143247
1170.886199,-9548.656652,74.020594,1149.143247
1170.886520,-9400.615463,-592.164754,1762.019645
1170.886841,-9474.636058,-962.267725,1608.800546
1170.887161,-9474.636058,-1702.473667,1762.019645
1170.887482,-9400.615463,-2146.597232,1378.971896
1170.887803,-8586.388927,-2220.617826,1685.410096
1170.888123,-9252.574275,-1110.308913,995.924147
1170.888444,-9400.615463,-444.123565,689.485948
1170.888765,-9178.553681,222.061783,919.314598
1170.889086,-9548.656652,370.102971,842.705048
1170.889406,-9474.636058,592.164754,612.876398
1170.889727,-9622.677246,666.185348,842.705048
1170.890048,-9918.759623,296.082377,842.705048
1170.890368,-10066.800811,148.041188,1149.143247
1170.890689,-9992.780217,-518.144159,1072.533697
1170.891010,-9844.739029,-888.247130,536.266849
1170.891330,-9696.697840,-962.267725,306.438199
1170.891651,-9474.636058,-222.061783,0.000000
1170.891972,-9474.636058,666.185348,0.000000
1170.892293,-9474.636058,1110.308913,229.828649
1170.892613,-9474.636058,888.247130,306.438199
1170.892934,-9474.636058,740.205942,459.657299
1170.893255,-8882.471304,0.000000,766.095498
1170.893575,-9918.759623,-148.041188,1685.410096
1170.893896,-9844.739029,-592.164754,1838.629195
1170.894217,-9770.718434,-1036.288319,2451.505594
1170.894537,-9548.656652,-1554.432478,1991.848295
1170.894858,-9548.656652,-1702.473667,2068.457845
1170.895179,-9400.615463,-1776.494261,2068.457845
1170.895500,-9104.533087,-1480.411884,1838.629195
1170.895820,-9252.574275,-666.185348,1302.362347
1170.896141,-8734.430116,-296.082377,2068.457845
1170.896462,-9252.574275,222.061783,919.314598
1170.896782,-9474.636058,370.102971,1072.533697
1170.897103,-10214.842000,518.144159,1378.971896
1170.897424,-9992.780217,814.226536,766.095498
1170.897744,-10066.800811,-222.061783,919.314598
1170.898065,-9918.759623,-370.102971,689.485948
1170.898386,-9992.780217,0.000000,766.095498
1170.898706,-9844.739029,0.000000,919.314598
1170.899027,-9622.677246,0.000000,612.876398
1170.899348,-9474.636058,0.000000,153.219100
1170.899669,-9696.697840,222.061783,689.485948
1170.899989,-9622.677246,0.000000,1072.533697
1170.900310,-9252.574275,-296.082377,1378.971896
1170.900631,-9400.615463,-518.144159,1532.190996
1170.900951,-9326.594869,-1184.329507,1991.848295
1170.901272,-9844.739029,-1924.535449,2145.067394
1170.901593,-9400.615463,-1702.473667,76.609550
1170.901913,-9326.594869,-2368.659014,1455.581446
1170.902234,-9400.615463,-1628.453072,1302.362347
1170.902555,-9400.615463,-814.226536,1302.362347
1170.902876,-9474.636058,-148.041188,919.314598
1170.903196,-9104.533087,222.061783,689.485948
1170.903517,-9548.656652,666.185348,842.705048
1170.903838,-9548.656652,518.144159,536.266849
1170.904158,-9844.739029,148.041188,766.095498
1170.904479,-10362.883188,-444.123565,1149.143247
1170.904800,-10140.821405,-666.185348,536.266849
1170.905120,-9992.780217,-444.123565,229.828649
1170.905441,-9548.656652,-370.102971,229.828649
1170.905762,-9696.697840,74.020594,-536.266849
1170.906082,-9992.780217,888.247130,0.000000
1170.906403,-9844.739029,962.267725,-306.438199
1170.906724,-9696.697840,1406.391290,0.000000
1170.907045,-9770.718434,814.226536,0.000000
1170.907365,-9992.780217,888.247130,536.266849
1170.907686,-10066.800811,148.041188,1149.143247
1170.908007,-9696.697840,-296.082377,1455.581446
1170.908327,-9548.656652,-1110.308913,1838.629195
1170.908648,-9474.636058,-1850.514855,1378.971896
1170.908969,-9548.656652,-2294.638420,1991.848295
1170.909289,-9474.636058,-2072.576638,1838.629195
1170.909610,-9178.553681,-1924.535449,1532.190996
1170.909931,-9104.533087,-888.247130,1378.971896
1170.910252,-9474.636058,0.000000,1302.362347
1170.910572,-9178.553681,74.020594,1225.752797
1170.910893,-9252.574275,370.102971,766.095498
1170.911214,-9474.636058,148.041188,689.485948
1170.911534,-9474.636058,370.102971,612.876398
1170.911855,-10066.800811,148.041188,842.705048
1170.912176,-9844.739029,0.000000,995.924147
1170.912496,-9696.697840,222.061783,689.485948
1170.912817,-9252.574275,-222.061783,1838.629195
1170.913138,-9696.697840,0.000000,689.485948
1170.913458,-9474.636058,0.000000,229.828649
1170.913779,-9548.656652,370.102971,459.657299
1170.914100,-9696.697840,444.123565,919.314598
1170.914421,-9770.718434,518.144159,995.924147
1170.914741,-9548.656652,-370.102971,1455.581446
1170.915062,-9474.636058,-962.267725,1762.019645
1170.915383,-9474.636058,-1554.432478,1991.848295
1170.915703,-9474.636058,-2516.700203,1762.019645
1170.916024,-9326.594869,-2368.659014,1685.410096
1170.916345,-9326.594869,-1998.556043,1302.362347
1170.916665,-9326.594869,-888.247130,1455.581446
1170.916986,-9400.615463,-296.082377,1302.362347
1170.917307,-9622.677246,296.082377,1532.190996
1170.917628,-9696.697840,222.061783,1225.752797
1170.917948,-10066.800811,592.164754,1455.581446
1170.918269,-10066.800811,444.123565,1378.971896
1170.918590,-9992.780217,0.000000,76.609550
1170.918910,-10288.862594,-296.082377,1225.752797
1170.919231,-10066.800811,-1110.308913,612.876398
1170.919552,-9548.656652,-962.267725,153.219100
1170.919872,-9622.677246,-592.164754,1225.752797
1170.920193,-9474.636058,666.185348,0.000000
1170.920514,-9918.759623,962.267725,76.609550
1170.920834,-9474.636058,1258.350101,229.828649
1170.921155,-9474.636058,888.247130,0.000000
1170.921476,-9770.718434,296.082377,1149.143247
1170.921797,-9696.697840,-222.061783,1455.581446
1170.922117,-9992.780217,-666.185348,2145.067394
1170.922438,-9696.697840,-1554.432478,2221.676944
1170.922759,-9548.656652,-2146.597232,1838.629195
1170.923079,-9474.636058,-2368.659014,2298.286494
1170.923400,-9252.574275,-2442.679609,1915.238745
1170.923721,-8734.430116,-2072.576638,1378.971896
1170.924041,-9178.553681,-1184.329507,1455.581446
1170.924362,-8882.471304,-444.123565,1072.533697
1170.924683,-9326.594869,0.000000,1149.143247
1170.925004,-9474.636058,148.041188,919.314598
1170.925324,-9474.636058,148.041188,766.095498
1170.925645,-9474.636058,592.164754,536.266849
1170.925966,-9992.780217,-222.061783,919.314598
1170.926286,-9918.759623,-296.082377,919.314598
1170.926607,-9844.739029,-370.102971,536.266849
1170.926928,-9844.739029,-296.082377,306.438199
1170.927248,-9844.739029,74.020594,383.047749
1170.927569,-9622.677246,444.123565,536.266849
1170.927890,-9696.697840,444.123565,459.657299
1170.928210,-9622.677246,592.164754,919.314598
1170.928531,-9770.718434,518.144159,1072.533697
1170.928852,-9770.718434,148.041188,1685.410096
1170.929173,-9622.677246,-444.123565,1532.190996
1170.929493,-9696.697840,-1480.411884,2374.896044
1170.929814,-8808.450710,-2146.597232,1302.362347
1170.930135,-9474.636058,-1850.514855,1838.629195
1170.930455,-9326.594869,-1258.350101,1685.410096
1170.930776,-9326.594869,-592.164754,1378.971896
1170.931097,-9474.636058,518.144159,76.609550
1170.931417,-9844.739029,518.144159,1225.752797
1170.931738,-9696.697840,888.247130,1302.362347
1170.932059,-9918.759623,0.000000,1225.752797
1170.932380,-9918.759623,-148.041188,1302.362347
1170.932700,-9918.759623,-296.082377,1915.238745
1170.933021,-9918.759623,-1110.308913,1608.800546
1170.933342,-9622.677246,-1480.411884,1225.752797
1170.933662,-9326.594869,-1554.432478,842.705048
1170.933983,-8586.388927,-962.267725,1149.143247
1170.934304,-9474.636058,0.000000,766.095498
1170.934624,-9400.615463,740.205942,612.876398
1170.934945,-9326.594869,962.267725,229.828649
1170.935266,-9548.656652,1110.308913,153.219100
1170.935586,-9548.656652,740.205942,612.876398
1170.935907,-9474.636058,0.000000,995.924147
1170.936228,-9770.718434,-740.205942,1455.581446
1170.936549,-9474.636058,-1406.391290,1532.190996
1170.936869,-9696.697840,-1998.556043,1915.238745
1170.937190,-9400.615463,-2294.638420,1608.800546
1170.937511,-9252.574275,-2146.597232,1608.800546
1170.937831,-9252.574275,-1924.535449,1225.752797
1170.938152,-9622.677246,-962.267725,919.314598
1170.938473,-8956.491898,-962.267725,536.266849
1170.938793,-9474.636058,-222.061783,766.095498
1170.939114,-9326.594869,222.061783,383.047749
1170.939435,-9770.718434,592.164754,383.047749
1170.939756,-10140.821405,814.226536,919.314598
1170.940076,-9844.739029,296.082377,76.609550
1170.940397,-10214.842000,222.061783,229.828649
1170.940718,-10140.821405,148.041188,229.828649
1170.941038,-9844.739029,0.000000,229.828649
1170.941359,-10066.800811,74.020594,306.438199
1170.941680,-9918.759623,296.082377,229.828649
1170.942000,-9696.697840,518.144159,153.219100
1170.942321,-9992.780217,962.267725,-612.876398
1170.942642,-9992.780217,370.102971,1378.971896
1170.942962,-9622.677246,-370.102971,1762.019645
1170.943283,-9474.636058,-962.267725,1762.019645
1170.943604,-9622.677246,-1554.432478,2298.286494
1170.943925,-9326.594869,-2294.638420,2374.896044
1170.944245,-9474.636058,-2220.617826,1991.848295
1170.944566,-9326.594869,-1850.514855,1455.581446
1170.944887,-9326.594869,-1036.288319,1072.533697
1170.945207,-9104.533087,0.000000,1302.362347
1170.945528,-9326.594869,444.123565,1302.362347
1170.945849,-9400.615463,666.185348,1149.143247
1170.946169,-9696.697840,518.144159,919.314598
1170.946490,-9030.512492,296.082377,1225.752797
1170.946811,-9770.718434,-518.144159,1072.533697
1170.947132,-9770.718434,-1184.329507,1225.752797
1170.947453,-9622.677246,-1406.391290,919.314598
1170.947774,-9474.636058,-1332.370696,689.485948
1170.948094,-9770.718434,-592.164754,306.438199
1170.948415,-9474.636058,0.000000,689.485948
1170.948736,-9474.636058,814.226536,229.828649
1170.949057,-9696.697840,1554.432478,383.047749
1170.949378,-10288.862594,2368.659014,689.485948
1170.949699,-9770.718434,1628.453072,1072.533697
1170.950019,-9548.656652,814.226536,1225.752797
1170.950340,-10066.800811,222.061783,1838.629195
1170.950661,-9918.759623,-592.164754,1608.800546
1170.950982,-9474.636058,-1406.391290,2221.676944
1170.951303,-9252.574275,-1924.535449,1991.848295
1170.951623,-9400.615463,-1998.556043,2068.457845
1170.951944,-9104.533087,-1776.494261,2068.457845
1170.952265,-8808.450710,-1554.432478,1455.581446
1170.952586,-9030.512492,-592.164754,842.705048
1170.952907,-9178.553681,0.000000,383.047749
1170.953228,-9474.636058,444.123565,766.095498
1170.953548,-10066.800811,740.205942,-306.438199
1170.953869,-9918.759623,518.144159,459.657299
1170.954190,-9696.697840,370.102971,76.609550
1170.954511,-10362.883188,222.061783,76.609550
1170.954832,-10066.800811,74.020594,0.000000
1170.955153,-10066.800811,0.000000,0.000000
1170.955473,-9844.739029,444.123565,0.000000
1170.955794,-9622.677246,370.102971,0.000000
1170.956115,-9548.656652,222.061783,0.000000
1170.956436,-9474.636058,444.123565,459.657299
1170.956757,-9474.636058,0.000000,1072.533697
1170.957078,-9548.656652,-592.164754,1378.971896
1170.957398,-9400.615463,-1036.288319,1685.410096
1170.957719,-9622.677246,-1480.411884,2757.943793
1170.958040,-9326.594869,-2072.576638,1991.848295
1170.958361,-9178.553681,-2072.576638,1532.190996
1170.958682,-9252.574275,-1702.473667,1532.190996
1170.959002,-9104.533087,-666.185348,1532.190996
1170.959323,-9326.594869,74.020594,1762.019645
1170.959644,-9400.615463,814.226536,1685.410096
1170.959965,-9622.677246,888.247130,1378.971896
1170.960286,-9696.697840,444.123565,1762.019645
1170.960607,-9474.636058,74.020594,1762.019645
1170.960927,-9918.759623,-962.267725,1762.019645
1170.961248,-9770.718434,-1036.288319,2068.457845
1170.961569,-9992.780217,-1554.432478,1455.581446
1170.961890,-9696.697840,-1776.494261,766.095498
1170.962211,-9474.636058,-740.205942,536.266849
1170.962532,-9474.636058,0.000000,689.485948
1170.962852,-9622.677246,444.123565,689.485948
1170.963173,-9770.718434,962.267725,612.876398
1170.963494,-9844.739029,1036.288319,766.095498
1170.963815,-9770.718434,888.247130,995.924147
1170.964136,-9992.780217,518.144159,1302.362347
1170.964457,-9770.718434,-296.082377,1685.410096
1170.964777,-9992.780217,-666.185348,2451.505594
1170.965098,-10066.800811,-1924.535449,2451.505594
1170.965419,-9622.677246,-2590.720797,2528.115143
1170.965740,-9400.615463,-2886.803174,1838.629195
1170.966061,-9992.780217,-1702.473667,689.485948
1170.966382,-9178.553681,-1702.473667,2068.457845
1170.966702,-9104.533087,-1036.288319,1072.533697
1170.967023,-9104.533087,0.000000,919.314598
1170.967344,-9252.574275,370.102971,459.657299
1170.967665,-9400.615463,740.205942,229.828649
1170.967986,-9622.677246,888.247130,306.438199
1170.968306,-10140.821405,444.123565,76.609550
1170.968627,-10214.842000,296.082377,536.266849
1170.968948,-10066.800811,222.061783,1072.533697
1170.969269,-9770.718434,-444.123565,0.000000
1170.969590,-10066.800811,0.000000,229.828649
1170.969911,-9696.697840,0.000000,0.000000
1170.970231,-8808.450710,-592.164754,1149.143247
1170.970552,-9400.615463,74.020594,76.609550
1170.970873,-9474.636058,74.020594,536.266849
1170.971194,-9474.636058,-222.061783,1149.143247
1170.971515,-9474.636058,-740.205942,1608.800546
1170.971836,-9474.636058,-1332.370696,2145.067394
1170.972156,-9548.656652,-1998.556043,1685.410096
1170.972477,-9474.636058,-1776.494261,1378.971896
1170.972798,-9474.636058,-1184.329507,1378.971896
1170.973119,-9622.677246,-518.144159,919.314598
1170.973440,-9844.739029,740.205942,1685.410096
1170.973761,-9474.636058,1110.308913,1072.533697
1170.974081,-9548.656652,1036.288319,689.485948
1170.974402,-9178.553681,2146.597232,0.000000
1170.974723,-9918.759623,222.061783,1072.533697
1170.975044,-9770.718434,-296.082377,995.924147
1170.975365,-9770.718434,-962.267725,919.314598
1170.975685,-9622.677246,-1480.411884,689.485948
1170.976006,-9474.636058,-1406.391290,459.657299
1170.976327,-9622.677246,-1036.288319,842.705048
1170.976648,-9770.718434,0.000000,766.095498
1170.976969,-9622.677246,740.205942,612.876398
1170.977290,-9992.780217,1036.288319,1149.143247
1170.977610,-9622.677246,1258.350101,1225.752797
1170.977931,-9770.718434,814.226536,1762.019645
1170.978252,-9770.718434,592.164754,1915.238745
1170.978573,-9992.780217,888.247130,2834.553343
1170.978894,-9770.718434,-444.123565,2528.115143
1170.979215,-9474.636058,-1258.350101,2911.162892
1170.979535,-9548.656652,-1850.514855,2987.772442
1170.979856,-9178.553681,-2294.638420,2757.943793
1170.980177,-8956.491898,-2516.700203,1991.848295
1170.980498,-8956.491898,-1776.494261,2145.067394
1170.980819,-9030.512492,-1110.308913,1685.410096
1170.981140,-9326.594869,-444.123565,1685.410096
1170.981460,-9400.615463,222.061783,1532.190996
1170.981781,-9400.615463,592.164754,995.924147
1170.982102,-9696.697840,444.123565,536.266849
1170.982423,-10066.800811,74.020594,766.095498
1170.982744,-9992.780217,0.000000,153.219100
1170.983064,-9992.780217,148.041188,-153.219100
1170.983385,-9844.739029,74.020594,-306.438199
1170.983706,-9844.739029,74.020594,-383.047749
1170.984027,-9770.718434,0.000000,-306.438199
1170.984348,-9474.636058,-592.164754,-536.266849
1170.984669,-9474.636058,0.000000,-459.657299
1170.984989,-9474.636058,0.000000,0.000000
1170.985310,-9474.636058,222.061783,612.876398
1170.985631,-9770.718434,0.000000,1455.581446
1170.985952,-9548.656652,-1258.350101,1149.143247
1170.986273,-9474.636058,-1850.514855,995.924147
1170.986594,-9474.636058,-2368.659014,919.314598
1170.986914,-9696.697840,-1776.494261,919.314598
1170.987235,-9548.656652,-1036.288319,1072.533697
1170.987556,-9548.656652,0.000000,1149.143247
1170.987877,-9548.656652,518.144159,766.095498
1170.988198,-9622.677246,814.226536,536.266849
1170.988519,-9548.656652,592.164754,1302.362347
1170.988839,-9992.780217,518.144159,842.705048
1170.989160,-9918.759623,222.061783,1149.143247
1170.989481,-9992.780217,-518.144159,1225.752797
1170.989802,-9622.677246,-888.247130,2298.286494
1170.990123,-9474.636058,-1184.329507,689.485948
1170.990443,-9474.636058,-1036.288319,383.047749
1170.990764,-9474.636058,-518.144159,383.047749
1170.991085,-9474.636058,444.123565,76.609550
1170.991406,-9696.697840,1036.288319,306.438199
1170.991727,-9474.636058,1110.308913,689.485948
1170.992048,-9696.697840,1184.329507,995.924147
1170.992368,-9770.718434,814.226536,1608.800546
1170.992689,-9400.615463,592.164754,2757.943793
1170.993010,-9696.697840,-740.205942,2374.896044
1170.993331,-9474.636058,-1702.473667,2681.334243
1170.993652,-9474.636058,-1998.556043,2604.724693
1170.993973,-9400.615463,-2146.597232,2374.896044
1170.994293,-9252.574275,-1924.535449,2451.505594
1170.994614,-9104.533087,-1332.370696,1838.629195
1170.994935,-9104.533087,-814.226536,2068.457845
1170.995256,-9326.594869,-222.061783,1762.019645
1170.995577,-9178.553681,0.000000,1685.410096
1170.995898,-9474.636058,-148.041188,1302.362347
1170.996218,-9548.656652,0.000000,1225.752797
1170.996539,-9992.780217,-296.082377,1072.533697
1170.996860,-9622.677246,-592.164754,1302.362347
1170.997181,-9918.759623,74.020594,995.924147
1170.997502,-9992.780217,0.000000,383.047749
1170.997823,-9992.780217,0.000000,536.266849
1170.998143,-10288.862594,74.020594,306.438199
1170.998464,-9844.739029,74.020594,536.266849
1170.998785,-9548.656652,370.102971,536.266849
1170.999106,-9696.697840,0.000000,689.485948
1170.999427,-9474.636058,0.000000,1149.143247
1170.999747,-9622.677246,-666.185348,1532.190996
1171.000068,-9474.636058,-1036.288319,1532.190996
1171.000389,-9104.533087,-1480.411884,1455.581446
1171.000710,-9474.636058,-1924.535449,1378.971896
1171.001031,-9326.594869,-1850.514855,1838.629195
1171.001352,-9178.553681,-1480.411884,842.705048
1171.001672,-9326.594869,-296.082377,689.485948
1171.001993,-9400.615463,370.102971,536.266849
1171.002314,-9548.656652,814.226536,0.000000
1171.002635,-9548.656652,370.102971,536.266849
1171.002956,-9918.759623,444.123565,689.485948
1171.003277,-9918.759623,74.020594,612.876398
1171.003597,-9992.780217,-444.123565,689.485948
1171.003918,-9992.780217,-814.226536,842.705048
1171.004239,-9622.677246,-1184.329507,306.438199
1171.004560,-9770.718434,-740.205942,0.000000
1171.004881,-9696.697840,0.000000,229.828649
1171.005202,-9474.636058,0.000000,383.047749
1171.005522,-9770.718434,740.205942,459.657299
1171.005843,-9548.656652,1036.288319,306.438199
1171.006164,-9844.739029,1036.288319,459.657299
1171.006485,-9622.677246,888.247130,1302.362347
1171.006806,-9992.780217,222.061783,2068.457845
1171.007126,-9918.759623,-148.041188,2451.505594
1171.007447,-9696.697840,-1184.329507,2451.505594
1171.007768,-9474.636058,-1702.473667,2528.115143
1171.008089,-9400.615463,-2294.638420,2528.115143
1171.008410,-8956.491898,-2220.617826,2221.676944
1171.008731,-8586.388927,-1702.473667,2068.457845
1171.009051,-9030.512492,-888.247130,1532.190996
1171.009372,-10288.862594,518.144159,1532.190996
1171.009693,-9252.574275,0.000000,1455.581446
1171.010014,-9622.677246,74.020594,1302.362347
1171.010335,-9548.656652,0.000000,2068.457845
1171.010656,-9770.718434,0.000000,1762.019645
1171.010976,-9770.718434,-592.164754,766.095498
1171.011297,-9622.677246,-296.082377,536.266849
1171.011618,-9622.677246,0.000000,689.485948
1171.011939,-9696.697840,222.061783,536.266849
1171.012260,-9844.739029,444.123565,0.000000
1171.012581,-9622.677246,888.247130,153.219100
1171.012901,-9696.697840,518.144159,459.657299
1171.013222,-9770.718434,518.144159,842.705048
1171.013543,-9770.718434,74.020594,1685.410096
1171.013864,-9770.718434,-740.205942,1685.410096
1171.014185,-9326.594869,-1110.308913,1991.848295
1171.014505,-9548.656652,-2294.638420,1762.019645
1171.014826,-9474.636058,-2368.659014,0.000000
1171.015147,-9400.615463,-2368.659014,1378.971896
1171.015468,-9030.512492,-1480.411884,995.924147
1171.015789,-9252.574275,-148.041188,842.705048
1171.016110,-9696.697840,370.102971,1072.533697
1171.016430,-9770.718434,814.226536,919.314598
1171.016751,-9770.718434,370.102971,995.924147
1171.017072,-10066.800811,0.000000,459.657299
1171.017393,-9992.780217,-370.102971,995.924147
1171.017714,-9918.759623,-518.144159,766.095498
1171.018035,-9696.697840,-962.267725,459.657299
1171.018355,-9622.677246,-740.205942,153.219100
1171.018676,-9696.697840,-518.144159,0.000000
1171.018997,-9474.636058,-222.061783,-153.219100
1171.019318,-9622.677246,592.164754,0.000000
1171.019639,-9770.718434,1110.308913,0.000000
1171.019960,-9548.656652,1036.288319,459.657299
1171.020280,-9622.677246,1036.288319,459.657299
1171.020601,-9696.697840,592.164754,459.657299
1171.020922,-9548.656652,148.041188,1455.581446
1171.021243,-9474.636058,-518.144159,1762.019645
1171.021564,-9622.677246,-1258.350101,2068.457845
1171.021884,-9400.615463,-1554.432478,2298.286494
1171.022205,-9400.615463,-2146.597232,2145.067394
1171.022526,-9252.574275,-1850.514855,2298.286494
1171.022847,-9178.553681,-1406.391290,1838.629195
1171.023168,-9400.615463,-592.164754,459.657299
1171.023489,-9474.636058,-296.082377,1685.410096
1171.023809,-9474.636058,0.000000,1838.629195
1171.024130,-9474.636058,444.123565,1072.533697
1171.024451,-9548.656652,370.102971,1378.971896
1171.024772,-9770.718434,592.164754,1149.143247
1171.025093,-9992.780217,370.102971,383.047749
1171.025414,-9474.636058,222.061783,229.828649
1171.025734,-9696.697840,222.061783,76.609550
1171.026055,-9844.739029,962.267725,0.000000
1171.026376,-9622.677246,0.000000,0.000000
1171.026697,-9918.759623,444.123565,612.876398
1171.027018,-9770.718434,592.164754,995.924147
1171.027339,-9770.718434,888.247130,383.047749
1171.027659,-9992.780217,74.020594,1915.238745
1171.027980,-9474.636058,-666.185348,1762.019645
1171.028301,-9622.677246,-1258.350101,2221.676944
1171.028622,-9400.615463,-2220.617826,2068.457845
1171.028943,-9326.594869,-2368.659014,1762.019645
1171.029264,-9326.594869,-1776.494261,1378.971896
1171.029584,-9030.512492,-888.247130,919.314598
1171.029905,-9030.512492,-222.061783,536.266849
1171.030226,-9548.656652,962.267725,689.485948
1171.030547,-9400.615463,1110.308913,383.047749
1171.030868,-9770.718434,1184.329507,153.219100
1171.031188,-9696.697840,1110.308913,76.609550
1171.031509,-9992.780217,740.205942,2145.067394
1171.031830,-10066.800811,0.000000,536.266849
1171.032151,-9844.739029,-1110.308913,689.485948
1171.032472,-9770.718434,-1480.411884,459.657299
1171.032793,-9622.677246,-1480.411884,306.438199
1171.033113,-9992.780217,-592.164754,0.000000
1171.033434,-9474.636058,0.000000,0.000000
1171.033755,-9622.677246,592.164754,0.000000
1171.034076,-9474.636058,1036.288319,229.828649
1171.034397,-9252.574275,962.267725,1302.362347
1171.034718,-9622.677246,518.144159,919.314598
1171.035038,-9770.718434,-148.041188,1302.362347
1171.035359,-9622.677246,-1110.308913,2374.896044
1171.035680,-9770.718434,-1480.411884,2604.724693
1171.036001,-9622.677246,-1924.535449,2911.162892
1171.036322,-9474.636058,-1998.556043,3217.601092
1171.036643,-9474.636058,-2368.659014,3217.601092
1171.036963,-9252.574275,-1998.556043,2911.162892
1171.037284,-9178.553681,-1628.453072,2374.896044
1171.037605,-8956.491898,-740.205942,1915.238745
1171.037926,-9178.553681,-296.082377,1762.019645
1171.038247,-9178.553681,0.000000,1915.238745
1171.038567,-9474.636058,74.020594,1608.800546
1171.038888,-9992.780217,0.000000,1608.800546
1171.039209,-10214.842000,0.000000,1455.581446
1171.039530,-10214.842000,-222.061783,1225.752797
1171.039851,-9992.780217,0.000000,0.000000
1171.040172,-9918.759623,222.061783,383.047749
1171.040492,-9844.739029,296.082377,153.219100
1171.040813,-9548.656652,592.164754,0.000000
1171.041134,-9474.636058,740.205942,76.609550
1171.041455,-9844.739029,444.123565,689.485948
1171.041776,-9844.739029,148.041188,689.485948
1171.042097,-9770.718434,-296.082377,1378.971896
1171.042417,-9844.739029,-888.247130,1455.581446
1171.042738,-10066.800811,-1776.494261,2221.676944
1171.043059,-9622.677246,-2294.638420,1532.190996
1171.043380,-9474.636058,-1702.473667,1302.362347
1171.043701,-9474.636058,-1332.370696,689.485948
1171.044022,-9178.553681,-888.247130,0.000000
1171.044342,-9326.594869,74.020594,689.485948
1171.044663,-9622.677246,444.123565,306.438199
1171.044984,-9770.718434,740.205942,76.609550
1171.045305,-9400.615463,592.164754,229.828649
1171.045626,-9770.718434,222.061783,0.000000
1171.045946,-10066.800811,-148.041188,766.095498
1171.046267,-9770.718434,-740.205942,153.219100
1171.046588,-9474.636058,-666.185348,0.000000
1171.046909,-8586.388927,-1258.350101,-153.219100
1171.047230,-9326.594869,-222.061783,-76.609550
1171.047551,-9548.656652,148.041188,0.000000
1171.047871,-9474.636058,814.226536,0.000000
1171.048192,-9474.636058,1258.350101,1378.971896
1171.048513,-9474.636058,962.267725,383.047749
1171.048834,-9770.718434,444.123565,1149.143247
1171.049155,-9770.718434,0.000000,1685.410096
1171.049475,-9696.697840,-740.205942,1991.848295
1171.049796,-9474.636058,-1184.329507,2604.724693
1171.050117,-9400.615463,-1924.535449,2451.505594
1171.050438,-9400.615463,-2072.576638,2068.457845
1171.050758,-9252.574275,-1998.556043,2298.286494
1171.051079,-9326.594869,-2146.597232,2374.896044
1171.051400,-9178.553681,-888.247130,1838.629195
1171.051721,-9178.553681,-370.102971,1302.362347
1171.052041,-9474.636058,148.041188,1302.362347
1171.052362,-9770.718434,444.123565,1455.581446
1171.052683,-9844.739029,666.185348,1455.581446
1171.053004,-9622.677246,444.123565,1225.752797
1171.053324,-9992.780217,0.000000,1149.143247
1171.053645,-10140.821405,0.000000,1225.752797
1171.053966,-9696.697840,-370.102971,612.876398
1171.054287,-9844.739029,-222.061783,766.095498
1171.054607,-9844.739029,0.000000,536.266849
1171.054928,-9770.718434,74.020594,229.828649
1171.055249,-8808.450710,888.247130,2145.067394
1171.055570,-9992.780217,740.205942,1455.581446
1171.055890,-9770.718434,148.041188,1685.410096
1171.056211,-9548.656652,-444.123565,2068.457845
1171.056532,-9474.636058,-1184.329507,1762.019645
1171.056853,-9548.656652,-1850.514855,1685.410096
1171.057173,-9252.574275,-2368.659014,2068.457845
1171.057494,-9030.512492,-2072.576638,1302.362347
1171.057815,-9252.574275,-1554.432478,919.314598
1171.058136,-9178.553681,-666.185348,995.924147
1171.058456,-9326.594869,0.000000,612.876398
1171.058777,-9548.656652,370.102971,612.876398
1171.059098,-9326.594869,592.164754,689.485948
1171.059419,-9696.697840,888.247130,689.485948
1171.059739,-9844.739029,148.041188,919.314598
1171.060060,-9844.739029,-370.102971,459.657299
1171.060381,-9918.759623,-1036.288319,842.705048
1171.060702,-9696.697840,-1332.370696,229.828649
1171.061022,-9622.677246,-1036.288319,0.000000
1171.061343,-9474.636058,-518.144159,-306.438199
1171.061664,-9474.636058,222.061783,-306.438199
1171.061985,-9474.636058,888.247130,153.219100
1171.062305,-9548.656652,1258.350101,-383.047749
1171.062626,-9696.697840,814.226536,0.000000
1171.062947,-9918.759623,518.144159,459.657299
1171.063268,-9918.759623,148.041188,995.924147
1171.063588,-8808.450710,-1332.370696,2987.772442
1171.063909,-9770.718434,-1110.308913,2451.505594
1171.064230,-9622.677246,-1258.350101,2374.896044
1171.064551,-9622.677246,-1776.494261,2451.505594
1171.064871,-9696.697840,-1924.535449,2451.505594
1171.065192,-9252.574275,-1628.453072,1991.848295
1171.065513,-9252.574275,-1406.391290,1608.800546
1171.065834,-9104.533087,-518.144159,1378.971896
1171.066154,-9474.636058,148.041188,1608.800546
1171.066475,-9400.615463,444.123565,1685.410096
1171.066796,-9622.677246,444.123565,1302.362347
1171.067117,-9992.780217,296.082377,1072.533697
1171.067437,-9992.780217,0.000000,1072.533697
1171.067758,-9622.677246,-740.205942,842.705048
1171.068079,-9918.759623,0.000000,766.095498
1171.068400,-9696.697840,0.000000,153.219100
1171.068720,-9770.718434,222.061783,689.485948
1171.069041,-9696.697840,518.144159,229.828649
1171.069362,-9548.656652,666.185348,689.485948
1171.069683,-9622.677246,740.205942,995.924147
1171.070003,-9622.677246,222.061783,1455.581446
1171.070324,-9474.636058,-518.144159,1838.629195
1171.070645,-9696.697840,-1036.288319,2681.334243
1171.070966,-9252.574275,-2220.617826,2451.505594
1171.071286,-9178.553681,-2442.679609,1915.238745
1171.071607,-9252.574275,-2664.741391,2068.457845
1171.071928,-9474.636058,-814.226536,995.924147
1171.072249,-9326.594869,-518.144159,1302.362347
1171.072569,-9400.615463,222.061783,1072.533697
1171.072890,-9400.615463,592.164754,1149.143247
1171.073211,-9474.636058,592.164754,1149.143247
1171.073532,-9770.718434,370.102971,995.924147
1171.073852,-9992.780217,222.061783,919.314598
1171.074173,-9844.739029,-296.082377,842.705048
1171.074494,-9844.739029,-518.144159,536.266849
1171.074815,-9548.656652,-444.123565,306.438199
1171.075135,-9696.697840,-444.123565,153.219100
1171.075456,-9548.656652,148.041188,0.000000
1171.075777,-9696.697840,370.102971,229.828649
1171.076098,-10214.842000,1480.411884,0.000000
1171.076418,-9474.636058,888.247130,-229.828649
1171.076739,-9474.636058,1184.329507,76.609550
1171.077060,-9918.759623,962.267725,612.876398
1171.077381,-9696.697840,666.185348,1149.143247
1171.077701,-9770.718434,-74.020594,1532.190996
1171.078022,-9696.697840,-962.267725,1762.019645
1171.078343,-9696.697840,-1776.494261,1532.190996
1171.078664,-9400.615463,-2294.638420,1608.800546
1171.078984,-9178.553681,-1998.556043,1378.971896
1171.079305,-9474.636058,-1628.453072,1991.848295
1171.079626,-9400.615463,-1110.308913,1608.800546
1171.079947,-9326.594869,-888.247130,1455.581446
1171.080267,-9474.636058,-814.226536,919.314598
1171.080588,-9474.636058,-444.123565,1149.143247
1171.080909,-9474.636058,0.000000,1072.533697
1171.081230,-9696.697840,-74.020594,995.924147
1171.081550,-9622.677246,-592.164754,919.314598
1171.081871,-9622.677246,-814.226536,612.876398
1171.082192,-9474.636058,-962.267725,689.485948
1171.082513,-9770.718434,-518.144159,536.266849
1171.082833,-10288.862594,0.000000,842.705048
1171.083154,-9622.677246,0.000000,1532.190996
1171.083475,-9622.677246,444.123565,612.876398
1171.083796,-9992.780217,518.144159,1149.143247
1171.084116,-9770.718434,518.144159,1608.800546
1171.084437,-10066.800811,222.061783,1455.581446
1171.084758,-9696.697840,-1184.329507,2145.067394
1171.085079,-9400.615463,-1776.494261,1915.238745
1171.085399,-9400.615463,-2220.617826,1685.410096
1171.085720,-9326.594869,-2072.576638,1532.190996
1171.086041,-9326.594869,-1628.453072,1225.752797
1171.086362,-9252.574275,-592.164754,842.705048
1171.086682,-9252.574275,444.123565,919.314598
1171.087003,-9770.718434,814.226536,919.314598
1171.087324,-9326.594869,814.226536,919.314598
1171.087645,-9918.759623,592.164754,536.266849
1171.087965,-10214.842000,814.226536,766.095498
1171.088286,-10066.800811,148.041188,536.266849
1171.088607,-10288.862594,0.000000,153.219100
1171.088928,-9696.697840,-888.247130,536.266849
1171.089248,-9696.697840,-962.267725,0.000000
1171.089569,-9474.636058,-518.144159,306.438199
1171.089890,-9548.656652,-74.020594,612.876398
1171.090211,-9474.636058,296.082377,383.047749
1171.090531,-9326.594869,444.123565,459.657299
1171.090852,-9326.594869,740.205942,766.095498
1171.091173,-9622.677246,444.123565,1149.143247
1171.091494,-9696.697840,222.061783,2068.457845
1171.091814,-9474.636058,-666.185348,2451.505594
1171.092135,-9548.656652,-1110.308913,2451.505594
1171.092456,-9474.636058,-1554.432478,2604.724693
1171.092777,-9770.718434,-1480.411884,2528.115143
1171.093097,-9104.533087,-1850.514855,2145.067394
1171.093418,-8734.430116,-1776.494261,1608.800546
1171.093739,-8734.430116,-888.247130,1378.971896
1171.094060,-9030.512492,0.000000,842.705048
1171.094380,-9178.553681,666.185348,842.705048
1171.094701,-9474.636058,888.247130,689.485948
1171.095022,-9622.677246,740.205942,153.219100
1171.095343,-9696.697840,814.226536,153.219100
1171.095663,-9992.780217,74.020594,76.609550
1171.095984,-10140.821405,296.082377,0.000000
1171.096305,-9992.780217,0.000000,0.000000
1171.096626,-9770.718434,148.041188,0.000000
1171.096946,-9252.574275,-518.144159,612.876398
1171.097267,-9770.718434,222.061783,0.000000
1171.097588,-9770.718434,296.082377,153.219100
1171.097909,-9992.780217,222.061783,689.485948
1171.098229,-9622.677246,0.000000,2451.505594
1171.098550,-9844.739029,-592.164754,1532.190996
1171.098871,-9770.718434,-1036.288319,1838.629195
1171.099192,-9696.697840,-1406.391290,1991.848295
1171.099512,-9622.677246,-1924.535449,2068.457845
1171.099833,-9252.574275,-1850.514855,2451.505594
1171.100154,-9474.636058,-1406.391290,1302.362347
1171.100475,-9474.636058,-666.185348,919.314598
1171.100795,-9474.636058,370.102971,1225.752797
1171.101116,-9548.656652,888.247130,229.828649
1171.101437,-9696.697840,814.226536,842.705048
1171.101758,-9844.739029,814.226536,766.095498
1171.102078,-9844.739029,592.164754,919.314598
1171.102399,-9844.739029,-222.061783,1225.752797
1171.102720,-9548.656652,-740.205942,1378.971896
1171.103041,-9474.636058,-1332.370696,995.924147
1171.103361,-9326.594869,-1628.453072,536.266849
1171.103682,-9030.512492,-1258.350101,0.000000
1171.104003,-9548.656652,-370.102971,306.438199
1171.104324,-9474.636058,74.020594,536.266849
1171.104644,-9400.615463,444.123565,459.657299
1171.104965,-9474.636058,518.144159,306.438199
1171.105286,-9548.656652,962.267725,536.266849
1171.105607,-9770.718434,296.082377,1378.971896
1171.105927,-9770.718434,-222.061783,2068.457845
1171.106248,-9548.656652,-1258.350101,2068.457845
1171.106569,-9400.615463,-1998.556043,2451.505594
1171.106890,-9326.594869,-2368.659014,2834.553343
1171.107210,-9400.615463,-2590.720797,2604.724693
1171.107531,-9326.594869,-2294.638420,2451.505594
1171.107852,-9252.574275,-1628.453072,2298.286494
1171.108173,-9178.553681,-888.247130,1991.848295
1171.108493,-9252.574275,-370.102971,1762.019645
1171.108814,-9400.615463,0.000000,1378.971896
1171.109135,-9696.697840,444.123565,1685.410096
1171.109456,-9844.739029,444.123565,919.314598
1171.109776,-10066.800811,370.102971,1072.533697
1171.110097,-9992.780217,296.082377,383.047749
1171.110418,-10140.821405,0.000000,76.609550
1171.110739,-10066.800811,148.041188,459.657299
1171.111059,-9918.759623,444.123565,153.219100
1171.111380,-9918.759623,592.164754,229.828649
1171.111701,-9992.780217,592.164754,153.219100
1171.112022,-9770.718434,222.061783,459.657299
1171.112342,-9622.677246,-296.082377,536.266849
1171.112663,-9474.636058,-666.185348,689.485948
1171.112984,-9770.718434,-1184.329507,1378.971896
1171.113305,-9400.615463,-1702.473667,1072.533697
1171.113625,-8142.265362,-2294.638420,0.000000
1171.113946,-9548.656652,-1702.473667,995.924147
1171.114267,-9326.594869,-1184.329507,766.095498
1171.114588,-9474.636058,-518.144159,459.657299
1171.114908,-9474.636058,0.000000,689.485948
1171.115229,-9400.615463,296.082377,536.266849
1171.115550,-9622.677246,592.164754,536.266849
1171.115871,-9770.718434,518.144159,1072.533697
1171.116191,-9770.718434,222.061783,1302.362347
1171.116512,-9400.615463,-740.205942,1225.752797
1171.116833,-9622.677246,-740.205942,1302.362347
1171.117154,-9696.697840,-1332.370696,919.314598
1171.117474,-9474.636058,-1110.308913,1072.533697
1171.117795,-8660.409521,-814.226536,1149.143247
1171.118116,-9326.594869,-222.061783,612.876398
1171.118437,-9474.636058,740.205942,459.657299
1171.118757,-9474.636058,1036.288319,383.047749
1171.119078,-9548.656652,1110.308913,612.876398
1171.119399,-9548.656652,1480.411884,842.705048
1171.119720,-9992.780217,962.267725,1685.410096
1171.120040,-9918.759623,370.102971,2298.286494
1171.120361,-10140.821405,-296.082377,2757.943793
1171.120682,-10288.862594,-1110.308913,2528.115143
1171.121003,-9622.677246,-1702.473667,2528.115143
1171.121323,-9474.636058,-2146.597232,2528.115143
1171.121644,-9326.594869,-2146.597232,2145.067394
1171.121965,-9326.594869,-1036.288319,1072.533697
1171.122286,-9178.553681,-740.205942,1072.533697
1171.122606,-8956.491898,0.000000,1072.533697
1171.122927,-9474.636058,518.144159,612.876398
1171.123248,-9622.677246,518.144159,766.095498
1171.123569,-9844.739029,592.164754,842.705048
1171.123889,-10140.821405,74.020594,766.095498
1171.124210,-10066.800811,74.020594,612.876398
1171.124531,-10066.800811,148.041188,612.876398
1171.124852,-9918.759623,444.123565,689.485948
1171.125172,-9844.739029,592.164754,0.000000
1171.125493,-9770.718434,666.185348,0.000000
1171.125814,-9844.739029,296.082377,0.000000
1171.126135,-9548.656652,148.041188,306.438199
1171.126455,-9770.718434,0.000000,766.095498
1171.126776,-9622.677246,-592.164754,1378.971896
1171.127097,-9474.636058,-1110.308913,1762.019645
1171.127418,-9474.636058,-2294.638420,1838.629195
1171.127738,-9326.594869,-2146.597232,2221.676944
1171.128059,-9474.636058,-2146.597232,1149.143247
1171.128380,-9474.636058,-1702.473667,1225.752797
1171.128701,-9400.615463,-666.185348,612.876398
1171.129021,-9474.636058,370.102971,536.266849
1171.129342,-9474.636058,740.205942,153.219100
1171.129663,-9696.697840,1110.308913,229.828649
1171.129984,-9622.677246,888.247130,383.047749
1171.130304,-9918.759623,296.082377,306.438199
1171.130625,-9622.677246,-222.061783,1762.019645
1171.130946,-10066.800811,-740.205942,995.924147
1171.131267,-9770.718434,-1110.308913,842.705048
1171.131587,-9474.636058,-1332.370696,689.485948
1171.131908,-9326.594869,-814.226536,76.609550
1171.132229,-9104.533087,-370.102971,153.219100
1171.132550,-9474.636058,0.000000,76.609550
1171.132870,-9400.615463,444.123565,229.828649
1171.133191,-9622.677246,814.226536,995.924147
1171.133512,-9770.718434,888.247130,1455.581446
1171.133833,-9844.739029,444.123565,1838.629195
1171.134153,-9918.759623,74.020594,2451.505594
1171.134474,-9696.697840,-888.247130,2757.943793
1171.134795,-10066.800811,-1850.514855,2528.115143
1171.135116,-9474.636058,-2146.597232,3217.601092
1171.135436,-9252.574275,-2368.659014,2834.553343
1171.135757,-9474.636058,-2146.597232,2757.943793
1171.136078,-8956.491898,-1554.432478,2374.896044
1171.136399,-9474.636058,-666.185348,2068.457845
1171.136719,-9474.636058,0.000000,1991.848295
1171.137040,-9474.636058,222.061783,1608.800546
1171.137361,-9474.636058,222.061783,1532.190996
1171.137682,-10214.842000,444.123565,1149.143247
1171.138002,-10066.800811,-148.041188,995.924147
1171.138323,-10214.842000,0.000000,689.485948
1171.138644,-10066.800811,-222.061783,536.266849
1171.138964,-10732.986159,1036.288319,0.000000
1171.139285,-9918.759623,222.061783,153.219100
1171.139606,-9844.739029,518.144159,76.609550
1171.139927,-9770.718434,518.144159,0.000000
1171.140247,-9696.697840,666.185348,-383.047749
1171.140568,-9696.697840,444.123565,383.047749
1171.140889,-9622.677246,74.020594,306.438199
1171.141210,-9696.697840,-444.123565,995.924147
1171.141530,-9622.677246,-1184.329507,1455.581446
1171.141851,-9474.636058,-1998.556043,995.924147
1171.142172,-9252.574275,-1850.514855,919.314598
1171.142493,-9474.636058,-1332.370696,689.485948
1171.142813,-9326.594869,-666.185348,459.657299
1171.143134,-9030.512492,148.041188,383.047749
1171.143455,-8956.491898,1184.329507,842.705048
1171.143776,-9770.718434,888.247130,459.657299
1171.144096,-9474.636058,592.164754,842.705048
1171.144417,-9844.739029,74.020594,0.000000
1171.144738,-9844.739029,-370.102971,459.657299
1171.145059,-9696.697840,-666.185348,842.705048
1171.145379,-9696.697840,-1110.308913,919.314598
1171.145700,-9474.636058,-1258.350101,612.876398
1171.146021,-8808.450710,-888.247130,0.000000
1171.146342,-9474.636058,-592.164754,0.000000
1171.146662,-9178.553681,0.000000,459.657299
1171.146983,-9548.656652,444.123565,612.876398
1171.147304,-9400.615463,148.041188,306.438199
1171.147625,-9178.553681,666.185348,612.876398
1171.147945,-9548.656652,592.164754,1302.362347
1171.148266,-9622.677246,-296.082377,1915.238745
1171.148587,-9844.739029,-592.164754,2528.115143
1171.148908,-9696.697840,-1924.535449,2681.334243
1171.149229,-9622.677246,-2072.576638,2834.553343
1171.149550,-9474.636058,-2368.659014,2604.724693
1171.149870,-9326.594869,-2220.617826,2451.505594
1171.150191,-8586.388927,-1406.391290,1608.800546
1171.150512,-9178.553681,-222.061783,2145.067394
1171.150833,-9252.574275,0.000000,1991.848295
1171.151154,-9326.594869,370.102971,1991.848295
1171.151475,-9918.759623,0.000000,919.314598
1171.151795,-9918.759623,296.082377,1762.019645
1171.152116,-10140.821405,0.000000,1532.190996
1171.152437,-9844.739029,-444.123565,842.705048
1171.152758,-10066.800811,-296.082377,919.314598
1171.153079,-10066.800811,0.000000,536.266849
1171.153400,-10066.800811,0.000000,383.047749
1171.153720,-10066.800811,148.041188,536.266849
1171.154041,-9770.718434,222.061783,76.609550
1171.154362,-9622.677246,592.164754,306.438199
1171.154683,-9770.718434,222.061783,1225.752797
1171.155004,-9770.718434,0.000000,1072.533697
1171.155325,-9696.697840,-1110.308913,995.924147
1171.155645,-9622.677246,-1480.411884,1608.800546
1171.155966,-9400.615463,-2442.679609,1455.581446
1171.156287,-9474.636058,-2442.679609,1149.143247
1171.156608,-9178.553681,-2220.617826,1072.533697
1171.156929,-9178.553681,-1554.432478,1072.533697
1171.157250,-8586.388927,-592.164754,536.266849
1171.157570,-9474.636058,222.061783,306.438199
1171.157891,-9474.636058,518.144159,229.828649
1171.158212,-9622.677246,592.164754,459.657299
1171.158533,-9622.677246,592.164754,229.828649
1171.158854,-9696.697840,370.102971,383.047749
1171.159175,-9918.759623,0.000000,842.705048
1171.159495,-9622.677246,-370.102971,459.657299
1171.159816,-9770.718434,-444.123565,306.438199
1171.160137,-9548.656652,-1036.288319,0.000000
1171.160458,-9326.594869,-444.123565,-229.828649
1171.160779,-9770.718434,74.020594,76.609550
1171.161100,-9548.656652,814.226536,0.000000
1171.161420,-9474.636058,1110.308913,229.828649
1171.161741,-9622.677246,1036.288319,919.314598
1171.162062,-9844.739029,592.164754,1149.143247
1171.162383,-9992.780217,0.000000,1991.848295
1171.162704,-9252.574275,-814.226536,2681.334243
1171.163025,-10066.800811,-1258.350101,2604.724693
1171.163345,-9770.718434,-1554.432478,2604.724693
1171.163666,-9548.656652,-1924.535449,2681.334243
1171.163987,-9326.594869,-1110.308913,1838.629195
1171.164308,-9178.553681,-1332.370696,1838.629195
1171.164629,-9030.512492,-444.123565,1762.019645
1171.164950,-9474.636058,148.041188,1762.019645
1171.165270,-9622.677246,518.144159,1685.410096
1171.165591,-9622.677246,814.226536,1762.019645
1171.165912,-9696.697840,370.102971,1455.581446
1171.166233,-10140.821405,444.123565,1378.971896
1171.166554,-10214.842000,-222.061783,1225.752797
1171.166875,-9474.636058,0.000000,536.266849
1171.167196,-9770.718434,0.000000,766.095498
1171.167516,-9844.739029,222.061783,612.876398
1171.167837,-9696.697840,296.082377,306.438199
1171.168158,-9548.656652,222.061783,1225.752797
1171.168479,-9474.636058,814.226536,612.876398
1171.168800,-9622.677246,444.123565,766.095498
1171.169121,-9474.636058,222.061783,1225.752797
1171.169441,-9622.677246,-666.185348,1608.800546
1171.169762,-9474.636058,-814.226536,1149.143247
1171.170083,-9696.697840,-1258.350101,1838.629195
1171.170404,-9400.615463,-1850.514855,1685.410096
1171.170725,-9326.594869,-1480.411884,1302.362347
1171.171046,-9400.615463,-1184.329507,612.876398
1171.171366,-9178.553681,-370.102971,612.876398
1171.171687,-9474.636058,74.020594,383.047749
1171.172008,-9474.636058,222.061783,689.485948
1171.172329,-9474.636058,148.041188,459.657299
1171.172650,-9548.656652,296.082377,536.266849
1171.172971,-9918.759623,296.082377,383.047749
1171.173291,-9992.780217,-148.041188,612.876398
1171.173612,-9918.759623,-740.205942,383.047749
1171.173933,-9770.718434,-814.226536,153.219100
1171.174254,-9696.697840,-814.226536,0.000000
1171.174575,-9770.718434,-222.061783,0.000000
1171.174896,-9844.739029,370.102971,76.609550
1171.175216,-9474.636058,888.247130,-1149.143247
1171.175537,-9474.636058,1036.288319,306.438199
1171.175858,-9622.677246,740.205942,612.876398
1171.176179,-9770.718434,518.144159,1072.533697
1171.176500,-9770.718434,-148.041188,1532.190996
1171.176821,-9622.677246,-1110.308913,2374.896044
1171.177141,-9474.636058,-1924.535449,2298.286494
1171.177462,-9474.636058,-2220.617826,2528.115143
1171.177783,-9548.656652,-1998.556043,2681.334243
1171.178104,-9252.574275,-1850.514855,3140.991542
1171.178425,-9474.636058,-1554.432478,2528.115143
1171.178746,-9326.594869,-592.164754,1991.848295
1171.179066,-9400.615463,-74.020594,2145.067394
1171.179387,-9622.677246,0.000000,2298.286494
1171.179708,-9622.677246,148.041188,1532.190996
1171.180029,-9696.697840,148.041188,1302.362347
1171.180350,-9770.718434,-148.041188,1149.143247
1171.180671,-9696.697840,-148.041188,-383.047749
1171.180991,-9918.759623,-444.123565,689.485948
1171.181312,-9770.718434,-370.102971,612.876398
1171.181633,-9548.656652,-148.041188,459.657299
1171.181954,-9770.718434,-148.041188,459.657299
1171.182275,-9326.594869,-148.041188,612.876398
1171.182596,-9548.656652,-148.041188,383.047749
1171.182916,-9548.656652,-148.041188,842.705048
1171.183237,-9252.574275,-370.102971,1149.143247
1171.183558,-8808.450710,-296.082377,1762.019645
1171.183879,-9548.656652,-1258.350101,1838.629195
1171.184200,-9326.594869,-1850.514855,1685.410096
1171.184521,-9400.615463,-2220.617826,1915.238745
1171.184841,-9252.574275,-1332.370696,1072.533697
1171.185162,-9326.594869,-1036.288319,919.314598
1171.185483,-9326.594869,0.000000,766.095498
1171.185804,-9252.574275,444.123565,229.828649
1171.186125,-9474.636058,1036.288319,306.438199
1171.186446,-9474.636058,888.247130,0.000000
1171.186766,-9770.718434,1036.288319,153.219100
1171.187087,-9770.718434,370.102971,459.657299
1171.187408,-9992.780217,74.020594,459.657299
1171.187729,-9770.718434,-1110.308913,1685.410096
1171.188050,-10066.800811,-740.205942,306.438199
1171.188371,-9992.780217,-666.185348,0.000000
1171.188691,-9844.739029,0.000000,-306.438199
1171.189012,-9696.697840,740.205942,536.266849
1171.189333,-9474.636058,1184.329507,153.219100
1171.189654,-9696.697840,1554.432478,153.219100
1171.189975,-9770.718434,1184.329507,229.828649
1171.190296,-9770.718434,666.185348,612.876398
1171.190616,-9918.759623,0.000000,1455.581446
1171.190937,-9918.759623,-74.020594,2068.457845
1171.191258,-10066.800811,-1110.308913,2604.724693
1171.191579,-9622.677246,-1554.432478,2911.162892
1171.191900,-9252.574275,-2368.659014,2911.162892
1171.192221,-9326.594869,-2294.638420,2604.724693
1171.192541,-9178.553681,-1554.432478,2374.896044
1171.192862,-9326.594869,-1184.329507,2298.286494
1171.193183,-8956.491898,-370.102971,842.705048
1171.193504,-8956.491898,0.000000,1915.238745
1171.193825,-9178.553681,296.082377,1378.971896
1171.194146,-9622.677246,592.164754,1455.581446
1171.194467,-9770.718434,148.041188,1455.581446
1171.194787,-9844.739029,-222.061783,1149.143247
1171.195108,-9844.739029,-444.123565,689.485948
1171.195429,-9992.780217,-296.082377,689.485948
1171.195750,-9770.718434,-296.082377,536.266849
1171.196071,-9622.677246,-444.123565,459.657299
1171.196392,-9400.615463,0.000000,536.266849
1171.196712,-9474.636058,0.000000,1149.143247
1171.197033,-9770.718434,0.000000,1149.143247
1171.197354,-9548.656652,-296.082377,1072.533697
1171.197675,-9548.656652,-518.144159,1685.410096
1171.197996,-9474.636058,-1184.329507,1991.848295
1171.198317,-9474.636058,-1924.535449,1685.410096
1171.198637,-9400.615463,-1924.535449,1378.971896
1171.198958,-9474.636058,-2146.597232,842.705048
1171.199279,-9548.656652,-1332.370696,612.876398
1171.199600,-9400.615463,-296.082377,383.047749
1171.199921,-9474.636058,222.061783,229.828649
1171.200242,-10955.047942,1480.411884,0.000000
1171.200562,-9770.718434,814.226536,459.657299
1171.200883,-10214.842000,222.061783,153.219100
1171.201204,-10066.800811,0.000000,612.876398
1171.201525,-10066.800811,-444.123565,459.657299
1171.201846,-10066.800811,-814.226536,76.609550
1171.202167,-9548.656652,-962.267725,0.000000
1171.202487,-9622.677246,-666.185348,-383.047749
1171.202808,-9474.636058,-148.041188,-1149.143247
1171.203129,-9548.656652,444.123565,-612.876398
1171.203450,-9770.718434,740.205942,-229.828649
1171.203771,-9770.718434,814.226536,-229.828649
1171.204092,-9770.718434,962.267725,306.438199
1171.204412,-9326.594869,0.000000,459.657299
1171.204733,-9770.718434,-148.041188,1685.410096
1171.205054,-9844.739029,-1184.329507,1915.238745
1171.205375,-9548.656652,-1776.494261,2528.115143
1171.205696,-9400.615463,-2294.638420,1915.238745
1171.206017,-9252.574275,-2368.659014,2145.067394
1171.206337,-8956.491898,-2146.597232,2681.334243
1171.206658,-8808.450710,-2072.576638,2451.505594
1171.206979,-8882.471304,-1258.350101,2145.067394
1171.207300,-9030.512492,-148.041188,1915.238745
1171.207621,-9326.594869,444.123565,2145.067394
1171.207942,-9400.615463,666.185348,1685.410096
1171.208262,-9474.636058,740.205942,1838.629195
1171.208583,-9326.594869,1184.329507,1685.410096
1171.208904,-9622.677246,444.123565,1302.362347
1171.209225,-9844.739029,222.061783,1149.143247
1171.209546,-9918.759623,0.000000,842.705048
1171.209867,-9770.718434,518.144159,1532.190996
1171.210187,-9918.759623,370.102971,766.095498
1171.210508,-9474.636058,222.061783,919.314598
1171.210829,-9770.718434,0.000000,842.705048
1171.211150,-9696.697840,518.144159,1149.143247
1171.211471,-10436.903782,888.247130,1302.362347
1171.211792,-9918.759623,0.000000,2068.457845
1171.212112,-9548.656652,-1110.308913,1991.848295
1171.212433,-9474.636058,-1628.453072,1685.410096
1171.212754,-9030.512492,-2146.597232,2068.457845
1171.213075,-9474.636058,-1850.514855,1762.019645
1171.213396,-9326.594869,-1184.329507,1149.143247
1171.213717,-9326.594869,-370.102971,766.095498
1171.214037,-9400.615463,148.041188,536.266849
1171.214358,-9474.636058,222.061783,383.047749
1171.214679,-9770.718434,296.082377,383.047749
1171.215000,-9770.718434,74.020594,0.000000
1171.215321,-9918.759623,222.061783,306.438199
1171.215642,-9622.677246,0.000000,612.876398
1171.215962,-9918.759623,-370.102971,383.047749
1171.216283,-9770.718434,-814.226536,0.000000
1171.216604,-9696.697840,-814.226536,0.000000
1171.216925,-8290.306550,-518.144159,-153.219100
1171.217246,-9474.636058,296.082377,-459.657299
1171.217567,-9622.677246,962.267725,-153.219100
1171.217887,-9474.636058,1184.329507,-229.828649
1171.218208,-9548.656652,1258.350101,76.609550
1171.218529,-9548.656652,814.226536,842.705048
1171.218850,-9622.677246,74.020594,1149.143247
1171.219171,-9622.677246,-370.102971,1608.800546
1171.219492,-9770.718434,-1258.350101,2145.067394
1171.219812,-9326.594869,-1776.494261,2757.943793
1171.220133,-9104.533087,-2368.659014,2451.505594
1171.220454,-9178.553681,-2294.638420,2528.115143
1171.220775,-9252.574275,-1850.514855,2145.067394
1171.221096,-8882.471304,-592.164754,2604.724693
1171.221417,-9104.533087,-444.123565,1608.800546
1171.221737,-9400.615463,0.000000,1685.410096
1171.222058,-9548.656652,370.102971,1915.238745
1171.222379,-9918.759623,222.061783,1915.238745
1171.222700,-9770.718434,-74.020594,1685.410096
1171.223021,-9844.739029,-592.164754,1149.143247
1171.223342,-10140.821405,-888.247130,1302.362347
1171.223663,-9918.759623,-1110.308913,842.705048
1171.223983,-9992.780217,-962.267725,459.657299
1171.224304,-9770.718434,-370.102971,842.705048
1171.224625,-9548.656652,0.000000,766.095498
1171.224946,-9918.759623,148.041188,919.314598
1171.225267,-9844.739029,0.000000,2145.067394
1171.225588,-9696.697840,0.000000,1302.362347
1171.225908,-9696.697840,-592.164754,1915.238745
1171.226229,-9474.636058,-1036.288319,2221.676944
1171.226550,-9474.636058,-1554.432478,3677.258390
1171.226871,-9474.636058,-1628.453072,2221.676944
1171.227192,-9474.636058,-1480.411884,1915.238745
1171.227513,-9474.636058,-888.247130,1532.190996
1171.227833,-9474.636058,-296.082377,1072.533697
1171.228154,-9474.636058,370.102971,919.314598
1171.228475,-9622.677246,740.205942,689.485948
1171.228796,-9622.677246,592.164754,459.657299
1171.229117,-9770.718434,592.164754,689.485948
1171.229438,-10066.800811,370.102971,1762.019645
1171.229758,-10140.821405,0.000000,766.095498
1171.230079,-9844.739029,-518.144159,689.485948
1171.230400,-9770.718434,-740.205942,459.657299
1171.230721,-9474.636058,-962.267725,-153.219100
1171.231042,-9548.656652,-296.082377,-459.657299
1171.231363,-9548.656652,74.020594,-536.266849
1171.231683,-9400.615463,740.205942,-689.485948
1171.232004,-9548.656652,962.267725,-536.266849
1171.232325,-9400.615463,1184.329507,-459.657299
1171.232646,-9696.697840,888.247130,153.219100
1171.232967,-9696.697840,666.185348,842.705048
1171.233288,-9844.739029,0.000000,1532.190996
1171.233608,-9622.677246,-296.082377,1149.143247
1171.233929,-9622.677246,-1332.370696,2221.676944
1171.234250,-9474.636058,-2072.576638,1838.629195
1171.234571,-9178.553681,-1998.556043,1915.238745
1171.234892,-8882.471304,-1036.288319,1838.629195
1171.235213,-9474.636058,-518.144159,2068.457845
1171.235533,-9030.512492,0.000000,1915.238745
1171.235854,-9252.574275,0.000000,1455.581446
1171.236175,-9548.656652,222.061783,1225.752797
1171.236496,-9030.512492,370.102971,1225.752797
1171.236817,-10066.800811,444.123565,1762.019645
1171.237138,-9844.739029,148.041188,1608.800546
1171.237458,-9696.697840,0.000000,689.485948
1171.237779,-9326.594869,518.144159,-459.657299
1171.238100,-9844.739029,222.061783,689.485948
1171.238421,-9918.759623,296.082377,842.705048
1171.238742,-9918.759623,592.164754,1072.533697
1171.239063,-9548.656652,814.226536,536.266849
1171.239383,-9918.759623,1184.329507,1072.533697
1171.239704,-10140.821405,888.247130,2145.067394
1171.240025,-9622.677246,0.000000,2374.896044
1171.240346,-9548.656652,-888.247130,2298.286494
1171.240667,-9326.594869,-1628.453072,2451.505594
1171.240988,-9326.594869,-2146.597232,2068.457845
1171.241308,-9178.553681,-2294.638420,2145.067394
1171.241629,-9400.615463,-1554.432478,1915.238745
1171.241950,-9252.574275,-962.267725,1378.971896
1171.242271,-9400.615463,0.000000,1532.190996
1171.242592,-9622.677246,222.061783,919.314598
1171.242913,-9400.615463,296.082377,1072.533697
1171.243233,-9770.718434,0.000000,1072.533697
1171.243554,-9474.636058,-370.102971,1532.190996
1171.243875,-9696.697840,-740.205942,612.876398
1171.244196,-9696.697840,-1258.350101,842.705048
1171.244517,-9622.677246,-1628.453072,842.705048
1171.244838,-9474.636058,-1480.411884,306.438199
1171.245158,-9770.718434,-444.123565,-229.828649
1171.245479,-9252.574275,0.000000,0.000000
1171.245800,-9622.677246,592.164754,229.828649
1171.246121,-9474.636058,444.123565,459.657299
1171.246442,-9474.636058,740.205942,-612.876398
1171.246763,-9622.677246,0.000000,459.657299
1171.247083,-9622.677246,0.000000,1225.752797
1171.247404,-9548.656652,-592.164754,1838.629195
1171.247725,-9622.677246,-1184.329507,2374.896044
1171.248046,-9252.574275,-1628.453072,2451.505594
1171.248367,-9548.656652,-2220.617826,2451.505594
1171.248687,-9400.615463,-2664.741391,2298.286494
1171.249008,-9474.636058,-2738.761985,2068.457845
1171.249329,-10140.821405,0.000000,1225.752797
1171.249650,-9104.533087,-1332.370696,1455.581446
1171.249971,-9474.636058,-592.164754,1378.971896
1171.250291,-9178.553681,0.000000,1149.143247
1171.250612,-9622.677246,74.020594,612.876398
1171.250933,-9770.718434,74.020594,459.657299
1171.251254,-10066.800811,0.000000,306.438199
1171.251575,-10066.800811,-296.082377,76.609550
1171.251895,-9622.677246,-296.082377,-306.438199
1171.252216,-9844.739029,-666.185348,-919.314598
1171.252537,-10066.800811,0.000000,0.000000
1171.252858,-9548.656652,74.020594,0.000000
1171.253178,-9918.759623,518.144159,0.000000
1171.253499,-10140.821405,592.164754,459.657299
1171.253820,-10066.800811,592.164754,995.924147
1171.254141,-9844.739029,0.000000,1685.410096
1171.254462,-9992.780217,-518.144159,1838.629195
1171.254782,-9918.759623,-1184.329507,1762.019645
1171.255103,-9400.615463,-1702.473667,2298.286494
1171.255424,-9400.615463,-1850.514855,1608.800546
1171.255745,-9326.594869,-962.267725,1455.581446
1171.256065,-9326.594869,0.000000,1455.581446
1171.256386,-8512.368333,0.000000,2911.162892
1171.256707,-9474.636058,888.247130,1149.143247
1171.257028,-9548.656652,666.185348,1072.533697
1171.257349,-9548.656652,740.205942,995.924147
1171.257669,-9992.780217,444.123565,1378.971896
1171.257990,-9992.780217,-296.082377,1532.190996
1171.258311,-9696.697840,-518.144159,1685.410096
1171.258632,-9844.739029,-962.267725,842.705048
1171.258953,-9400.615463,-962.267725,459.657299
1171.259273,-9770.718434,-148.041188,0.000000
1171.259594,-9474.636058,-148.041188,229.828649
1171.259915,-9474.636058,296.082377,0.000000
1171.260236,-9474.636058,444.123565,76.609550
1171.260556,-8586.388927,0.000000,842.705048
1171.260877,-9252.574275,740.205942,536.266849
1171.261198,-9770.718434,518.144159,1532.190996
1171.261519,-9770.718434,0.000000,1915.238745
1171.261840,-9622.677246,-740.205942,1072.533697
1171.262160,-9548.656652,-1702.473667,2145.067394
1171.262481,-9474.636058,-2072.576638,2451.505594
1171.262802,-9326.594869,-2220.617826,2145.067394
1171.263123,-9252.574275,-1776.494261,1608.800546
1171.263443,-9104.533087,-740.205942,1302.362347
1171.263764,-9252.574275,-518.144159,1149.143247
1171.264085,-9252.574275,148.041188,1072.533697
1171.264406,-9548.656652,370.102971,995.924147
1171.264727,-9326.594869,148.041188,919.314598
1171.265047,-9992.780217,592.164754,689.485948
1171.265368,-10362.883188,0.000000,1072.533697
1171.265689,-10066.800811,-370.102971,766.095498
1171.266010,-10214.842000,-74.020594,612.876398
1171.266331,-9844.739029,0.000000,153.219100
1171.266651,-9992.780217,0.000000,153.219100
1171.266972,-9696.697840,296.082377,-153.219100
1171.267293,-9548.656652,370.102971,-383.047749
1171.267614,-9622.677246,296.082377,229.828649
1171.267934,-9548.656652,0.000000,766.095498
1171.268255,-9474.636058,-666.185348,842.705048
1171.268576,-9770.718434,-1554.432478,1378.971896
1171.268897,-9622.677246,-2146.597232,1762.019645
1171.269218,-9400.615463,-2590.720797,1455.581446
1171.269538,-9178.553681,-2368.659014,1685.410096
1171.269859,-9474.636058,-1332.370696,1455.581446
1171.270180,-9474.636058,-296.082377,1378.971896
1171.270501,-9104.533087,222.061783,1302.362347
1171.270821,-9400.615463,296.082377,1455.581446
1171.271142,-9400.615463,296.082377,1302.362347
1171.271463,-9474.636058,0.000000,1225.752797
1171.271784,-9844.739029,0.000000,1685.410096
1171.272105,-9474.636058,-592.164754,1532.190996
1171.272425,-9548.656652,-962.267725,1378.971896
1171.272746,-9622.677246,-1184.329507,1302.362347
1171.273067,-9844.739029,-740.205942,306.438199
1171.273388,-9474.636058,-666.185348,459.657299
1171.273709,-9548.656652,148.041188,306.438199
1171.274029,-9474.636058,740.205942,306.438199
1171.274350,-9696.697840,1036.288319,536.266849
1171.274671,-9696.697840,1110.308913,689.485948
1171.274992,-9918.759623,1110.308913,919.314598
1171.275312,-9918.759623,518.144159,1532.190996
1171.275633,-10066.800811,0.000000,2068.457845
1171.275954,-9770.718434,-962.267725,2374.896044
1171.276275,-9696.697840,-1554.432478,2451.505594
1171.276596,-9474.636058,-2072.576638,2145.067394
1171.276916,-9104.533087,-2368.659014,1838.629195
1171.277237,-8882.471304,-1924.535449,2451.505594
1171.277558,-9178.553681,-1628.453072,1302.362347
1171.277879,-9326.594869,-962.267725,1378.971896
1171.278199,-9474.636058,-296.082377,1225.752797
1171.278520,-9474.636058,148.041188,995.924147
1171.278841,-9770.718434,740.205942,919.314598
1171.279162,-9992.780217,666.185348,919.314598
1171.279483,-9844.739029,592.164754,766.095498
1171.279803,-10066.800811,444.123565,153.219100
1171.280124,-10214.842000,518.144159,-229.828649
1171.280445,-9770.718434,0.000000,0.000000
1171.280766,-9770.718434,148.041188,0.000000
1171.281087,-9696.697840,444.123565,-229.828649
1171.281407,-8956.491898,-148.041188,459.657299
1171.281728,-9474.636058,888.247130,383.047749
1171.282049,-9844.739029,444.123565,919.314598
1171.282370,-9770.718434,74.020594,1532.190996
1171.282690,-9696.697840,-444.123565,1915.238745
1171.283011,-9474.636058,-1036.288319,2145.067394
1171.283332,-9622.677246,-1776.494261,1838.629195
1171.283653,-9400.615463,-1924.535449,1608.800546
1171.283974,-9400.615463,-1628.453072,1532.190996
1171.284294,-9474.636058,-518.144159,229.828649
1171.284615,-9474.636058,222.061783,459.657299
1171.284936,-9622.677246,814.226536,766.095498
1171.285257,-9770.718434,814.226536,383.047749
1171.285577,-9770.718434,740.205942,536.266849
1171.285898,-10214.842000,444.123565,-1455.581446
1171.286219,-9918.759623,-148.041188,689.485948
1171.286540,-9918.759623,-518.144159,1072.533697
1171.286861,-9770.718434,-1184.329507,919.314598
1171.287181,-9474.636058,-1332.370696,306.438199
1171.287502,-9696.697840,-518.144159,459.657299
1171.287823,-9474.636058,0.000000,76.609550
1171.288144,-9474.636058,518.144159,229.828649
1171.288465,-9548.656652,1036.288319,842.705048
1171.288785,-9474.636058,1110.308913,766.095498
1171.289106,-9474.636058,1036.288319,766.095498
1171.289427,-9844.739029,592.164754,2145.067394
1171.289748,-9696.697840,-296.082377,2604.724693
1171.290068,-9474.636058,-888.247130,3064.381992
1171.290389,-9326.594869,-1776.494261,3064.381992
1171.290710,-9178.553681,-2294.638420,3140.991542
1171.291031,-9326.594869,-2146.597232,3217.601092
1171.291352,-9178.553681,-2072.576638,2987.772442
1171.291672,-8660.409521,-1998.556043,2528.115143
1171.291993,-8882.471304,-1036.288319,2145.067394
1171.292314,-8882.471304,-518.144159,2145.067394
1171.292635,-9178.553681,0.000000,1608.800546
1171.292956,-9474.636058,-222.061783,1302.362347
1171.293276,-9548.656652,0.000000,919.314598
1171.293597,-9992.780217,222.061783,-76.609550
1171.293918,-10214.842000,0.000000,995.924147
1171.294239,-9992.780217,0.000000,842.705048
1171.294559,-10140.821405,0.000000,229.828649
1171.294880,-9992.780217,0.000000,76.609550
1171.295201,-10066.800811,74.020594,-689.485948
1171.295522,-9622.677246,0.000000,0.000000
1171.295843,-9474.636058,148.041188,-689.485948
1171.296163,-9474.636058,74.020594,0.000000
1171.296484,-9400.615463,-148.041188,383.047749
1171.296805,-9400.615463,0.000000,-229.828649
1171.297126,-9622.677246,-1110.308913,1302.362347
1171.297446,-9622.677246,-1776.494261,919.314598
1171.297767,-9474.636058,-2146.597232,842.705048
1171.298088,-9770.718434,-1850.514855,919.314598
1171.298409,-9992.780217,-1406.391290,1455.581446
1171.298730,-9622.677246,-222.061783,612.876398
1171.299050,-9400.615463,444.123565,383.047749
1171.299371,-9474.636058,888.247130,689.485948
1171.299692,-9548.656652,370.102971,612.876398
1171.300013,-9252.574275,222.061783,1225.752797
1171.300334,-10066.800811,74.020594,842.705048
1171.300654,-9844.739029,-518.144159,919.314598
1171.300975,-9770.718434,-962.267725,766.095498
1171.301296,-9622.677246,-1258.350101,1072.533697
1171.301617,-10066.800811,-814.226536,-766.095498
1171.301937,-9474.636058,-296.082377,842.705048
1171.302258,-9918.759623,222.061783,689.485948
1171.302579,-9400.615463,666.185348,383.047749
1171.302900,-9474.636058,1110.308913,459.657299
1171.303221,-8956.491898,592.164754,1072.533697
1171.303541,-9548.656652,592.164754,1532.190996
1171.303862,-9548.656652,-222.061783,1991.848295
1171.304183,-9696.697840,-814.226536,2451.505594
1171.304504,-9474.636058,-1628.453072,2681.334243
1171.304824,-8586.388927,-2220.617826,2068.457845
1171.305145,-8956.491898,-1406.391290,2528.115143
1171.305466,-9474.636058,-1628.453072,2451.505594
1171.305787,-8808.450710,-814.226536,2068.457845
1171.306108,-9400.615463,-370.102971,2068.457845
1171.306428,-9252.574275,-370.102971,1608.800546
1171.306749,-9326.594869,222.061783,1608.800546
1171.307070,-9474.636058,148.041188,1072.533697
1171.307391,-9474.636058,518.144159,1225.752797
1171.307712,-10140.821405,592.164754,1838.629195
1171.308032,-10436.903782,370.102971,766.095498
1171.308353,-10140.821405,0.000000,766.095498
1171.308674,-9992.780217,-222.061783,153.219100
1171.308995,-9696.697840,0.000000,76.609550
1171.309315,-9844.739029,444.123565,842.705048
1171.309636,-9474.636058,888.247130,306.438199
1171.309957,-9400.615463,1036.288319,689.485948
1171.310278,-9696.697840,444.123565,536.266849
1171.310599,-9622.677246,296.082377,1378.971896
1171.310919,-9696.697840,-814.226536,2834.553343
1171.311240,-9548.656652,-1628.453072,1455.581446
1171.311561,-9474.636058,-2220.617826,1072.533697
1171.311882,-9252.574275,-1998.556043,1149.143247
1171.312202,-9178.553681,-1628.453072,842.705048
1171.312523,-8882.471304,-296.082377,153.219100
1171.312844,-9178.553681,-222.061783,919.314598
1171.313165,-9474.636058,444.123565,459.657299
1171.313486,-9400.615463,666.185348,536.266849
1171.313806,-9696.697840,814.226536,612.876398
1171.314127,-9696.697840,148.041188,1302.362347
1171.314448,-9992.780217,0.000000,766.095498
1171.314769,-9770.718434,-518.144159,766.095498
1171.315090,-9770.718434,-1110.308913,459.657299
1171.315410,-9622.677246,-1036.288319,153.219100
1171.315731,-9844.739029,-1258.350101,0.000000
1171.316052,-9326.594869,-518.144159,0.000000
1171.316373,-9474.636058,444.123565,153.219100
1171.316693,-9474.636058,592.164754,383.047749
1171.317014,-9474.636058,740.205942,459.657299
1171.317335,-10140.821405,666.185348,689.485948
1171.317656,-9844.739029,-148.041188,1685.410096
1171.317977,-9770.718434,-666.185348,2298.286494
1171.318297,-9770.718434,-1258.350101,2681.334243
1171.318618,-9474.636058,-1924.535449,2834.553343
1171.318939,-9474.636058,-2220.617826,3447.429741
1171.319260,-9474.636058,-2146.597232,3217.601092
1171.319580,-9178.553681,-2368.659014,2528.115143
1171.319901,-9326.594869,-1924.535449,2374.896044
1171.320222,-9326.594869,-1406.391290,1762.019645
1171.320543,-8586.388927,-1184.329507,2374.896044
1171.320864,-9252.574275,-148.041188,1762.019645
1171.321184,-9474.636058,296.082377,1149.143247
1171.321505,-9474.636058,518.144159,919.314598
1171.321826,-9992.780217,518.144159,995.924147
1171.322147,-10288.862594,666.185348,689.485948
1171.322468,-10214.842000,0.000000,612.876398
1171.322788,-10066.800811,-296.082377,153.219100
1171.323109,-9844.739029,0.000000,306.438199
1171.323430,-9696.697840,148.041188,-1302.362347
1171.323751,-9474.636058,518.144159,306.438199
1171.324071,-9918.759623,444.123565,612.876398
1171.324392,-9548.656652,74.020594,919.314598
1171.324713,-9622.677246,-222.061783,1378.971896
1171.325034,-9548.656652,-814.226536,2145.067394
1171.325355,-9770.718434,-1332.370696,1685.410096
1171.325675,-9474.636058,-1702.473667,1608.800546
1171.325996,-9326.594869,-2072.576638,1225.752797
1171.326317,-9252.574275,-1702.473667,919.314598
1171.326638,-10066.800811,-370.102971,1915.238745
1171.326958,-9474.636058,-444.123565,766.095498
1171.327279,-9696.697840,296.082377,766.095498
1171.327600,-9696.697840,592.164754,459.657299
1171.327921,-9622.677246,888.247130,383.047749
1171.328242,-9696.697840,518.144159,459.657299
1171.328562,-9696.697840,-222.061783,919.314598
1171.328883,-9622.677246,-666.185348,766.095498
1171.329204,-9992.780217,-1036.288319,766.095498
1171.329525,-9548.656652,-962.267725,153.219100
1171.329846,-9178.553681,-370.102971,919.314598
1171.330166,-9548.656652,370.102971,-153.219100
1171.330487,-9474.636058,888.247130,-76.609550
1171.330808,-9622.677246,1332.370696,-76.609550
1171.331129,-9696.697840,1184.329507,229.828649
1171.331449,-9918.759623,1554.432478,995.924147
1171.331770,-9770.718434,444.123565,1072.533697
1171.332091,-9770.718434,0.000000,1532.190996
1171.332412,-9696.697840,-814.226536,1991.848295
1171.332733,-9474.636058,-1332.370696,2451.505594
1171.333053,-9252.574275,-1036.288319,3677.258390
1171.333374,-9104.533087,-2072.576638,2451.505594
1171.333695,-9178.553681,-1924.535449,2221.676944
1171.334016,-8808.450710,-1554.432478,1762.019645
1171.334336,-9030.512492,-814.226536,1532.190996
1171.334657,-8956.491898,0.000000,1455.581446
1171.334978,-9548.656652,74.020594,1608.800546
1171.335299,-9622.677246,444.123565,1378.971896
1171.335620,-9844.739029,444.123565,1378.971896
1171.335940,-9548.656652,370.102971,919.314598
1171.336261,-9992.780217,370.102971,1685.410096
1171.336582,-10066.800811,148.041188,766.095498
1171.336903,-9770.718434,74.020594,842.705048
1171.337224,-9844.739029,296.082377,459.657299
1171.337544,-9844.739029,296.082377,383.047749
1171.337865,-9770.718434,740.205942,153.219100
1171.338186,-9696.697840,370.102971,536.266849
1171.338507,-9622.677246,296.082377,766.095498
1171.338827,-9696.697840,148.041188,1302.362347
1171.339148,-9770.718434,-296.082377,1915.238745
1171.339469,-8808.450710,-2072.576638,2451.505594
1171.339790,-9400.615463,-1850.514855,1838.629195
1171.340111,-9326.594869,-1998.556043,1838.629195
1171.340431,-9400.615463,-2072.576638,1378.971896
1171.340752,-9178.553681,-1406.391290,1378.971896
1171.341073,-8438.347739,-888.247130,1685.410096
1171.341394,-9474.636058,0.000000,1378.971896
1171.341714,-9474.636058,444.123565,1149.143247
1171.342035,-9474.636058,222.061783,689.485948
1171.342356,-9548.656652,0.000000,1072.533697
1171.342677,-10066.800811,0.000000,536.266849
1171.342998,-9844.739029,-370.102971,842.705048
1171.343318,-9770.718434,-1036.288319,995.924147
1171.343639,-9844.739029,-1258.350101,229.828649
1171.343960,-9474.636058,-1184.329507,689.485948
1171.344281,-9770.718434,-518.144159,-766.095498
1171.344602,-9548.656652,74.020594,0.000000
1171.344922,-9548.656652,888.247130,0.000000
1171.345243,-9622.677246,962.267725,306.438199
1171.345564,-9844.739029,1258.350101,229.828649
1171.345885,-9474.636058,1036.288319,1302.362347
1171.346205,-9992.780217,148.041188,1072.533697
1171.346526,-9844.739029,-666.185348,1455.581446
1171.346847,-9770.718434,-1554.432478,1685.410096
1171.347168,-9474.636058,-1702.473667,2145.067394
1171.347489,-10140.821405,-2072.576638,612.876398
1171.347809,-9400.615463,-1924.535449,2374.896044
1171.348130,-9474.636058,-1554.432478,2451.505594
1171.348451,-9252.574275,-1406.391290,1838.629195
1171.348772,-9252.574275,-740.205942,1685.410096
1171.349092,-9474.636058,518.144159,689.485948
1171.349413,-9548.656652,222.061783,1532.190996
1171.349734,-9696.697840,222.061783,1685.410096
1171.350055,-9844.739029,148.041188,1378.971896
1171.350376,-9992.780217,148.041188,689.485948
1171.350696,-9844.739029,74.020594,383.047749
1171.351017,-10066.800811,222.061783,689.485948
1171.351338,-9844.739029,222.061783,842.705048
1171.351659,-9918.759623,296.082377,689.485948
1171.351980,-9696.697840,148.041188,459.657299
1171.352300,-9178.553681,74.020594,1225.752797
1171.352621,-9474.636058,0.000000,842.705048
1171.352942,-9548.656652,-370.102971,1378.971896
1171.353263,-9474.636058,-1036.288319,1685.410096
1171.353584,-9474.636058,-1332.370696,1991.848295
1171.353905,-9548.656652,-1480.411884,1149.143247
1171.354225,-9474.636058,-1924.535449,1991.848295
1171.354546,-9474.636058,-1628.453072,1685.410096
1171.354867,-9400.615463,-888.247130,1302.362347
1171.355188,-9252.574275,-296.082377,995.924147
1171.355509,-9770.718434,74.020594,919.314598
1171.355829,-9400.615463,518.144159,919.314598
1171.356150,-9548.656652,518.144159,536.266849
1171.356471,-9696.697840,296.082377,612.876398
1171.356792,-9622.677246,74.020594,689.485948
1171.357113,-10066.800811,0.000000,2068.457845
1171.357433,-9844.739029,-962.267725,842.705048
1171.357754,-9548.656652,-1258.350101,536.266849
1171.358075,-9400.615463,-814.226536,-229.828649
1171.358396,-9548.656652,-148.041188,-459.657299
1171.358717,-9104.533087,296.082377,0.000000
1171.359038,-9696.697840,1406.391290,-229.828649
1171.359358,-9770.718434,1332.370696,-229.828649
1171.359679,-9622.677246,1258.350101,153.219100
1171.360000,-9918.759623,814.226536,612.876398
1171.360321,-9178.553681,296.082377,306.438199
1171.360642,-10066.800811,-740.205942,1915.238745
1171.360962,-10140.821405,-1110.308913,2451.505594
1171.361283,-9474.636058,-1628.453072,2298.286494
1171.361604,-9178.553681,-1998.556043,2374.896044
1171.361925,-8808.450710,-1702.473667,2451.505594
1171.362246,-9030.512492,-1924.535449,2068.457845
1171.362566,-9104.533087,-1406.391290,1991.848295
1171.362887,-9178.553681,-740.205942,1838.629195
1171.363208,-9252.574275,-296.082377,1532.190996
1171.363529,-9030.512492,148.041188,766.095498
1171.363850,-9696.697840,0.000000,1915.238745
1171.364171,-10066.800811,296.082377,1762.019645
1171.364491,-9992.780217,148.041188,1608.800546
1171.364812,-9844.739029,0.000000,1149.143247
1171.365133,-10436.903782,1554.432478,1302.362347
1171.365454,-9918.759623,296.082377,842.705048
1171.365775,-9992.780217,148.041188,919.314598
1171.366095,-9918.759623,518.144159,459.657299
1171.366416,-9548.656652,296.082377,689.485948
1171.366737,-9548.656652,222.061783,459.657299
1171.367058,-9696.697840,296.082377,1608.800546
1171.367379,-9548.656652,-74.020594,1762.019645
1171.367699,-9474.636058,-814.226536,1762.019645
1171.368020,-9252.574275,-1480.411884,1608.800546
1171.368341,-9474.636058,-1480.411884,1762.019645
1171.368662,-9326.594869,-1776.494261,842.705048
1171.368983,-9326.594869,-1258.350101,1225.752797
1171.369304,-9400.615463,-444.123565,536.266849
1171.369624,-9474.636058,222.061783,1072.533697
1171.369945,-9918.759623,962.267725,842.705048
1171.370266,-9474.636058,444.123565,919.314598
1171.370587,-9696.697840,0.000000,153.219100
1171.370908,-9770.718434,-296.082377,612.876398
1171.371228,-9770.718434,-1036.288319,689.485948
1171.371549,-9474.636058,-1554.432478,1149.143247
1171.371870,-9548.656652,-1110.308913,459.657299
1171.372191,-9474.636058,-1110.308913,76.609550
1171.372512,-9474.636058,-444.123565,0.000000
1171.372833,-9622.677246,-222.061783,229.828649
1171.373153,-9918.759623,592.164754,153.219100
1171.373474,-9622.677246,962.267725,-153.219100
1171.373795,-9548.656652,1036.288319,-229.828649
1171.374116,-9548.656652,814.226536,383.047749
1171.374437,-9770.718434,518.144159,1072.533697
1171.374757,-9918.759623,-444.123565,1762.019645
1171.375078,-9622.677246,-888.247130,1455.581446
1171.375399,-9696.697840,-1480.411884,1838.629195
1171.375720,-9326.594869,-1776.494261,1838.629195
1171.376041,-9474.636058,-1924.535449,2145.067394
1171.376361,-9178.553681,-1776.494261,2298.286494
1171.376682,-9400.615463,-1406.391290,2068.457845
1171.377003,-9178.553681,-740.205942,1685.410096
1171.377324,-9474.636058,0.000000,1302.362347
1171.377645,-9548.656652,148.041188,1378.971896
1171.377966,-9400.615463,592.164754,1378.971896
1171.378286,-9696.697840,370.102971,1302.362347
1171.378607,-9696.697840,444.123565,229.828649
1171.378928,-10140.821405,592.164754,229.828649
1171.379249,-10214.842000,592.164754,153.219100
1171.379570,-10288.862594,888.247130,689.485948
1171.379890,-9696.697840,740.205942,459.657299
1171.380211,-9844.739029,740.205942,689.485948
1171.380532,-10066.800811,370.102971,1149.143247
1171.380853,-9918.759623,222.061783,1532.190996
1171.381174,-9770.718434,-148.041188,2221.676944
1171.381494,-9696.697840,-888.247130,2528.115143
1171.381815,-9474.636058,-1480.411884,2757.943793
1171.382136,-9326.594869,-2220.617826,2221.676944
1171.382457,-8956.491898,-1998.556043,1915.238745
1171.382778,-9178.553681,-1554.432478,1608.800546
1171.383099,-7994.224174,-1480.411884,1149.143247
1171.383419,-9178.553681,-148.041188,842.705048
1171.383740,-9178.553681,444.123565,919.314598
1171.384061,-9474.636058,814.226536,995.924147
1171.384382,-9622.677246,592.164754,1072.533697
1171.384703,-9252.574275,-222.061783,153.219100
1171.385023,-9770.718434,0.000000,1378.971896
1171.385344,-10066.800811,-444.123565,1149.143247
1171.385665,-9696.697840,-888.247130,1072.533697
1171.385986,-9770.718434,-1184.329507,995.924147
1171.386307,-9918.759623,-1036.288319,229.828649
1171.386627,-9326.594869,-740.205942,0.000000
1171.386948,-9326.594869,0.000000,-306.438199
1171.387269,-9400.615463,370.102971,-383.047749
1171.387590,-9548.656652,888.247130,-229.828649
1171.387911,-9326.594869,1110.308913,-153.219100
1171.388232,-9992.780217,296.082377,229.828649
1171.388552,-9992.780217,0.000000,766.095498
1171.388873,-10288.862594,-592.164754,1302.362347
1171.389194,-10140.821405,-888.247130,1915.238745
1171.389515,-9844.739029,-1332.370696,2528.115143
1171.389836,-9844.739029,-1998.556043,2374.896044
1171.390156,-9474.636058,-2072.576638,1762.019645
1171.390477,-9252.574275,-1554.432478,1455.581446
1171.390798,-9770.718434,-2146.597232,919.314598
1171.391119,-9178.553681,-370.102971,1532.190996
1171.391440,-9252.574275,-148.041188,842.705048
1171.391760,-9474.636058,0.000000,536.266849
1171.392081,-9474.636058,148.041188,536.266849
1171.392402,-9622.677246,0.000000,1608.800546
1171.392723,-10214.842000,-296.082377,1149.143247
1171.393044,-10288.862594,-296.082377,536.266849
1171.393365,-10214.842000,0.000000,995.924147
1171.393685,-10362.883188,888.247130,536.266849
1171.394006,-9918.759623,518.144159,995.924147
1171.394327,-9844.739029,666.185348,842.705048
1171.394648,-9474.636058,666.185348,459.657299
1171.394969,-9474.636058,222.061783,612.876398
1171.395289,-9252.574275,0.000000,766.095498
1171.395610,-9474.636058,-814.226536,1455.581446
1171.395931,-9474.636058,-1110.308913,2451.505594
1171.396252,-9178.553681,-1924.535449,1915.238745
1171.396573,-9252.574275,-2220.617826,3370.820191
1171.396893,-9474.636058,-1924.535449,2145.067394
1171.397214,-9400.615463,-1628.453072,2068.457845
1171.397535,-9326.594869,-962.267725,1685.410096
1171.397856,-9104.533087,0.000000,1225.752797
1171.398177,-9474.636058,592.164754,1225.752797
1171.398498,-9474.636058,74.020594,1225.752797
1171.398818,-9474.636058,74.020594,1072.533697
1171.399139,-9474.636058,0.000000,459.657299
1171.399460,-9474.636058,-222.061783,536.266849
1171.399781,-9622.677246,-296.082377,842.705048
1171.400102,-9548.656652,-740.205942,459.657299
1171.400422,-9548.656652,-888.247130,0.000000
1171.400743,-9548.656652,-370.102971,229.828649
1171.401064,-9400.615463,0.000000,1149.143247
1171.401385,-9844.739029,666.185348,383.047749
1171.401706,-9992.780217,1110.308913,459.657299
1171.402026,-9844.739029,1184.329507,612.876398
1171.402347,-9918.759623,1184.329507,612.876398
1171.402668,-9474.636058,740.205942,1915.238745
1171.402989,-10140.821405,148.041188,1838.629195
1171.403310,-9844.739029,-444.123565,1838.629195
1171.403631,-9548.656652,-1258.350101,1991.848295
1171.403951,-9030.512492,-1702.473667,3524.039291
1171.404272,-9474.636058,-1554.432478,2298.286494
1171.404593,-9474.636058,-1776.494261,1991.848295
1171.404914,-9178.553681,-888.247130,1762.019645
1171.405235,-9474.636058,-222.061783,1608.800546
1171.405555,-9844.739029,148.041188,1685.410096
1171.405876,-9622.677246,0.000000,1532.190996
1171.406197,-9548.656652,0.000000,1072.533697
1171.406518,-9622.677246,0.000000,766.095498
1171.406839,-9844.739029,-74.020594,919.314598
1171.407159,-9622.677246,-666.185348,306.438199
1171.407480,-9474.636058,-518.144159,-153.219100
1171.407801,-9622.677246,-370.102971,0.000000
1171.408122,-9474.636058,0.000000,76.609550
1171.408443,-9030.512492,-222.061783,0.000000
1171.408764,-9548.656652,222.061783,306.438199
1171.409084,-9474.636058,0.000000,383.047749
1171.409405,-9474.636058,0.000000,1149.143247
1171.409726,-9770.718434,-592.164754,1302.362347
1171.410047,-9474.636058,-1036.288319,1378.971896
1171.410368,-9548.656652,-1776.494261,1762.019645
1171.410688,-9474.636058,-1998.556043,1685.410096
1171.411009,-9326.594869,-2146.597232,1608.800546
1171.411330,-9400.615463,-1184.329507,1072.533697
1171.411651,-9178.553681,-592.164754,842.705048
1171.411972,-9474.636058,148.041188,536.266849
1171.412292,-9622.677246,888.247130,919.314598
1171.412613,-9622.677246,888.247130,919.314598
1171.412934,-9844.739029,814.226536,1378.971896
1171.413255,-10066.800811,592.164754,1225.752797
1171.413576,-10140.821405,74.020594,1302.362347
1171.413897,-10214.842000,-666.185348,1302.362347
1171.414217,-9548.656652,-814.226536,1608.800546
1171.414538,-9696.697840,-1332.370696,76.609550
1171.414859,-9474.636058,-148.041188,459.657299
1171.415180,-9844.739029,0.000000,459.657299
1171.415501,-9400.615463,814.226536,306.438199
1171.415821,-9178.553681,814.226536,689.485948
1171.416142,-9696.697840,1110.308913,306.438199
1171.416463,-9548.656652,666.185348,536.266849
1171.416784,-9918.759623,592.164754,1685.410096
1171.417105,-9770.718434,-888.247130,1838.629195
1171.417425,-9992.780217,-962.267725,2145.067394
1171.417746,-9696.697840,-1554.432478,2451.505594
1171.418067,-9252.574275,-2368.659014,2374.896044
1171.418388,-9326.594869,-2220.617826,2221.676944
1171.418709,-9770.718434,-2220.617826,2068.457845
1171.419030,-8882.471304,-1480.411884,1915.238745
1171.419350,-9178.553681,-1110.308913,1378.971896
1171.419671,-8882.471304,-444.123565,1685.410096
1171.419992,-9400.615463,-296.082377,2834.553343
1171.420313,-9474.636058,0.000000,1149.143247
1171.420634,-9474.636058,222.061783,995.924147
1171.420954,-9992.780217,0.000000,1149.143247
1171.421275,-10066.800811,0.000000,919.314598
1171.421596,-10214.842000,148.041188,-229.828649
1171.421917,-9918.759623,370.102971,383.047749
1171.422238,-9844.739029,370.102971,153.219100
1171.422559,-9770.718434,222.061783,0.000000
1171.422879,-9474.636058,518.144159,153.219100
1171.423200,-10066.800811,666.185348,459.657299
1171.423521,-9622.677246,222.061783,1072.533697
1171.423842,-9252.574275,-444.123565,1149.143247
1171.424163,-9474.636058,-1258.350101,1685.410096
1171.424483,-9474.636058,-1332.370696,-919.314598
1171.424804,-9548.656652,-2368.659014,1149.143247
1171.425125,-9252.574275,-2368.659014,995.924147
1171.425446,-9252.574275,-1332.370696,995.924147
1171.425767,-9474.636058,-370.102971,1072.533697
1171.426087,-9918.759623,444.123565,766.095498
1171.426408,-9770.718434,814.226536,1149.143247
1171.426729,-9770.718434,370.102971,1455.581446
1171.427050,-9918.759623,296.082377,766.095498
1171.427371,-9992.780217,222.061783,-383.047749
1171.427692,-9622.677246,-518.144159,1225.752797
1171.428012,-9696.697840,-888.247130,689.485948
1171.428333,-9474.636058,-1036.288319,919.314598
1171.428654,-9622.677246,-1258.350101,306.438199
1171.428975,-9622.677246,-518.144159,-383.047749
1171.429296,-9770.718434,0.000000,383.047749
1171.429616,-9844.739029,962.267725,612.876398
1171.429937,-9844.739029,888.247130,766.095498
1171.430258,-9844.739029,666.185348,689.485948
1171.430579,-10288.862594,740.205942,1149.143247
1171.430900,-9992.780217,444.123565,1685.410096
1171.431220,-9992.780217,-296.082377,1991.848295
1171.431541,-9622.677246,-592.164754,2528.115143
1171.431862,-9844.739029,0.000000,3064.381992
1171.432183,-9474.636058,-1850.514855,2451.505594
1171.432504,-9178.553681,-1850.514855,2451.505594
1171.432825,-9030.512492,-2072.576638,1991.848295
1171.433145,-8956.491898,-1554.432478,1762.019645
1171.433466,-8660.409521,-740.205942,1991.848295
1171.433787,-9104.533087,0.000000,1762.019645
1171.434108,-9178.553681,370.102971,1225.752797
1171.434429,-9326.594869,592.164754,1225.752797
1171.434749,-9326.594869,444.123565,1838.629195
1171.435070,-9918.759623,222.061783,919.314598
1171.435391,-10066.800811,-148.041188,536.266849
1171.435712,-9844.739029,0.000000,612.876398
1171.436033,-9918.759623,74.020594,306.438199
1171.436353,-9326.594869,0.000000,229.828649
1171.436674,-9326.594869,0.000000,229.828649
1171.436995,-9622.677246,370.102971,0.000000
1171.437316,-9474.636058,444.123565,229.828649
1171.437637,-9622.677246,444.123565,0.000000
1171.437958,-9474.636058,-222.061783,1225.752797
1171.438278,-9474.636058,-1036.288319,1608.800546
1171.438599,-9548.656652,-1480.411884,1991.848295
1171.438920,-9326.594869,-1850.514855,1608.800546
1171.439241,-9548.656652,-1850.514855,919.314598
1171.439562,-9252.574275,-1554.432478,1072.533697
1171.439882,-9548.656652,-740.205942,919.314598
1171.440203,-9326.594869,518.144159,612.876398
1171.440524,-9622.677246,592.164754,1455.581446
1171.440845,-9770.718434,1036.288319,689.485948
1171.441166,-9844.739029,148.041188,459.657299
1171.441486,-9992.780217,-148.041188,689.485948
1171.441807,-9918.759623,-592.164754,612.876398
1171.442128,-9992.780217,-1702.473667,383.047749
1171.442449,-9696.697840,-1554.432478,306.438199
1171.442770,-9474.636058,-888.247130,306.438199
1171.443091,-9474.636058,-518.144159,0.000000
1171.443411,-9548.656652,222.061783,383.047749
1171.443732,-9474.636058,518.144159,0.000000
1171.444053,-9770.718434,888.247130,612.876398
1171.444374,-9696.697840,1258.350101,306.438199
1171.444695,-9548.656652,888.247130,842.705048
1171.445015,-9474.636058,1184.329507,842.705048
1171.445336,-9696.697840,222.061783,1915.238745
1171.445657,-9696.697840,-592.164754,2451.505594
1171.445978,-9696.697840,-1332.370696,2528.115143
1171.446299,-9474.636058,-1850.514855,2528.115143
1171.446619,-9030.512492,-1924.535449,3217.601092
1171.446940,-9178.553681,-1776.494261,2451.505594
1171.447261,-8956.491898,-1406.391290,2451.505594
1171.447582,-8956.491898,-888.247130,2145.067394
1171.447903,-9474.636058,0.000000,2604.724693
1171.448224,-9252.574275,0.000000,2374.896044
1171.448544,-9622.677246,-148.041188,2068.457845
1171.448865,-9622.677246,-74.020594,1838.629195
1171.449186,-9844.739029,-296.082377,1685.410096
1171.449507,-9326.594869,-740.205942,1225.752797
1171.449828,-9844.739029,-740.205942,1302.362347
1171.450148,-9770.718434,-592.164754,919.314598
1171.450469,-9844.739029,-370.102971,306.438199
1171.450790,-9992.780217,-1036.288319,153.219100
1171.451111,-9474.636058,0.000000,536.266849
1171.451432,-9474.636058,74.020594,306.438199
1171.451752,-9622.677246,0.000000,995.924147
1171.452073,-9548.656652,-222.061783,1072.533697
1171.452394,-9770.718434,-888.247130,1532.190996
1171.452715,-9548.656652,-1480.411884,1608.800546
1171.453036,-9770.718434,-2072.576638,1455.581446
1171.453357,-9326.594869,-1850.514855,1072.533697
1171.453677,-9696.697840,-1998.556043,1302.362347
1171.453998,-9400.615463,-740.205942,383.047749
1171.454319,-9622.677246,0.000000,689.485948
1171.454640,-9548.656652,888.247130,229.828649
1171.454961,-9548.656652,1554.432478,153.219100
1171.455282,-9548.656652,1036.288319,1455.581446
1171.455603,-9770.718434,888.247130,76.609550
1171.455924,-9844.739029,296.082377,229.828649
1171.456245,-10288.862594,-296.082377,459.657299
1171.456565,-9696.697840,-296.082377,229.828649
1171.456886,-9622.677246,-444.123565,766.095498
1171.457207,-9992.780217,0.000000,306.438199
1171.457528,-9548.656652,74.020594,306.438199
1171.457849,-9918.759623,666.185348,153.219100
1171.458170,-9474.636058,1036.288319,995.924147
1171.458491,-9474.636058,1036.288319,0.000000
1171.458812,-9696.697840,666.185348,1149.143247
1171.459132,-9622.677246,222.061783,1225.752797
1171.459453,-9548.656652,-370.102971,1685.410096
1171.459774,-8364.327145,-962.267725,2681.334243
1171.460095,-9622.677246,-1480.411884,2757.943793
1171.460416,-9474.636058,-2072.576638,2987.772442
1171.460737,-9474.636058,-2294.638420,2987.772442
1171.461058,-9104.533087,-2368.659014,2911.162892
1171.461379,-9104.533087,-1554.432478,2374.896044
1171.461699,-8808.450710,-1036.288319,1762.019645
1171.462020,-9030.512492,-148.041188,1455.581446
1171.462341,-9178.553681,222.061783,1378.971896
1171.462662,-10288.862594,1406.391290,766.095498
1171.462983,-9696.697840,592.164754,1455.581446
1171.463304,-9844.739029,296.082377,1378.971896
1171.463625,-10066.800811,0.000000,1532.190996
1171.463946,-9844.739029,-444.123565,1225.752797
1171.464266,-9992.780217,-444.123565,1455.581446
1171.464587,-9918.759623,-370.102971,1302.362347
1171.464908,-9548.656652,-296.082377,766.095498
1171.465229,-9474.636058,222.061783,995.924147
1171.465550,-9400.615463,962.267725,2298.286494
1171.465871,-9474.636058,444.123565,1302.362347
1171.466192,-9622.677246,222.061783,1302.362347
1171.466513,-9622.677246,-444.123565,1608.800546
1171.466833,-9474.636058,-1406.391290,1685.410096
1171.467154,-9400.615463,-1924.535449,1302.362347
1171.467475,-9474.636058,-1850.514855,689.485948
1171.467796,-9474.636058,-1406.391290,842.705048
1171.468117,-9474.636058,-444.123565,689.485948
1171.468438,-10288.862594,0.000000,1455.581446
1171.468759,-9696.697840,740.205942,536.266849
1171.469080,-9918.759623,740.205942,76.609550
1171.469400,-9770.718434,592.164754,76.609550
1171.469721,-9770.718434,0.000000,153.219100
1171.470042,-9400.615463,-370.102971,1302.362347
1171.470363,-9770.718434,-592.164754,536.266849
1171.470684,-9770.718434,-962.267725,459.657299
1171.471005,-9474.636058,-1110.308913,0.000000
1171.471326,-9622.677246,-666.185348,-383.047749
1171.471647,-9622.677246,0.000000,-229.828649
1171.471968,-9696.697840,444.123565,-153.219100
1171.472288,-9548.656652,888.247130,229.828649
1171.472609,-9622.677246,814.226536,0.000000
1171.472930,-9252.574275,888.247130,1608.800546
1171.473251,-9548.656652,148.041188,1072.533697
1171.473572,-9696.697840,-370.102971,1838.629195
1171.473893,-9770.718434,-1036.288319,2374.896044
1171.474214,-9400.615463,-2146.597232,2145.067394
1171.474535,-9474.636058,-2146.597232,3217.601092
1171.474855,-9252.574275,-2368.659014,3064.381992
1171.475176,-9030.512492,-2220.617826,2987.772442
1171.475497,-9252.574275,-1924.535449,2451.505594
1171.475818,-8808.450710,-1184.329507,2911.162892
1171.476139,-8882.471304,-592.164754,1915.238745
1171.476460,-9474.636058,222.061783,1838.629195
1171.476781,-9548.656652,666.185348,1991.848295
1171.477102,-9548.656652,666.185348,3140.991542
1171.477422,-10140.821405,592.164754,1532.190996
1171.477743,-9918.759623,0.000000,1225.752797
1171.478064,-9918.759623,-222.061783,919.314598
1171.478385,-9992.780217,74.020594,919.314598
1171.478706,-10732.986159,1110.308913,612.876398
1171.479027,-9622.677246,296.082377,383.047749
1171.479348,-9696.697840,740.205942,229.828649
1171.479669,-9844.739029,888.247130,689.485948
1171.479989,-9918.759623,666.185348,995.924147
1171.480310,-9474.636058,296.082377,2374.896044
1171.480631,-9770.718434,-444.123565,1762.019645
1171.480952,-9844.739029,-1258.350101,1455.581446
1171.481273,-9474.636058,-1702.473667,1378.971896
1171.481594,-9696.697840,-2072.576638,612.876398
1171.481915,-9178.553681,-1258.350101,766.095498
1171.482236,-9326.594869,-814.226536,766.095498
1171.482556,-9252.574275,0.000000,842.705048
1171.482877,-9474.636058,148.041188,842.705048
1171.483198,-8808.450710,-296.082377,766.095498
1171.483519,-9622.677246,148.041188,459.657299
1171.483840,-9844.739029,0.000000,229.828649
1171.484161,-9770.718434,-296.082377,459.657299
1171.484482,-9770.718434,-814.226536,76.609550
1171.484803,-9770.718434,-814.226536,383.047749
1171.485123,-9400.615463,-1036.288319,0.000000
1171.485444,-9400.615463,-814.226536,-459.657299
1171.485765,-9474.636058,0.000000,-306.438199
1171.486086,-9548.656652,740.205942,842.705048
1171.486407,-9622.677246,1036.288319,153.219100
1171.486728,-9474.636058,1406.391290,76.609550
1171.487049,-9696.697840,1110.308913,153.219100
1171.487370,-9474.636058,740.205942,612.876398
1171.487691,-10140.821405,518.144159,1378.971896
1171.488011,-9622.677246,-814.226536,2298.286494
1171.488332,-9474.636058,-1480.411884,2604.724693
1171.488653,-9474.636058,-2146.597232,2757.943793
1171.488974,-9104.533087,-2220.617826,2681.334243
1171.489295,-8660.409521,-1924.535449,3140.991542
1171.489616,-9252.574275,-1776.494261,2451.505594
1171.489937,-9030.512492,-1036.288319,1838.629195
1171.490258,-9252.574275,-222.061783,2145.067394
1171.490578,-9622.677246,222.061783,2221.676944
1171.490899,-9400.615463,666.185348,2068.457845
1171.491220,-9770.718434,370.102971,1532.190996
1171.491541,-9844.739029,148.041188,1455.581446
1171.491862,-10066.800811,148.041188,1225.752797
1171.492183,-10066.800811,-222.061783,1149.143247
1171.492504,-10362.883188,-296.082377,919.314598
1171.492825,-9770.718434,0.000000,766.095498
1171.493145,-10288.862594,296.082377,842.705048
1171.493466,-10140.821405,592.164754,766.095498
1171.493787,-10214.842000,1036.288319,689.485948
1171.494108,-9844.739029,296.082377,995.924147
1171.494429,-9770.718434,74.020594,1302.362347
1171.494750,-9474.636058,-592.164754,1532.190996
1171.495071,-9696.697840,-1110.308913,1685.410096
1171.495392,-8586.388927,-1554.432478,766.095498
1171.495712,-9030.512492,-2368.659014,995.924147
1171.496033,-9400.615463,-2294.638420,536.266849
1171.496354,-9030.512492,-1332.370696,689.485948
1171.496675,-9400.615463,-370.102971,612.876398
1171.496996,-9696.697840,148.041188,153.219100
1171.497317,-9474.636058,518.144159,536.266849
1171.497638,-9548.656652,74.020594,459.657299
1171.497959,-9474.636058,0.000000,459.657299
1171.498279,-9696.697840,-666.185348,612.876398
1171.498600,-9696.697840,-888.247130,536.266849
1171.498921,-9400.615463,-1184.329507,229.828649
1171.499242,-9252.574275,-962.267725,-153.219100
1171.499563,-9326.594869,-592.164754,-612.876398
1171.499884,-9104.533087,74.020594,153.219100
1171.500205,-9474.636058,444.123565,-459.657299
1171.500526,-9622.677246,1184.329507,-306.438199
1171.500846,-9770.718434,1258.350101,0.000000
1171.501167,-9696.697840,962.267725,306.438199
1171.501488,-10362.883188,518.144159,1762.019645
1171.501809,-10066.800811,222.061783,1838.629195
1171.502130,-9992.780217,-592.164754,2145.067394
1171.502451,-9770.718434,-1406.391290,2451.505594
1171.502772,-9474.636058,-2220.617826,2374.896044
1171.503093,-9178.553681,-1998.556043,2451.505594
1171.503414,-9474.636058,-2146.597232,2221.676944
1171.503734,-9030.512492,-1258.350101,1991.848295
1171.504055,-9474.636058,-740.205942,2145.067394
1171.504376,-9400.615463,-444.123565,2298.286494
1171.504697,-9844.739029,0.000000,2068.457845
1171.505018,-9770.718434,0.000000,1762.019645
1171.505339,-10066.800811,74.020594,1762.019645
1171.505660,-10066.800811,444.123565,2145.067394
1171.505981,-10288.862594,-222.061783,612.876398
1171.506301,-9770.718434,222.061783,1608.800546
1171.506622,-10066.800811,148.041188,1149.143247
1171.506943,-9918.759623,0.000000,766.095498
1171.507264,-9770.718434,148.041188,689.485948
1171.507585,-9992.780217,518.144159,766.095498
1171.507906,-9770.718434,296.082377,842.705048
1171.508227,-9622.677246,74.020594,1149.143247
1171.508548,-9178.553681,0.000000,1532.190996
1171.508868,-9474.636058,-444.123565,1762.019645
1171.509189,-8956.491898,-1184.329507,2374.896044
1171.509510,-9474.636058,-1628.453072,1838.629195
1171.509831,-9400.615463,-1776.494261,1455.581446
1171.510152,-9474.636058,-1406.391290,995.924147
1171.510473,-9474.636058,-1036.288319,1378.971896
1171.510794,-9400.615463,-296.082377,689.485948
1171.511115,-9104.533087,370.102971,459.657299
1171.511435,-9474.636058,370.102971,76.609550
1171.511756,-9474.636058,370.102971,306.438199
1171.512077,-9474.636058,0.000000,1225.752797
1171.512398,-9474.636058,-222.061783,229.828649
1171.512719,-9844.739029,-592.164754,383.047749
1171.513040,-9548.656652,-1110.308913,306.438199
1171.513361,-9548.656652,-962.267725,229.828649
1171.513682,-9548.656652,-888.247130,-842.705048
1171.514002,-9770.718434,-148.041188,-153.219100
1171.514323,-9622.677246,222.061783,-612.876398
1171.514644,-9622.677246,1036.288319,-536.266849
1171.514965,-9548.656652,1110.308913,-536.266849
1171.515286,-9400.615463,1702.473667,536.266849
1171.515607,-9474.636058,1110.308913,0.000000
1171.515928,-9548.656652,370.102971,842.705048
1171.516249,-9696.697840,-444.123565,919.314598
1171.516569,-9770.718434,-1332.370696,1991.848295
1171.516890,-9474.636058,-1702.473667,2604.724693
1171.517211,-9696.697840,-1924.535449,2681.334243
1171.517532,-9548.656652,-2146.597232,2681.334243
1171.517853,-9252.574275,-1850.514855,2451.505594
1171.518174,-9252.574275,-1332.370696,1915.238745
1171.518495,-9178.553681,-370.102971,2374.896044
1171.518816,-9252.574275,222.061783,2298.286494
1171.519137,-9474.636058,222.061783,2068.457845
1171.519457,-9474.636058,74.020594,1685.410096
1171.519778,-10066.800811,370.102971,2145.067394
1171.520099,-9844.739029,0.000000,1762.019645
1171.520420,-10362.883188,0.000000,1455.581446
1171.520741,-10066.800811,0.000000,1378.971896
1171.521062,-10140.821405,0.000000,995.924147
1171.521383,-9548.656652,-222.061783,2145.067394
1171.521704,-9770.718434,444.123565,995.924147
1171.522024,-9696.697840,518.144159,1072.533697
1171.522345,-9474.636058,296.082377,1608.800546
1171.522666,-9770.718434,74.020594,1532.190996
1171.522987,-9178.553681,-1036.288319,2145.067394
1171.523308,-9474.636058,-1258.350101,1838.629195
1171.523629,-9474.636058,-1850.514855,2145.067394
1171.523950,-9548.656652,-2146.597232,1915.238745
1171.524271,-9104.533087,-2220.617826,1378.971896
1171.524591,-9622.677246,-1110.308913,536.266849
