#time,accel_x,accel_y,accel_z
1239.931500,-8956.491898,-3330.926739,2221.676944
1239.931821,-9178.553681,-2294.638420,2911.162892
1239.932142,-9770.718434,-2368.659014,1991.848295
1239.932463,-8660.409521,-1332.370696,612.876398
1239.932784,-9696.697840,-814.226536,306.438199
1239.933105,-9474.636058,814.226536,766.095498
1239.933426,-10140.821405,1036.288319,919.314598
1239.933747,-10807.006753,518.144159,1838.629195
1239.934068,-10436.903782,-148.041188,1149.143247
1239.934389,-10214.842000,-518.144159,766.095498
1239.934710,-10362.883188,-814.226536,1838.629195
1239.935031,-9474.636058,-1406.391290,1762.019645
1239.935352,-9474.636058,-1776.494261,1685.410096
1239.935673,-8142.265362,-2368.659014,383.047749
1239.935994,-8216.285956,-1850.514855,689.485948
1239.936315,-9252.574275,-1628.453072,1225.752797
1239.936636,-9030.512492,-1184.329507,1838.629195
1239.936957,-9178.553681,-1110.308913,2221.676944
1239.937278,-9474.636058,-1258.350101,2298.286494
1239.937599,-9474.636058,-888.247130,2374.896044
1239.937921,-9992.780217,-1184.329507,2987.772442
1239.938242,-9844.739029,-1332.370696,3140.991542
1239.938563,-9770.718434,-1184.329507,3907.087040
1239.938884,-9918.759623,-1924.535449,3907.087040
1239.939205,-9474.636058,-2442.679609,3983.696590
1239.939526,-9400.615463,-2960.823768,4136.915689
1239.939847,-10066.800811,-3478.967927,2757.943793
1239.940168,-9178.553681,-3997.112087,4596.572988
1239.940489,-8956.491898,-4071.132681,4826.401637
1239.940810,-8808.450710,-4293.194464,4673.182538
1239.941131,-8882.471304,-3997.112087,5132.839837
1239.941452,-8586.388927,-4145.153275,5515.887586
1239.941773,-9400.615463,-3775.050304,5669.106685
1239.942094,-9474.636058,-3849.070898,5132.839837
1239.942415,-9400.615463,-4071.132681,5286.058936
1239.942736,-9548.656652,-4071.132681,4366.744339
1239.943057,-9844.739029,-4071.132681,5515.887586
1239.943378,-9622.677246,-3849.070898,5056.230287
1239.943699,-9622.677246,-3701.029710,5132.839837
1239.944020,-9474.636058,-3108.864956,4136.915689
1239.944341,-9474.636058,-3552.988522,5132.839837
1239.944662,-9548.656652,-3923.091493,4903.011187
1239.944983,-9474.636058,-4367.215058,4903.011187
1239.945304,-9326.594869,-4515.256246,4903.011187
1239.945625,-8882.471304,-5181.441594,4903.011187
1239.945946,-9252.574275,-5255.462188,5362.668486
1239.946268,-9178.553681,-5107.421000,5439.278036
1239.946589,-9548.656652,-5699.585753,5286.058936
1239.946910,-9030.512492,-5551.544565,3983.696590
1239.947231,-8882.471304,-5477.523971,3600.648841
1239.947552,-9326.594869,-4367.215058,3294.210641
1239.947873,-9474.636058,-3256.906145,2834.553343
1239.948194,-9548.656652,-2368.659014,3983.696590
1239.948515,-9844.739029,-2368.659014,2528.115143
1239.948836,-9918.759623,-2590.720797,2451.505594
1239.949157,-10436.903782,-3404.947333,2681.334243
1239.949478,-10510.924376,-3923.091493,2757.943793
1239.949799,-10066.800811,-4367.215058,1991.848295
1239.950120,-9696.697840,-4811.338623,1072.533697
1239.950441,-9178.553681,-4145.153275,153.219100
1239.950762,-9252.574275,-3182.885551,-76.609550
1239.951083,-9104.533087,-2220.617826,-766.095498
1239.951404,-9474.636058,-888.247130,0.000000
1239.951725,-9696.697840,-148.041188,612.876398
1239.952046,-10214.842000,-592.164754,1378.971896
1239.952367,-10288.862594,-1776.494261,1762.019645
1239.952688,-10214.842000,-2368.659014,2528.115143
1239.953009,-10362.883188,-2886.803174,3217.601092
1239.953330,-9622.677246,-3182.885551,3524.039291
1239.953651,-9474.636058,-3182.885551,4213.525239
1239.953972,-9548.656652,-3330.926739,3983.696590
1239.954294,-8660.409521,-3478.967927,3294.210641
1239.954615,-8512.368333,-3701.029710,1838.629195
1239.954935,-8438.347739,-2368.659014,1225.752797
1239.955256,-8438.347739,-666.185348,1455.581446
1239.955577,-9400.615463,1258.350101,1685.410096
1239.955898,-9178.553681,2516.700203,2451.505594
1239.956219,-10288.862594,2960.823768,2451.505594
1239.956539,-10362.883188,2590.720797,4060.306139
1239.956860,-10807.006753,1184.329507,3294.210641
1239.957181,-10436.903782,0.000000,3447.429741
1239.957502,-10140.821405,-1258.350101,3983.696590
1239.957823,-9474.636058,-1850.514855,3524.039291
1239.958143,-8808.450710,-2368.659014,3907.087040
1239.958464,-8882.471304,-3256.906145,4060.306139
1239.958785,-8438.347739,-3923.091493,2987.772442
1239.959106,-7920.203579,-3256.906145,1685.410096
1239.959427,-7698.141797,-1776.494261,995.924147
1239.959747,-8956.491898,1258.350101,1915.238745
1239.960068,-9918.759623,2516.700203,2681.334243
1239.960389,-10214.842000,2738.761985,3983.696590
1239.960710,-10584.944971,2738.761985,4443.353888
1239.961031,-10955.047942,1332.370696,3677.258390
1239.961351,-11325.150913,370.102971,4213.525239
1239.961672,-10288.862594,-148.041188,4213.525239
1239.961993,-9770.718434,-1850.514855,3447.429741
1239.962314,-8660.409521,-3256.906145,2221.676944
1239.962635,-7920.203579,-4145.153275,766.095498
1239.962955,-8216.285956,-3627.009116,153.219100
1239.963276,-8808.450710,-1554.432478,919.314598
1239.963597,-8660.409521,0.000000,1378.971896
1239.963918,-10288.862594,1258.350101,1378.971896
1239.964239,-10658.965565,1850.514855,766.095498
1239.964559,-10214.842000,1332.370696,612.876398
1239.964880,-10881.027347,1406.391290,842.705048
1239.965201,-11325.150913,888.247130,1532.190996
1239.965522,-10288.862594,-296.082377,766.095498
1239.965843,-9844.739029,-1480.411884,76.609550
1239.966163,-8882.471304,-2146.597232,-1149.143247
1239.966484,-8586.388927,-2072.576638,-1532.190996
1239.966805,-8956.491898,-740.205942,-1302.362347
1239.967126,-9030.512492,0.000000,-153.219100
1239.967447,-9474.636058,-444.123565,153.219100
1239.967767,-9474.636058,-1332.370696,1762.019645
1239.968088,-9622.677246,-2886.803174,1302.362347
1239.968409,-9918.759623,-4071.132681,1532.190996
1239.968730,-10362.883188,-3849.070898,2528.115143
1239.969051,-9178.553681,-2886.803174,2221.676944
1239.969371,-9178.553681,-3256.906145,1225.752797
1239.969692,-8438.347739,-1924.535449,-229.828649
1239.970013,-8512.368333,-1110.308913,-919.314598
1239.970334,-9030.512492,666.185348,-689.485948
1239.970655,-8808.450710,2368.659014,536.266849
1239.970975,-9696.697840,962.267725,1072.533697
1239.971296,-10436.903782,-296.082377,1455.581446
1239.971617,-10066.800811,-1480.411884,1072.533697
1239.971938,-10584.944971,-814.226536,1149.143247
1239.972259,-10436.903782,-1480.411884,3370.820191
1239.972579,-9770.718434,-1924.535449,3140.991542
1239.972900,-9548.656652,-2738.761985,2451.505594
1239.973221,-9178.553681,-2960.823768,1302.362347
1239.973542,-8438.347739,-1554.432478,0.000000
1239.973863,-9030.512492,666.185348,612.876398
1239.974183,-9474.636058,1924.535449,995.924147
1239.974504,-9622.677246,2812.782580,1915.238745
1239.974825,-10214.842000,1480.411884,2451.505594
1239.975146,-10214.842000,444.123565,1762.019645
1239.975467,-10881.027347,0.000000,2298.286494
1239.975787,-10955.047942,-518.144159,3064.381992
1239.976108,-10807.006753,-814.226536,3140.991542
1239.976429,-9622.677246,-1480.411884,1991.848295
1239.976750,-8956.491898,-2146.597232,612.876398
1239.977071,-8586.388927,-1110.308913,0.000000
1239.977391,-9696.697840,-592.164754,995.924147
1239.977712,-9622.677246,-148.041188,1532.190996
1239.978033,-9696.697840,74.020594,1762.019645
1239.978354,-9030.512492,0.000000,766.095498
1239.978675,-9474.636058,888.247130,229.828649
1239.978995,-9474.636058,1850.514855,2451.505594
1239.979316,-9992.780217,962.267725,1685.410096
1239.979637,-9326.594869,592.164754,612.876398
1239.979958,-9104.533087,-296.082377,-842.705048
1239.980279,-8882.471304,0.000000,-1608.800546
1239.980599,-9474.636058,1258.350101,-1072.533697
1239.980920,-9474.636058,2812.782580,153.219100
1239.981241,-9844.739029,2812.782580,1225.752797
1239.981562,-9844.739029,962.267725,1072.533697
1239.981883,-9474.636058,-444.123565,1072.533697
1239.982203,-9918.759623,-1184.329507,1225.752797
1239.982524,-9474.636058,-814.226536,1838.629195
1239.982845,-9992.780217,-592.164754,2451.505594
1239.983166,-9030.512492,-1184.329507,383.047749
1239.983487,-8512.368333,-1184.329507,-153.219100
1239.983807,-8290.306550,-740.205942,-612.876398
1239.984128,-8882.471304,888.247130,-229.828649
1239.984449,-9770.718434,2072.576638,536.266849
1239.984770,-9992.780217,1998.556043,766.095498
1239.985091,-9918.759623,1628.453072,459.657299
1239.985411,-10362.883188,1110.308913,153.219100
1239.985732,-10658.965565,1628.453072,1225.752797
1239.986053,-11029.068536,888.247130,2298.286494
1239.986374,-10510.924376,0.000000,2451.505594
1239.986695,-9770.718434,-1776.494261,1149.143247
1239.987015,-9252.574275,-2368.659014,76.609550
1239.987336,-8956.491898,-2590.720797,1455.581446
1239.987657,-9178.553681,-592.164754,612.876398
1239.987978,-9474.636058,666.185348,1072.533697
1239.988299,-9400.615463,666.185348,1455.581446
1239.988619,-9474.636058,-222.061783,1608.800546
1239.988940,-9770.718434,-666.185348,995.924147
1239.989261,-10140.821405,-518.144159,2068.457845
1239.989582,-10732.986159,-148.041188,3217.601092
1239.989903,-9992.780217,-518.144159,3447.429741
1239.990223,-9696.697840,-1776.494261,1915.238745
1239.990544,-9030.512492,-2368.659014,1455.581446
1239.990865,-9252.574275,-2146.597232,995.924147
1239.991186,-9252.574275,-740.205942,1455.581446
1239.991507,-9400.615463,0.000000,2451.505594
1239.991827,-9474.636058,-296.082377,1762.019645
1239.992148,-8956.491898,-888.247130,1302.362347
1239.992469,-9178.553681,-1036.288319,1225.752797
1239.992790,-9474.636058,-444.123565,1762.019645
1239.993111,-10066.800811,-1110.308913,1915.238745
1239.993431,-9474.636058,-2072.576638,1991.848295
1239.993752,-9474.636058,-3034.844362,612.876398
1239.994073,-9104.533087,-2220.617826,0.000000
1239.994394,-9622.677246,-296.082377,229.828649
1239.994715,-9474.636058,1406.391290,842.705048
1239.995035,-10362.883188,1480.411884,1532.190996
1239.995356,-9844.739029,296.082377,689.485948
1239.995677,-9474.636058,-666.185348,383.047749
1239.995998,-9622.677246,-1480.411884,536.266849
1239.996319,-9474.636058,-1406.391290,919.314598
1239.996639,-10066.800811,-1628.453072,1915.238745
1239.996960,-9622.677246,-2146.597232,1685.410096
1239.997281,-9326.594869,-2590.720797,1149.143247
1239.997602,-8808.450710,-2516.700203,-536.266849
1239.997923,-9474.636058,-1184.329507,76.609550
1239.998243,-10362.883188,666.185348,1072.533697
1239.998564,-9696.697840,444.123565,2911.162892
1239.998885,-9992.780217,592.164754,689.485948
1239.999206,-9696.697840,740.205942,0.000000
1239.999527,-9918.759623,370.102971,229.828649
1239.999847,-10436.903782,888.247130,1608.800546
1240.000168,-9992.780217,0.000000,1685.410096
1240.000489,-9696.697840,-1776.494261,995.924147
1240.000810,-8882.471304,-2220.617826,-306.438199
1240.001131,-9104.533087,-1332.370696,-612.876398
1240.001451,-9400.615463,222.061783,229.828649
1240.001772,-9918.759623,1702.473667,1762.019645
1240.002093,-9548.656652,962.267725,1685.410096
1240.002414,-9474.636058,814.226536,766.095498
1240.002735,-9474.636058,-148.041188,1608.800546
1240.003055,-9622.677246,74.020594,1685.410096
1240.003376,-9622.677246,0.000000,2374.896044
1240.003697,-9400.615463,-74.020594,1991.848295
1240.004018,-8660.409521,-1184.329507,1072.533697
1240.004339,-8142.265362,-1480.411884,0.000000
1240.004659,-8660.409521,0.000000,306.438199
1240.004980,-9474.636058,1110.308913,1225.752797
1240.005301,-10140.821405,2442.679609,2145.067394
1240.005622,-9918.759623,2146.597232,1991.848295
1240.005943,-9918.759623,814.226536,1225.752797
1240.006263,-9918.759623,518.144159,1455.581446
1240.006584,-10066.800811,444.123565,1608.800546
1240.006905,-10584.944971,1184.329507,1838.629195
1240.007226,-9622.677246,-296.082377,1991.848295
1240.007547,-9548.656652,-1850.514855,995.924147
1240.007867,-8956.491898,-2368.659014,-383.047749
1240.008188,-8882.471304,-1332.370696,-536.266849
1240.008509,-9548.656652,888.247130,689.485948
1240.008830,-10288.862594,1332.370696,1378.971896
1240.009151,-10214.842000,888.247130,1762.019645
1240.009471,-9844.739029,0.000000,459.657299
1240.009792,-9178.553681,-444.123565,306.438199
1240.010113,-10066.800811,-444.123565,995.924147
1240.010434,-9992.780217,-370.102971,2068.457845
1240.010755,-9696.697840,-1628.453072,1762.019645
1240.011075,-9400.615463,-1850.514855,-919.314598
1240.011396,-8882.471304,-2146.597232,-689.485948
1240.011717,-9400.615463,-740.205942,0.000000
1240.012038,-10436.903782,1036.288319,1302.362347
1240.012359,-10362.883188,962.267725,2298.286494
1240.012679,-9844.739029,148.041188,919.314598
1240.013000,-9474.636058,148.041188,0.000000
1240.013321,-9918.759623,74.020594,229.828649
1240.013642,-9918.759623,74.020594,1455.581446
1240.013963,-9844.739029,-370.102971,1532.190996
1240.014283,-9400.615463,-2072.576638,459.657299
1240.014604,-8882.471304,-2294.638420,-536.266849
1240.014925,-9252.574275,-2146.597232,-536.266849
1240.015246,-9918.759623,-518.144159,2528.115143
1240.015567,-10066.800811,148.041188,1915.238745
1240.015887,-9918.759623,370.102971,2221.676944
1240.016208,-9992.780217,-1036.288319,1991.848295
1240.016529,-9252.574275,-962.267725,1455.581446
1240.016850,-9770.718434,-2220.617826,2068.457845
1240.017171,-9178.553681,-1554.432478,2298.286494
1240.017491,-9252.574275,-1406.391290,2145.067394
1240.017812,-9030.512492,-2368.659014,1455.581446
1240.018133,-8216.285956,-2294.638420,459.657299
1240.018454,-9178.553681,-1702.473667,612.876398
1240.018775,-9770.718434,0.000000,1838.629195
1240.019095,-10288.862594,518.144159,2451.505594
1240.019416,-10881.027347,1184.329507,3064.381992
1240.019737,-9770.718434,0.000000,1685.410096
1240.020058,-9474.636058,148.041188,1149.143247
1240.020379,-9918.759623,1110.308913,1685.410096
1240.020699,-10214.842000,962.267725,2604.724693
1240.021020,-9474.636058,0.000000,2221.676944
1240.021341,-9178.553681,-2368.659014,842.705048
1240.021662,-8808.450710,-2368.659014,-306.438199
1240.021983,-9474.636058,-1480.411884,153.219100
1240.022303,-10066.800811,666.185348,1302.362347
1240.022624,-9548.656652,2368.659014,2145.067394
1240.022945,-10436.903782,1776.494261,1991.848295
1240.023266,-9918.759623,1184.329507,1608.800546
1240.023587,-9474.636058,-296.082377,1608.800546
1240.023907,-10362.883188,222.061783,1532.190996
1240.024228,-9770.718434,0.000000,1685.410096
1240.024549,-9400.615463,-1110.308913,995.924147
1240.024870,-9400.615463,-1998.556043,306.438199
1240.025191,-8512.368333,-1554.432478,-536.266849
1240.025511,-9622.677246,-518.144159,689.485948
1240.025832,-10436.903782,444.123565,1838.629195
1240.026153,-10584.944971,1036.288319,2145.067394
1240.026474,-9622.677246,222.061783,1532.190996
1240.026795,-9474.636058,-148.041188,536.266849
1240.027116,-9104.533087,222.061783,459.657299
1240.027436,-9474.636058,74.020594,1685.410096
1240.027757,-9770.718434,-962.267725,1302.362347
1240.028078,-8660.409521,-1998.556043,536.266849
1240.028399,-9178.553681,-2886.803174,-383.047749
1240.028720,-8882.471304,-1850.514855,-536.266849
1240.029040,-9474.636058,0.000000,306.438199
1240.029361,-10066.800811,1998.556043,2298.286494
1240.029682,-10066.800811,1998.556043,2298.286494
1240.030003,-9918.759623,888.247130,1532.190996
1240.030324,-9844.739029,0.000000,1149.143247
1240.030644,-9474.636058,-370.102971,612.876398
1240.030965,-9696.697840,-592.164754,1838.629195
1240.031286,-9252.574275,-592.164754,1532.190996
1240.031607,-8734.430116,-1702.473667,536.266849
1240.031928,-7772.162391,-1332.370696,612.876398
1240.032248,-9326.594869,0.000000,153.219100
1240.032569,-10140.821405,1184.329507,1991.848295
1240.032890,-11177.109724,1332.370696,3140.991542
1240.033211,-10584.944971,814.226536,4366.744339
1240.033532,-9696.697840,-518.144159,1455.581446
1240.033852,-9992.780217,-666.185348,1072.533697
1240.034173,-10140.821405,-222.061783,1532.190996
1240.034494,-9622.677246,0.000000,1762.019645
1240.034815,-9400.615463,-888.247130,689.485948
1240.035136,-8364.327145,-1850.514855,-383.047749
1240.035456,-8438.347739,-2146.597232,-2068.457845
1240.035777,-9400.615463,-666.185348,-995.924147
1240.036098,-9252.574275,370.102971,766.095498
1240.036419,-9918.759623,1184.329507,1225.752797
1240.036740,-10066.800811,148.041188,1762.019645
1240.037060,-9918.759623,-518.144159,1225.752797
1240.037381,-10584.944971,-1184.329507,1762.019645
1240.037702,-10066.800811,-814.226536,1762.019645
1240.038023,-9622.677246,-296.082377,2145.067394
1240.038344,-9474.636058,-1628.453072,919.314598
1240.038664,-7772.162391,-1480.411884,-689.485948
1240.038985,-7550.100608,-1258.350101,-1915.238745
1240.039306,-8734.430116,148.041188,-1149.143247
1240.039627,-9844.739029,1258.350101,229.828649
1240.039948,-10140.821405,1702.473667,2068.457845
1240.040268,-11547.212695,370.102971,1838.629195
1240.040589,-10288.862594,0.000000,1915.238745
1240.040910,-10658.965565,-592.164754,2221.676944
1240.041231,-10510.924376,-518.144159,3064.381992
1240.041552,-9918.759623,-888.247130,2451.505594
1240.041872,-9030.512492,-2146.597232,1455.581446
1240.042193,-8438.347739,-2812.782580,0.000000
1240.042514,-8290.306550,-1702.473667,-995.924147
1240.042835,-9030.512492,0.000000,0.000000
1240.043156,-9622.677246,1850.514855,1302.362347
1240.043476,-9770.718434,1850.514855,2145.067394
1240.043797,-10066.800811,666.185348,2145.067394
1240.044118,-10140.821405,-518.144159,1838.629195
1240.044439,-10881.027347,518.144159,2374.896044
1240.044760,-10584.944971,-888.247130,3140.991542
1240.045080,-9844.739029,-1480.411884,2834.553343
1240.045401,-9030.512492,-2294.638420,1532.190996
1240.045722,-8586.388927,-1776.494261,0.000000
1240.046043,-8808.450710,-888.247130,0.000000
1240.046364,-9770.718434,592.164754,995.924147
1240.046684,-10066.800811,1036.288319,1915.238745
1240.047005,-9918.759623,296.082377,1685.410096
1240.047326,-9770.718434,-222.061783,1838.629195
1240.047647,-9918.759623,-518.144159,995.924147
1240.047968,-10140.821405,0.000000,1762.019645
1240.048288,-10214.842000,0.000000,2528.115143
1240.048609,-9696.697840,-814.226536,1608.800546
1240.048930,-9474.636058,-1924.535449,306.438199
1240.049251,-9030.512492,-1924.535449,-536.266849
1240.049572,-9474.636058,-888.247130,-383.047749
1240.049892,-9844.739029,666.185348,536.266849
1240.050213,-9770.718434,1776.494261,1072.533697
1240.050534,-9770.718434,1110.308913,1455.581446
1240.050855,-9548.656652,444.123565,842.705048
1240.051176,-10066.800811,-370.102971,1455.581446
1240.051496,-9400.615463,-444.123565,1072.533697
1240.051817,-9770.718434,-740.205942,1762.019645
1240.052138,-9474.636058,-1554.432478,1532.190996
1240.052459,-8956.491898,-2516.700203,229.828649
1240.052780,-8882.471304,-1702.473667,-459.657299
1240.053100,-9474.636058,-148.041188,0.000000
1240.053421,-9992.780217,1406.391290,919.314598
1240.053742,-10214.842000,1776.494261,1455.581446
1240.054063,-10362.883188,592.164754,995.924147
1240.054383,-9548.656652,518.144159,-229.828649
1240.054704,-9326.594869,0.000000,0.000000
1240.055025,-9474.636058,0.000000,459.657299
1240.055345,-9474.636058,-518.144159,1225.752797
1240.055666,-7698.141797,-2590.720797,229.828649
1240.055987,-9030.512492,-2738.761985,229.828649
1240.056307,-8808.450710,-1776.494261,0.000000
1240.056628,-9992.780217,-148.041188,306.438199
1240.056949,-10436.903782,2072.576638,3524.039291
1240.057269,-10510.924376,2072.576638,2221.676944
1240.057590,-9844.739029,1702.473667,1685.410096
1240.057911,-9400.615463,444.123565,995.924147
1240.058231,-9252.574275,-222.061783,1225.752797
1240.058552,-9918.759623,-666.185348,1685.410096
1240.058872,-9326.594869,-888.247130,2298.286494
1240.059193,-9252.574275,-2072.576638,919.314598
1240.059514,-8586.388927,-1332.370696,536.266849
1240.059834,-9770.718434,-1406.391290,-919.314598
1240.060155,-9992.780217,296.082377,2068.457845
1240.060476,-10510.924376,518.144159,2604.724693
1240.060796,-9992.780217,-444.123565,2068.457845
1240.061117,-9474.636058,-222.061783,919.314598
1240.061438,-9696.697840,-222.061783,612.876398
1240.061758,-9400.615463,592.164754,689.485948
1240.062079,-9474.636058,814.226536,1685.410096
1240.062400,-9252.574275,-592.164754,766.095498
1240.062720,-9030.512492,-1702.473667,76.609550
1240.063041,-9400.615463,-2294.638420,-229.828649
1240.063362,-9622.677246,-1628.453072,459.657299
1240.063682,-10066.800811,-74.020594,1455.581446
1240.064003,-10140.821405,962.267725,1225.752797
1240.064324,-9918.759623,222.061783,1838.629195
1240.064644,-9326.594869,-592.164754,995.924147
1240.064965,-9104.533087,-740.205942,842.705048
1240.065285,-9770.718434,-518.144159,995.924147
1240.065606,-9326.594869,0.000000,1455.581446
1240.065927,-9326.594869,-962.267725,919.314598
1240.066247,-8734.430116,-2072.576638,0.000000
1240.066568,-8882.471304,-2368.659014,-229.828649
1240.066889,-9844.739029,-518.144159,459.657299
1240.067209,-10584.944971,592.164754,1532.190996
1240.067530,-10658.965565,962.267725,1838.629195
1240.067851,-9992.780217,592.164754,842.705048
1240.068171,-9326.594869,1110.308913,1378.971896
1240.068492,-9474.636058,666.185348,689.485948
1240.068813,-9696.697840,666.185348,1225.752797
1240.069133,-9474.636058,-222.061783,1378.971896
1240.069454,-9178.553681,-1628.453072,536.266849
1240.069775,-9104.533087,-1850.514855,0.000000
1240.070095,-9622.677246,-1702.473667,0.000000
1240.070416,-9770.718434,-370.102971,689.485948
1240.070737,-9844.739029,592.164754,1378.971896
1240.071057,-9992.780217,814.226536,2757.943793
1240.071378,-10066.800811,444.123565,1455.581446
1240.071698,-10362.883188,148.041188,1149.143247
1240.072019,-9474.636058,370.102971,1149.143247
1240.072340,-10140.821405,296.082377,1838.629195
1240.072660,-9326.594869,-740.205942,1532.190996
1240.072981,-9252.574275,-2220.617826,1072.533697
1240.073302,-8882.471304,-1850.514855,536.266849
1240.073622,-8956.491898,-1184.329507,383.047749
1240.073943,-9548.656652,222.061783,1225.752797
1240.074264,-10436.903782,740.205942,2145.067394
1240.074584,-10066.800811,518.144159,1762.019645
1240.074905,-9622.677246,0.000000,1149.143247
1240.075226,-9770.718434,222.061783,766.095498
1240.075546,-9548.656652,74.020594,1149.143247
1240.075867,-9696.697840,0.000000,1915.238745
1240.076188,-9326.594869,-962.267725,1532.190996
1240.076508,-9622.677246,-1998.556043,919.314598
1240.076829,-9104.533087,-2220.617826,536.266849
1240.077150,-9548.656652,-1258.350101,612.876398
1240.077470,-10140.821405,666.185348,1532.190996
1240.077791,-9992.780217,2146.597232,1838.629195
1240.078111,-9696.697840,1628.453072,1762.019645
1240.078432,-9400.615463,888.247130,1149.143247
1240.078753,-9622.677246,0.000000,612.876398
1240.079073,-9622.677246,-296.082377,1302.362347
1240.079394,-9622.677246,-666.185348,1608.800546
1240.079715,-9400.615463,-1702.473667,1762.019645
1240.080035,-9178.553681,-2664.741391,842.705048
1240.080356,-8734.430116,-2146.597232,612.876398
1240.080677,-9474.636058,-1332.370696,842.705048
1240.080997,-10066.800811,666.185348,1915.238745
1240.081318,-10214.842000,1184.329507,2451.505594
1240.081639,-9844.739029,0.000000,1838.629195
1240.081959,-9252.574275,-296.082377,766.095498
1240.082280,-9474.636058,-518.144159,995.924147
1240.082601,-9548.656652,-370.102971,1149.143247
1240.082921,-9400.615463,-592.164754,1532.190996
1240.083242,-9326.594869,-1406.391290,995.924147
1240.083562,-9104.533087,-1554.432478,229.828649
1240.083883,-9474.636058,-1036.288319,153.219100
1240.084204,-9696.697840,-518.144159,1225.752797
1240.084524,-9770.718434,0.000000,1838.629195
1240.084845,-10066.800811,148.041188,3217.601092
1240.085166,-9770.718434,-296.082377,1378.971896
1240.085486,-9400.615463,0.000000,842.705048
1240.085807,-9252.574275,0.000000,919.314598
1240.086128,-9030.512492,0.000000,842.705048
1240.086448,-8808.450710,444.123565,1838.629195
1240.086769,-10140.821405,-888.247130,842.705048
1240.087090,-8216.285956,-1628.453072,76.609550
1240.087410,-9474.636058,-1332.370696,-153.219100
1240.087731,-9252.574275,222.061783,2145.067394
1240.088052,-9918.759623,814.226536,1378.971896
1240.088372,-10658.965565,1406.391290,1991.848295
1240.088693,-9474.636058,814.226536,306.438199
1240.089014,-9326.594869,370.102971,-1991.848295
1240.089334,-9918.759623,1406.391290,995.924147
1240.089655,-9992.780217,666.185348,1685.410096
1240.089975,-9696.697840,-370.102971,1762.019645
1240.090296,-9548.656652,-2146.597232,689.485948
1240.090617,-9104.533087,-2368.659014,-306.438199
1240.090937,-9770.718434,-2220.617826,-153.219100
1240.091258,-10140.821405,0.000000,1608.800546
1240.091579,-9844.739029,1258.350101,2221.676944
1240.091899,-10214.842000,1184.329507,2068.457845
1240.092220,-9992.780217,296.082377,1532.190996
1240.092541,-9770.718434,0.000000,1072.533697
1240.092861,-10066.800811,-444.123565,1685.410096
1240.093182,-9696.697840,-74.020594,2145.067394
1240.093503,-8438.347739,-2294.638420,1455.581446
1240.093823,-8438.347739,-2664.741391,229.828649
1240.094144,-8660.409521,-1850.514855,0.000000
1240.094465,-9474.636058,-444.123565,689.485948
1240.094785,-9992.780217,888.247130,1838.629195
1240.095106,-9918.759623,1406.391290,2451.505594
1240.095427,-10214.842000,222.061783,1455.581446
1240.095747,-9474.636058,148.041188,1302.362347
1240.096068,-9548.656652,0.000000,1072.533697
1240.096388,-9844.739029,74.020594,1685.410096
1240.096709,-9252.574275,-592.164754,1072.533697
1240.097030,-9474.636058,-1998.556043,919.314598
1240.097350,-9030.512492,-2812.782580,0.000000
1240.097671,-8956.491898,-1998.556043,-306.438199
1240.097992,-9548.656652,-444.123565,383.047749
1240.098312,-9844.739029,1258.350101,1378.971896
1240.098633,-10362.883188,1332.370696,1838.629195
1240.098954,-9918.759623,148.041188,1608.800546
1240.099274,-9326.594869,-666.185348,1149.143247
1240.099595,-9548.656652,-1258.350101,612.876398
1240.099916,-9474.636058,-888.247130,1838.629195
1240.100236,-9622.677246,-1332.370696,1915.238745
1240.100557,-9178.553681,-2294.638420,842.705048
1240.100878,-8290.306550,-1332.370696,-919.314598
1240.101198,-9474.636058,-1628.453072,-459.657299
1240.101519,-9844.739029,148.041188,842.705048
1240.101840,-10881.027347,1332.370696,2298.286494
1240.102160,-10807.006753,1702.473667,3294.210641
1240.102481,-9696.697840,518.144159,766.095498
1240.102801,-9474.636058,370.102971,459.657299
1240.103122,-9622.677246,1110.308913,919.314598
1240.103443,-9622.677246,1258.350101,1838.629195
1240.103763,-9622.677246,370.102971,2298.286494
1240.104084,-9178.553681,-1998.556043,536.266849
1240.104405,-8660.409521,-2072.576638,-919.314598
1240.104725,-9400.615463,-370.102971,0.000000
1240.105046,-10362.883188,2220.617826,2145.067394
1240.105367,-9992.780217,1924.535449,2221.676944
1240.105687,-9992.780217,518.144159,1991.848295
1240.106008,-9770.718434,-444.123565,1149.143247
1240.106329,-9474.636058,-888.247130,-76.609550
1240.106649,-10288.862594,-444.123565,2298.286494
1240.106970,-9474.636058,-518.144159,2068.457845
1240.107291,-8512.368333,-1628.453072,229.828649
1240.107611,-8734.430116,-2072.576638,0.000000
1240.107932,-8364.327145,-1702.473667,-1225.752797
1240.108252,-9252.574275,-296.082377,-306.438199
1240.108573,-10436.903782,1406.391290,1608.800546
1240.108894,-9696.697840,1776.494261,1455.581446
1240.109214,-10510.924376,1406.391290,2374.896044
1240.109535,-10214.842000,296.082377,1225.752797
1240.109856,-9844.739029,296.082377,1455.581446
1240.110176,-10510.924376,0.000000,2451.505594
1240.110497,-9474.636058,-592.164754,2604.724693
1240.110818,-9474.636058,-1998.556043,1532.190996
1240.111138,-9326.594869,-2442.679609,383.047749
1240.111459,-8142.265362,-962.267725,76.609550
1240.111780,-9844.739029,-518.144159,76.609550
1240.112100,-8512.368333,1480.411884,842.705048
1240.112421,-9918.759623,1480.411884,1762.019645
1240.112742,-9474.636058,1036.288319,1302.362347
1240.113062,-9844.739029,-740.205942,1149.143247
1240.113383,-9326.594869,-1036.288319,1149.143247
1240.113704,-9696.697840,-444.123565,2068.457845
1240.114024,-9918.759623,-518.144159,2451.505594
1240.114345,-9178.553681,-1480.411884,1455.581446
1240.114665,-9030.512492,-2220.617826,306.438199
1240.114986,-9474.636058,-1998.556043,153.219100
1240.115307,-9252.574275,-740.205942,0.000000
1240.115627,-10362.883188,-296.082377,995.924147
1240.115948,-9548.656652,222.061783,383.047749
1240.116269,-9622.677246,370.102971,0.000000
1240.116589,-9844.739029,444.123565,0.000000
1240.116910,-9474.636058,1036.288319,766.095498
1240.117231,-10510.924376,666.185348,2374.896044
1240.117551,-10066.800811,-814.226536,2681.334243
1240.117872,-9622.677246,-2294.638420,1608.800546
1240.118193,-9696.697840,-2664.741391,842.705048
1240.118513,-9474.636058,-2146.597232,153.219100
1240.118834,-9474.636058,0.000000,1302.362347
1240.119155,-9918.759623,666.185348,1608.800546
1240.119475,-9474.636058,518.144159,1225.752797
1240.119796,-9104.533087,148.041188,919.314598
1240.120117,-9252.574275,-592.164754,229.828649
1240.120437,-8660.409521,-296.082377,919.314598
1240.120758,-9844.739029,-148.041188,2298.286494
1240.121078,-9474.636058,-1332.370696,2145.067394
1240.121399,-9178.553681,-2146.597232,766.095498
1240.121720,-8438.347739,-1110.308913,153.219100
1240.122040,-9770.718434,-888.247130,766.095498
1240.122361,-10066.800811,740.205942,1608.800546
1240.122682,-10288.862594,1406.391290,1991.848295
1240.123002,-9844.739029,518.144159,842.705048
1240.123323,-9252.574275,518.144159,0.000000
1240.123644,-9474.636058,74.020594,76.609550
1240.123964,-9548.656652,666.185348,1072.533697
1240.124285,-9474.636058,0.000000,1991.848295
1240.124606,-9548.656652,-1332.370696,1302.362347
1240.124926,-9326.594869,-2294.638420,459.657299
1240.125247,-9326.594869,-1850.514855,-153.219100
1240.125568,-10214.842000,0.000000,842.705048
1240.125888,-9844.739029,1998.556043,995.924147
1240.126209,-10214.842000,1924.535449,1991.848295
1240.126529,-9918.759623,518.144159,1685.410096
1240.126850,-9178.553681,-592.164754,919.314598
1240.127171,-9770.718434,-1184.329507,1149.143247
1240.127491,-9622.677246,-814.226536,1838.629195
1240.127812,-9400.615463,-148.041188,2298.286494
1240.128133,-9474.636058,-1480.411884,1378.971896
1240.128453,-9326.594869,-1776.494261,612.876398
1240.128774,-9400.615463,-1554.432478,0.000000
1240.129095,-10066.800811,-518.144159,612.876398
1240.129415,-10955.047942,740.205942,1991.848295
1240.129736,-10510.924376,444.123565,1838.629195
1240.130057,-9770.718434,-370.102971,-383.047749
1240.130377,-9326.594869,518.144159,383.047749
1240.130698,-9104.533087,888.247130,76.609550
1240.131019,-9400.615463,222.061783,1072.533697
1240.131339,-9252.574275,-592.164754,1608.800546
1240.131660,-9030.512492,-2368.659014,306.438199
1240.131981,-8808.450710,-2664.741391,-536.266849
1240.132301,-9104.533087,-1628.453072,0.000000
1240.132622,-9474.636058,0.000000,919.314598
1240.132942,-10732.986159,1850.514855,2451.505594
1240.133263,-9992.780217,1184.329507,2528.115143
1240.133584,-9770.718434,518.144159,1915.238745
1240.133904,-9696.697840,-370.102971,1378.971896
1240.134225,-9252.574275,0.000000,1072.533697
1240.134546,-9474.636058,-1036.288319,2068.457845
1240.134866,-9104.533087,-1924.535449,1762.019645
1240.135187,-8216.285956,-2146.597232,153.219100
1240.135508,-8364.327145,-1628.453072,-306.438199
1240.135828,-9252.574275,-518.144159,689.485948
1240.136149,-10362.883188,1332.370696,1991.848295
1240.136470,-10658.965565,1110.308913,2298.286494
1240.136790,-9844.739029,370.102971,842.705048
1240.137111,-10288.862594,0.000000,0.000000
1240.137432,-9474.636058,518.144159,76.609550
1240.137752,-9918.759623,740.205942,1762.019645
1240.138073,-9474.636058,0.000000,1072.533697
1240.138394,-9252.574275,-1332.370696,153.219100
1240.138714,-9326.594869,-2368.659014,-459.657299
1240.139035,-9326.594869,-1850.514855,-383.047749
1240.139355,-10066.800811,-148.041188,306.438199
1240.139676,-10658.965565,1554.432478,1838.629195
1240.139997,-9992.780217,1332.370696,1915.238745
1240.140317,-9770.718434,74.020594,1838.629195
1240.140638,-9622.677246,-592.164754,1225.752797
1240.140959,-9474.636058,-592.164754,1532.190996
1240.141279,-9696.697840,74.020594,1991.848295
1240.141600,-9400.615463,0.000000,1915.238745
1240.141921,-8734.430116,-1258.350101,766.095498
1240.142241,-8290.306550,-1554.432478,0.000000
1240.142562,-9178.553681,-444.123565,0.000000
1240.142883,-9622.677246,-74.020594,689.485948
1240.143203,-10436.903782,444.123565,1685.410096
1240.143524,-10658.965565,444.123565,2221.676944
1240.143845,-10066.800811,518.144159,1455.581446
1240.144165,-9622.677246,518.144159,995.924147
1240.144486,-9770.718434,666.185348,1072.533697
1240.144807,-9622.677246,370.102971,1455.581446
1240.145127,-9622.677246,-1258.350101,1455.581446
1240.145448,-8586.388927,-2738.761985,689.485948
1240.145768,-8882.471304,-2738.761985,0.000000
1240.146089,-9400.615463,-1776.494261,76.609550
1240.146410,-9474.636058,148.041188,1532.190996
1240.146730,-10214.842000,2664.741391,1838.629195
1240.147051,-10066.800811,1184.329507,1838.629195
1240.147372,-9696.697840,444.123565,1762.019645
1240.147692,-9474.636058,296.082377,1455.581446
1240.148013,-9844.739029,0.000000,1685.410096
1240.148334,-9844.739029,-444.123565,2374.896044
1240.148654,-9400.615463,-1332.370696,1915.238745
1240.148975,-8808.450710,-2442.679609,536.266849
1240.149296,-8734.430116,-2442.679609,153.219100
1240.149616,-9548.656652,-1258.350101,689.485948
1240.149937,-10510.924376,0.000000,2145.067394
1240.150258,-10807.006753,518.144159,2528.115143
1240.150578,-10510.924376,0.000000,2145.067394
1240.150899,-9252.574275,74.020594,1915.238745
1240.151219,-9622.677246,-518.144159,459.657299
1240.151540,-9844.739029,148.041188,995.924147
1240.151861,-9622.677246,0.000000,1455.581446
1240.152181,-9474.636058,-1110.308913,689.485948
1240.152502,-9252.574275,-2146.597232,-766.095498
1240.152823,-9104.533087,-1628.453072,-919.314598
1240.153143,-9622.677246,444.123565,-229.828649
1240.153464,-10510.924376,1554.432478,1225.752797
1240.153785,-9992.780217,1480.411884,2068.457845
1240.154106,-9844.739029,370.102971,1302.362347
1240.154426,-9696.697840,-666.185348,766.095498
1240.154747,-9474.636058,-666.185348,612.876398
1240.155068,-9548.656652,-1628.453072,-153.219100
1240.155388,-9104.533087,-740.205942,1685.410096
1240.155709,-8882.471304,-1554.432478,842.705048
1240.156030,-8512.368333,-2146.597232,-229.828649
1240.156351,-8734.430116,-666.185348,0.000000
1240.156671,-10214.842000,148.041188,919.314598
1240.156992,-10214.842000,1184.329507,1991.848295
1240.157313,-10362.883188,888.247130,2068.457845
1240.157634,-9548.656652,518.144159,612.876398
1240.157954,-8734.430116,888.247130,1685.410096
1240.158275,-9770.718434,1258.350101,1149.143247
1240.158596,-9548.656652,740.205942,1915.238745
1240.158916,-9474.636058,0.000000,1378.971896
1240.159237,-9178.553681,-1184.329507,995.924147
1240.159558,-8956.491898,-1924.535449,0.000000
1240.159879,-9622.677246,-1332.370696,612.876398
1240.160199,-9918.759623,74.020594,1685.410096
1240.160520,-10066.800811,1406.391290,2298.286494
1240.160841,-10288.862594,1184.329507,2834.553343
1240.161162,-9622.677246,-148.041188,1838.629195
1240.161482,-9844.739029,-1036.288319,1685.410096
1240.161803,-9770.718434,-740.205942,1762.019645
1240.162124,-9400.615463,-962.267725,3370.820191
1240.162445,-8808.450710,-592.164754,1915.238745
1240.162765,-9030.512492,-1998.556043,76.609550
1240.163086,-8142.265362,-1184.329507,76.609550
1240.163407,-9474.636058,-518.144159,383.047749
1240.163727,-10362.883188,962.267725,2068.457845
1240.164048,-10214.842000,740.205942,2221.676944
1240.164369,-10214.842000,0.000000,1762.019645
1240.164690,-9548.656652,222.061783,76.609550
1240.165010,-8882.471304,370.102971,689.485948
1240.165331,-9548.656652,1406.391290,1302.362347
1240.165652,-9474.636058,666.185348,1532.190996
1240.165973,-9400.615463,-962.267725,1072.533697
1240.166293,-9548.656652,-1924.535449,-383.047749
1240.166614,-8956.491898,-1924.535449,-766.095498
1240.166935,-9918.759623,-814.226536,0.000000
1240.167256,-9992.780217,740.205942,1302.362347
1240.167576,-10140.821405,814.226536,1762.019645
1240.167897,-10214.842000,0.000000,1302.362347
1240.168218,-9844.739029,-370.102971,689.485948
1240.168538,-9918.759623,-888.247130,1225.752797
1240.168859,-10140.821405,-888.247130,1455.581446
1240.169180,-9326.594869,-1332.370696,1762.019645
1240.169501,-9030.512492,-2812.782580,919.314598
1240.169821,-8290.306550,-2886.803174,0.000000
1240.170142,-9104.533087,-1924.535449,-153.219100
1240.170463,-10140.821405,-814.226536,842.705048
1240.170784,-10658.965565,444.123565,2374.896044
1240.171104,-10510.924376,0.000000,1532.190996
1240.171425,-9770.718434,74.020594,459.657299
1240.171746,-9548.656652,814.226536,-153.219100
1240.172067,-9992.780217,1702.473667,1302.362347
1240.172387,-10140.821405,1258.350101,2068.457845
1240.172708,-9918.759623,-296.082377,1685.410096
1240.173029,-9030.512492,-2072.576638,153.219100
1240.173349,-9252.574275,-1924.535449,-612.876398
1240.173670,-9696.697840,-592.164754,229.828649
1240.173991,-9770.718434,1406.391290,1378.971896
1240.174312,-10436.903782,2886.803174,2528.115143
1240.174632,-10510.924376,1998.556043,1532.190996
1240.174953,-9474.636058,296.082377,1225.752797
1240.175274,-9548.656652,-740.205942,1072.533697
1240.175595,-9770.718434,-1554.432478,1532.190996
1240.175915,-9252.574275,-962.267725,2068.457845
1240.176236,-9400.615463,-1406.391290,1225.752797
1240.176557,-8438.347739,-1554.432478,766.095498
1240.176878,-8586.388927,-1702.473667,0.000000
1240.177198,-9400.615463,-1332.370696,612.876398
1240.177519,-10288.862594,148.041188,1378.971896
1240.177840,-10510.924376,592.164754,2298.286494
1240.178160,-10288.862594,0.000000,1838.629195
1240.178481,-9474.636058,-148.041188,1225.752797
1240.178802,-9474.636058,0.000000,1608.800546
1240.179123,-9474.636058,1110.308913,1685.410096
1240.179443,-9548.656652,296.082377,2374.896044
1240.179764,-9474.636058,-1702.473667,1225.752797
1240.180085,-8734.430116,-2146.597232,-153.219100
1240.180406,-9030.512492,-2146.597232,-383.047749
1240.180726,-9252.574275,370.102971,0.000000
1240.181047,-9992.780217,1332.370696,2221.676944
1240.181368,-10140.821405,1776.494261,2374.896044
1240.181689,-10066.800811,1332.370696,1762.019645
1240.182009,-9622.677246,-222.061783,1378.971896
1240.182330,-9696.697840,-370.102971,1072.533697
1240.182651,-9992.780217,-222.061783,1685.410096
1240.182971,-9326.594869,-666.185348,3447.429741
1240.183292,-9104.533087,-962.267725,1302.362347
1240.183613,-8364.327145,-1776.494261,0.000000
1240.183934,-8956.491898,-1332.370696,0.000000
1240.184254,-9770.718434,-740.205942,919.314598
1240.184575,-10510.924376,222.061783,919.314598
1240.184896,-10658.965565,0.000000,1455.581446
1240.185217,-9992.780217,0.000000,536.266849
1240.185537,-9474.636058,0.000000,-383.047749
1240.185858,-9474.636058,444.123565,383.047749
1240.186179,-10288.862594,370.102971,2374.896044
1240.186499,-10214.842000,-814.226536,2145.067394
1240.186820,-9918.759623,-2442.679609,1072.533697
1240.187141,-8512.368333,-2886.803174,-306.438199
1240.187462,-9474.636058,-1702.473667,0.000000
1240.187782,-9622.677246,148.041188,1378.971896
1240.188103,-9770.718434,1110.308913,2145.067394
1240.188424,-9474.636058,740.205942,1378.971896
1240.188745,-9474.636058,-666.185348,229.828649
1240.189065,-9252.574275,-1184.329507,76.609550
1240.189386,-9474.636058,-888.247130,766.095498
1240.189707,-9474.636058,0.000000,1608.800546
1240.190028,-8586.388927,-740.205942,2068.457845
1240.190348,-8808.450710,-1924.535449,459.657299
1240.190669,-8660.409521,-2294.638420,0.000000
1240.190990,-9400.615463,-1332.370696,306.438199
1240.191310,-10584.944971,148.041188,2298.286494
1240.191631,-9844.739029,1184.329507,1685.410096
1240.191952,-9400.615463,1332.370696,842.705048
1240.192273,-9030.512492,1480.411884,-383.047749
1240.192593,-9252.574275,1554.432478,0.000000
1240.192914,-9622.677246,1258.350101,1378.971896
1240.193235,-9918.759623,444.123565,1838.629195
1240.193556,-9696.697840,-1554.432478,1762.019645
1240.193876,-9770.718434,-2886.803174,995.924147
1240.194197,-10066.800811,-1554.432478,842.705048
1240.194518,-10436.903782,148.041188,1685.410096
1240.194839,-10214.842000,2072.576638,2681.334243
1240.195159,-10510.924376,2072.576638,2298.286494
1240.195480,-9548.656652,1406.391290,612.876398
1240.195801,-9474.636058,444.123565,229.828649
1240.196121,-9474.636058,-518.144159,842.705048
1240.196442,-9474.636058,-444.123565,1378.971896
1240.196763,-9104.533087,-1110.308913,1378.971896
1240.197084,-9474.636058,-2146.597232,1302.362347
1240.197404,-8660.409521,-2664.741391,612.876398
1240.197725,-9622.677246,-1850.514855,612.876398
1240.198046,-9918.759623,-148.041188,1378.971896
1240.198367,-9696.697840,1406.391290,2528.115143
1240.198687,-11029.068536,1480.411884,3064.381992
1240.199008,-9770.718434,0.000000,1149.143247
1240.199329,-9400.615463,-148.041188,689.485948
1240.199650,-8512.368333,-444.123565,536.266849
1240.199970,-8956.491898,-370.102971,1685.410096
1240.200291,-8956.491898,-1628.453072,919.314598
1240.200612,-8808.450710,-1998.556043,306.438199
1240.200932,-8882.471304,-1480.411884,-689.485948
1240.201253,-9474.636058,-148.041188,-383.047749
1240.201574,-9696.697840,1184.329507,612.876398
1240.201895,-10214.842000,1554.432478,1532.190996
1240.202215,-10140.821405,592.164754,1685.410096
1240.202536,-9918.759623,-148.041188,-153.219100
1240.202857,-9474.636058,-1850.514855,383.047749
1240.203178,-9474.636058,-1184.329507,1149.143247
1240.203498,-9474.636058,-444.123565,1915.238745
1240.203819,-9400.615463,-1036.288319,1838.629195
1240.204140,-8586.388927,-2220.617826,153.219100
1240.204461,-8586.388927,-2368.659014,-306.438199
1240.204781,-9474.636058,-1628.453072,0.000000
1240.205102,-10658.965565,0.000000,1378.971896
1240.205423,-10362.883188,592.164754,2374.896044
1240.205743,-10658.965565,0.000000,1072.533697
1240.206064,-9548.656652,296.082377,0.000000
1240.206385,-9696.697840,370.102971,76.609550
1240.206706,-9622.677246,888.247130,459.657299
1240.207026,-10214.842000,222.061783,1762.019645
1240.207347,-9252.574275,-814.226536,459.657299
1240.207668,-8956.491898,-1850.514855,-689.485948
1240.207989,-8956.491898,-2516.700203,-2604.724693
1240.208309,-9474.636058,0.000000,689.485948
1240.208630,-10436.903782,518.144159,1455.581446
1240.208951,-9844.739029,1776.494261,2298.286494
1240.209272,-10288.862594,0.000000,1915.238745
1240.209592,-9844.739029,74.020594,1762.019645
1240.209913,-10066.800811,0.000000,1991.848295
1240.210234,-9770.718434,296.082377,2911.162892
1240.210554,-9548.656652,444.123565,2757.943793
1240.210875,-9178.553681,-1776.494261,842.705048
1240.211196,-8512.368333,-2812.782580,306.438199
1240.211517,-8438.347739,-2664.741391,0.000000
1240.211837,-9474.636058,-962.267725,1149.143247
1240.212158,-10066.800811,296.082377,2681.334243
1240.212479,-9918.759623,74.020594,2528.115143
1240.212800,-9622.677246,-740.205942,1302.362347
1240.213120,-9252.574275,-222.061783,689.485948
1240.213441,-9548.656652,222.061783,1302.362347
1240.213762,-9844.739029,370.102971,2145.067394
1240.214083,-9326.594869,-370.102971,1915.238745
1240.214403,-9178.553681,-2220.617826,842.705048
1240.214724,-8882.471304,-2368.659014,-306.438199
1240.215045,-9622.677246,-592.164754,-229.828649
1240.215365,-9548.656652,888.247130,689.485948
1240.215686,-10510.924376,2516.700203,2145.067394
1240.216007,-10436.903782,1924.535449,2145.067394
1240.216328,-9992.780217,370.102971,1608.800546
1240.216648,-9474.636058,-592.164754,536.266849
1240.216969,-9622.677246,-1184.329507,995.924147
1240.217290,-9622.677246,-592.164754,1225.752797
1240.217611,-9178.553681,-962.267725,1532.190996
1240.217931,-9252.574275,-2368.659014,0.000000
1240.218252,-8364.327145,-1554.432478,-536.266849
1240.218573,-9474.636058,-814.226536,0.000000
1240.218893,-10510.924376,592.164754,1455.581446
1240.219214,-10214.842000,2146.597232,2681.334243
1240.219535,-10732.986159,296.082377,1915.238745
1240.219856,-9844.739029,-296.082377,229.828649
1240.220176,-9918.759623,74.020594,306.438199
1240.220497,-10214.842000,444.123565,1608.800546
1240.220818,-9400.615463,0.000000,1225.752797
1240.221139,-9104.533087,-1110.308913,459.657299
1240.221459,-9030.512492,-2146.597232,-459.657299
1240.221780,-8956.491898,-1554.432478,-842.705048
1240.222101,-9696.697840,0.000000,842.705048
1240.222422,-10288.862594,1554.432478,1455.581446
1240.222742,-10140.821405,1850.514855,1915.238745
1240.223063,-10140.821405,518.144159,1608.800546
1240.223384,-10288.862594,0.000000,689.485948
1240.223704,-9770.718434,-518.144159,1225.752797
1240.224025,-9474.636058,-592.164754,1532.190996
1240.224346,-9548.656652,-370.102971,2145.067394
1240.224667,-9326.594869,-1628.453072,1685.410096
1240.224987,-8660.409521,-1850.514855,76.609550
1240.225308,-8808.450710,-962.267725,-229.828649
1240.225629,-9844.739029,0.000000,842.705048
1240.225950,-10066.800811,888.247130,2221.676944
1240.226270,-10584.944971,814.226536,1991.848295
1240.226591,-9844.739029,0.000000,1455.581446
1240.226912,-9474.636058,222.061783,995.924147
1240.227233,-9548.656652,148.041188,1455.581446
1240.227553,-9104.533087,148.041188,2298.286494
1240.227874,-9474.636058,0.000000,1762.019645
1240.228195,-9178.553681,-1850.514855,1685.410096
1240.228515,-8956.491898,-2146.597232,0.000000
1240.228836,-9474.636058,-1406.391290,153.219100
1240.229157,-9622.677246,0.000000,842.705048
1240.229478,-10288.862594,1998.556043,2221.676944
1240.229798,-10510.924376,1036.288319,2451.505594
1240.230119,-9548.656652,-222.061783,1455.581446
1240.230440,-9992.780217,-888.247130,612.876398
1240.230761,-9622.677246,-1258.350101,1302.362347
1240.231081,-9474.636058,-888.247130,2374.896044
1240.231402,-9474.636058,-1184.329507,2068.457845
1240.231723,-8142.265362,-1776.494261,995.924147
1240.232044,-8882.471304,-1184.329507,459.657299
1240.232364,-9252.574275,-1480.411884,536.266849
1240.232685,-9696.697840,-222.061783,1225.752797
1240.233006,-10362.883188,814.226536,2298.286494
1240.233326,-10510.924376,518.144159,1685.410096
1240.233647,-9622.677246,666.185348,995.924147
1240.233968,-9474.636058,222.061783,383.047749
1240.234289,-9696.697840,592.164754,536.266849
1240.234609,-9622.677246,962.267725,1072.533697
1240.234930,-9844.739029,-814.226536,919.314598
1240.235251,-9178.553681,-1702.473667,536.266849
1240.235572,-9326.594869,-2368.659014,-229.828649
1240.235892,-9992.780217,-444.123565,1302.362347
1240.236213,-10658.965565,518.144159,2145.067394
1240.236534,-10214.842000,0.000000,1991.848295
1240.236855,-9844.739029,-592.164754,766.095498
1240.237175,-9474.636058,-444.123565,0.000000
1240.237496,-9622.677246,-592.164754,842.705048
1240.237817,-9844.739029,-740.205942,1455.581446
1240.238137,-9474.636058,-1406.391290,1225.752797
1240.238458,-9178.553681,-2294.638420,0.000000
1240.238779,-7994.224174,-2886.803174,-383.047749
1240.239100,-8808.450710,-1332.370696,-229.828649
1240.239420,-10066.800811,370.102971,689.485948
1240.239741,-10214.842000,1702.473667,1378.971896
1240.240062,-10066.800811,1184.329507,1225.752797
1240.240383,-9548.656652,296.082377,0.000000
1240.240703,-9474.636058,592.164754,-306.438199
1240.241024,-10140.821405,1184.329507,536.266849
1240.241345,-9770.718434,1480.411884,1378.971896
1240.241666,-9474.636058,962.267725,1378.971896
1240.241986,-9178.553681,-1110.308913,0.000000
1240.242307,-8586.388927,-1776.494261,-919.314598
1240.242628,-9474.636058,-888.247130,-229.828649
1240.242948,-10436.903782,0.000000,842.705048
1240.243269,-9844.739029,1554.432478,1532.190996
1240.243590,-10140.821405,1184.329507,2145.067394
1240.243911,-9918.759623,740.205942,1608.800546
1240.244231,-9770.718434,-740.205942,1225.752797
1240.244552,-9696.697840,-592.164754,1915.238745
1240.244873,-9622.677246,-592.164754,1991.848295
1240.245194,-9178.553681,-2220.617826,1302.362347
1240.245514,-8882.471304,-2590.720797,536.266849
1240.245835,-8512.368333,-1554.432478,0.000000
1240.246156,-9252.574275,-666.185348,689.485948
1240.246476,-9844.739029,814.226536,1838.629195
1240.246797,-10288.862594,888.247130,2374.896044
1240.247118,-10436.903782,148.041188,2145.067394
1240.247439,-9770.718434,0.000000,1378.971896
1240.247759,-9474.636058,0.000000,1072.533697
1240.248080,-9548.656652,296.082377,2068.457845
1240.248401,-9548.656652,0.000000,1378.971896
1240.248722,-9326.594869,-1184.329507,2221.676944
1240.249042,-8808.450710,-2368.659014,1072.533697
1240.249363,-9104.533087,-2146.597232,0.000000
1240.249684,-9770.718434,-370.102971,995.924147
1240.250005,-10066.800811,1184.329507,1762.019645
1240.250325,-10066.800811,1258.350101,2604.724693
1240.250646,-9844.739029,444.123565,2068.457845
1240.250967,-9696.697840,-666.185348,1455.581446
1240.251287,-9474.636058,-518.144159,995.924147
1240.251608,-10658.965565,-444.123565,2528.115143
1240.251929,-9918.759623,-814.226536,2374.896044
1240.252250,-9178.553681,-1480.411884,1149.143247
1240.252570,-8808.450710,-2590.720797,-536.266849
1240.252891,-8512.368333,-814.226536,-919.314598
1240.253212,-10288.862594,-444.123565,919.314598
1240.253533,-10066.800811,518.144159,1302.362347
1240.253853,-10732.986159,592.164754,1455.581446
1240.254174,-10066.800811,-74.020594,842.705048
1240.254495,-9474.636058,-444.123565,229.828649
1240.254816,-10288.862594,0.000000,919.314598
1240.255136,-9548.656652,-518.144159,1455.581446
1240.255457,-8882.471304,-1702.473667,1608.800546
1240.255778,-9326.594869,-2960.823768,0.000000
1240.256098,-8734.430116,-2738.761985,-919.314598
1240.256419,-9252.574275,-1406.391290,-612.876398
1240.256740,-8808.450710,0.000000,2145.067394
1240.257061,-10066.800811,1554.432478,1455.581446
1240.257382,-10140.821405,814.226536,1302.362347
1240.257702,-9622.677246,-592.164754,306.438199
1240.258023,-9474.636058,0.000000,383.047749
1240.258344,-10510.924376,-962.267725,689.485948
1240.258665,-9474.636058,-444.123565,1685.410096
1240.258986,-9770.718434,-2294.638420,689.485948
1240.259306,-7920.203579,-1554.432478,536.266849
1240.259627,-9474.636058,-2664.741391,383.047749
1240.259948,-8734.430116,-222.061783,1149.143247
1240.260269,-10362.883188,0.000000,1302.362347
1240.260590,-10362.883188,1406.391290,2757.943793
1240.260910,-9770.718434,370.102971,1455.581446
1240.261231,-9770.718434,740.205942,1225.752797
1240.261552,-9400.615463,962.267725,1072.533697
1240.261873,-9474.636058,962.267725,612.876398
1240.262194,-9622.677246,1480.411884,2451.505594
1240.262514,-9326.594869,-1332.370696,1532.190996
1240.262835,-8808.450710,-1850.514855,383.047749
1240.263156,-9770.718434,-1850.514855,919.314598
1240.263477,-9326.594869,0.000000,1378.971896
1240.263798,-10510.924376,1258.350101,2911.162892
1240.264118,-10955.047942,1776.494261,3907.087040
1240.264439,-9622.677246,592.164754,2987.772442
1240.264760,-10140.821405,-222.061783,1838.629195
1240.265081,-9844.739029,-888.247130,229.828649
1240.265402,-9030.512492,-222.061783,1378.971896
1240.265722,-9548.656652,-444.123565,1762.019645
1240.266043,-8660.409521,-888.247130,766.095498
1240.266364,-8438.347739,-1554.432478,-536.266849
1240.266685,-8512.368333,-1036.288319,-306.438199
1240.267005,-9770.718434,-148.041188,689.485948
1240.267326,-10658.965565,814.226536,2221.676944
1240.267647,-10732.986159,888.247130,2145.067394
1240.267968,-9844.739029,-296.082377,919.314598
1240.268289,-9844.739029,296.082377,766.095498
1240.268609,-9696.697840,666.185348,919.314598
1240.268930,-10140.821405,444.123565,1685.410096
1240.269251,-9104.533087,-888.247130,919.314598
1240.269572,-9104.533087,-2886.803174,76.609550
1240.269893,-8512.368333,-3034.844362,-995.924147
1240.270213,-9030.512492,-2294.638420,-766.095498
1240.270534,-9326.594869,0.000000,229.828649
1240.270855,-9474.636058,1406.391290,1378.971896
1240.271176,-9918.759623,666.185348,1685.410096
1240.271497,-9622.677246,148.041188,1225.752797
1240.271817,-9696.697840,-1184.329507,383.047749
1240.272138,-9548.656652,-370.102971,995.924147
1240.272459,-9696.697840,-814.226536,1455.581446
1240.272780,-9030.512492,-666.185348,1302.362347
1240.273101,-8808.450710,-1850.514855,0.000000
1240.273421,-7179.997637,-1628.453072,-1302.362347
1240.273742,-9030.512492,-1184.329507,-612.876398
1240.274063,-9992.780217,0.000000,306.438199
1240.274384,-10362.883188,888.247130,1455.581446
1240.274705,-9918.759623,518.144159,1149.143247
1240.275025,-9844.739029,370.102971,612.876398
1240.275346,-9548.656652,444.123565,459.657299
1240.275667,-9844.739029,1036.288319,1455.581446
1240.275988,-10214.842000,0.000000,1915.238745
1240.276309,-8512.368333,-1332.370696,2451.505594
1240.276629,-9474.636058,-2516.700203,153.219100
1240.276950,-8956.491898,-1480.411884,-612.876398
1240.277271,-9918.759623,592.164754,306.438199
1240.277592,-10732.986159,1998.556043,919.314598
1240.277912,-10066.800811,2368.659014,2451.505594
1240.278233,-10658.965565,-148.041188,1608.800546
1240.278554,-9474.636058,-740.205942,1302.362347
1240.278875,-10066.800811,-1850.514855,1455.581446
1240.279196,-10140.821405,-1036.288319,2451.505594
1240.279516,-9400.615463,-592.164754,3140.991542
1240.279837,-8956.491898,-1998.556043,1838.629195
1240.280158,-7994.224174,-1850.514855,459.657299
1240.280479,-9326.594869,-1776.494261,0.000000
1240.280800,-9992.780217,148.041188,1455.581446
1240.281120,-10732.986159,1258.350101,2298.286494
1240.281441,-10955.047942,1258.350101,2681.334243
1240.281762,-10362.883188,444.123565,1149.143247
1240.282083,-10066.800811,666.185348,689.485948
1240.282404,-9770.718434,444.123565,919.314598
1240.282724,-9474.636058,222.061783,919.314598
1240.283045,-9326.594869,-444.123565,689.485948
1240.283366,-8512.368333,-2294.638420,-536.266849
1240.283687,-7920.203579,-2294.638420,-1225.752797
1240.284008,-8586.388927,-1924.535449,-689.485948
1240.284328,-9326.594869,-222.061783,842.705048
1240.284649,-9548.656652,1036.288319,1378.971896
1240.284970,-9918.759623,592.164754,2604.724693
1240.285291,-9770.718434,-592.164754,2298.286494
1240.285612,-9918.759623,-814.226536,1838.629195
1240.285932,-9918.759623,222.061783,1762.019645
1240.286253,-10066.800811,-148.041188,2451.505594
1240.286574,-8808.450710,-1110.308913,1225.752797
1240.286895,-8142.265362,-2146.597232,-459.657299
1240.287216,-7994.224174,-1924.535449,-1532.190996
1240.287536,-8142.265362,-518.144159,-1378.971896
1240.287857,-9696.697840,1036.288319,612.876398
1240.288178,-10510.924376,1554.432478,1378.971896
1240.288499,-10807.006753,370.102971,1838.629195
1240.288819,-11547.212695,370.102971,1532.190996
1240.289140,-10955.047942,-444.123565,1762.019645
1240.289461,-10658.965565,-222.061783,2604.724693
1240.289782,-10584.944971,-592.164754,2681.334243
1240.290103,-9548.656652,-1702.473667,1991.848295
1240.290423,-8734.430116,-2812.782580,229.828649
1240.290744,-8512.368333,-2738.761985,-995.924147
1240.291065,-9178.553681,-666.185348,-383.047749
1240.291386,-9844.739029,666.185348,842.705048
1240.291707,-10140.821405,1702.473667,1455.581446
1240.292027,-10288.862594,1332.370696,1838.629195
1240.292348,-10140.821405,-148.041188,2068.457845
1240.292669,-10066.800811,-666.185348,1991.848295
1240.292990,-9844.739029,-888.247130,2834.553343
1240.293311,-9622.677246,-1184.329507,2298.286494
1240.293631,-9178.553681,-1554.432478,995.924147
1240.293952,-8660.409521,-1998.556043,0.000000
1240.294273,-8438.347739,-1110.308913,-2298.286494
1240.294594,-9326.594869,1258.350101,-153.219100
1240.294915,-10066.800811,2146.597232,1302.362347
1240.295235,-10658.965565,1554.432478,1685.410096
1240.295556,-10214.842000,592.164754,1072.533697
1240.295877,-9992.780217,-148.041188,229.828649
1240.296198,-9770.718434,222.061783,919.314598
1240.296519,-9844.739029,148.041188,1685.410096
1240.296839,-9474.636058,0.000000,1072.533697
1240.297160,-8956.491898,-444.123565,306.438199
1240.297481,-8586.388927,-1554.432478,-306.438199
1240.297802,-8734.430116,-1184.329507,-383.047749
1240.298123,-9326.594869,296.082377,459.657299
1240.298443,-9770.718434,1110.308913,842.705048
1240.298764,-9992.780217,740.205942,1991.848295
1240.299085,-9474.636058,-222.061783,1302.362347
1240.299406,-9474.636058,-1036.288319,1149.143247
1240.299726,-9474.636058,-1184.329507,1455.581446
1240.300047,-9252.574275,-296.082377,2528.115143
1240.300368,-9548.656652,-1258.350101,1838.629195
1240.300689,-8734.430116,-1628.453072,689.485948
1240.301010,-8734.430116,-1850.514855,0.000000
1240.301330,-9252.574275,-592.164754,-153.219100
1240.301651,-10362.883188,1036.288319,1838.629195
1240.301972,-10807.006753,1184.329507,2604.724693
1240.302293,-10510.924376,888.247130,2528.115143
1240.302614,-9844.739029,-1036.288319,766.095498
1240.302934,-9104.533087,296.082377,536.266849
1240.303255,-9844.739029,518.144159,1149.143247
1240.303576,-9770.718434,1406.391290,2145.067394
1240.303897,-9474.636058,-370.102971,1455.581446
1240.304218,-8734.430116,-2072.576638,229.828649
1240.304538,-9030.512492,-2294.638420,-612.876398
1240.304859,-9770.718434,-1406.391290,76.609550
1240.305180,-10881.027347,888.247130,2528.115143
1240.305501,-9844.739029,1184.329507,2221.676944
1240.305822,-9918.759623,444.123565,1838.629195
1240.306142,-9474.636058,-962.267725,919.314598
1240.306463,-9326.594869,-1480.411884,612.876398
1240.306784,-9622.677246,-1258.350101,1072.533697
1240.307105,-9622.677246,-370.102971,1991.848295
1240.307426,-9030.512492,-1554.432478,1302.362347
1240.307746,-8586.388927,-2886.803174,-153.219100
1240.308067,-8660.409521,-2368.659014,-459.657299
1240.308388,-9918.759623,-1332.370696,383.047749
1240.308709,-10807.006753,444.123565,1991.848295
1240.309030,-10658.965565,518.144159,2298.286494
1240.309350,-9844.739029,-370.102971,919.314598
1240.309671,-8956.491898,-296.082377,0.000000
1240.309992,-9770.718434,74.020594,76.609550
1240.310313,-9474.636058,444.123565,459.657299
1240.310633,-9474.636058,-296.082377,689.485948
1240.310954,-8660.409521,-2368.659014,1149.143247
1240.311275,-8882.471304,-2516.700203,-995.924147
1240.311596,-9400.615463,-1924.535449,-306.438199
1240.311917,-9844.739029,-370.102971,842.705048
1240.312237,-10658.965565,1110.308913,1915.238745
1240.312558,-10288.862594,1332.370696,2757.943793
1240.312879,-9548.656652,370.102971,1608.800546
1240.313200,-9400.615463,0.000000,766.095498
1240.313521,-9622.677246,-370.102971,995.924147
1240.313841,-9622.677246,-444.123565,3140.991542
1240.314162,-9400.615463,-962.267725,1455.581446
1240.314483,-8882.471304,-1554.432478,766.095498
1240.314804,-8956.491898,-1702.473667,-383.047749
1240.315125,-9400.615463,-518.144159,842.705048
1240.315445,-10732.986159,666.185348,1225.752797
1240.315766,-11029.068536,1480.411884,2374.896044
1240.316087,-10288.862594,740.205942,1838.629195
1240.316408,-9696.697840,592.164754,919.314598
1240.316729,-9474.636058,444.123565,1072.533697
1240.317049,-9400.615463,74.020594,1608.800546
1240.317370,-9622.677246,-222.061783,2374.896044
1240.317691,-9030.512492,-1924.535449,1532.190996
1240.318012,-8882.471304,-3108.864956,766.095498
1240.318333,-8882.471304,-2368.659014,459.657299
1240.318653,-9178.553681,444.123565,1149.143247
1240.318974,-10584.944971,1628.453072,2298.286494
1240.319295,-9696.697840,2886.803174,2604.724693
1240.319616,-10362.883188,888.247130,2528.115143
1240.319937,-9474.636058,-1110.308913,1149.143247
1240.320257,-9400.615463,-1332.370696,842.705048
1240.320578,-9770.718434,-1258.350101,1455.581446
1240.320899,-8956.491898,-444.123565,2145.067394
1240.321220,-9622.677246,-1480.411884,1072.533697
1240.321540,-8290.306550,-1184.329507,842.705048
1240.321861,-9104.533087,-1480.411884,459.657299
1240.322182,-9622.677246,0.000000,842.705048
1240.322503,-10214.842000,1776.494261,3140.991542
1240.322824,-10658.965565,148.041188,2145.067394
1240.323144,-9918.759623,-296.082377,1455.581446
1240.323465,-9474.636058,-296.082377,689.485948
1240.323786,-9548.656652,0.000000,536.266849
1240.324107,-9104.533087,74.020594,459.657299
1240.324428,-9622.677246,0.000000,995.924147
1240.324748,-9474.636058,-1036.288319,229.828649
1240.325069,-9400.615463,-1258.350101,-1072.533697
1240.325390,-9548.656652,-814.226536,-1225.752797
1240.325711,-9696.697840,296.082377,0.000000
1240.326032,-10288.862594,888.247130,1685.410096
1240.326352,-10807.006753,518.144159,2221.676944
1240.326673,-9770.718434,-888.247130,1149.143247
1240.326994,-9548.656652,-1110.308913,612.876398
1240.327315,-9548.656652,-1184.329507,842.705048
1240.327636,-9770.718434,-888.247130,1838.629195
1240.327956,-9252.574275,-1406.391290,2145.067394
1240.328277,-8734.430116,-2220.617826,459.657299
1240.328598,-8586.388927,-2220.617826,-766.095498
1240.328919,-9326.594869,-1036.288319,-306.438199
1240.329240,-10510.924376,814.226536,1149.143247
1240.329560,-10510.924376,1480.411884,1302.362347
1240.329881,-10214.842000,740.205942,1225.752797
1240.330202,-9474.636058,296.082377,306.438199
1240.330523,-9326.594869,296.082377,383.047749
1240.330844,-10066.800811,148.041188,1455.581446
1240.331164,-9844.739029,592.164754,2145.067394
1240.331485,-9474.636058,-592.164754,1455.581446
1240.331806,-9252.574275,-2072.576638,0.000000
1240.332127,-9104.533087,-1480.411884,-153.219100
1240.332447,-9844.739029,-518.144159,689.485948
1240.332768,-10288.862594,1406.391290,1455.581446
1240.333089,-10066.800811,1924.535449,2451.505594
1240.333410,-10214.842000,148.041188,2145.067394
1240.333731,-10140.821405,-740.205942,1762.019645
1240.334051,-9696.697840,-1332.370696,1225.752797
1240.334372,-9548.656652,-592.164754,2374.896044
1240.334693,-9696.697840,-666.185348,1915.238745
1240.335014,-7254.018232,-814.226536,2145.067394
1240.335335,-9252.574275,-1258.350101,306.438199
1240.335655,-8216.285956,-518.144159,229.828649
1240.335976,-9474.636058,-296.082377,1149.143247
1240.336297,-10140.821405,518.144159,2221.676944
1240.336618,-10214.842000,148.041188,2068.457845
1240.336939,-10066.800811,-370.102971,1378.971896
1240.337259,-9400.615463,296.082377,766.095498
1240.337580,-9326.594869,814.226536,766.095498
1240.337901,-9696.697840,1184.329507,2451.505594
1240.338222,-9474.636058,-296.082377,1838.629195
1240.338543,-8956.491898,-1998.556043,76.609550
1240.338863,-9252.574275,-2368.659014,-306.438199
1240.339184,-9400.615463,-1998.556043,0.000000
1240.339505,-9474.636058,148.041188,919.314598
1240.339826,-10362.883188,1480.411884,2298.286494
1240.340147,-10288.862594,1184.329507,2604.724693
1240.340467,-10214.842000,148.041188,1838.629195
1240.340788,-10584.944971,-1110.308913,1915.238745
1240.341109,-10066.800811,-740.205942,1762.019645
1240.341430,-10066.800811,-1258.350101,2374.896044
1240.341751,-9252.574275,-1850.514855,1225.752797
1240.342071,-8216.285956,-2442.679609,1532.190996
1240.342392,-8586.388927,-3034.844362,-1378.971896
1240.342713,-8734.430116,-1110.308913,-536.266849
1240.343034,-9622.677246,814.226536,459.657299
1240.343354,-10584.944971,1776.494261,1378.971896
1240.343675,-9918.759623,1184.329507,2298.286494
1240.343996,-9400.615463,0.000000,0.000000
1240.344317,-9696.697840,0.000000,0.000000
1240.344638,-10288.862594,0.000000,995.924147
1240.344958,-9474.636058,-222.061783,1302.362347
1240.345279,-9548.656652,-1036.288319,153.219100
1240.345600,-9030.512492,-1776.494261,-612.876398
1240.345921,-9178.553681,-1110.308913,-919.314598
1240.346242,-9844.739029,-296.082377,-306.438199
1240.346562,-9918.759623,1258.350101,459.657299
1240.346883,-10214.842000,1776.494261,1378.971896
1240.347204,-10066.800811,740.205942,1225.752797
1240.347525,-9844.739029,-814.226536,1378.971896
1240.347846,-9622.677246,-1332.370696,1532.190996
1240.348166,-9992.780217,-888.247130,2911.162892
1240.348487,-9326.594869,-444.123565,1915.238745
1240.348808,-9548.656652,-1110.308913,2374.896044
1240.349129,-8956.491898,-1850.514855,306.438199
1240.349450,-8438.347739,-1628.453072,-1762.019645
1240.349770,-9548.656652,222.061783,76.609550
1240.350091,-9918.759623,1332.370696,1532.190996
1240.350412,-9918.759623,962.267725,1838.629195
1240.350733,-9844.739029,0.000000,612.876398
1240.351054,-9474.636058,0.000000,766.095498
1240.351374,-9696.697840,0.000000,1762.019645
1240.351695,-10066.800811,-148.041188,2451.505594
1240.352016,-9770.718434,-962.267725,2911.162892
1240.352337,-9548.656652,-2442.679609,1608.800546
1240.352657,-8808.450710,-3404.947333,-153.219100
1240.352978,-8734.430116,-1850.514855,306.438199
1240.353299,-9474.636058,0.000000,1225.752797
1240.353620,-9474.636058,2442.679609,76.609550
1240.353941,-9844.739029,1776.494261,1915.238745
1240.354261,-9622.677246,962.267725,1608.800546
1240.354582,-9622.677246,222.061783,1762.019645
1240.354903,-10140.821405,0.000000,2374.896044
1240.355224,-9548.656652,-888.247130,2911.162892
1240.355545,-9622.677246,-1332.370696,2298.286494
1240.355865,-8734.430116,-2516.700203,919.314598
1240.356186,-8068.244768,-2368.659014,-229.828649
1240.356507,-9474.636058,-1332.370696,76.609550
1240.356828,-9844.739029,666.185348,1378.971896
1240.357149,-10658.965565,1258.350101,2374.896044
1240.357469,-10584.944971,296.082377,1915.238745
1240.357790,-10214.842000,222.061783,919.314598
1240.358111,-10510.924376,-148.041188,842.705048
1240.358432,-10436.903782,0.000000,1302.362347
1240.358753,-9696.697840,-518.144159,1302.362347
1240.359073,-9400.615463,-1554.432478,229.828649
1240.359394,-8512.368333,-2220.617826,-1072.533697
1240.359715,-8808.450710,-1924.535449,-1915.238745
1240.360036,-8586.388927,0.000000,-995.924147
1240.360357,-9622.677246,962.267725,153.219100
1240.360677,-10140.821405,2146.597232,0.000000
1240.360998,-10066.800811,518.144159,919.314598
1240.361319,-10288.862594,-296.082377,1225.752797
1240.361640,-9770.718434,-962.267725,1455.581446
1240.361961,-9918.759623,-1110.308913,2298.286494
1240.362281,-9770.718434,-888.247130,2068.457845
1240.362602,-9400.615463,-962.267725,1455.581446
1240.362923,-8512.368333,-1702.473667,-306.438199
1240.363244,-7846.182985,-740.205942,-1149.143247
1240.363565,-8660.409521,74.020594,-612.876398
1240.363885,-9622.677246,1480.411884,459.657299
1240.364206,-9992.780217,1036.288319,1608.800546
1240.364527,-10066.800811,-148.041188,1302.362347
1240.364848,-9474.636058,-518.144159,383.047749
1240.365169,-10658.965565,74.020594,1762.019645
1240.365489,-10436.903782,740.205942,2757.943793
1240.365810,-10066.800811,-370.102971,2834.553343
1240.366131,-9252.574275,-1776.494261,1991.848295
1240.366452,-8586.388927,-2368.659014,-153.219100
1240.366773,-8808.450710,-1702.473667,-536.266849
1240.367093,-9178.553681,0.000000,229.828649
1240.367414,-9548.656652,1184.329507,1302.362347
1240.367735,-9770.718434,1036.288319,1838.629195
1240.368056,-9696.697840,148.041188,1532.190996
1240.368377,-10066.800811,-222.061783,1838.629195
1240.368697,-10214.842000,-444.123565,1915.238745
1240.369018,-11325.150913,0.000000,2451.505594
1240.369339,-9696.697840,-518.144159,2451.505594
1240.369660,-9326.594869,-1998.556043,1149.143247
1240.369980,-8438.347739,-1998.556043,536.266849
1240.370301,-9252.574275,-962.267725,-153.219100
1240.370622,-10066.800811,444.123565,1072.533697
1240.370943,-10510.924376,1110.308913,1838.629195
1240.371264,-10658.965565,518.144159,1685.410096
1240.371584,-9844.739029,74.020594,919.314598
1240.371905,-9844.739029,666.185348,1378.971896
1240.372226,-10288.862594,592.164754,1532.190996
1240.372547,-10214.842000,0.000000,1685.410096
1240.372868,-9770.718434,-1110.308913,995.924147
1240.373188,-9252.574275,-2590.720797,-1149.143247
1240.373509,-9178.553681,-1554.432478,-995.924147
1240.373830,-9474.636058,-518.144159,-459.657299
1240.374151,-10066.800811,1258.350101,689.485948
1240.374472,-10214.842000,1924.535449,1149.143247
1240.374792,-10066.800811,1332.370696,1225.752797
1240.375113,-9992.780217,-296.082377,919.314598
1240.375434,-9992.780217,-1406.391290,842.705048
1240.375755,-9474.636058,-888.247130,1302.362347
1240.376076,-9918.759623,-1110.308913,1608.800546
1240.376396,-8586.388927,-1702.473667,1149.143247
1240.376717,-8956.491898,-2812.782580,153.219100
1240.377038,-8438.347739,-2368.659014,0.000000
1240.377359,-9178.553681,-1554.432478,-383.047749
1240.377680,-10288.862594,222.061783,1838.629195
1240.378000,-10140.821405,444.123565,1608.800546
1240.378321,-9844.739029,0.000000,842.705048
1240.378642,-9474.636058,0.000000,306.438199
1240.378963,-9104.533087,74.020594,689.485948
1240.379284,-9474.636058,148.041188,1225.752797
1240.379604,-9622.677246,-370.102971,1532.190996
1240.379925,-8956.491898,-1850.514855,459.657299
1240.380246,-8956.491898,-1924.535449,-459.657299
1240.380567,-9474.636058,-740.205942,-153.219100
1240.380888,-10066.800811,1110.308913,919.314598
1240.381208,-10288.862594,2294.638420,1838.629195
1240.381529,-10214.842000,1924.535449,3294.210641
1240.381850,-9992.780217,666.185348,1532.190996
1240.382171,-9992.780217,-148.041188,1149.143247
1240.382492,-9918.759623,-740.205942,1302.362347
1240.382812,-9844.739029,-666.185348,3140.991542
1240.383133,-9400.615463,-1184.329507,2221.676944
1240.383454,-8808.450710,-2294.638420,919.314598
1240.383775,-8438.347739,-1776.494261,229.828649
1240.384096,-9622.677246,-740.205942,1072.533697
1240.384416,-10140.821405,592.164754,2298.286494
1240.384737,-10955.047942,1110.308913,2834.553343
1240.385058,-10362.883188,592.164754,2298.286494
1240.385379,-9696.697840,0.000000,1532.190996
1240.385700,-10214.842000,148.041188,1455.581446
1240.386020,-9696.697840,0.000000,1378.971896
1240.386341,-9474.636058,-444.123565,1608.800546
1240.386662,-9400.615463,-1406.391290,842.705048
1240.386983,-8660.409521,-2516.700203,0.000000
1240.387303,-8660.409521,-1998.556043,-536.266849
1240.387624,-9548.656652,-296.082377,153.219100
1240.387945,-10214.842000,1628.453072,1608.800546
1240.388266,-10584.944971,2960.823768,2451.505594
1240.388587,-10955.047942,2368.659014,2145.067394
1240.388907,-10066.800811,-148.041188,1378.971896
1240.389228,-9178.553681,-592.164754,1149.143247
1240.389549,-9474.636058,-1480.411884,1378.971896
1240.389870,-8808.450710,-1258.350101,1072.533697
1240.390191,-8956.491898,-1924.535449,842.705048
1240.390511,-8142.265362,-1998.556043,-383.047749
1240.390832,-8586.388927,-888.247130,0.000000
1240.391153,-10066.800811,148.041188,1302.362347
1240.391474,-10436.903782,1480.411884,2221.676944
1240.391795,-10955.047942,444.123565,2604.724693
1240.392115,-10214.842000,-296.082377,1455.581446
1240.392436,-9474.636058,-518.144159,842.705048
1240.392757,-9548.656652,-222.061783,1072.533697
1240.393078,-9548.656652,518.144159,1608.800546
1240.393399,-9474.636058,222.061783,1762.019645
1240.393719,-9252.574275,-1184.329507,536.266849
1240.394040,-8216.285956,-1850.514855,-995.924147
1240.394361,-9252.574275,-1258.350101,-995.924147
1240.394682,-9770.718434,222.061783,76.609550
1240.395003,-10510.924376,1406.391290,2145.067394
1240.395323,-10658.965565,962.267725,3830.477490
1240.395644,-10362.883188,-296.082377,1225.752797
1240.395965,-9918.759623,-222.061783,842.705048
1240.396286,-10214.842000,-518.144159,1072.533697
1240.396607,-10066.800811,0.000000,1838.629195
1240.396927,-9622.677246,-666.185348,1302.362347
1240.397248,-8660.409521,-2146.597232,383.047749
1240.397569,-8512.368333,-1998.556043,-306.438199
1240.397890,-9474.636058,-1258.350101,0.000000
1240.398211,-9622.677246,518.144159,1532.190996
1240.398531,-10584.944971,1332.370696,2911.162892
1240.398852,-10288.862594,592.164754,2145.067394
1240.399173,-9474.636058,148.041188,995.924147
1240.399494,-9548.656652,0.000000,766.095498
1240.399815,-9400.615463,-222.061783,1378.971896
1240.400135,-9178.553681,0.000000,1838.629195
1240.400456,-9326.594869,-1702.473667,1302.362347
1240.400777,-9030.512492,-2442.679609,536.266849
1240.401098,-9030.512492,-2294.638420,0.000000
1240.401419,-9474.636058,-444.123565,689.485948
1240.401739,-9770.718434,1480.411884,1302.362347
1240.402060,-9844.739029,2294.638420,2298.286494
1240.402381,-9844.739029,1110.308913,2298.286494
1240.402702,-9474.636058,-296.082377,1149.143247
1240.403023,-9400.615463,-740.205942,842.705048
1240.403343,-9474.636058,-888.247130,1532.190996
1240.403664,-9474.636058,-444.123565,2451.505594
1240.403985,-8956.491898,-1036.288319,1378.971896
1240.404306,-8438.347739,-1110.308913,459.657299
1240.404627,-8882.471304,-1110.308913,229.828649
1240.404947,-9696.697840,0.000000,1225.752797
1240.405268,-10362.883188,592.164754,2987.772442
1240.405589,-10436.903782,222.061783,2374.896044
1240.405910,-9548.656652,-222.061783,1225.752797
1240.406230,-9030.512492,-222.061783,842.705048
1240.406551,-9548.656652,444.123565,1455.581446
1240.406872,-9548.656652,296.082377,1991.848295
1240.407193,-9548.656652,-444.123565,1838.629195
1240.407514,-9104.533087,-1554.432478,842.705048
1240.407834,-9474.636058,-1850.514855,-1455.581446
1240.408155,-9696.697840,-1036.288319,229.828649
1240.408476,-10214.842000,222.061783,1072.533697
1240.408797,-10436.903782,1554.432478,2221.676944
1240.409118,-10288.862594,1184.329507,1532.190996
1240.409438,-10066.800811,-296.082377,1225.752797
1240.409759,-9474.636058,-1776.494261,0.000000
1240.410080,-9770.718434,-1332.370696,536.266849
1240.410401,-9474.636058,-888.247130,919.314598
1240.410722,-9474.636058,-296.082377,0.000000
1240.411042,-8956.491898,-1480.411884,0.000000
1240.411363,-8734.430116,-1406.391290,-766.095498
1240.411684,-9400.615463,-1332.370696,-459.657299
1240.412005,-9844.739029,-148.041188,0.000000
1240.412326,-9622.677246,666.185348,1378.971896
1240.412646,-11695.253884,666.185348,1685.410096
1240.412967,-9548.656652,222.061783,689.485948
1240.413288,-8882.471304,222.061783,0.000000
1240.413609,-9252.574275,370.102971,919.314598
1240.413930,-8364.327145,0.000000,766.095498
1240.414250,-9696.697840,-1184.329507,1225.752797
1240.414571,-8660.409521,-2590.720797,-306.438199
1240.414892,-8438.347739,-1702.473667,-2145.067394
1240.415213,-9548.656652,-962.267725,76.609550
1240.415534,-9622.677246,740.205942,1225.752797
1240.415854,-10510.924376,1628.453072,1915.238745
1240.416175,-10140.821405,962.267725,2298.286494
1240.416496,-9474.636058,518.144159,1838.629195
1240.416817,-10732.986159,-444.123565,1991.848295
1240.417138,-10362.883188,-370.102971,2604.724693
1240.417458,-10362.883188,-740.205942,3370.820191
1240.417779,-9474.636058,-962.267725,1915.238745
1240.418100,-8956.491898,-1998.556043,612.876398
1240.418421,-8660.409521,-888.247130,0.000000
1240.418742,-9622.677246,666.185348,995.924147
1240.419062,-10066.800811,2812.782580,2757.943793
1240.419383,-9918.759623,1332.370696,1302.362347
1240.419704,-9178.553681,0.000000,-153.219100
1240.420025,-9252.574275,0.000000,0.000000
1240.420346,-9474.636058,74.020594,842.705048
1240.420666,-9844.739029,0.000000,1915.238745
1240.420987,-9770.718434,-962.267725,2681.334243
1240.421308,-9400.615463,-2812.782580,995.924147
1240.421629,-9474.636058,-3182.885551,459.657299
1240.421950,-8808.450710,-1628.453072,229.828649
1240.422270,-9992.780217,370.102971,1302.362347
1240.422591,-10584.944971,2220.617826,2221.676944
1240.422912,-9918.759623,2146.597232,1915.238745
1240.423233,-9030.512492,888.247130,1455.581446
1240.423554,-9622.677246,-518.144159,306.438199
1240.423874,-9474.636058,-814.226536,766.095498
1240.424195,-9474.636058,-962.267725,1225.752797
1240.424516,-9474.636058,-888.247130,1378.971896
1240.424837,-8882.471304,-1110.308913,766.095498
1240.425157,-9104.533087,-1406.391290,-153.219100
1240.425478,-9326.594869,-370.102971,383.047749
1240.425799,-10214.842000,0.000000,919.314598
1240.426120,-10510.924376,1332.370696,1838.629195
1240.426441,-11029.068536,-222.061783,1072.533697
1240.426761,-9104.533087,148.041188,766.095498
1240.427082,-10066.800811,-296.082377,0.000000
1240.427403,-8660.409521,-148.041188,1378.971896
1240.427724,-9104.533087,-814.226536,1225.752797
1240.428045,-9326.594869,-1776.494261,1455.581446
1240.428365,-9104.533087,-3034.844362,229.828649
1240.428686,-9474.636058,-2516.700203,0.000000
1240.429007,-9400.615463,-1258.350101,766.095498
1240.429328,-9992.780217,222.061783,1532.190996
1240.429649,-9992.780217,1258.350101,2221.676944
1240.429969,-10214.842000,370.102971,1991.848295
1240.430290,-8438.347739,-740.205942,1762.019645
1240.430611,-9474.636058,-1036.288319,612.876398
1240.430932,-9622.677246,-370.102971,1532.190996
1240.431253,-9548.656652,0.000000,1915.238745
1240.431573,-9474.636058,-666.185348,1685.410096
1240.431894,-8808.450710,-1110.308913,536.266849
1240.432215,-8734.430116,-1184.329507,-229.828649
1240.432536,-9844.739029,-222.061783,766.095498
1240.432857,-10436.903782,1110.308913,2298.286494
1240.433177,-10732.986159,518.144159,2298.286494
1240.433498,-9992.780217,296.082377,1455.581446
1240.433819,-9918.759623,0.000000,1072.533697
1240.434140,-9474.636058,518.144159,1378.971896
1240.434461,-10288.862594,296.082377,1991.848295
1240.434781,-9696.697840,0.000000,2374.896044
1240.435102,-9326.594869,-1628.453072,612.876398
1240.435423,-8734.430116,-2368.659014,-459.657299
1240.435744,-8216.285956,-592.164754,766.095498
1240.436065,-9548.656652,222.061783,536.266849
1240.436385,-9992.780217,1554.432478,1915.238745
1240.436706,-10066.800811,1110.308913,1608.800546
1240.437027,-9992.780217,222.061783,1072.533697
1240.437348,-10214.842000,-296.082377,919.314598
1240.437669,-10362.883188,-444.123565,1608.800546
1240.437989,-9696.697840,-296.082377,1608.800546
1240.438310,-9474.636058,-592.164754,1302.362347
1240.438631,-8438.347739,-1628.453072,-766.095498
1240.438952,-8068.244768,-2146.597232,-1072.533697
1240.439273,-8734.430116,-1036.288319,-766.095498
1240.439593,-9622.677246,814.226536,459.657299
1240.439914,-9770.718434,592.164754,1149.143247
1240.440235,-9548.656652,296.082377,1072.533697
1240.440556,-9400.615463,-592.164754,229.828649
1240.440877,-9474.636058,0.000000,306.438199
1240.441197,-9918.759623,592.164754,1762.019645
1240.441518,-9474.636058,148.041188,2374.896044
1240.441839,-9326.594869,-962.267725,2221.676944
1240.442160,-9252.574275,-2294.638420,689.485948
1240.442480,-9474.636058,-1776.494261,229.828649
1240.442801,-9622.677246,-814.226536,1149.143247
1240.443122,-10288.862594,1036.288319,2451.505594
1240.443443,-10066.800811,1036.288319,2681.334243
1240.443764,-10288.862594,-148.041188,1991.848295
1240.444084,-9770.718434,-1036.288319,1455.581446
1240.444405,-9474.636058,-1184.329507,919.314598
1240.444726,-9104.533087,-296.082377,1455.581446
1240.445047,-9178.553681,0.000000,1991.848295
1240.445368,-8734.430116,-518.144159,1685.410096
1240.445688,-9104.533087,-1850.514855,383.047749
1240.446009,-8660.409521,-1628.453072,229.828649
1240.446330,-9622.677246,-962.267725,766.095498
1240.446651,-10658.965565,0.000000,1838.629195
1240.446972,-10362.883188,444.123565,2145.067394
1240.447292,-10362.883188,0.000000,1149.143247
1240.447613,-9400.615463,0.000000,153.219100
1240.447934,-9548.656652,0.000000,612.876398
1240.448255,-9844.739029,148.041188,1225.752797
1240.448576,-9696.697840,-1110.308913,1838.629195
1240.448896,-9474.636058,-2294.638420,383.047749
1240.449217,-9178.553681,-2442.679609,-306.438199
1240.449538,-9252.574275,-1480.411884,-383.047749
1240.449859,-9696.697840,222.061783,689.485948
1240.450180,-10288.862594,1702.473667,1838.629195
1240.450500,-10584.944971,1702.473667,2068.457845
1240.450821,-9844.739029,814.226536,1149.143247
1240.451142,-9474.636058,0.000000,766.095498
1240.451463,-9770.718434,148.041188,612.876398
1240.451784,-9770.718434,296.082377,1455.581446
1240.452104,-9400.615463,-962.267725,1225.752797
1240.452425,-8438.347739,-1998.556043,153.219100
1240.452746,-8660.409521,-2738.761985,-766.095498
1240.453067,-9326.594869,-1480.411884,-383.047749
1240.453388,-10214.842000,370.102971,1455.581446
1240.453708,-10510.924376,2072.576638,2604.724693
1240.454029,-10436.903782,1036.288319,2221.676944
1240.454350,-9474.636058,296.082377,919.314598
1240.454671,-9178.553681,-148.041188,995.924147
1240.454992,-9400.615463,-592.164754,1302.362347
1240.455312,-8956.491898,-592.164754,1915.238745
1240.455633,-9104.533087,-1702.473667,1149.143247
1240.455954,-8142.265362,-2590.720797,-306.438199
1240.456274,-8586.388927,-1702.473667,-689.485948
1240.456595,-9326.594869,0.000000,1302.362347
1240.456916,-9992.780217,962.267725,1685.410096
1240.457236,-10066.800811,1332.370696,2374.896044
1240.457557,-10066.800811,518.144159,2068.457845
1240.457878,-9770.718434,-148.041188,1685.410096
1240.458199,-9252.574275,-296.082377,1762.019645
1240.458519,-10140.821405,-962.267725,1915.238745
1240.458840,-9696.697840,-296.082377,2298.286494
1240.459161,-9474.636058,-1554.432478,1838.629195
1240.459481,-9474.636058,-1480.411884,1149.143247
1240.459802,-8586.388927,-888.247130,0.000000
1240.460123,-10510.924376,0.000000,995.924147
1240.460443,-10140.821405,1628.453072,2221.676944
1240.460764,-10584.944971,1554.432478,2298.286494
1240.461085,-9992.780217,-296.082377,1072.533697
1240.461406,-9400.615463,-148.041188,229.828649
1240.461726,-10214.842000,0.000000,1072.533697
1240.462047,-9696.697840,666.185348,1532.190996
1240.462368,-9770.718434,370.102971,842.705048
1240.462688,-9474.636058,-666.185348,995.924147
1240.463009,-9400.615463,-1332.370696,0.000000
1240.463330,-9474.636058,-888.247130,76.609550
1240.463650,-9548.656652,74.020594,2068.457845
1240.463971,-10362.883188,1110.308913,1302.362347
1240.464292,-10584.944971,666.185348,1685.410096
1240.464613,-9696.697840,-444.123565,1225.752797
1240.464933,-9844.739029,-592.164754,2451.505594
1240.465254,-9474.636058,-888.247130,1149.143247
1240.465575,-9548.656652,-814.226536,1915.238745
1240.465895,-9252.574275,-1332.370696,1302.362347
1240.466216,-8438.347739,-2442.679609,229.828649
1240.466537,-8660.409521,-2294.638420,-306.438199
1240.466857,-8808.450710,-666.185348,-306.438199
1240.467178,-9992.780217,518.144159,536.266849
1240.467499,-10362.883188,2072.576638,1915.238745
1240.467820,-9474.636058,518.144159,1991.848295
1240.468140,-9696.697840,-222.061783,689.485948
1240.468461,-9474.636058,-592.164754,0.000000
1240.468782,-9548.656652,-296.082377,919.314598
1240.469102,-9622.677246,-370.102971,1455.581446
1240.469423,-8808.450710,-1332.370696,1455.581446
1240.469744,-9030.512492,-2294.638420,383.047749
1240.470064,-8734.430116,-2220.617826,-229.828649
1240.470385,-9474.636058,-888.247130,0.000000
1240.470706,-9844.739029,814.226536,1838.629195
1240.471027,-10288.862594,1628.453072,2298.286494
1240.471347,-10066.800811,1036.288319,2068.457845
1240.471668,-9696.697840,-296.082377,1532.190996
1240.471989,-9622.677246,-1480.411884,1149.143247
1240.472309,-9622.677246,-740.205942,1302.362347
1240.472630,-9696.697840,-444.123565,2145.067394
1240.472951,-9252.574275,-1406.391290,1532.190996
1240.473271,-8734.430116,-1628.453072,0.000000
1240.473592,-8882.471304,-740.205942,-306.438199
1240.473913,-9622.677246,740.205942,766.095498
1240.474234,-10510.924376,1776.494261,2298.286494
1240.474554,-10881.027347,1332.370696,2451.505594
1240.474875,-10510.924376,222.061783,1302.362347
1240.475196,-9622.677246,-666.185348,689.485948
1240.475516,-9622.677246,0.000000,995.924147
1240.475837,-9474.636058,74.020594,1762.019645
1240.476158,-9104.533087,-1110.308913,2528.115143
1240.476478,-9030.512492,-1850.514855,689.485948
1240.476799,-8734.430116,-2368.659014,0.000000
1240.477120,-9178.553681,-1776.494261,-612.876398
1240.477440,-9918.759623,370.102971,766.095498
1240.477761,-10288.862594,1628.453072,1915.238745
1240.478082,-10140.821405,1554.432478,2145.067394
1240.478403,-9844.739029,296.082377,1532.190996
1240.478723,-9474.636058,-1036.288319,1302.362347
1240.479044,-9622.677246,-1480.411884,1225.752797
1240.479365,-9696.697840,-592.164754,1455.581446
1240.479685,-9030.512492,-592.164754,1532.190996
1240.480006,-9178.553681,-1776.494261,229.828649
1240.480327,-8142.265362,-1184.329507,306.438199
1240.480647,-8734.430116,-1332.370696,-383.047749
1240.480968,-9548.656652,148.041188,842.705048
1240.481289,-10140.821405,148.041188,2068.457845
1240.481610,-10288.862594,0.000000,2451.505594
1240.481930,-9918.759623,148.041188,459.657299
1240.482251,-9474.636058,222.061783,536.266849
1240.482572,-9844.739029,814.226536,1302.362347
1240.482892,-9548.656652,370.102971,1532.190996
1240.483213,-9252.574275,-1184.329507,1532.190996
1240.483534,-8956.491898,-2516.700203,153.219100
1240.483854,-8808.450710,-2664.741391,-842.705048
1240.484175,-9326.594869,-1036.288319,-536.266849
1240.484496,-9770.718434,1184.329507,1991.848295
1240.484817,-10214.842000,2294.638420,2451.505594
1240.485137,-10362.883188,1184.329507,1838.629195
1240.485458,-9844.739029,0.000000,1302.362347
1240.485779,-9400.615463,-962.267725,689.485948
1240.486099,-9992.780217,-740.205942,1685.410096
1240.486420,-10214.842000,-740.205942,2221.676944
1240.486741,-9474.636058,-1702.473667,2068.457845
1240.487061,-9400.615463,-2368.659014,612.876398
1240.487382,-9474.636058,-1258.350101,459.657299
1240.487703,-10140.821405,148.041188,1532.190996
1240.488024,-11103.089130,1258.350101,2374.896044
1240.488344,-10214.842000,2442.679609,2145.067394
1240.488665,-11029.068536,444.123565,536.266849
1240.488986,-9104.533087,0.000000,0.000000
1240.489306,-8882.471304,-370.102971,0.000000
1240.489627,-9992.780217,-592.164754,842.705048
1240.489948,-9770.718434,296.082377,2681.334243
1240.490268,-9030.512492,-1628.453072,0.000000
1240.490589,-10436.903782,-1258.350101,919.314598
1240.490910,-9474.636058,-1332.370696,-919.314598
1240.491231,-9770.718434,592.164754,919.314598
1240.491551,-10436.903782,1850.514855,2145.067394
1240.491872,-9474.636058,1554.432478,1608.800546
1240.492193,-10362.883188,-296.082377,2068.457845
1240.492513,-8882.471304,-1332.370696,689.485948
1240.492834,-9030.512492,-1332.370696,1608.800546
1240.493155,-10140.821405,-1036.288319,2145.067394
1240.493475,-9030.512492,-370.102971,2221.676944
1240.493796,-9474.636058,-1258.350101,2145.067394
1240.494117,-9104.533087,-1258.350101,995.924147
1240.494438,-9104.533087,-518.144159,76.609550
1240.494758,-9844.739029,222.061783,1685.410096
1240.495079,-9770.718434,592.164754,1838.629195
1240.495400,-9770.718434,222.061783,1608.800546
1240.495720,-9400.615463,-148.041188,536.266849
1240.496041,-9326.594869,296.082377,76.609550
1240.496362,-9844.739029,1036.288319,1149.143247
1240.496682,-9770.718434,-370.102971,1915.238745
1240.497003,-7550.100608,-962.267725,1072.533697
1240.497324,-9622.677246,-2664.741391,766.095498
1240.497645,-8660.409521,-1998.556043,-229.828649
1240.497965,-10214.842000,-1554.432478,1455.581446
1240.498286,-9770.718434,-444.123565,153.219100
1240.498607,-10436.903782,888.247130,2681.334243
1240.498927,-10362.883188,-148.041188,1915.238745
1240.499248,-9400.615463,-296.082377,1149.143247
1240.499569,-9770.718434,-444.123565,1149.143247
1240.499889,-10214.842000,148.041188,1072.533697
1240.500210,-9252.574275,-148.041188,995.924147
1240.500531,-9252.574275,-814.226536,612.876398
1240.500852,-7994.224174,-1480.411884,-842.705048
1240.501172,-9178.553681,-222.061783,-1915.238745
1240.501493,-9474.636058,814.226536,76.609550
1240.501814,-10584.944971,1332.370696,1072.533697
1240.502134,-10732.986159,1628.453072,1991.848295
1240.502455,-10584.944971,-296.082377,1302.362347
1240.502776,-9770.718434,-444.123565,229.828649
1240.503096,-10214.842000,-222.061783,1225.752797
1240.503417,-9992.780217,0.000000,1608.800546
1240.503738,-9844.739029,444.123565,1991.848295
1240.504059,-9252.574275,-1258.350101,919.314598
1240.504379,-8734.430116,-1258.350101,-229.828649
1240.504700,-9178.553681,-1110.308913,-383.047749
1240.505021,-9252.574275,148.041188,229.828649
1240.505341,-9400.615463,1924.535449,1302.362347
1240.505662,-10436.903782,1480.411884,2298.286494
1240.505983,-9844.739029,74.020594,2298.286494
1240.506303,-9696.697840,-1036.288319,919.314598
1240.506624,-9474.636058,-814.226536,1608.800546
1240.506945,-9622.677246,0.000000,2298.286494
1240.507266,-9696.697840,-370.102971,2451.505594
1240.507586,-9030.512492,-1480.411884,1685.410096
1240.507907,-8438.347739,-2220.617826,766.095498
1240.508228,-8512.368333,-1850.514855,0.000000
1240.508548,-9696.697840,-296.082377,1149.143247
1240.508869,-10362.883188,666.185348,2298.286494
1240.509190,-9992.780217,148.041188,2145.067394
1240.509510,-9622.677246,518.144159,919.314598
1240.509831,-9474.636058,0.000000,536.266849
1240.510152,-10214.842000,222.061783,1608.800546
1240.510473,-10214.842000,370.102971,2068.457845
1240.510793,-9918.759623,-518.144159,1762.019645
1240.511114,-9104.533087,-1776.494261,0.000000
1240.511435,-8956.491898,-1554.432478,-459.657299
1240.511755,-9178.553681,-518.144159,-383.047749
1240.512076,-9622.677246,814.226536,1072.533697
1240.512397,-9474.636058,1554.432478,2145.067394
1240.512717,-9474.636058,518.144159,1532.190996
1240.513038,-9622.677246,-814.226536,459.657299
1240.513359,-9400.615463,-740.205942,842.705048
1240.513679,-9400.615463,-74.020594,1608.800546
1240.514000,-9696.697840,-518.144159,2451.505594
1240.514321,-9474.636058,-1258.350101,1915.238745
1240.514642,-8882.471304,-2442.679609,459.657299
1240.514962,-8956.491898,-2146.597232,-459.657299
1240.515283,-9770.718434,-296.082377,383.047749
1240.515604,-10288.862594,1036.288319,1608.800546
1240.515924,-10288.862594,888.247130,1685.410096
1240.516245,-9918.759623,296.082377,306.438199
1240.516566,-9400.615463,-370.102971,-153.219100
1240.516886,-9474.636058,-666.185348,0.000000
1240.517207,-9548.656652,-518.144159,1225.752797
1240.517528,-9548.656652,-888.247130,1072.533697
1240.517849,-7920.203579,-1406.391290,0.000000
1240.518169,-8808.450710,-2368.659014,-766.095498
1240.518490,-9178.553681,-1924.535449,-689.485948
1240.518811,-10066.800811,-444.123565,76.609550
1240.519131,-10510.924376,1554.432478,1455.581446
1240.519452,-11547.212695,1776.494261,2451.505594
1240.519773,-10807.006753,1110.308913,1991.848295
1240.520093,-10807.006753,444.123565,1838.629195
1240.520414,-10362.883188,0.000000,1608.800546
1240.520735,-10066.800811,148.041188,1378.971896
1240.521056,-9474.636058,-222.061783,1915.238745
1240.521376,-8142.265362,-1184.329507,459.657299
1240.521697,-7698.141797,-1924.535449,-459.657299
1240.522018,-7994.224174,-1406.391290,-612.876398
1240.522338,-8734.430116,74.020594,1225.752797
1240.522659,-10214.842000,740.205942,2374.896044
1240.522980,-10288.862594,370.102971,2757.943793
1240.523300,-9992.780217,0.000000,1991.848295
1240.523621,-10288.862594,518.144159,1532.190996
1240.523942,-9918.759623,370.102971,2068.457845
1240.524263,-9696.697840,0.000000,2757.943793
1240.524583,-9400.615463,-1332.370696,2221.676944
1240.524904,-8216.285956,-2664.741391,1072.533697
1240.525225,-8660.409521,-2368.659014,153.219100
1240.525545,-9030.512492,-1036.288319,383.047749
1240.525866,-9400.615463,962.267725,1225.752797
1240.526187,-9844.739029,1776.494261,2298.286494
1240.526507,-9770.718434,148.041188,1838.629195
1240.526828,-9474.636058,-592.164754,1762.019645
1240.527149,-9770.718434,-1480.411884,1532.190996
1240.527470,-9474.636058,-962.267725,2221.676944
1240.527790,-9252.574275,-296.082377,2145.067394
1240.528111,-9030.512492,-1332.370696,2068.457845
1240.528432,-8660.409521,-1184.329507,459.657299
1240.528752,-8734.430116,-888.247130,229.828649
1240.529073,-9474.636058,-740.205942,536.266849
1240.529394,-9474.636058,518.144159,1302.362347
1240.529714,-10584.944971,296.082377,1149.143247
1240.530035,-9770.718434,518.144159,612.876398
1240.530356,-9252.574275,-740.205942,0.000000
1240.530677,-9770.718434,222.061783,229.828649
1240.530997,-9918.759623,518.144159,1225.752797
1240.531318,-10140.821405,74.020594,1455.581446
1240.531639,-9992.780217,-888.247130,229.828649
1240.531959,-9622.677246,-2368.659014,-459.657299
1240.532280,-9104.533087,-2072.576638,-919.314598
1240.532601,-9548.656652,-370.102971,-536.266849
1240.532921,-10214.842000,1406.391290,766.095498
1240.533242,-10362.883188,1554.432478,1762.019645
1240.533563,-10214.842000,1110.308913,1225.752797
1240.533884,-10140.821405,148.041188,766.095498
1240.534204,-10214.842000,-370.102971,689.485948
1240.534525,-10066.800811,-740.205942,1225.752797
1240.534846,-9844.739029,-1184.329507,1685.410096
1240.535166,-8734.430116,-1628.453072,612.876398
1240.535487,-8586.388927,-2072.576638,-306.438199
1240.535808,-8956.491898,-888.247130,1302.362347
1240.536128,-9548.656652,518.144159,1072.533697
1240.536449,-10214.842000,1258.350101,1685.410096
1240.536770,-9918.759623,1110.308913,1532.190996
1240.537091,-9474.636058,0.000000,766.095498
1240.537411,-9474.636058,-370.102971,1455.581446
1240.537732,-9770.718434,-592.164754,2221.676944
1240.538053,-9622.677246,-740.205942,2374.896044
1240.538373,-9030.512492,-1998.556043,1838.629195
1240.538694,-7920.203579,-3182.885551,689.485948
1240.539015,-8290.306550,-2442.679609,-306.438199
1240.539335,-9178.553681,-814.226536,76.609550
1240.539656,-9696.697840,1554.432478,1302.362347
1240.539977,-10066.800811,2294.638420,3064.381992
1240.540298,-10288.862594,1702.473667,1915.238745
1240.540618,-9992.780217,148.041188,1532.190996
1240.540939,-10214.842000,-666.185348,1685.410096
1240.541260,-9770.718434,-1110.308913,1991.848295
1240.541580,-9622.677246,-518.144159,1991.848295
1240.541901,-9178.553681,-1332.370696,1532.190996
1240.542222,-8734.430116,-1480.411884,459.657299
1240.542542,-8364.327145,-666.185348,76.609550
1240.542863,-9770.718434,962.267725,1762.019645
1240.543184,-10362.883188,1332.370696,2451.505594
1240.543505,-10436.903782,962.267725,2528.115143
1240.543825,-10362.883188,0.000000,1685.410096
1240.544146,-9474.636058,-222.061783,1149.143247
1240.544467,-9918.759623,148.041188,1072.533697
1240.544787,-10362.883188,444.123565,2298.286494
1240.545108,-9474.636058,74.020594,2145.067394
1240.545429,-9548.656652,-1332.370696,1072.533697
1240.545749,-8364.327145,-2812.782580,0.000000
1240.546070,-9030.512492,-2368.659014,-459.657299
1240.546391,-9696.697840,-592.164754,0.000000
1240.546712,-9844.739029,1110.308913,766.095498
1240.547032,-9992.780217,592.164754,919.314598
1240.547353,-9696.697840,666.185348,995.924147
1240.547674,-9474.636058,296.082377,842.705048
1240.547994,-9992.780217,0.000000,919.314598
1240.548315,-10436.903782,-518.144159,2068.457845
1240.548636,-9474.636058,-1258.350101,1532.190996
1240.548956,-8586.388927,-3108.864956,0.000000
1240.549277,-8364.327145,-2738.761985,-383.047749
1240.549598,-8660.409521,-1702.473667,-459.657299
1240.549919,-9548.656652,-74.020594,842.705048
1240.550239,-10066.800811,1110.308913,1762.019645
1240.550560,-9992.780217,444.123565,1608.800546
1240.550881,-9622.677246,0.000000,689.485948
1240.551201,-9696.697840,-592.164754,995.924147
1240.551522,-9252.574275,0.000000,766.095498
1240.551843,-9400.615463,74.020594,1225.752797
1240.552163,-9474.636058,-740.205942,1225.752797
1240.552484,-9326.594869,-2442.679609,-383.047749
1240.552805,-8956.491898,-1998.556043,-995.924147
1240.553125,-9252.574275,-592.164754,-229.828649
1240.553446,-10140.821405,1332.370696,842.705048
1240.553767,-10807.006753,2368.659014,2068.457845
1240.554088,-10066.800811,1110.308913,1915.238745
1240.554408,-9548.656652,0.000000,536.266849
1240.554729,-9548.656652,-962.267725,536.266849
1240.555050,-9622.677246,-592.164754,1378.971896
1240.555370,-9548.656652,-444.123565,1991.848295
1240.555691,-9326.594869,-962.267725,1838.629195
1240.556012,-9104.533087,-1554.432478,306.438199
1240.556332,-8808.450710,-1406.391290,0.000000
1240.556653,-10066.800811,0.000000,1072.533697
1240.556974,-10732.986159,1110.308913,2145.067394
1240.557295,-10510.924376,1554.432478,2451.505594
1240.557615,-10140.821405,74.020594,1455.581446
1240.557936,-9252.574275,0.000000,383.047749
1240.558257,-9474.636058,592.164754,306.438199
1240.558578,-9992.780217,1110.308913,2221.676944
1240.558898,-9400.615463,444.123565,2374.896044
1240.559219,-9252.574275,-1480.411884,1302.362347
1240.559540,-8660.409521,-2368.659014,1302.362347
1240.559861,-9326.594869,-1776.494261,229.828649
1240.560181,-9770.718434,-814.226536,1455.581446
1240.560502,-9400.615463,296.082377,1991.848295
1240.560823,-9696.697840,518.144159,2298.286494
1240.561144,-9474.636058,-518.144159,2451.505594
1240.561464,-9770.718434,-1036.288319,2145.067394
1240.561785,-9992.780217,-1036.288319,2528.115143
1240.562106,-9474.636058,-1184.329507,2451.505594
1240.562427,-9918.759623,-1110.308913,1991.848295
1240.562747,-9030.512492,-1850.514855,1685.410096
1240.563068,-8512.368333,-2590.720797,306.438199
1240.563389,-8882.471304,-1702.473667,229.828649
1240.563710,-9548.656652,370.102971,995.924147
1240.564031,-10066.800811,444.123565,1838.629195
1240.564351,-10214.842000,0.000000,1608.800546
1240.564672,-9696.697840,-370.102971,766.095498
1240.564993,-9326.594869,148.041188,229.828649
1240.565314,-9326.594869,0.000000,0.000000
1240.565634,-9252.574275,0.000000,1149.143247
1240.565955,-9326.594869,-1258.350101,306.438199
1240.566276,-9252.574275,-1850.514855,-229.828649
1240.566597,-9474.636058,-1924.535449,-1225.752797
1240.566917,-9474.636058,0.000000,-306.438199
1240.567238,-10510.924376,148.041188,536.266849
1240.567559,-10362.883188,2368.659014,1532.190996
1240.567880,-11547.212695,1332.370696,1915.238745
1240.568200,-9992.780217,0.000000,689.485948
1240.568521,-9696.697840,-296.082377,689.485948
1240.568842,-9770.718434,-592.164754,1072.533697
1240.569163,-9474.636058,-740.205942,1225.752797
1240.569483,-8956.491898,-1776.494261,1072.533697
1240.569804,-8734.430116,-2442.679609,76.609550
1240.570125,-8216.285956,-1628.453072,-459.657299
1240.570446,-10436.903782,0.000000,766.095498
1240.570767,-10214.842000,1480.411884,2681.334243
1240.571087,-11029.068536,962.267725,2528.115143
1240.571408,-10436.903782,296.082377,1915.238745
1240.571729,-8808.450710,74.020594,0.000000
1240.572050,-10288.862594,-222.061783,1149.143247
1240.572370,-9622.677246,666.185348,1685.410096
1240.572691,-9474.636058,-296.082377,1685.410096
1240.573012,-8808.450710,-1406.391290,995.924147
1240.573333,-8660.409521,-2072.576638,-306.438199
1240.573653,-9030.512492,-1110.308913,-459.657299
1240.573974,-9696.697840,518.144159,1225.752797
1240.574295,-9548.656652,1850.514855,2451.505594
1240.574616,-9622.677246,1480.411884,2298.286494
1240.574936,-10066.800811,-518.144159,3983.696590
1240.575257,-9622.677246,-740.205942,2221.676944
1240.575578,-9844.739029,-1036.288319,2528.115143
1240.575899,-9770.718434,-592.164754,3370.820191
1240.576220,-9252.574275,-814.226536,2451.505594
1240.576540,-8882.471304,-1850.514855,1302.362347
1240.576861,-8142.265362,-1924.535449,76.609550
1240.577182,-8438.347739,-1184.329507,0.000000
1240.577503,-9104.533087,0.000000,612.876398
1240.577823,-9992.780217,1036.288319,1378.971896
1240.578144,-9992.780217,888.247130,1685.410096
1240.578465,-9992.780217,518.144159,689.485948
1240.578786,-9474.636058,0.000000,459.657299
1240.579106,-9918.759623,592.164754,766.095498
1240.579427,-10288.862594,-222.061783,1762.019645
1240.579748,-9770.718434,-1332.370696,1608.800546
1240.580069,-9918.759623,-2146.597232,689.485948
1240.580389,-9474.636058,-2664.741391,-689.485948
1240.580710,-9252.574275,-518.144159,-612.876398
1240.581031,-9844.739029,814.226536,536.266849
1240.581352,-10066.800811,2072.576638,1378.971896
1240.581672,-10214.842000,592.164754,1225.752797
1240.581993,-9326.594869,-1110.308913,0.000000
1240.582314,-9844.739029,-1702.473667,0.000000
1240.582635,-9844.739029,-1258.350101,459.657299
1240.582956,-10214.842000,-888.247130,1685.410096
1240.583276,-9844.739029,-1184.329507,919.314598
1240.583597,-9326.594869,-1554.432478,-153.219100
1240.583918,-8956.491898,-1184.329507,-383.047749
1240.584239,-9770.718434,74.020594,229.828649
1240.584559,-10510.924376,1554.432478,1685.410096
1240.584880,-10658.965565,1406.391290,2145.067394
1240.585201,-9696.697840,148.041188,919.314598
1240.585522,-9178.553681,-740.205942,0.000000
1240.585842,-9252.574275,-444.123565,0.000000
1240.586163,-9400.615463,0.000000,1225.752797
1240.586484,-9326.594869,0.000000,1915.238745
1240.586805,-9696.697840,-1554.432478,1762.019645
1240.587125,-9104.533087,-1924.535449,229.828649
1240.587446,-8364.327145,-2072.576638,1608.800546
1240.587767,-9844.739029,-888.247130,612.876398
1240.588088,-9844.739029,1628.453072,2374.896044
1240.588408,-10510.924376,1184.329507,2374.896044
1240.588729,-9548.656652,444.123565,1532.190996
1240.589050,-9252.574275,0.000000,612.876398
1240.589371,-9548.656652,-666.185348,1302.362347
1240.589692,-9548.656652,-222.061783,1762.019645
1240.590012,-9400.615463,-222.061783,1915.238745
1240.590333,-9104.533087,-1184.329507,536.266849
1240.590654,-8364.327145,-962.267725,-383.047749
1240.590975,-9400.615463,-518.144159,536.266849
1240.591295,-10288.862594,148.041188,1455.581446
1240.591616,-10658.965565,888.247130,2604.724693
1240.591937,-10436.903782,0.000000,1915.238745
1240.592258,-9844.739029,-296.082377,1225.752797
1240.592578,-9844.739029,222.061783,842.705048
1240.592899,-9400.615463,666.185348,995.924147
1240.593220,-9622.677246,1036.288319,1838.629195
1240.593541,-9474.636058,-370.102971,1455.581446
1240.593861,-8956.491898,-2368.659014,229.828649
1240.594182,-9104.533087,-2960.823768,0.000000
1240.594503,-9252.574275,-1554.432478,229.828649
1240.594824,-10066.800811,222.061783,1532.190996
1240.595144,-10066.800811,1184.329507,2604.724693
1240.595465,-10066.800811,74.020594,2298.286494
1240.595786,-9548.656652,-296.082377,1455.581446
1240.596107,-9696.697840,-518.144159,3447.429741
1240.596428,-10288.862594,-518.144159,1838.629195
1240.596748,-9326.594869,0.000000,1608.800546
1240.597069,-9326.594869,-1036.288319,1455.581446
1240.597390,-8734.430116,-2146.597232,-306.438199
1240.597711,-7624.121203,-1628.453072,-919.314598
1240.598031,-8882.471304,-1406.391290,-536.266849
1240.598352,-9178.553681,962.267725,229.828649
1240.598673,-10658.965565,1110.308913,1991.848295
1240.598994,-10436.903782,1184.329507,766.095498
1240.599314,-9770.718434,740.205942,536.266849
1240.599635,-10140.821405,74.020594,1149.143247
1240.599956,-9992.780217,518.144159,1762.019645
1240.600277,-10214.842000,-814.226536,1225.752797
1240.600597,-9474.636058,-2664.741391,1378.971896
1240.600918,-8808.450710,-3627.009116,153.219100
1240.601239,-8808.450710,-2812.782580,-612.876398
1240.601560,-9252.574275,-370.102971,-153.219100
1240.601880,-10214.842000,1924.535449,766.095498
1240.602201,-9770.718434,2368.659014,1915.238745
1240.602522,-10214.842000,888.247130,1532.190996
1240.602843,-9696.697840,0.000000,1225.752797
1240.603164,-9400.615463,-1258.350101,2145.067394
1240.603484,-9992.780217,-518.144159,1991.848295
1240.603805,-9844.739029,-740.205942,2221.676944
1240.604126,-9252.574275,-1628.453072,459.657299
1240.604447,-8216.285956,-1480.411884,-153.219100
1240.604767,-9030.512492,-962.267725,-459.657299
1240.605088,-9474.636058,1036.288319,612.876398
1240.605409,-10807.006753,1480.411884,2145.067394
1240.605730,-9918.759623,518.144159,1685.410096
1240.606050,-9770.718434,0.000000,1072.533697
1240.606371,-9770.718434,-222.061783,306.438199
1240.606692,-9622.677246,0.000000,1608.800546
1240.607013,-9770.718434,0.000000,2374.896044
1240.607333,-10066.800811,-518.144159,2068.457845
1240.607654,-8882.471304,-1702.473667,306.438199
1240.607975,-8512.368333,-1702.473667,76.609550
1240.608296,-9474.636058,-296.082377,306.438199
1240.608617,-9918.759623,1258.350101,229.828649
1240.608937,-10066.800811,1850.514855,2681.334243
1240.609258,-9844.739029,592.164754,1991.848295
1240.609579,-9474.636058,-518.144159,1455.581446
1240.609900,-9844.739029,-1110.308913,1532.190996
1240.610220,-9474.636058,-296.082377,2374.896044
1240.610541,-9622.677246,0.000000,2298.286494
1240.610862,-9326.594869,-518.144159,1532.190996
1240.611183,-8586.388927,-1406.391290,153.219100
1240.611503,-8586.388927,-1554.432478,-842.705048
1240.611824,-9622.677246,-148.041188,383.047749
1240.612145,-10436.903782,888.247130,1762.019645
1240.612466,-10732.986159,1332.370696,2298.286494
1240.612786,-10807.006753,518.144159,689.485948
1240.613107,-9622.677246,222.061783,1225.752797
1240.613428,-9918.759623,0.000000,1378.971896
1240.613749,-9696.697840,-296.082377,1378.971896
1240.614069,-9178.553681,-1110.308913,1302.362347
1240.614390,-8882.471304,-2368.659014,153.219100
1240.614711,-8660.409521,-2442.679609,-689.485948
1240.615032,-9030.512492,-1924.535449,-383.047749
1240.615353,-9548.656652,-740.205942,383.047749
1240.615673,-9400.615463,518.144159,1532.190996
1240.615994,-10066.800811,1036.288319,1915.238745
1240.616315,-9992.780217,222.061783,1302.362347
1240.616636,-9252.574275,74.020594,383.047749
1240.616956,-9326.594869,-740.205942,1915.238745
1240.617277,-9030.512492,-222.061783,766.095498
1240.617598,-9104.533087,-740.205942,536.266849
1240.617919,-9030.512492,-2072.576638,76.609550
1240.618239,-8882.471304,-2220.617826,0.000000
1240.618560,-9844.739029,-962.267725,229.828649
1240.618881,-10140.821405,518.144159,1608.800546
1240.619202,-11029.068536,1258.350101,2987.772442
1240.619522,-10510.924376,148.041188,2604.724693
1240.619843,-9548.656652,-1184.329507,2298.286494
1240.620164,-9030.512492,-888.247130,76.609550
1240.620485,-9178.553681,0.000000,536.266849
1240.620805,-9474.636058,592.164754,1302.362347
1240.621126,-9400.615463,0.000000,1915.238745
1240.621447,-9104.533087,-814.226536,229.828649
1240.621768,-8734.430116,-1776.494261,-229.828649
1240.622089,-9474.636058,-1184.329507,76.609550
1240.622409,-10881.027347,0.000000,1991.848295
1240.622730,-10732.986159,1554.432478,2451.505594
1240.623051,-10510.924376,814.226536,2221.676944
1240.623372,-9770.718434,444.123565,1302.362347
1240.623692,-9770.718434,-666.185348,842.705048
1240.624013,-9326.594869,-296.082377,1225.752797
1240.624334,-9622.677246,-518.144159,1455.581446
1240.624655,-9326.594869,-1184.329507,1149.143247
1240.624975,-8956.491898,-1998.556043,0.000000
1240.625296,-8364.327145,-1702.473667,0.000000
1240.625617,-9992.780217,-296.082377,689.485948
1240.625938,-10510.924376,1406.391290,1915.238745
1240.626258,-11103.089130,1480.411884,2451.505594
1240.626579,-10362.883188,888.247130,1532.190996
1240.626900,-9770.718434,888.247130,306.438199
1240.627221,-9622.677246,1036.288319,689.485948
1240.627541,-9474.636058,962.267725,1608.800546
1240.627862,-9252.574275,0.000000,1685.410096
1240.628183,-8586.388927,-2220.617826,919.314598
1240.628504,-8734.430116,-3182.885551,-459.657299
1240.628825,-8808.450710,-2072.576638,-459.657299
1240.629145,-9770.718434,-222.061783,919.314598
1240.629466,-10436.903782,1924.535449,1225.752797
1240.629787,-9770.718434,1406.391290,2757.943793
1240.630108,-9844.739029,-296.082377,1915.238745
1240.630428,-9548.656652,-1258.350101,1378.971896
1240.630749,-9030.512492,-1628.453072,1455.581446
1240.631070,-9622.677246,-1406.391290,2374.896044
1240.631391,-9030.512492,-1036.288319,1838.629195
1240.631711,-8734.430116,-1480.411884,766.095498
1240.632032,-8364.327145,-1110.308913,0.000000
1240.632353,-8882.471304,-592.164754,-153.219100
1240.632674,-10436.903782,814.226536,1225.752797
1240.632994,-10436.903782,1036.288319,1838.629195
1240.633315,-10288.862594,222.061783,1455.581446
1240.633636,-9770.718434,222.061783,2068.457845
1240.633957,-9474.636058,0.000000,383.047749
1240.634278,-10066.800811,370.102971,766.095498
1240.634598,-9918.759623,592.164754,1838.629195
1240.634919,-9696.697840,-222.061783,2834.553343
1240.635240,-9326.594869,-2220.617826,306.438199
1240.635561,-8956.491898,-2368.659014,-766.095498
1240.635881,-9696.697840,-888.247130,-229.828649
1240.636202,-10066.800811,962.267725,919.314598
1240.636523,-10658.965565,2072.576638,2068.457845
1240.636844,-10658.965565,814.226536,2068.457845
1240.637164,-9918.759623,-370.102971,1302.362347
1240.637485,-9474.636058,-1184.329507,842.705048
1240.637806,-10214.842000,-666.185348,919.314598
1240.638127,-9622.677246,-740.205942,2451.505594
1240.638447,-8956.491898,-1332.370696,1762.019645
1240.638768,-8364.327145,-2072.576638,459.657299
1240.639089,-8660.409521,-1924.535449,306.438199
1240.639410,-9474.636058,-1110.308913,1225.752797
1240.639730,-10214.842000,74.020594,1991.848295
1240.640051,-10288.862594,1924.535449,2068.457845
1240.640372,-10510.924376,1258.350101,1838.629195
1240.640693,-9696.697840,1110.308913,842.705048
1240.641014,-9992.780217,962.267725,1302.362347
1240.641334,-9622.677246,-222.061783,1225.752797
1240.641655,-9474.636058,-962.267725,1532.190996
1240.641976,-9178.553681,-2368.659014,919.314598
1240.642297,-8956.491898,-2960.823768,0.000000
1240.642617,-8808.450710,-1406.391290,-612.876398
1240.642938,-9326.594869,740.205942,612.876398
1240.643259,-10288.862594,1628.453072,1762.019645
1240.643580,-9992.780217,1924.535449,2528.115143
1240.643900,-9992.780217,74.020594,1608.800546
1240.644221,-9474.636058,-740.205942,1455.581446
1240.644542,-9548.656652,-1406.391290,1685.410096
1240.644863,-9696.697840,-518.144159,1991.848295
1240.645183,-9622.677246,-1258.350101,1838.629195
1240.645504,-8808.450710,-1554.432478,842.705048
1240.645825,-8586.388927,-1480.411884,-153.219100
1240.646146,-7698.141797,-1258.350101,-919.314598
1240.646466,-9770.718434,444.123565,919.314598
1240.646787,-10584.944971,1332.370696,1915.238745
1240.647108,-10584.944971,518.144159,1532.190996
1240.647429,-9918.759623,-222.061783,1149.143247
1240.647750,-9918.759623,-962.267725,383.047749
1240.648070,-9326.594869,0.000000,459.657299
1240.648391,-10214.842000,74.020594,1991.848295
1240.648712,-9474.636058,-296.082377,2068.457845
1240.649033,-8660.409521,-1702.473667,995.924147
1240.649353,-9474.636058,-1850.514855,-459.657299
1240.649674,-9326.594869,-592.164754,0.000000
1240.649995,-9770.718434,592.164754,766.095498
1240.650316,-10066.800811,1554.432478,2911.162892
1240.650636,-10066.800811,518.144159,2298.286494
1240.650957,-9622.677246,-740.205942,1072.533697
1240.651278,-9474.636058,-1480.411884,766.095498
1240.651599,-9400.615463,-444.123565,1225.752797
1240.651919,-9844.739029,0.000000,1685.410096
1240.652240,-9400.615463,-740.205942,1685.410096
1240.652561,-8364.327145,-1332.370696,153.219100
1240.652882,-8734.430116,-1850.514855,0.000000
1240.653202,-8882.471304,-1036.288319,153.219100
1240.653523,-10140.821405,0.000000,1991.848295
1240.653844,-11251.130318,-888.247130,1915.238745
1240.654165,-9474.636058,1110.308913,1762.019645
1240.654486,-9400.615463,-1258.350101,612.876398
1240.654806,-9104.533087,1184.329507,1608.800546
1240.655127,-10288.862594,148.041188,1608.800546
1240.655448,-9696.697840,0.000000,1608.800546
1240.655769,-8512.368333,-1702.473667,-766.095498
1240.656089,-8660.409521,-2220.617826,-1225.752797
1240.656410,-8660.409521,-1480.411884,-1072.533697
1240.656731,-8290.306550,-222.061783,-1149.143247
1240.657052,-10955.047942,1998.556043,1149.143247
1240.657372,-9326.594869,1702.473667,1225.752797
1240.657693,-10510.924376,666.185348,919.314598
1240.658014,-10584.944971,74.020594,1685.410096
1240.658335,-9992.780217,-592.164754,1302.362347
1240.658655,-10140.821405,0.000000,2451.505594
1240.658976,-10288.862594,-814.226536,2374.896044
1240.659297,-8734.430116,-1850.514855,1378.971896
1240.659617,-8660.409521,-1850.514855,-383.047749
1240.659938,-9326.594869,-1110.308913,-306.438199
1240.660259,-9770.718434,888.247130,229.828649
1240.660579,-10362.883188,1258.350101,1608.800546
1240.660900,-9770.718434,1036.288319,1378.971896
1240.661221,-9992.780217,148.041188,1149.143247
1240.661542,-8808.450710,-444.123565,229.828649
1240.661862,-10214.842000,0.000000,1532.190996
1240.662183,-9770.718434,0.000000,2298.286494
1240.662504,-9696.697840,-666.185348,1608.800546
1240.662824,-9104.533087,-1480.411884,1532.190996
1240.663145,-8660.409521,-1776.494261,0.000000
1240.663466,-8956.491898,-962.267725,-383.047749
1240.663787,-9252.574275,814.226536,689.485948
1240.664107,-9696.697840,1776.494261,1685.410096
1240.664428,-10288.862594,666.185348,2221.676944
1240.664749,-9474.636058,-148.041188,1915.238745
1240.665069,-9474.636058,-1036.288319,1762.019645
1240.665390,-9844.739029,-1110.308913,2451.505594
1240.665711,-9622.677246,-962.267725,2757.943793
1240.666031,-9770.718434,-1924.535449,2681.334243
1240.666352,-8068.244768,-1924.535449,842.705048
1240.666673,-8364.327145,-2516.700203,-766.095498
1240.666994,-7920.203579,74.020594,229.828649
1240.667314,-9474.636058,888.247130,1378.971896
1240.667635,-10140.821405,1110.308913,2145.067394
1240.667956,-10066.800811,0.000000,2145.067394
1240.668276,-9548.656652,-444.123565,0.000000
1240.668597,-9844.739029,0.000000,919.314598
1240.668918,-10658.965565,74.020594,1991.848295
1240.669238,-10066.800811,444.123565,2451.505594
1240.669559,-9992.780217,-1332.370696,1532.190996
1240.669880,-8956.491898,-1998.556043,-612.876398
1240.670201,-9104.533087,-2294.638420,-842.705048
1240.670521,-9474.636058,-814.226536,-306.438199
1240.670842,-10066.800811,1110.308913,842.705048
1240.671163,-10288.862594,1850.514855,1225.752797
1240.671483,-10362.883188,740.205942,1072.533697
1240.671804,-9770.718434,-222.061783,383.047749
1240.672125,-10436.903782,-592.164754,1072.533697
1240.672445,-10584.944971,-1110.308913,1685.410096
1240.672766,-9992.780217,-518.144159,2068.457845
1240.673087,-10066.800811,-1850.514855,995.924147
1240.673408,-8734.430116,-1998.556043,-612.876398
1240.673728,-9252.574275,-962.267725,-612.876398
1240.674049,-9474.636058,888.247130,-459.657299
1240.674370,-9770.718434,1406.391290,842.705048
1240.674690,-9696.697840,518.144159,689.485948
1240.675011,-9178.553681,-1036.288319,-459.657299
1240.675332,-8660.409521,-444.123565,-306.438199
1240.675652,-9474.636058,222.061783,689.485948
1240.675973,-9770.718434,740.205942,2221.676944
1240.676294,-9918.759623,-296.082377,2298.286494
1240.676615,-9474.636058,-1702.473667,1302.362347
1240.676935,-8956.491898,-1850.514855,76.609550
1240.677256,-9548.656652,-888.247130,689.485948
1240.677577,-9548.656652,592.164754,1532.190996
1240.677897,-9622.677246,1776.494261,2528.115143
1240.678218,-9474.636058,1628.453072,2681.334243
1240.678539,-9326.594869,0.000000,1685.410096
1240.678859,-9474.636058,-666.185348,1608.800546
1240.679180,-9622.677246,-666.185348,1991.848295
1240.679501,-9326.594869,-1406.391290,2068.457845
1240.679822,-9178.553681,-814.226536,2145.067394
1240.680142,-9030.512492,-1702.473667,1302.362347
1240.680463,-8660.409521,-1258.350101,536.266849
1240.680784,-9400.615463,-370.102971,1225.752797
1240.681104,-9770.718434,814.226536,2298.286494
1240.681425,-10362.883188,888.247130,2604.724693
1240.681746,-10584.944971,0.000000,1685.410096
1240.682067,-9622.677246,148.041188,766.095498
1240.682387,-9030.512492,296.082377,995.924147
1240.682708,-9992.780217,518.144159,1608.800546
1240.683029,-9918.759623,222.061783,2068.457845
1240.683349,-9770.718434,-1184.329507,995.924147
1240.683670,-9696.697840,-1258.350101,-612.876398
1240.683991,-9104.533087,-1406.391290,-383.047749
1240.684311,-9844.739029,-740.205942,1072.533697
1240.684632,-10214.842000,962.267725,1532.190996
1240.684953,-10214.842000,1184.329507,1762.019645
1240.685274,-9622.677246,0.000000,1378.971896
1240.685594,-9474.636058,-148.041188,689.485948
1240.685915,-10214.842000,-370.102971,1302.362347
1240.686236,-10214.842000,-370.102971,1762.019645
1240.686556,-9326.594869,-518.144159,1685.410096
1240.686877,-8586.388927,-2442.679609,306.438199
1240.687198,-8142.265362,-2146.597232,-766.095498
1240.687518,-9474.636058,-1850.514855,-76.609550
1240.687839,-9104.533087,-814.226536,-1225.752797
1240.688160,-10288.862594,666.185348,1225.752797
1240.688481,-10066.800811,666.185348,1225.752797
1240.688801,-9770.718434,444.123565,153.219100
1240.689122,-9918.759623,0.000000,306.438199
1240.689443,-9844.739029,148.041188,612.876398
1240.689763,-9696.697840,-74.020594,1455.581446
1240.690084,-9474.636058,-1110.308913,1072.533697
1240.690405,-9104.533087,-1850.514855,0.000000
1240.690725,-9400.615463,-1480.411884,-306.438199
1240.691046,-9400.615463,0.000000,0.000000
1240.691367,-9474.636058,888.247130,306.438199
1240.691688,-9918.759623,1036.288319,1302.362347
1240.692008,-9770.718434,0.000000,766.095498
1240.692329,-10066.800811,-592.164754,459.657299
1240.692650,-9696.697840,-666.185348,1072.533697
1240.692970,-9844.739029,-222.061783,1915.238745
1240.693291,-9696.697840,0.000000,3140.991542
1240.693612,-9474.636058,-1036.288319,2451.505594
1240.693932,-9400.615463,-2220.617826,1225.752797
1240.694253,-8956.491898,-2664.741391,459.657299
1240.694574,-9400.615463,-1554.432478,459.657299
1240.694895,-10214.842000,-814.226536,1991.848295
1240.695215,-9918.759623,814.226536,2451.505594
1240.695536,-9844.739029,814.226536,1225.752797
1240.695857,-9252.574275,666.185348,689.485948
1240.696177,-9770.718434,740.205942,1072.533697
1240.696498,-10214.842000,1036.288319,2221.676944
1240.696819,-10214.842000,296.082377,2451.505594
1240.697140,-9622.677246,-1184.329507,1685.410096
1240.697460,-8882.471304,-2294.638420,689.485948
1240.697781,-8734.430116,-2590.720797,689.485948
1240.698102,-9474.636058,-962.267725,1149.143247
1240.698422,-9992.780217,444.123565,1455.581446
1240.698743,-9770.718434,1258.350101,2145.067394
1240.699064,-9400.615463,666.185348,1378.971896
1240.699384,-9622.677246,-296.082377,1225.752797
1240.699705,-9770.718434,-962.267725,1838.629195
1240.700026,-9474.636058,-1554.432478,2068.457845
1240.700347,-9326.594869,-1776.494261,2298.286494
1240.700667,-9178.553681,-2664.741391,842.705048
1240.700988,-8808.450710,-2368.659014,0.000000
1240.701309,-8882.471304,-296.082377,0.000000
1240.701629,-9770.718434,1110.308913,842.705048
1240.701950,-10362.883188,1850.514855,1302.362347
1240.702271,-10362.883188,962.267725,1225.752797
1240.702591,-9918.759623,0.000000,-153.219100
1240.702912,-9770.718434,0.000000,0.000000
1240.703233,-10066.800811,296.082377,383.047749
1240.703554,-9622.677246,0.000000,919.314598
1240.703874,-9326.594869,-1036.288319,689.485948
1240.704195,-9178.553681,-1628.453072,-229.828649
1240.704516,-9474.636058,-1628.453072,-766.095498
1240.704836,-9918.759623,-888.247130,-459.657299
1240.705157,-9548.656652,666.185348,153.219100
1240.705478,-10436.903782,1332.370696,1225.752797
1240.705798,-10288.862594,962.267725,1378.971896
1240.706119,-10140.821405,148.041188,229.828649
1240.706440,-9770.718434,-666.185348,842.705048
1240.706761,-9622.677246,-592.164754,1455.581446
1240.707081,-9992.780217,-814.226536,2068.457845
1240.707402,-9474.636058,-1184.329507,842.705048
1240.707723,-8586.388927,-1924.535449,0.000000
1240.708043,-8216.285956,-1036.288319,-612.876398
1240.708364,-9104.533087,0.000000,229.828649
1240.708685,-9992.780217,888.247130,1608.800546
1240.709005,-10066.800811,888.247130,2145.067394
1240.709326,-10066.800811,-222.061783,1455.581446
1240.709647,-9548.656652,0.000000,995.924147
1240.709968,-9844.739029,1036.288319,1455.581446
1240.710288,-9326.594869,1110.308913,2298.286494
1240.710609,-9548.656652,1036.288319,2528.115143
1240.710930,-9178.553681,-1110.308913,2145.067394
1240.711250,-8808.450710,-2886.803174,0.000000
1240.711571,-8438.347739,-2442.679609,536.266849
1240.711892,-9622.677246,-518.144159,76.609550
1240.712213,-9400.615463,1998.556043,1225.752797
1240.712533,-10140.821405,2368.659014,2451.505594
1240.712854,-10140.821405,1258.350101,2298.286494
1240.713175,-9622.677246,-148.041188,2145.067394
1240.713495,-10140.821405,-666.185348,2221.676944
1240.713816,-9770.718434,-740.205942,2834.553343
1240.714137,-9918.759623,-740.205942,2528.115143
1240.714457,-8734.430116,-1998.556043,2451.505594
1240.714778,-8660.409521,-2368.659014,0.000000
1240.715099,-8586.388927,-1406.391290,-612.876398
1240.715420,-9548.656652,444.123565,459.657299
1240.715740,-9918.759623,3108.864956,3064.381992
1240.716061,-11029.068536,1406.391290,2681.334243
1240.716382,-9992.780217,-74.020594,1225.752797
1240.716702,-9770.718434,-518.144159,1072.533697
1240.717023,-9622.677246,-1480.411884,842.705048
1240.717344,-9992.780217,-740.205942,2145.067394
1240.717664,-9770.718434,-888.247130,1762.019645
1240.717985,-9326.594869,-1924.535449,842.705048
1240.718306,-8216.285956,-1924.535449,-1149.143247
1240.718627,-9030.512492,-148.041188,-1225.752797
1240.718947,-9770.718434,740.205942,-153.219100
1240.719268,-9992.780217,1924.535449,1225.752797
1240.719589,-10288.862594,1184.329507,1532.190996
1240.719909,-9548.656652,-296.082377,383.047749
1240.720230,-9474.636058,-1036.288319,0.000000
1240.720551,-10066.800811,-814.226536,842.705048
1240.720871,-9696.697840,0.000000,2145.067394
1240.721192,-9474.636058,-740.205942,1991.848295
1240.721513,-8438.347739,-2368.659014,229.828649
1240.721834,-8364.327145,-2516.700203,-1685.410096
1240.722154,-9326.594869,-1258.350101,-612.876398
