#time,accel_x,accel_y,accel_z
1284.949818,-9696.697840,-222.061783,1072.533697
1284.950139,-9548.656652,-444.123565,842.705048
1284.950460,-9696.697840,-444.123565,919.314598
1284.950781,-9548.656652,-148.041188,842.705048
1284.951102,-9548.656652,-296.082377,1149.143247
1284.951423,-9696.697840,74.020594,766.095498
1284.951744,-9474.636058,0.000000,1149.143247
1284.952065,-9548.656652,-296.082377,1072.533697
1284.952386,-9770.718434,-296.082377,919.314598
1284.952708,-9696.697840,-222.061783,1302.362347
1284.953029,-9548.656652,-518.144159,1149.143247
1284.953350,-9548.656652,-296.082377,1378.971896
1284.953671,-9474.636058,-74.020594,1302.362347
1284.953992,-9844.739029,-222.061783,1838.629195
1284.954313,-9474.636058,-814.226536,1915.238745
1284.954634,-9548.656652,-1036.288319,1302.362347
1284.954955,-9400.615463,-666.185348,919.314598
1284.955276,-9770.718434,-740.205942,1149.143247
1284.955597,-9696.697840,-370.102971,3907.087040
1284.955918,-9252.574275,-740.205942,1149.143247
1284.956239,-9474.636058,-888.247130,612.876398
1284.956560,-9400.615463,-814.226536,612.876398
1284.956881,-9622.677246,-740.205942,995.924147
1284.957202,-9696.697840,-518.144159,1378.971896
1284.957524,-9770.718434,-740.205942,766.095498
1284.957845,-9548.656652,-592.164754,383.047749
1284.958166,-9844.739029,-740.205942,1072.533697
1284.958487,-9252.574275,-518.144159,1225.752797
1284.958808,-9844.739029,-740.205942,1762.019645
1284.959129,-9696.697840,-1406.391290,1455.581446
1284.959450,-9474.636058,-1258.350101,1225.752797
1284.959771,-9844.739029,-1406.391290,2451.505594
1284.960092,-9622.677246,-1258.350101,2374.896044
1284.960413,-9400.615463,-1110.308913,2068.457845
1284.960734,-9622.677246,-1480.411884,1991.848295
1284.961055,-9252.574275,-962.267725,2911.162892
1284.961376,-9548.656652,-962.267725,2681.334243
1284.961697,-9622.677246,-1184.329507,2451.505594
1284.962019,-9844.739029,-666.185348,2528.115143
1284.962340,-9696.697840,-1036.288319,2451.505594
1284.962661,-9400.615463,-1036.288319,3294.210641
1284.962982,-9696.697840,-1036.288319,3370.820191
1284.963303,-9844.739029,-1258.350101,3677.258390
1284.963624,-9770.718434,-1628.453072,4366.744339
1284.963945,-10362.883188,-2072.576638,3907.087040
1284.964266,-9474.636058,-2812.782580,4826.401637
1284.964587,-9474.636058,-3330.926739,4903.011187
1284.964908,-9326.594869,-3404.947333,5362.668486
1284.965229,-9252.574275,-3552.988522,5286.058936
1284.965550,-8956.491898,-3478.967927,5362.668486
1284.965871,-8882.471304,-3627.009116,5669.106685
1284.966192,-9030.512492,-3849.070898,5515.887586
1284.966513,-9030.512492,-4515.256246,5515.887586
1284.966835,-9030.512492,-4293.194464,5669.106685
1284.967156,-9252.574275,-4885.359217,5286.058936
1284.967477,-9104.533087,-5107.421000,5132.839837
1284.967798,-9252.574275,-4663.297435,5132.839837
1284.968119,-9178.553681,-3849.070898,4979.620737
1284.968440,-9326.594869,-3849.070898,4749.792088
1284.968761,-9622.677246,-3849.070898,4519.963438
1284.969082,-9474.636058,-3775.050304,4596.572988
1284.969403,-9548.656652,-3997.112087,3983.696590
1284.969724,-9770.718434,-3997.112087,4213.525239
1284.970045,-9178.553681,-4293.194464,3983.696590
1284.970366,-9474.636058,-4367.215058,3600.648841
1284.970687,-9474.636058,-4663.297435,3217.601092
1284.971008,-9400.615463,-5403.503377,2987.772442
1284.971329,-9474.636058,-5551.544565,2451.505594
1284.971651,-9252.574275,-5033.400406,1608.800546
1284.971972,-9474.636058,-3997.112087,766.095498
1284.972293,-9400.615463,-2368.659014,689.485948
1284.972614,-9918.759623,-1702.473667,689.485948
1284.972935,-10214.842000,-592.164754,459.657299
1284.973256,-10584.944971,-222.061783,842.705048
1284.973577,-10658.965565,-666.185348,1378.971896
1284.973898,-10807.006753,-1480.411884,1915.238745
1284.974219,-10584.944971,-2516.700203,2145.067394
1284.974540,-10288.862594,-4145.153275,2528.115143
1284.974861,-9178.553681,-4737.318029,2451.505594
1284.975182,-9326.594869,-4811.338623,2068.457845
1284.975503,-8882.471304,-4737.318029,2681.334243
1284.975824,-9252.574275,-4737.318029,2681.334243
1284.976146,-8586.388927,-3701.029710,3294.210641
1284.976467,-9474.636058,-5033.400406,1762.019645
1284.976788,-8660.409521,-3775.050304,1838.629195
1284.977109,-9178.553681,-2960.823768,306.438199
1284.977430,-9400.615463,-666.185348,536.266849
1284.977751,-9178.553681,1480.411884,76.609550
1284.978072,-9770.718434,3034.844362,1455.581446
1284.978393,-10066.800811,3256.906145,2145.067394
1284.978714,-10362.883188,1554.432478,2374.896044
1284.979035,-11103.089130,-148.041188,4213.525239
1284.979356,-10881.027347,-2072.576638,4136.915689
1284.979677,-9918.759623,-3997.112087,5056.230287
1284.979998,-9622.677246,-5181.441594,5515.887586
1284.980319,-7920.203579,-4441.235652,6435.202183
1284.980640,-8438.347739,-5403.503377,7354.516781
1284.980962,-8068.244768,-5107.421000,6741.640382
1284.981283,-7994.224174,-5847.626942,4749.792088
1284.981604,-8142.265362,-4367.215058,3983.696590
1284.981925,-8216.285956,-2294.638420,2528.115143
1284.982246,-9178.553681,666.185348,3217.601092
1284.982567,-9844.739029,2664.741391,3830.477490
1284.982888,-10066.800811,2886.803174,3524.039291
1284.983209,-11029.068536,1998.556043,3983.696590
1284.983530,-10732.986159,740.205942,4060.306139
1284.983851,-11103.089130,-222.061783,3983.696590
1284.984172,-10807.006753,-888.247130,5286.058936
1284.984493,-9844.739029,-2368.659014,5439.278036
1284.984814,-9252.574275,-4885.359217,5745.716235
1284.985135,-8438.347739,-7105.977043,3983.696590
1284.985456,-8216.285956,-7550.100608,2987.772442
1284.985778,-8586.388927,-5329.482782,2987.772442
1284.986099,-9622.677246,-2812.782580,3830.477490
1284.986420,-9770.718434,-888.247130,4136.915689
1284.986741,-9474.636058,-1036.288319,2528.115143
1284.987062,-9548.656652,-666.185348,1838.629195
1284.987383,-10436.903782,-814.226536,1762.019645
1284.987704,-10881.027347,-444.123565,1608.800546
1284.988025,-10510.924376,-1480.411884,1608.800546
1284.988346,-9474.636058,-2220.617826,612.876398
1284.988667,-9104.533087,-2812.782580,-995.924147
1284.988988,-9104.533087,-2516.700203,612.876398
1284.989309,-9622.677246,-1998.556043,1302.362347
1284.989630,-9992.780217,-2368.659014,2757.943793
1284.989951,-9918.759623,-3627.009116,2757.943793
1284.990273,-9252.574275,-4441.235652,2451.505594
1284.990594,-9992.780217,-4589.276840,3370.820191
1284.990915,-10140.821405,-5033.400406,4596.572988
1284.991236,-9326.594869,-6291.750507,3217.601092
1284.991557,-7772.162391,-6069.688724,689.485948
1284.991878,-8068.244768,-3627.009116,0.000000
1284.992199,-9178.553681,-296.082377,1072.533697
1284.992520,-10658.965565,222.061783,3140.991542
1284.992841,-9770.718434,-296.082377,2451.505594
1284.993162,-9104.533087,-1332.370696,1532.190996
1284.993483,-11029.068536,-1258.350101,1838.629195
1284.993804,-10584.944971,-1258.350101,4136.915689
1284.994125,-10584.944971,-3997.112087,3370.820191
1284.994446,-8216.285956,-4293.194464,1455.581446
1284.994767,-7698.141797,-2442.679609,229.828649
1284.995089,-7698.141797,296.082377,1532.190996
1284.995410,-9918.759623,-148.041188,4519.963438
1284.995731,-9030.512492,-592.164754,4136.915689
1284.996052,-8660.409521,-1998.556043,3447.429741
1284.996373,-9622.677246,-2442.679609,2987.772442
1284.996694,-9696.697840,-2516.700203,3294.210641
1284.997015,-10584.944971,-2368.659014,3983.696590
1284.997336,-9696.697840,-1110.308913,2834.553343
1284.997657,-9400.615463,888.247130,1915.238745
1284.997978,-9770.718434,1406.391290,1838.629195
1284.998299,-9844.739029,1480.411884,2068.457845
1284.998620,-10288.862594,962.267725,1608.800546
1284.998941,-10881.027347,1406.391290,2221.676944
1284.999262,-9918.759623,-148.041188,2145.067394
1284.999583,-9770.718434,-2146.597232,1762.019645
1284.999905,-9178.553681,-2146.597232,1302.362347
1285.000226,-9474.636058,-666.185348,2374.896044
1285.000547,-9474.636058,-666.185348,2757.943793
1285.000868,-8660.409521,-1332.370696,2221.676944
1285.001189,-7772.162391,0.000000,229.828649
1285.001510,-10066.800811,-962.267725,0.000000
1285.001831,-9770.718434,0.000000,1455.581446
1285.002152,-9400.615463,-814.226536,689.485948
1285.002473,-9178.553681,-1554.432478,-766.095498
1285.002794,-9770.718434,1702.473667,-76.609550
1285.003115,-12065.356855,1702.473667,689.485948
1285.003436,-9844.739029,2220.617826,383.047749
1285.003757,-10140.821405,2664.741391,0.000000
1285.004078,-9622.677246,2368.659014,-76.609550
1285.004400,-10658.965565,888.247130,-536.266849
1285.004721,-9252.574275,-814.226536,-1302.362347
1285.005042,-8364.327145,-296.082377,-1915.238745
1285.005363,-8586.388927,740.205942,-612.876398
1285.005684,-9770.718434,962.267725,306.438199
1285.006005,-9400.615463,518.144159,766.095498
1285.006326,-9474.636058,-518.144159,536.266849
1285.006647,-9252.574275,-444.123565,766.095498
1285.006968,-9770.718434,-1184.329507,229.828649
1285.007289,-9770.718434,-444.123565,-229.828649
1285.007609,-9696.697840,1036.288319,0.000000
1285.007930,-9622.677246,1998.556043,383.047749
1285.008251,-9770.718434,1776.494261,919.314598
1285.008572,-9030.512492,1480.411884,2604.724693
1285.008893,-10658.965565,1998.556043,1378.971896
1285.009214,-11325.150913,1110.308913,2145.067394
1285.009535,-9770.718434,-888.247130,2987.772442
1285.009856,-9104.533087,-2812.782580,383.047749
1285.010177,-9622.677246,-2368.659014,0.000000
1285.010498,-9326.594869,370.102971,1838.629195
1285.010819,-10214.842000,-814.226536,3064.381992
1285.011140,-8438.347739,-888.247130,2221.676944
1285.011461,-9104.533087,-962.267725,1838.629195
1285.011782,-10436.903782,-666.185348,2298.286494
1285.012103,-9548.656652,-1480.411884,2834.553343
1285.012424,-9622.677246,-2664.741391,2681.334243
1285.012745,-9252.574275,-1850.514855,2068.457845
1285.013066,-9474.636058,-1258.350101,2528.115143
1285.013387,-9696.697840,-370.102971,1532.190996
1285.013708,-9474.636058,-148.041188,1455.581446
1285.014029,-9474.636058,592.164754,842.705048
1285.014349,-10066.800811,74.020594,1455.581446
1285.014670,-9104.533087,-1924.535449,306.438199
1285.014991,-9252.574275,-2590.720797,-306.438199
1285.015312,-9474.636058,-1554.432478,0.000000
1285.015633,-9844.739029,-518.144159,1608.800546
1285.015954,-9844.739029,-740.205942,2221.676944
1285.016275,-9548.656652,-1480.411884,2068.457845
1285.016596,-9918.759623,-1184.329507,2221.676944
1285.016917,-10214.842000,-1924.535449,1991.848295
1285.017238,-9474.636058,-2886.803174,1838.629195
1285.017559,-9178.553681,-2664.741391,459.657299
1285.017880,-8808.450710,-740.205942,0.000000
1285.018201,-9104.533087,296.082377,0.000000
1285.018522,-8364.327145,592.164754,383.047749
1285.018843,-9104.533087,888.247130,229.828649
1285.019164,-10140.821405,1332.370696,536.266849
1285.019485,-10955.047942,888.247130,919.314598
1285.019806,-10214.842000,-666.185348,612.876398
1285.020127,-8290.306550,-1480.411884,1149.143247
1285.020448,-9696.697840,148.041188,383.047749
1285.020768,-10066.800811,740.205942,1455.581446
1285.021089,-9548.656652,0.000000,1991.848295
1285.021410,-9474.636058,-888.247130,536.266849
1285.021731,-9622.677246,-1554.432478,919.314598
1285.022052,-10066.800811,-1702.473667,1838.629195
1285.022373,-9844.739029,-1850.514855,1762.019645
1285.022694,-9474.636058,-888.247130,1149.143247
1285.023015,-8956.491898,1110.308913,1302.362347
1285.023336,-9548.656652,1184.329507,1762.019645
1285.023657,-9178.553681,518.144159,1072.533697
1285.023978,-10214.842000,0.000000,536.266849
1285.024299,-9770.718434,444.123565,919.314598
1285.024620,-9622.677246,592.164754,306.438199
1285.024941,-9844.739029,370.102971,229.828649
1285.025262,-9400.615463,1850.514855,306.438199
1285.025583,-10510.924376,2368.659014,1762.019645
1285.025904,-10066.800811,1406.391290,2757.943793
1285.026225,-9400.615463,-592.164754,2145.067394
1285.026546,-9918.759623,-1406.391290,2068.457845
1285.026867,-9770.718434,-888.247130,1532.190996
1285.027188,-9622.677246,-962.267725,689.485948
1285.027508,-8364.327145,0.000000,919.314598
1285.027829,-8660.409521,148.041188,536.266849
1285.028150,-8956.491898,1480.411884,1072.533697
1285.028471,-9844.739029,370.102971,766.095498
1285.028792,-9474.636058,518.144159,1685.410096
1285.029113,-10140.821405,0.000000,995.924147
1285.029434,-10362.883188,222.061783,1072.533697
1285.029755,-9696.697840,592.164754,1532.190996
1285.030076,-9252.574275,0.000000,-689.485948
1285.030397,-9770.718434,1776.494261,-229.828649
1285.030718,-9474.636058,2146.597232,306.438199
1285.031039,-9474.636058,1628.453072,1225.752797
1285.031360,-9770.718434,-296.082377,1455.581446
1285.031681,-10066.800811,-1258.350101,1991.848295
1285.032002,-10140.821405,-3034.844362,2987.772442
1285.032323,-9548.656652,-4145.153275,2221.676944
1285.032644,-8808.450710,-4071.132681,229.828649
1285.032965,-9252.574275,-2812.782580,766.095498
1285.033286,-9104.533087,-222.061783,995.924147
1285.033607,-8882.471304,-74.020594,76.609550
1285.033927,-7994.224174,1258.350101,-1302.362347
1285.034248,-8956.491898,1776.494261,-689.485948
1285.034569,-9474.636058,888.247130,-919.314598
1285.034890,-9548.656652,74.020594,-1149.143247
1285.035211,-10214.842000,-962.267725,-919.314598
1285.035532,-9918.759623,296.082377,-1685.410096
1285.035853,-11177.109724,1258.350101,1991.848295
1285.036174,-11473.192101,296.082377,3983.696590
1285.036495,-10066.800811,-740.205942,2604.724693
1285.036816,-10214.842000,-1850.514855,1915.238745
1285.037137,-9252.574275,-3034.844362,1685.410096
1285.037458,-8512.368333,-3552.988522,689.485948
1285.037779,-8808.450710,-3404.947333,995.924147
1285.038100,-7698.141797,-1184.329507,536.266849
1285.038421,-8956.491898,-888.247130,919.314598
1285.038742,-9474.636058,-1480.411884,1608.800546
1285.039063,-9548.656652,-740.205942,1532.190996
1285.039384,-11177.109724,-444.123565,1532.190996
1285.039705,-10066.800811,-592.164754,2374.896044
1285.040026,-9770.718434,444.123565,612.876398
1285.040347,-9844.739029,0.000000,-153.219100
1285.040667,-9918.759623,1332.370696,306.438199
1285.040988,-10362.883188,1110.308913,3370.820191
1285.041309,-9770.718434,-962.267725,2145.067394
1285.041630,-9252.574275,-2590.720797,1532.190996
1285.041951,-9770.718434,-2960.823768,2451.505594
1285.042272,-9770.718434,-4071.132681,2834.553343
1285.042593,-8512.368333,-3404.947333,2604.724693
1285.042914,-8438.347739,-2886.803174,1455.581446
1285.043235,-8290.306550,-1110.308913,1072.533697
1285.043556,-9474.636058,0.000000,1685.410096
1285.043877,-9474.636058,-296.082377,995.924147
1285.044198,-9548.656652,0.000000,459.657299
1285.044519,-9548.656652,1036.288319,-229.828649
1285.044840,-9770.718434,1036.288319,-383.047749
1285.045161,-9992.780217,666.185348,-1685.410096
1285.045482,-9474.636058,2886.803174,-995.924147
1285.045803,-10955.047942,3701.029710,536.266849
1285.046124,-10881.027347,2812.782580,2374.896044
1285.046445,-10214.842000,0.000000,2145.067394
1285.046766,-10214.842000,-1406.391290,2374.896044
1285.047086,-10658.965565,-2072.576638,2987.772442
1285.047407,-9844.739029,-4071.132681,2528.115143
1285.047728,-7772.162391,-2886.803174,2221.676944
1285.048049,-8586.388927,-3923.091493,536.266849
1285.048370,-7846.182985,222.061783,536.266849
1285.048691,-9104.533087,888.247130,919.314598
1285.049012,-9622.677246,1628.453072,1225.752797
1285.049333,-9474.636058,3034.844362,306.438199
1285.049654,-11251.130318,2960.823768,689.485948
1285.049975,-10658.965565,2220.617826,612.876398
1285.050296,-9474.636058,1184.329507,-766.095498
1285.050617,-11029.068536,1924.535449,229.828649
1285.050938,-10066.800811,2146.597232,1685.410096
1285.051259,-10066.800811,814.226536,1685.410096
1285.051580,-9844.739029,-370.102971,1762.019645
1285.051901,-9252.574275,-814.226536,919.314598
1285.052222,-9326.594869,-1110.308913,2145.067394
1285.052543,-9696.697840,-2516.700203,2298.286494
1285.052864,-7846.182985,-3108.864956,1685.410096
1285.053185,-8216.285956,-2664.741391,383.047749
1285.053505,-8956.491898,-888.247130,766.095498
1285.053826,-8734.430116,0.000000,689.485948
1285.054147,-9474.636058,888.247130,689.485948
1285.054468,-10214.842000,2146.597232,0.000000
1285.054789,-10214.842000,3034.844362,0.000000
1285.055110,-10510.924376,1480.411884,-383.047749
1285.055431,-9992.780217,1258.350101,-1149.143247
1285.055752,-9844.739029,2294.638420,-306.438199
1285.056073,-10955.047942,2294.638420,612.876398
1285.056394,-8734.430116,814.226536,3447.429741
1285.056715,-9844.739029,-1184.329507,1915.238745
1285.057036,-10066.800811,-2294.638420,2604.724693
1285.057357,-9696.697840,-3849.070898,2451.505594
1285.057678,-8660.409521,-4737.318029,2298.286494
1285.057999,-8364.327145,-3923.091493,1532.190996
1285.058320,-8438.347739,-2220.617826,1378.971896
1285.058641,-8956.491898,-370.102971,1762.019645
1285.058962,-9178.553681,0.000000,1532.190996
1285.059283,-8882.471304,370.102971,1378.971896
1285.059604,-10881.027347,740.205942,689.485948
1285.059925,-11029.068536,592.164754,995.924147
1285.060245,-9696.697840,296.082377,0.000000
1285.060566,-9178.553681,222.061783,76.609550
1285.060887,-10140.821405,2072.576638,76.609550
1285.061208,-10362.883188,1850.514855,1762.019645
1285.061529,-10658.965565,-888.247130,2987.772442
1285.061850,-9400.615463,-2812.782580,1302.362347
1285.062171,-9548.656652,-3923.091493,2221.676944
1285.062492,-9326.594869,-4589.276840,2911.162892
1285.062813,-7698.141797,-4737.318029,2451.505594
1285.063134,-7698.141797,-3849.070898,1838.629195
1285.063455,-8364.327145,-2072.576638,1838.629195
1285.063776,-8438.347739,-1332.370696,1455.581446
1285.064097,-8882.471304,-1554.432478,919.314598
1285.064418,-9104.533087,-148.041188,612.876398
1285.064739,-10436.903782,0.000000,1072.533697
1285.065060,-10362.883188,1702.473667,76.609550
1285.065381,-10066.800811,1036.288319,-153.219100
1285.065702,-9696.697840,1998.556043,-689.485948
1285.066023,-11177.109724,2516.700203,919.314598
1285.066344,-11251.130318,1036.288319,2451.505594
1285.066664,-9992.780217,-1110.308913,1762.019645
1285.066985,-9622.677246,-2442.679609,1072.533697
1285.067306,-9770.718434,-2738.761985,2221.676944
1285.067627,-8882.471304,-3330.926739,2681.334243
1285.067948,-8660.409521,-4515.256246,2451.505594
1285.068269,-7772.162391,-3701.029710,1455.581446
1285.068590,-8882.471304,-2368.659014,1072.533697
1285.068911,-9474.636058,814.226536,1378.971896
1285.069232,-9770.718434,962.267725,1455.581446
1285.069553,-9844.739029,2812.782580,536.266849
1285.069874,-10510.924376,4071.132681,229.828649
1285.070195,-10732.986159,3478.967927,-689.485948
1285.070516,-9622.677246,2442.679609,-1225.752797
1285.070837,-10066.800811,2960.823768,-995.924147
1285.071158,-11621.233289,3034.844362,536.266849
1285.071479,-10732.986159,2590.720797,1838.629195
1285.071800,-10955.047942,962.267725,1915.238745
1285.072121,-10066.800811,-740.205942,2757.943793
1285.072442,-10066.800811,-2590.720797,2681.334243
1285.072763,-9030.512492,-3923.091493,3447.429741
1285.073084,-7994.224174,-4441.235652,766.095498
1285.073404,-8512.368333,-2886.803174,1225.752797
1285.073725,-8364.327145,-370.102971,1762.019645
1285.074046,-8512.368333,74.020594,1225.752797
1285.074367,-8438.347739,1258.350101,229.828649
1285.074688,-9696.697840,2220.617826,0.000000
1285.075009,-10436.903782,2072.576638,0.000000
1285.075330,-9992.780217,2220.617826,-153.219100
1285.075651,-10436.903782,2220.617826,-842.705048
1285.075972,-11251.130318,3997.112087,0.000000
1285.076293,-10955.047942,3330.926739,1378.971896
1285.076614,-9992.780217,1036.288319,1685.410096
1285.076935,-9030.512492,-962.267725,766.095498
1285.077256,-9474.636058,-1480.411884,1608.800546
1285.077577,-9844.739029,-2960.823768,2834.553343
1285.077898,-8808.450710,-4663.297435,2987.772442
1285.078219,-7550.100608,-4737.318029,1532.190996
1285.078540,-8660.409521,-2812.782580,1685.410096
1285.078861,-9326.594869,-1332.370696,2068.457845
1285.079182,-9178.553681,-370.102971,2298.286494
1285.079503,-9474.636058,814.226536,612.876398
1285.079823,-9844.739029,1332.370696,-1838.629195
1285.080144,-9474.636058,2886.803174,-1378.971896
1285.080465,-11103.089130,2738.761985,-1685.410096
1285.080786,-9326.594869,3997.112087,-1532.190996
1285.081107,-11251.130318,2886.803174,-689.485948
1285.081428,-11029.068536,2220.617826,1455.581446
1285.081749,-10510.924376,-888.247130,766.095498
1285.082070,-9918.759623,-1406.391290,1532.190996
1285.082391,-10807.006753,-2590.720797,2757.943793
1285.082712,-9474.636058,-3330.926739,2681.334243
1285.083033,-8882.471304,-4737.318029,2451.505594
1285.083354,-7254.018232,-5477.523971,536.266849
1285.083675,-7846.182985,-2664.741391,229.828649
1285.083996,-9770.718434,-2590.720797,1378.971896
1285.084317,-7772.162391,-1554.432478,76.609550
1285.084638,-9400.615463,74.020594,-229.828649
1285.084959,-9918.759623,1480.411884,-459.657299
1285.085280,-10658.965565,2146.597232,0.000000
1285.085601,-11029.068536,2220.617826,1072.533697
1285.085922,-11177.109724,2516.700203,0.000000
1285.086243,-11325.150913,2812.782580,1225.752797
1285.086563,-11029.068536,1628.453072,1915.238745
1285.086884,-10436.903782,-814.226536,2145.067394
1285.087205,-9844.739029,-1924.535449,2221.676944
1285.087526,-8808.450710,-3627.009116,2604.724693
1285.087847,-8956.491898,-5181.441594,3217.601092
1285.088168,-7402.059420,-6069.688724,2374.896044
1285.088489,-7772.162391,-5255.462188,1149.143247
1285.088810,-7772.162391,-3478.967927,2451.505594
1285.089131,-8586.388927,-2368.659014,2145.067394
1285.089452,-8734.430116,-592.164754,1532.190996
1285.089773,-9622.677246,1036.288319,919.314598
1285.090094,-10510.924376,2146.597232,306.438199
1285.090415,-10658.965565,1776.494261,459.657299
1285.090736,-9770.718434,1480.411884,-383.047749
1285.091057,-10214.842000,2886.803174,-689.485948
1285.091378,-11473.192101,3404.947333,612.876398
1285.091699,-11103.089130,2368.659014,2068.457845
1285.092020,-10510.924376,-148.041188,2374.896044
1285.092341,-9844.739029,-2368.659014,1532.190996
1285.092662,-10436.903782,-3404.947333,3370.820191
1285.092982,-9548.656652,-4515.256246,3524.039291
1285.093303,-8438.347739,-4515.256246,2911.162892
1285.093624,-8290.306550,-3330.926739,1915.238745
1285.093945,-8142.265362,-1702.473667,1608.800546
1285.094266,-8068.244768,-148.041188,1302.362347
1285.094587,-9326.594869,1036.288319,842.705048
1285.094908,-9474.636058,1924.535449,306.438199
1285.095229,-10807.006753,1628.453072,-995.924147
1285.095550,-9696.697840,2516.700203,-1225.752797
1285.095871,-11325.150913,2146.597232,-1455.581446
1285.096192,-11029.068536,4589.276840,229.828649
1285.096513,-11399.171507,3552.988522,919.314598
1285.096834,-9548.656652,1924.535449,1991.848295
1285.097155,-10214.842000,-1258.350101,1838.629195
1285.097476,-10510.924376,-2812.782580,1838.629195
1285.097797,-10288.862594,-4145.153275,2757.943793
1285.098118,-7476.080014,-5033.400406,1302.362347
1285.098439,-7550.100608,-3108.864956,1149.143247
1285.098760,-7179.997637,-2368.659014,1302.362347
1285.099081,-8068.244768,-1036.288319,1302.362347
1285.099402,-9030.512492,-370.102971,2145.067394
1285.099722,-9178.553681,222.061783,995.924147
1285.100043,-10362.883188,1332.370696,919.314598
1285.100364,-11473.192101,1776.494261,1225.752797
1285.100685,-9770.718434,1554.432478,-842.705048
1285.101006,-9104.533087,1258.350101,-3447.429741
1285.101327,-9400.615463,4589.276840,-2757.943793
1285.101648,-8956.491898,5033.400406,-1072.533697
1285.101969,-9844.739029,2368.659014,689.485948
1285.102290,-9474.636058,-222.061783,1225.752797
1285.102611,-10658.965565,-2220.617826,2451.505594
1285.102932,-10658.965565,-4663.297435,3294.210641
1285.103253,-9548.656652,-5773.606348,3907.087040
1285.103574,-9400.615463,-4589.276840,3983.696590
1285.103895,-9252.574275,-2960.823768,2987.772442
1285.104216,-8808.450710,-666.185348,1685.410096
1285.104537,-7994.224174,296.082377,689.485948
1285.104858,-8142.265362,1776.494261,-995.924147
1285.105179,-10288.862594,3256.906145,-766.095498
1285.105500,-10214.842000,1998.556043,-919.314598
1285.105821,-9770.718434,962.267725,-1915.238745
1285.106141,-10214.842000,1480.411884,-1149.143247
1285.106462,-11695.253884,2442.679609,76.609550
1285.106783,-12731.542202,1776.494261,3677.258390
1285.107104,-11843.295072,0.000000,3524.039291
1285.107425,-10362.883188,-1776.494261,2451.505594
1285.107746,-10066.800811,-2516.700203,2068.457845
1285.108067,-8882.471304,-3404.947333,1991.848295
1285.108388,-7920.203579,-4589.276840,1302.362347
1285.108709,-7031.956449,-3330.926739,1149.143247
1285.109030,-7105.977043,-1924.535449,536.266849
1285.109350,-7698.141797,-1036.288319,1532.190996
1285.109671,-8956.491898,-666.185348,1378.971896
1285.109992,-9696.697840,814.226536,1378.971896
1285.110312,-10732.986159,1702.473667,766.095498
1285.110633,-10362.883188,1702.473667,1532.190996
1285.110954,-9992.780217,1628.453072,-383.047749
1285.111274,-10955.047942,1998.556043,0.000000
1285.111595,-11399.171507,2368.659014,842.705048
1285.111916,-10510.924376,1776.494261,2451.505594
1285.112236,-9844.739029,-1036.288319,1685.410096
1285.112557,-8956.491898,-1480.411884,1149.143247
1285.112878,-9770.718434,-3034.844362,1838.629195
1285.113198,-8290.306550,-3552.988522,1991.848295
1285.113519,-6291.750507,-4071.132681,1838.629195
1285.113840,-7550.100608,-3182.885551,766.095498
1285.114160,-8438.347739,-2294.638420,1225.752797
1285.114481,-7698.141797,-666.185348,1455.581446
1285.114802,-9844.739029,-370.102971,1685.410096
1285.115122,-9474.636058,2220.617826,1072.533697
1285.115443,-11473.192101,1628.453072,1378.971896
1285.115764,-10658.965565,1332.370696,76.609550
1285.116085,-9918.759623,1850.514855,-459.657299
1285.116405,-11621.233289,2590.720797,-153.219100
1285.116726,-10807.006753,3404.947333,842.705048
1285.117047,-11103.089130,888.247130,1915.238745
1285.117367,-9770.718434,-1036.288319,1225.752797
1285.117688,-9252.574275,-2886.803174,2068.457845
1285.118009,-9696.697840,-4441.235652,2145.067394
1285.118329,-9104.533087,-5477.523971,2298.286494
1285.118650,-8364.327145,-5107.421000,1685.410096
1285.118971,-8216.285956,-2664.741391,1378.971896
1285.119291,-9326.594869,-592.164754,2451.505594
1285.119612,-9400.615463,814.226536,2221.676944
1285.119933,-9326.594869,1332.370696,919.314598
1285.120253,-9992.780217,1776.494261,-229.828649
1285.120574,-9474.636058,2294.638420,-842.705048
1285.120895,-10140.821405,1332.370696,-1149.143247
1285.121215,-9844.739029,2368.659014,-689.485948
1285.121536,-10955.047942,2812.782580,76.609550
1285.121857,-11621.233289,3701.029710,2374.896044
1285.122178,-10362.883188,1110.308913,1838.629195
1285.122498,-11103.089130,222.061783,2451.505594
1285.122819,-10732.986159,-740.205942,3140.991542
1285.123140,-9696.697840,-2368.659014,3064.381992
1285.123460,-7994.224174,-3108.864956,2451.505594
1285.123781,-7846.182985,-3849.070898,689.485948
1285.124102,-7698.141797,-1850.514855,919.314598
1285.124422,-9030.512492,-1480.411884,1838.629195
1285.124743,-8438.347739,-296.082377,1302.362347
1285.125064,-9696.697840,0.000000,766.095498
1285.125384,-10066.800811,1480.411884,612.876398
1285.125705,-10881.027347,2294.638420,536.266849
1285.126026,-10436.903782,1480.411884,-919.314598
1285.126346,-9548.656652,2368.659014,-689.485948
1285.126667,-10584.944971,2960.823768,536.266849
1285.126988,-10584.944971,1332.370696,1149.143247
1285.127308,-10066.800811,-148.041188,1072.533697
1285.127629,-9622.677246,-1184.329507,1225.752797
1285.127950,-9770.718434,-2590.720797,689.485948
1285.128270,-8882.471304,-2960.823768,1532.190996
1285.128591,-8512.368333,-3849.070898,919.314598
1285.128912,-7254.018232,-3330.926739,995.924147
1285.129233,-8956.491898,-1776.494261,1149.143247
1285.129553,-8882.471304,-888.247130,919.314598
1285.129874,-8808.450710,148.041188,459.657299
1285.130195,-9474.636058,1184.329507,-689.485948
1285.130515,-9992.780217,1628.453072,0.000000
1285.130836,-9326.594869,1554.432478,-383.047749
1285.131157,-9548.656652,888.247130,-1378.971896
1285.131477,-9548.656652,2812.782580,-383.047749
1285.131798,-11843.295072,2590.720797,1838.629195
1285.132119,-11547.212695,740.205942,2987.772442
1285.132439,-9918.759623,-1110.308913,2451.505594
1285.132760,-9770.718434,-3256.906145,1225.752797
1285.133081,-9400.615463,-2294.638420,1762.019645
1285.133401,-9918.759623,-3404.947333,2528.115143
1285.133722,-7550.100608,-2886.803174,919.314598
1285.134043,-7624.121203,-888.247130,842.705048
1285.134363,-9844.739029,0.000000,-842.705048
1285.134684,-8512.368333,444.123565,1991.848295
1285.135005,-10066.800811,0.000000,1608.800546
1285.135326,-10066.800811,814.226536,1915.238745
1285.135646,-11177.109724,666.185348,1532.190996
1285.135967,-10732.986159,444.123565,1225.752797
1285.136288,-9770.718434,1258.350101,459.657299
1285.136608,-10658.965565,1702.473667,766.095498
1285.136929,-10510.924376,2516.700203,1915.238745
1285.137250,-10436.903782,148.041188,1608.800546
1285.137570,-9178.553681,-1776.494261,995.924147
1285.137891,-9178.553681,-2590.720797,612.876398
1285.138212,-9696.697840,-2886.803174,1838.629195
1285.138532,-8438.347739,-5107.421000,1302.362347
1285.138853,-6809.894666,-1332.370696,1225.752797
1285.139174,-10510.924376,-2738.761985,1685.410096
1285.139494,-8364.327145,-962.267725,2221.676944
1285.139815,-8956.491898,-1554.432478,1225.752797
1285.140136,-10288.862594,-444.123565,919.314598
1285.140456,-9252.574275,1110.308913,76.609550
1285.140777,-9918.759623,370.102971,0.000000
1285.141098,-10510.924376,222.061783,766.095498
1285.141419,-8586.388927,444.123565,-2374.896044
1285.141739,-11695.253884,1998.556043,-153.219100
1285.142060,-10658.965565,2146.597232,2221.676944
1285.142381,-10955.047942,666.185348,1225.752797
1285.142701,-10288.862594,-888.247130,3370.820191
1285.143022,-9622.677246,-1702.473667,1685.410096
1285.143343,-9474.636058,-2812.782580,1302.362347
1285.143663,-9400.615463,-3256.906145,1455.581446
1285.143984,-7476.080014,-1850.514855,1149.143247
1285.144305,-8586.388927,-74.020594,1149.143247
1285.144625,-9326.594869,518.144159,1532.190996
1285.144946,-8660.409521,962.267725,1302.362347
1285.145267,-9400.615463,518.144159,383.047749
1285.145587,-10362.883188,1406.391290,842.705048
1285.145908,-10955.047942,814.226536,1072.533697
1285.146229,-9622.677246,296.082377,153.219100
1285.146549,-9844.739029,1554.432478,0.000000
1285.146870,-10807.006753,2664.741391,1991.848295
1285.147191,-10807.006753,1628.453072,2221.676944
1285.147511,-9992.780217,-370.102971,2528.115143
1285.147832,-9548.656652,-1258.350101,1608.800546
1285.148153,-9770.718434,-1998.556043,1378.971896
1285.148474,-9770.718434,-2368.659014,2681.334243
1285.148794,-8068.244768,-3034.844362,2068.457845
1285.149115,-8512.368333,-2368.659014,1302.362347
1285.149436,-9030.512492,-962.267725,1838.629195
1285.149756,-9474.636058,592.164754,2681.334243
1285.150077,-9770.718434,0.000000,1532.190996
1285.150398,-9400.615463,888.247130,1225.752797
1285.150718,-9992.780217,1184.329507,612.876398
1285.151039,-9992.780217,592.164754,2528.115143
1285.151360,-9770.718434,666.185348,-306.438199
1285.151680,-9474.636058,1554.432478,-459.657299
1285.152001,-10658.965565,1702.473667,919.314598
1285.152322,-10584.944971,1406.391290,2068.457845
1285.152642,-11177.109724,-222.061783,2451.505594
1285.152963,-9400.615463,-1480.411884,1608.800546
1285.153284,-9844.739029,-2220.617826,1302.362347
1285.153604,-9326.594869,-2664.741391,1685.410096
1285.153925,-8142.265362,-2442.679609,383.047749
1285.154246,-8216.285956,-1258.350101,229.828649
1285.154567,-8142.265362,-370.102971,-229.828649
1285.154887,-8660.409521,-666.185348,-383.047749
1285.155208,-9252.574275,444.123565,-1225.752797
1285.155529,-10140.821405,888.247130,-459.657299
1285.155849,-11029.068536,2368.659014,919.314598
1285.156170,-11325.150913,1702.473667,1915.238745
1285.156491,-10362.883188,814.226536,1302.362347
1285.156811,-10881.027347,666.185348,1149.143247
1285.157132,-10288.862594,0.000000,1149.143247
1285.157453,-8956.491898,-592.164754,689.485948
1285.157773,-8586.388927,-740.205942,-306.438199
1285.158094,-8586.388927,-296.082377,0.000000
1285.158415,-8586.388927,-296.082377,459.657299
1285.158735,-8734.430116,-2146.597232,1149.143247
1285.159056,-9030.512492,-2738.761985,1532.190996
1285.159377,-10510.924376,-2960.823768,2221.676944
1285.159697,-10214.842000,-2516.700203,2987.772442
1285.160018,-10288.862594,-2072.576638,2911.162892
1285.160339,-9696.697840,-1184.329507,1302.362347
1285.160659,-9104.533087,814.226536,766.095498
1285.160980,-9696.697840,1258.350101,459.657299
1285.161301,-8882.471304,518.144159,-766.095498
1285.161622,-8882.471304,1036.288319,-1149.143247
1285.161942,-9844.739029,1480.411884,0.000000
1285.162263,-10362.883188,2072.576638,1915.238745
1285.162584,-10510.924376,-370.102971,3140.991542
1285.162904,-9696.697840,-1628.453072,3753.867940
1285.163225,-10362.883188,-3330.926739,2987.772442
1285.163546,-9844.739029,-2220.617826,2604.724693
1285.163866,-8882.471304,-4441.235652,2451.505594
1285.164187,-8438.347739,-4071.132681,842.705048
1285.164508,-7550.100608,-1110.308913,536.266849
1285.164828,-9104.533087,0.000000,842.705048
1285.165149,-8808.450710,1332.370696,842.705048
1285.165470,-9770.718434,1776.494261,842.705048
1285.165790,-11177.109724,1258.350101,842.705048
1285.166111,-10140.821405,962.267725,689.485948
1285.166432,-11769.274478,1036.288319,1149.143247
1285.166752,-10436.903782,2146.597232,229.828649
1285.167073,-11843.295072,2072.576638,1225.752797
1285.167394,-10807.006753,962.267725,1915.238745
1285.167715,-9992.780217,-888.247130,1915.238745
1285.168035,-9400.615463,-2220.617826,459.657299
1285.168356,-9918.759623,-2590.720797,1072.533697
1285.168677,-8882.471304,-3182.885551,1838.629195
1285.168997,-7920.203579,-3849.070898,536.266849
1285.169318,-7402.059420,-2442.679609,0.000000
1285.169639,-8882.471304,-1628.453072,229.828649
1285.169959,-7994.224174,-814.226536,0.000000
1285.170280,-9178.553681,740.205942,229.828649
1285.170601,-10510.924376,1998.556043,995.924147
1285.170921,-10658.965565,2516.700203,689.485948
1285.171242,-10658.965565,1998.556043,612.876398
1285.171563,-10510.924376,962.267725,229.828649
1285.171883,-10140.821405,2368.659014,-229.828649
1285.172204,-10955.047942,1406.391290,1838.629195
1285.172525,-9696.697840,1332.370696,2681.334243
1285.172845,-10214.842000,-666.185348,1838.629195
1285.173166,-8512.368333,-740.205942,1762.019645
1285.173487,-9030.512492,-1184.329507,2451.505594
1285.173807,-8956.491898,-2516.700203,2987.772442
1285.174128,-8290.306550,-3182.885551,2145.067394
1285.174449,-8660.409521,-3034.844362,1685.410096
1285.174770,-8660.409521,-1628.453072,383.047749
1285.175090,-9178.553681,148.041188,1838.629195
1285.175411,-10066.800811,1702.473667,2145.067394
1285.175732,-10288.862594,2812.782580,1225.752797
1285.176052,-10510.924376,1998.556043,612.876398
1285.176373,-9696.697840,1554.432478,-306.438199
1285.176694,-9770.718434,1332.370696,-1532.190996
1285.177014,-11029.068536,2220.617826,0.000000
1285.177335,-10955.047942,2590.720797,1302.362347
1285.177656,-9992.780217,370.102971,1762.019645
1285.177976,-10140.821405,-1480.411884,1685.410096
1285.178297,-10066.800811,-2442.679609,2451.505594
1285.178618,-10436.903782,-3256.906145,2987.772442
1285.178938,-9548.656652,-4293.194464,1532.190996
1285.179259,-8068.244768,-3552.988522,459.657299
1285.179580,-8068.244768,-2072.576638,0.000000
1285.179900,-8438.347739,-148.041188,0.000000
1285.180221,-8882.471304,1036.288319,1149.143247
1285.180542,-9474.636058,1480.411884,0.000000
1285.180863,-10066.800811,1480.411884,-612.876398
1285.181183,-10658.965565,1258.350101,-229.828649
1285.181504,-10288.862594,296.082377,-459.657299
1285.181825,-9918.759623,1184.329507,-689.485948
1285.182145,-10436.903782,1998.556043,995.924147
1285.182466,-10362.883188,1184.329507,1915.238745
1285.182787,-10362.883188,-592.164754,2221.676944
1285.183107,-8956.491898,-1332.370696,842.705048
1285.183428,-9844.739029,-2960.823768,1532.190996
1285.183749,-8364.327145,-2368.659014,1685.410096
1285.184069,-8142.265362,-3034.844362,1149.143247
1285.184390,-6365.771101,-3108.864956,1838.629195
1285.184711,-8068.244768,-888.247130,766.095498
1285.185031,-9252.574275,-592.164754,1225.752797
1285.185352,-9104.533087,148.041188,842.705048
1285.185673,-10362.883188,888.247130,919.314598
1285.185993,-10807.006753,1628.453072,1072.533697
1285.186314,-10362.883188,1628.453072,919.314598
1285.186635,-9992.780217,518.144159,0.000000
1285.186956,-9548.656652,1480.411884,-153.219100
1285.187276,-10510.924376,2220.617826,1532.190996
1285.187597,-10881.027347,1110.308913,3064.381992
1285.187918,-10214.842000,-1258.350101,3140.991542
1285.188238,-10066.800811,-2664.741391,2451.505594
1285.188559,-9770.718434,-3182.885551,2451.505594
1285.188880,-9326.594869,-3108.864956,2604.724693
1285.189200,-9030.512492,-3701.029710,2221.676944
1285.189521,-8438.347739,-2960.823768,1608.800546
1285.189842,-8586.388927,-1850.514855,1685.410096
1285.190162,-8808.450710,-1110.308913,1072.533697
1285.190483,-9400.615463,0.000000,1225.752797
1285.190804,-9992.780217,962.267725,1072.533697
1285.191124,-10436.903782,1036.288319,459.657299
1285.191445,-9770.718434,518.144159,-536.266849
1285.191766,-9548.656652,962.267725,-459.657299
1285.192086,-10732.986159,1258.350101,306.438199
1285.192407,-11251.130318,1628.453072,1608.800546
1285.192728,-10584.944971,444.123565,2834.553343
1285.193048,-10214.842000,-814.226536,1685.410096
1285.193369,-10066.800811,-740.205942,2451.505594
1285.193690,-10288.862594,-1924.535449,2681.334243
1285.194011,-8956.491898,-2812.782580,2757.943793
1285.194331,-7476.080014,-3701.029710,689.485948
1285.194652,-7550.100608,-2220.617826,-306.438199
1285.194973,-8512.368333,-888.247130,76.609550
1285.195293,-9030.512492,370.102971,536.266849
1285.195614,-9400.615463,1406.391290,383.047749
1285.195935,-9548.656652,1924.535449,0.000000
1285.196255,-9918.759623,1480.411884,-536.266849
1285.196576,-10214.842000,962.267725,-919.314598
1285.196897,-10140.821405,148.041188,-1685.410096
1285.197217,-10584.944971,2368.659014,-229.828649
1285.197538,-10807.006753,2516.700203,1455.581446
1285.197859,-10140.821405,1110.308913,1915.238745
1285.198179,-9918.759623,-148.041188,1608.800546
1285.198500,-9474.636058,-1332.370696,1302.362347
1285.198821,-9474.636058,-2442.679609,2374.896044
1285.199141,-8586.388927,-3775.050304,2145.067394
1285.199462,-8364.327145,-4441.235652,1762.019645
1285.199783,-8734.430116,-2812.782580,995.924147
1285.200104,-9178.553681,-2294.638420,1302.362347
1285.200424,-8586.388927,0.000000,1378.971896
1285.200745,-9474.636058,740.205942,1149.143247
1285.201066,-10658.965565,2664.741391,0.000000
1285.201386,-10436.903782,3182.885551,0.000000
1285.201707,-10066.800811,2368.659014,-766.095498
1285.202028,-10140.821405,3182.885551,-842.705048
1285.202348,-11251.130318,3034.844362,766.095498
1285.202669,-11251.130318,2294.638420,2145.067394
1285.202990,-10510.924376,-296.082377,2298.286494
1285.203310,-10066.800811,-2368.659014,1302.362347
1285.203631,-9992.780217,-2146.597232,2221.676944
1285.203952,-10066.800811,-2294.638420,2451.505594
1285.204272,-8438.347739,-2664.741391,1915.238745
1285.204593,-7772.162391,-2220.617826,1072.533697
1285.204914,-8364.327145,-888.247130,1149.143247
1285.205234,-8882.471304,-814.226536,1225.752797
1285.205555,-8364.327145,1110.308913,1532.190996
1285.205876,-10140.821405,0.000000,306.438199
1285.206196,-9326.594869,1776.494261,689.485948
1285.206517,-10436.903782,740.205942,-76.609550
1285.206838,-10362.883188,962.267725,-612.876398
1285.207159,-9770.718434,888.247130,-1149.143247
1285.207479,-10658.965565,2220.617826,766.095498
1285.207800,-10807.006753,1554.432478,2145.067394
1285.208121,-10436.903782,-740.205942,1072.533697
1285.208441,-9696.697840,-814.226536,2604.724693
1285.208762,-10658.965565,-3849.070898,2451.505594
1285.209083,-8068.244768,-3849.070898,2298.286494
1285.209403,-8216.285956,-3849.070898,842.705048
1285.209724,-7698.141797,-2442.679609,1685.410096
1285.210045,-7920.203579,-1850.514855,995.924147
1285.210366,-8660.409521,-962.267725,1455.581446
1285.210686,-8438.347739,-370.102971,766.095498
1285.211007,-9178.553681,518.144159,0.000000
1285.211328,-11325.150913,740.205942,459.657299
1285.211648,-9622.677246,1110.308913,0.000000
1285.211969,-10584.944971,1924.535449,-229.828649
1285.212290,-10881.027347,3256.906145,1608.800546
1285.212611,-11695.253884,2886.803174,3064.381992
1285.212931,-11473.192101,518.144159,3830.477490
1285.213252,-10140.821405,-2294.638420,2221.676944
1285.213573,-8660.409521,-3997.112087,2221.676944
1285.213893,-8364.327145,-4071.132681,306.438199
1285.214214,-7254.018232,-2886.803174,766.095498
1285.214535,-6809.894666,-3182.885551,76.609550
1285.214856,-7031.956449,-1258.350101,536.266849
1285.215176,-9548.656652,-592.164754,1685.410096
1285.215497,-10362.883188,-1406.391290,3064.381992
1285.215818,-10881.027347,-1332.370696,3294.210641
1285.216138,-11399.171507,-814.226536,2451.505594
1285.216459,-9992.780217,0.000000,689.485948
1285.216780,-10140.821405,1110.308913,-536.266849
1285.217101,-9104.533087,2590.720797,-1762.019645
1285.217421,-9474.636058,3849.070898,-2145.067394
1285.217742,-10436.903782,3701.029710,-459.657299
1285.218063,-10436.903782,2072.576638,459.657299
1285.218383,-10214.842000,-740.205942,1455.581446
1285.218704,-10807.006753,-2812.782580,2451.505594
1285.219025,-9992.780217,-3552.988522,3907.087040
1285.219346,-10066.800811,-5329.482782,3830.477490
1285.219666,-7994.224174,-4219.173869,2451.505594
1285.219987,-8290.306550,-2738.761985,1991.848295
1285.220308,-8438.347739,-1332.370696,995.924147
1285.220628,-8734.430116,222.061783,919.314598
1285.220949,-9548.656652,1628.453072,0.000000
1285.221270,-9104.533087,2368.659014,-689.485948
1285.221591,-9844.739029,2072.576638,-1225.752797
1285.221911,-10288.862594,1998.556043,-1378.971896
1285.222232,-10732.986159,2442.679609,0.000000
1285.222553,-12509.480420,2738.761985,1685.410096
1285.222873,-11843.295072,2072.576638,2987.772442
1285.223194,-11473.192101,74.020594,2221.676944
1285.223515,-10362.883188,-666.185348,1915.238745
1285.223835,-9474.636058,-740.205942,1991.848295
1285.224156,-9252.574275,-2442.679609,1991.848295
1285.224477,-7328.038826,-3775.050304,459.657299
1285.224798,-5551.544565,-3330.926739,0.000000
1285.225118,-7550.100608,-2812.782580,-383.047749
1285.225439,-7550.100608,-1258.350101,766.095498
1285.225760,-8364.327145,-740.205942,1378.971896
1285.226080,-9326.594869,592.164754,919.314598
1285.226401,-10658.965565,1998.556043,1225.752797
1285.226722,-11029.068536,2072.576638,1302.362347
1285.227043,-10658.965565,1406.391290,612.876398
1285.227363,-10955.047942,2368.659014,536.266849
1285.227684,-11177.109724,2442.679609,766.095498
1285.228005,-10807.006753,2072.576638,1608.800546
1285.228325,-10214.842000,444.123565,1608.800546
1285.228646,-9326.594869,-592.164754,1149.143247
1285.228967,-9400.615463,0.000000,2757.943793
1285.229288,-9178.553681,-2368.659014,2145.067394
1285.229608,-8142.265362,-2664.741391,1762.019645
1285.229929,-8364.327145,-3108.864956,1302.362347
1285.230250,-8512.368333,-2072.576638,766.095498
1285.230570,-8734.430116,-1776.494261,1685.410096
1285.230891,-8956.491898,-518.144159,842.705048
1285.231212,-9622.677246,740.205942,612.876398
1285.231533,-10510.924376,1480.411884,536.266849
1285.231853,-9844.739029,1258.350101,0.000000
1285.232174,-9844.739029,1924.535449,-995.924147
1285.232495,-10362.883188,2664.741391,-76.609550
1285.232815,-10955.047942,2738.761985,689.485948
1285.233136,-11103.089130,1036.288319,383.047749
1285.233457,-9844.739029,-1258.350101,919.314598
1285.233778,-9918.759623,-2368.659014,995.924147
1285.234098,-9770.718434,-3108.864956,2298.286494
1285.234419,-9030.512492,-3034.844362,1302.362347
1285.234740,-7994.224174,-4515.256246,2221.676944
1285.235060,-7772.162391,-1850.514855,1915.238745
1285.235381,-9474.636058,-1924.535449,2528.115143
1285.235702,-8956.491898,-2220.617826,1149.143247
1285.236023,-7550.100608,-518.144159,76.609550
1285.236343,-10140.821405,592.164754,-383.047749
1285.236664,-9844.739029,3182.885551,153.219100
1285.236985,-11251.130318,1258.350101,229.828649
1285.237305,-9548.656652,2294.638420,-1149.143247
1285.237626,-10362.883188,3330.926739,-153.219100
1285.237947,-11991.336260,2368.659014,2451.505594
1285.238268,-10436.903782,148.041188,3064.381992
1285.238588,-11029.068536,-2072.576638,2451.505594
1285.238909,-9770.718434,-2590.720797,1991.848295
1285.239230,-9326.594869,-2590.720797,2145.067394
1285.239550,-8956.491898,-4145.153275,2221.676944
1285.239871,-7402.059420,-3034.844362,1149.143247
1285.240192,-7476.080014,-1776.494261,1378.971896
1285.240512,-8216.285956,-1258.350101,1225.752797
1285.240833,-8734.430116,-1554.432478,1685.410096
1285.241154,-9474.636058,-1924.535449,1225.752797
1285.241475,-9918.759623,222.061783,842.705048
1285.241795,-10584.944971,814.226536,689.485948
1285.242116,-10066.800811,1184.329507,536.266849
1285.242437,-9844.739029,2072.576638,-766.095498
1285.242757,-10807.006753,3034.844362,459.657299
1285.243078,-10658.965565,2664.741391,1302.362347
1285.243399,-10658.965565,518.144159,1532.190996
1285.243720,-10288.862594,-1258.350101,1532.190996
1285.244040,-9918.759623,-2516.700203,1762.019645
1285.244361,-9622.677246,-3701.029710,2911.162892
1285.244682,-8142.265362,-2590.720797,2145.067394
1285.245002,-7920.203579,-2146.597232,1532.190996
1285.245323,-8512.368333,-814.226536,2068.457845
1285.245644,-8438.347739,-962.267725,1455.581446
1285.245965,-9178.553681,-1332.370696,1455.581446
1285.246285,-9252.574275,296.082377,459.657299
1285.246606,-9844.739029,1110.308913,0.000000
1285.246927,-9696.697840,1628.453072,-689.485948
1285.247247,-9474.636058,2294.638420,-1072.533697
1285.247568,-9918.759623,3552.988522,0.000000
1285.247889,-10807.006753,3256.906145,766.095498
1285.248210,-10510.924376,1924.535449,2068.457845
1285.248530,-10584.944971,-1036.288319,1915.238745
1285.248851,-10288.862594,-1702.473667,1991.848295
1285.249172,-10732.986159,-2368.659014,3064.381992
1285.249492,-8734.430116,-3404.947333,2451.505594
1285.249813,-6587.832884,-2738.761985,1225.752797
1285.250134,-7179.997637,-2442.679609,459.657299
1285.250455,-8142.265362,-1036.288319,995.924147
1285.250775,-8216.285956,-592.164754,1149.143247
1285.251096,-8808.450710,-444.123565,1149.143247
1285.251417,-9252.574275,148.041188,383.047749
1285.251737,-10510.924376,1110.308913,1149.143247
1285.252058,-10732.986159,888.247130,1455.581446
1285.252379,-10066.800811,888.247130,612.876398
1285.252700,-10214.842000,1554.432478,0.000000
1285.253020,-11029.068536,1850.514855,995.924147
1285.253341,-10288.862594,1776.494261,1762.019645
1285.253662,-10955.047942,-222.061783,1149.143247
1285.253982,-9770.718434,0.000000,3370.820191
1285.254303,-9770.718434,-1554.432478,1532.190996
1285.254624,-9104.533087,-2738.761985,1762.019645
1285.254945,-8660.409521,-4367.215058,536.266849
1285.255265,-8216.285956,-2442.679609,612.876398
1285.255586,-9548.656652,-1184.329507,919.314598
1285.255907,-8586.388927,222.061783,1072.533697
1285.256227,-9622.677246,1184.329507,1072.533697
1285.256548,-10510.924376,1924.535449,459.657299
1285.256869,-10362.883188,1924.535449,-306.438199
1285.257189,-9918.759623,666.185348,-1149.143247
1285.257510,-9548.656652,740.205942,-1149.143247
1285.257831,-10140.821405,1702.473667,-766.095498
1285.258152,-11325.150913,1258.350101,1532.190996
1285.258472,-10436.903782,-148.041188,1915.238745
1285.258793,-10214.842000,-1332.370696,1608.800546
1285.259114,-10288.862594,-2220.617826,2298.286494
1285.259434,-10881.027347,-3330.926739,2681.334243
1285.259755,-8068.244768,-3775.050304,2298.286494
1285.260076,-8438.347739,-2590.720797,536.266849
1285.260397,-7698.141797,-370.102971,612.876398
1285.260717,-7179.997637,0.000000,612.876398
1285.261038,-7920.203579,0.000000,842.705048
1285.261359,-8808.450710,0.000000,306.438199
1285.261679,-8882.471304,740.205942,-153.219100
1285.262000,-10288.862594,740.205942,689.485948
1285.262321,-9696.697840,74.020594,383.047749
1285.262642,-9178.553681,1628.453072,383.047749
1285.262962,-10955.047942,1628.453072,1838.629195
1285.263283,-9696.697840,1406.391290,2604.724693
1285.263604,-10510.924376,-1332.370696,2451.505594
1285.263924,-10066.800811,-2072.576638,3677.258390
1285.264245,-9400.615463,-1480.411884,2298.286494
1285.264566,-10140.821405,-2442.679609,2757.943793
1285.264887,-7772.162391,-2738.761985,2145.067394
1285.265207,-7624.121203,-2960.823768,459.657299
1285.265528,-9178.553681,-1628.453072,612.876398
1285.265849,-9030.512492,-962.267725,1378.971896
1285.266169,-9104.533087,-148.041188,842.705048
1285.266490,-9548.656652,1332.370696,995.924147
1285.266811,-11547.212695,1332.370696,995.924147
1285.267132,-10510.924376,2072.576638,842.705048
1285.267452,-9992.780217,1110.308913,0.000000
1285.267773,-10510.924376,1110.308913,-153.219100
1285.268094,-11251.130318,2072.576638,1608.800546
1285.268414,-11621.233289,592.164754,3294.210641
1285.268735,-10288.862594,-370.102971,2757.943793
1285.269056,-10658.965565,-1628.453072,2221.676944
1285.269377,-9918.759623,-2220.617826,2298.286494
1285.269697,-9474.636058,-2294.638420,2451.505594
1285.270018,-8734.430116,-3701.029710,459.657299
1285.270339,-7031.956449,-1702.473667,-306.438199
1285.270659,-7994.224174,-518.144159,-689.485948
1285.270980,-7031.956449,1110.308913,-1685.410096
1285.271301,-8586.388927,1406.391290,-536.266849
1285.271622,-9548.656652,2072.576638,229.828649
1285.271942,-10066.800811,2590.720797,306.438199
1285.272263,-11547.212695,1036.288319,1225.752797
1285.272584,-9918.759623,0.000000,306.438199
1285.272904,-10510.924376,888.247130,306.438199
1285.273225,-11843.295072,1998.556043,1838.629195
1285.273546,-9844.739029,1110.308913,2451.505594
1285.273867,-10066.800811,-740.205942,1685.410096
1285.274187,-9252.574275,-1776.494261,1532.190996
1285.274508,-9030.512492,-2516.700203,1072.533697
1285.274829,-9252.574275,-3034.844362,1532.190996
1285.275149,-7846.182985,-2220.617826,995.924147
1285.275470,-8586.388927,-1036.288319,1302.362347
1285.275791,-8956.491898,-518.144159,1685.410096
1285.276111,-9030.512492,-148.041188,1225.752797
1285.276432,-9918.759623,592.164754,2221.676944
1285.276753,-10732.986159,814.226536,1225.752797
1285.277074,-10658.965565,1258.350101,1608.800546
1285.277394,-9770.718434,-148.041188,459.657299
1285.277715,-9326.594869,-74.020594,-1149.143247
1285.278036,-9918.759623,1036.288319,-306.438199
1285.278356,-10214.842000,1628.453072,2145.067394
1285.278677,-10362.883188,0.000000,2374.896044
1285.278998,-9770.718434,-1998.556043,1225.752797
1285.279319,-10066.800811,-2368.659014,0.000000
1285.279639,-9030.512492,-2368.659014,0.000000
1285.279960,-9252.574275,-2368.659014,1455.581446
1285.280281,-9030.512492,-888.247130,1762.019645
1285.280601,-9622.677246,592.164754,1685.410096
1285.280922,-10140.821405,222.061783,1991.848295
1285.281243,-9696.697840,-592.164754,1378.971896
1285.281564,-9474.636058,0.000000,766.095498
1285.281884,-10066.800811,-148.041188,0.000000
1285.282205,-9326.594869,1184.329507,-153.219100
1285.282526,-8512.368333,888.247130,-1991.848295
1285.282846,-7994.224174,2146.597232,-2068.457845
1285.283167,-10436.903782,3108.864956,153.219100
1285.283488,-11473.192101,2294.638420,2298.286494
1285.283809,-11177.109724,-1480.411884,3370.820191
1285.284129,-9918.759623,-3404.947333,2451.505594
1285.284450,-9696.697840,-3478.967927,2068.457845
1285.284771,-9252.574275,-2516.700203,3064.381992
1285.285091,-8216.285956,-2368.659014,2298.286494
1285.285412,-7179.997637,-1110.308913,612.876398
1285.285733,-7994.224174,0.000000,383.047749
1285.286054,-8438.347739,-740.205942,-153.219100
1285.286374,-8512.368333,814.226536,612.876398
1285.286695,-10288.862594,296.082377,1072.533697
1285.287016,-9844.739029,1924.535449,1302.362347
1285.287336,-11029.068536,148.041188,1455.581446
1285.287657,-9474.636058,-592.164754,1149.143247
1285.287978,-10066.800811,814.226536,766.095498
1285.288299,-10807.006753,1258.350101,2374.896044
1285.288619,-10214.842000,814.226536,3140.991542
1285.288940,-9992.780217,-888.247130,2145.067394
1285.289261,-9030.512492,-1702.473667,1302.362347
1285.289581,-9548.656652,-2146.597232,1838.629195
1285.289902,-9400.615463,-3108.864956,2374.896044
1285.290223,-8364.327145,-3330.926739,1762.019645
1285.290544,-8438.347739,-2960.823768,1532.190996
1285.290864,-8882.471304,-1628.453072,919.314598
1285.291185,-9844.739029,-1110.308913,1915.238745
1285.291506,-9770.718434,0.000000,1532.190996
1285.291826,-9400.615463,1924.535449,1915.238745
1285.292147,-10807.006753,1628.453072,229.828649
1285.292468,-9770.718434,740.205942,0.000000
1285.292788,-10066.800811,444.123565,-1225.752797
1285.293109,-10510.924376,1850.514855,383.047749
1285.293430,-10955.047942,1184.329507,1532.190996
1285.293751,-10214.842000,0.000000,1838.629195
1285.294071,-9696.697840,-2072.576638,1378.971896
1285.294392,-9548.656652,-2368.659014,1149.143247
1285.294713,-10066.800811,-2368.659014,2451.505594
1285.295033,-9252.574275,-2812.782580,2298.286494
1285.295354,-7772.162391,-2738.761985,536.266849
1285.295675,-7994.224174,-1554.432478,-229.828649
1285.295996,-8808.450710,148.041188,0.000000
1285.296316,-9030.512492,0.000000,612.876398
1285.296637,-9474.636058,740.205942,612.876398
1285.296958,-10288.862594,2146.597232,229.828649
1285.297278,-10658.965565,2516.700203,153.219100
1285.297599,-10510.924376,2146.597232,306.438199
1285.297920,-10066.800811,2146.597232,0.000000
1285.298241,-10658.965565,2442.679609,153.219100
1285.298561,-10214.842000,1702.473667,995.924147
1285.298882,-10066.800811,-148.041188,1532.190996
1285.299203,-9770.718434,-1258.350101,1762.019645
1285.299523,-9918.759623,-1776.494261,2451.505594
1285.299844,-9252.574275,-2294.638420,2757.943793
1285.300165,-8068.244768,-2072.576638,4213.525239
1285.300486,-8290.306550,-2886.803174,1838.629195
1285.300806,-8882.471304,-1850.514855,1991.848295
1285.301127,-9252.574275,-1406.391290,1838.629195
1285.301448,-8956.491898,-814.226536,2221.676944
1285.301768,-9548.656652,-296.082377,1608.800546
1285.302089,-9918.759623,370.102971,1225.752797
1285.302410,-10140.821405,518.144159,689.485948
1285.302731,-9918.759623,592.164754,-459.657299
1285.303051,-9104.533087,2368.659014,-1072.533697
1285.303372,-10288.862594,3330.926739,689.485948
1285.303693,-10658.965565,2442.679609,2145.067394
1285.304013,-10436.903782,0.000000,1838.629195
1285.304334,-9844.739029,-1554.432478,1302.362347
1285.304655,-10362.883188,-2590.720797,2145.067394
1285.304976,-9548.656652,-3108.864956,2757.943793
1285.305296,-9474.636058,-3627.009116,2145.067394
1285.305617,-8068.244768,-2590.720797,919.314598
1285.305938,-8512.368333,-1406.391290,0.000000
1285.306258,-8216.285956,-222.061783,459.657299
1285.306579,-8882.471304,740.205942,689.485948
1285.306900,-10140.821405,1702.473667,0.000000
1285.307221,-10881.027347,3404.947333,0.000000
1285.307541,-10214.842000,2220.617826,-995.924147
1285.307862,-9770.718434,1480.411884,-1915.238745
1285.308183,-10436.903782,1702.473667,-1149.143247
1285.308503,-11843.295072,2664.741391,1072.533697
1285.308824,-10732.986159,1184.329507,995.924147
1285.309145,-10214.842000,-1036.288319,842.705048
1285.309465,-9918.759623,-1628.453072,1072.533697
1285.309786,-9992.780217,-2738.761985,1838.629195
1285.310107,-9178.553681,-3478.967927,1838.629195
1285.310428,-7550.100608,-3404.947333,1072.533697
1285.310748,-7994.224174,-2664.741391,536.266849
1285.311069,-8734.430116,-1110.308913,1302.362347
1285.311390,-8586.388927,-370.102971,1608.800546
1285.311711,-9474.636058,0.000000,1072.533697
1285.312032,-9400.615463,1110.308913,76.609550
1285.312352,-10140.821405,1036.288319,229.828649
1285.312673,-9770.718434,1036.288319,-153.219100
1285.312994,-9548.656652,1036.288319,-612.876398
1285.313315,-10214.842000,2294.638420,383.047749
1285.313636,-11029.068536,2220.617826,2528.115143
1285.313956,-10732.986159,296.082377,3294.210641
1285.314277,-10510.924376,-1554.432478,3370.820191
1285.314598,-9696.697840,-2516.700203,2451.505594
1285.314919,-10436.903782,-2590.720797,3677.258390
1285.315240,-8660.409521,-4145.153275,3600.648841
1285.315561,-6661.853478,-5033.400406,1991.848295
1285.315881,-7402.059420,-2368.659014,1455.581446
1285.316202,-9030.512492,-1998.556043,1455.581446
1285.316523,-8512.368333,-1110.308913,1685.410096
1285.316844,-8808.450710,962.267725,3600.648841
1285.317165,-11029.068536,1406.391290,919.314598
1285.317485,-10214.842000,2590.720797,536.266849
1285.317806,-10584.944971,1554.432478,536.266849
1285.318127,-10214.842000,1406.391290,0.000000
1285.318448,-10807.006753,1628.453072,229.828649
1285.318769,-11695.253884,740.205942,1532.190996
1285.319089,-9918.759623,0.000000,1072.533697
1285.319410,-10214.842000,-1110.308913,689.485948
1285.319731,-8808.450710,-370.102971,2298.286494
1285.320052,-9770.718434,-1406.391290,2451.505594
1285.320373,-8882.471304,-3404.947333,1915.238745
1285.320693,-7846.182985,-3256.906145,536.266849
1285.321014,-8216.285956,-2664.741391,1149.143247
1285.321335,-8882.471304,-1628.453072,1072.533697
1285.321656,-9104.533087,-222.061783,1302.362347
1285.321977,-9474.636058,1406.391290,229.828649
1285.322297,-9474.636058,2590.720797,0.000000
1285.322618,-10584.944971,1924.535449,-1225.752797
1285.322939,-9992.780217,1998.556043,-995.924147
1285.323260,-10362.883188,1702.473667,-1762.019645
1285.323581,-10732.986159,2738.761985,0.000000
1285.323901,-11029.068536,2072.576638,1378.971896
1285.324222,-10658.965565,888.247130,2145.067394
1285.324543,-10288.862594,-370.102971,2757.943793
1285.324864,-10436.903782,-1776.494261,3830.477490
1285.325185,-9326.594869,-4071.132681,3677.258390
1285.325505,-8882.471304,-5255.462188,2834.553343
1285.325826,-8216.285956,-3552.988522,2374.896044
1285.326147,-7698.141797,-2294.638420,1685.410096
1285.326468,-8364.327145,-1258.350101,1915.238745
1285.326789,-7624.121203,444.123565,153.219100
1285.327109,-8364.327145,1332.370696,-612.876398
1285.327430,-9696.697840,1850.514855,-842.705048
1285.327751,-8882.471304,2072.576638,-766.095498
1285.328072,-11103.089130,2146.597232,-1072.533697
1285.328393,-10214.842000,2516.700203,-689.485948
1285.328714,-11769.274478,2368.659014,1378.971896
1285.329034,-11473.192101,962.267725,2451.505594
1285.329355,-10732.986159,-222.061783,4443.353888
1285.329676,-10955.047942,-1036.288319,2298.286494
1285.329997,-10436.903782,-1850.514855,2834.553343
1285.330318,-9326.594869,-2960.823768,2451.505594
1285.330638,-8290.306550,-3552.988522,1149.143247
1285.330959,-7179.997637,-2146.597232,0.000000
1285.331280,-8364.327145,-814.226536,536.266849
1285.331601,-8216.285956,0.000000,689.485948
1285.331922,-8734.430116,666.185348,689.485948
1285.332242,-9770.718434,740.205942,1378.971896
1285.332563,-10955.047942,740.205942,-459.657299
1285.332884,-11029.068536,1110.308913,-153.219100
1285.333205,-10732.986159,1776.494261,-842.705048
1285.333526,-11029.068536,4367.215058,229.828649
1285.333846,-11547.212695,3627.009116,1225.752797
1285.334167,-10436.903782,666.185348,1762.019645
1285.334488,-9918.759623,-2072.576638,689.485948
1285.334809,-9770.718434,-3627.009116,766.095498
1285.335130,-9178.553681,-3701.029710,1302.362347
1285.335450,-8438.347739,-4367.215058,1149.143247
1285.335771,-6365.771101,-2664.741391,229.828649
1285.336092,-8882.471304,-2664.741391,383.047749
1285.336413,-7846.182985,-518.144159,1378.971896
1285.336734,-9548.656652,-1480.411884,2451.505594
1285.337054,-9918.759623,-666.185348,2221.676944
1285.337375,-11473.192101,296.082377,2681.334243
1285.337696,-10881.027347,1110.308913,153.219100
1285.338017,-9548.656652,1554.432478,229.828649
1285.338338,-8882.471304,2368.659014,-1302.362347
1285.338658,-9252.574275,3182.885551,-1149.143247
1285.338979,-9474.636058,2590.720797,-153.219100
1285.339300,-9252.574275,592.164754,383.047749
1285.339621,-9696.697840,-296.082377,1915.238745
1285.339942,-10510.924376,-2294.638420,3600.648841
1285.340262,-10732.986159,-3552.988522,5209.449386
1285.340583,-9474.636058,-5403.503377,5286.058936
1285.340904,-8216.285956,-4589.276840,3907.087040
1285.341225,-8660.409521,-2516.700203,3064.381992
1285.341546,-8068.244768,-1776.494261,2068.457845
1285.341867,-7772.162391,-444.123565,1378.971896
1285.342187,-8512.368333,592.164754,-76.609550
1285.342508,-9252.574275,1776.494261,-766.095498
1285.342829,-10584.944971,1258.350101,76.609550
1285.343150,-10732.986159,814.226536,383.047749
1285.343471,-10955.047942,1110.308913,0.000000
1285.343791,-12139.377449,1628.453072,1532.190996
1285.344112,-11843.295072,888.247130,2604.724693
1285.344433,-10584.944971,-888.247130,2451.505594
1285.344754,-10658.965565,-1850.514855,2451.505594
1285.345075,-9770.718434,-1998.556043,1532.190996
1285.345395,-9104.533087,-2664.741391,1455.581446
1285.345716,-7698.141797,-3478.967927,306.438199
1285.346037,-6587.832884,-2368.659014,-1455.581446
1285.346358,-8364.327145,-1036.288319,842.705048
1285.346679,-9104.533087,-888.247130,1225.752797
1285.346999,-9178.553681,-518.144159,995.924147
1285.347320,-9992.780217,74.020594,306.438199
1285.347641,-10732.986159,1628.453072,306.438199
1285.347962,-10881.027347,2516.700203,306.438199
1285.348283,-10140.821405,3108.864956,-689.485948
1285.348603,-9918.759623,3701.029710,-1455.581446
1285.348924,-10288.862594,2738.761985,-766.095498
1285.349245,-10658.965565,1554.432478,536.266849
1285.349566,-9844.739029,-222.061783,766.095498
1285.349887,-9918.759623,-1480.411884,1072.533697
1285.350207,-9548.656652,-1480.411884,3753.867940
1285.350528,-9400.615463,-3108.864956,2451.505594
1285.350849,-8142.265362,-3775.050304,1455.581446
1285.351170,-7698.141797,-2442.679609,1302.362347
1285.351491,-8364.327145,-1850.514855,1762.019645
1285.351811,-8438.347739,-1332.370696,2221.676944
1285.352132,-8438.347739,-888.247130,842.705048
1285.352453,-8882.471304,222.061783,383.047749
1285.352774,-9696.697840,1554.432478,0.000000
1285.353095,-9918.759623,1184.329507,919.314598
1285.353415,-9696.697840,1776.494261,-459.657299
1285.353736,-10881.027347,2368.659014,0.000000
1285.354057,-11029.068536,2368.659014,1302.362347
1285.354378,-10881.027347,518.144159,1915.238745
1285.354699,-10214.842000,-518.144159,2145.067394
1285.355020,-10584.944971,-1628.453072,2451.505594
1285.355340,-9622.677246,-2072.576638,2604.724693
1285.355661,-8808.450710,-3330.926739,2528.115143
1285.355982,-8142.265362,-3849.070898,1149.143247
1285.356303,-7698.141797,-1554.432478,1685.410096
1285.356624,-9178.553681,-1628.453072,1685.410096
1285.356944,-8290.306550,518.144159,1378.971896
1285.357265,-9622.677246,740.205942,612.876398
1285.357586,-10362.883188,2590.720797,766.095498
1285.357907,-11473.192101,2590.720797,919.314598
1285.358228,-10214.842000,1850.514855,766.095498
1285.358548,-10436.903782,1036.288319,-919.314598
1285.358869,-11325.150913,2220.617826,-383.047749
1285.359190,-11769.274478,1036.288319,689.485948
1285.359511,-9844.739029,-370.102971,1378.971896
1285.359832,-9992.780217,-1332.370696,1072.533697
1285.360152,-9844.739029,-1332.370696,3447.429741
1285.360473,-9918.759623,-2442.679609,2451.505594
1285.360794,-8808.450710,-4145.153275,1762.019645
1285.361115,-8068.244768,-3256.906145,842.705048
1285.361436,-7920.203579,-1998.556043,1149.143247
1285.361756,-8364.327145,-1184.329507,1608.800546
1285.362077,-8660.409521,-740.205942,1991.848295
1285.362398,-9252.574275,-740.205942,689.485948
1285.362719,-9400.615463,0.000000,-229.828649
1285.363040,-9548.656652,592.164754,-1608.800546
1285.363360,-9770.718434,1184.329507,-995.924147
1285.363681,-9696.697840,2886.803174,-459.657299
1285.364002,-11399.171507,3478.967927,995.924147
1285.364323,-10584.944971,2442.679609,2298.286494
1285.364644,-10362.883188,-444.123565,1532.190996
1285.364964,-9844.739029,-2590.720797,1302.362347
1285.365285,-9696.697840,-3404.947333,1915.238745
1285.365606,-9104.533087,-3404.947333,3217.601092
1285.365927,-8660.409521,-4145.153275,1608.800546
1285.366248,-7550.100608,-3849.070898,1455.581446
1285.366568,-8438.347739,-3034.844362,1378.971896
1285.366889,-8216.285956,-1702.473667,1608.800546
1285.367210,-9178.553681,-1480.411884,1225.752797
1285.367531,-9178.553681,814.226536,1225.752797
1285.367852,-10066.800811,1332.370696,383.047749
1285.368173,-10066.800811,1110.308913,-536.266849
1285.368493,-9474.636058,1480.411884,-689.485948
1285.368814,-10066.800811,1480.411884,-306.438199
1285.369135,-10881.027347,3552.988522,1302.362347
1285.369456,-11769.274478,1998.556043,2374.896044
1285.369777,-10807.006753,74.020594,2604.724693
1285.370097,-9548.656652,-1406.391290,3370.820191
1285.370418,-10807.006753,-2590.720797,2451.505594
1285.370739,-9918.759623,-2812.782580,3830.477490
1285.371060,-9252.574275,-4293.194464,2145.067394
1285.371381,-8068.244768,-3478.967927,1915.238745
1285.371701,-7994.224174,-1850.514855,766.095498
1285.372022,-8586.388927,-1332.370696,-229.828649
1285.372343,-7550.100608,2368.659014,0.000000
1285.372664,-10362.883188,2072.576638,383.047749
1285.372985,-9400.615463,2886.803174,919.314598
1285.373305,-10214.842000,1554.432478,-383.047749
1285.373626,-10436.903782,1406.391290,-766.095498
1285.373947,-10584.944971,2960.823768,-612.876398
1285.374268,-12583.501014,4219.173869,2604.724693
1285.374589,-10881.027347,2368.659014,2834.553343
1285.374909,-9400.615463,74.020594,689.485948
1285.375230,-9844.739029,-962.267725,919.314598
1285.375551,-9474.636058,-2294.638420,1838.629195
1285.375872,-9030.512492,-3108.864956,1072.533697
1285.376193,-8068.244768,-2812.782580,1225.752797
1285.376513,-6883.915261,-1702.473667,842.705048
1285.376834,-8734.430116,-1184.329507,1685.410096
1285.377155,-9178.553681,-370.102971,2911.162892
1285.377476,-9918.759623,-1258.350101,1685.410096
1285.377797,-9104.533087,814.226536,1072.533697
1285.378117,-11473.192101,296.082377,1149.143247
1285.378438,-11177.109724,888.247130,1455.581446
1285.378759,-9178.553681,1332.370696,-919.314598
1285.379080,-10881.027347,2960.823768,-383.047749
1285.379401,-10362.883188,3552.988522,459.657299
1285.379721,-10288.862594,1628.453072,1225.752797
1285.380042,-10584.944971,-296.082377,1762.019645
1285.380363,-9474.636058,-1998.556043,536.266849
1285.380684,-10584.944971,-2442.679609,2145.067394
1285.381005,-9252.574275,-2886.803174,2451.505594
1285.381326,-7920.203579,-1776.494261,1072.533697
1285.381646,-9696.697840,-814.226536,1991.848295
1285.381967,-9030.512492,444.123565,2451.505594
1285.382288,-9178.553681,-222.061783,1685.410096
1285.382609,-10436.903782,666.185348,1225.752797
1285.382930,-9770.718434,-296.082377,612.876398
1285.383250,-10436.903782,-888.247130,-153.219100
1285.383571,-9104.533087,-814.226536,-1915.238745
1285.383892,-8290.306550,1184.329507,-2374.896044
1285.384213,-9400.615463,2738.761985,-1225.752797
1285.384534,-10510.924376,962.267725,459.657299
1285.384854,-10288.862594,-814.226536,919.314598
1285.385175,-9770.718434,-2590.720797,919.314598
1285.385496,-9474.636058,-2960.823768,919.314598
1285.385817,-10584.944971,-3404.947333,3447.429741
1285.386138,-9178.553681,-4441.235652,3370.820191
1285.386458,-8290.306550,-3478.967927,1838.629195
1285.386779,-6883.915261,-1480.411884,2145.067394
1285.387100,-8364.327145,-1406.391290,995.924147
1285.387421,-8734.430116,-148.041188,689.485948
1285.387742,-8882.471304,1554.432478,229.828649
1285.388062,-9844.739029,1110.308913,995.924147
1285.388383,-8586.388927,1924.535449,0.000000
1285.388704,-9770.718434,370.102971,0.000000
1285.389025,-10881.027347,1036.288319,919.314598
1285.389346,-12139.377449,1110.308913,3217.601092
1285.389666,-11177.109724,74.020594,4136.915689
1285.389987,-10362.883188,-1776.494261,2757.943793
1285.390308,-10140.821405,-1924.535449,2374.896044
1285.390629,-9918.759623,-1776.494261,2528.115143
1285.390950,-8808.450710,-2146.597232,2374.896044
1285.391270,-7476.080014,-3034.844362,995.924147
1285.391591,-7476.080014,-2368.659014,76.609550
1285.391912,-8586.388927,-1258.350101,689.485948
1285.392233,-8956.491898,-666.185348,1838.629195
1285.392554,-9474.636058,0.000000,1685.410096
1285.392874,-10140.821405,0.000000,1225.752797
1285.393195,-10436.903782,666.185348,612.876398
1285.393516,-10955.047942,0.000000,153.219100
1285.393837,-9400.615463,74.020594,-995.924147
1285.394158,-9992.780217,2146.597232,0.000000
1285.394479,-10807.006753,2960.823768,1149.143247
1285.394799,-10436.903782,888.247130,2451.505594
1285.395120,-9030.512492,-2442.679609,1532.190996
1285.395441,-9844.739029,-3108.864956,1378.971896
1285.395762,-9844.739029,-3552.988522,1915.238745
1285.396083,-8512.368333,-3108.864956,1838.629195
1285.396403,-8068.244768,-2368.659014,919.314598
1285.396724,-8142.265362,888.247130,842.705048
1285.397045,-8956.491898,1480.411884,1302.362347
1285.397366,-8660.409521,1776.494261,766.095498
1285.397687,-9622.677246,1332.370696,766.095498
1285.398007,-10066.800811,1924.535449,1149.143247
1285.398328,-10584.944971,1628.453072,1149.143247
1285.398649,-9770.718434,1036.288319,459.657299
1285.398970,-9326.594869,2294.638420,-383.047749
1285.399291,-10584.944971,3478.967927,-229.828649
1285.399611,-10362.883188,2812.782580,2374.896044
1285.399932,-10288.862594,222.061783,2528.115143
1285.400253,-9474.636058,-2664.741391,1149.143247
1285.400574,-9548.656652,-2664.741391,1149.143247
1285.400895,-9548.656652,-2738.761985,1762.019645
1285.401215,-8438.347739,-2146.597232,2145.067394
1285.401536,-7846.182985,-1332.370696,995.924147
1285.401857,-7920.203579,370.102971,612.876398
1285.402178,-8734.430116,592.164754,536.266849
1285.402499,-8956.491898,0.000000,766.095498
1285.402819,-9844.739029,296.082377,689.485948
1285.403140,-10288.862594,592.164754,612.876398
1285.403461,-10955.047942,1036.288319,1225.752797
1285.403782,-9844.739029,-222.061783,0.000000
1285.404103,-9400.615463,666.185348,-536.266849
1285.404423,-10436.903782,1776.494261,459.657299
1285.404744,-10510.924376,1332.370696,2145.067394
1285.405065,-10584.944971,0.000000,2681.334243
1285.405386,-9844.739029,-1776.494261,1608.800546
1285.405707,-9474.636058,-1924.535449,1838.629195
1285.406027,-9770.718434,-3108.864956,2298.286494
1285.406348,-8734.430116,-3330.926739,1072.533697
1285.406669,-8734.430116,-1924.535449,689.485948
1285.406990,-8808.450710,-962.267725,0.000000
1285.407311,-8660.409521,148.041188,459.657299
1285.407632,-9548.656652,0.000000,766.095498
1285.407952,-9918.759623,1110.308913,153.219100
1285.408273,-11251.130318,1628.453072,919.314598
1285.408594,-10510.924376,1110.308913,306.438199
1285.408915,-9548.656652,296.082377,-536.266849
1285.409236,-10214.842000,1184.329507,-383.047749
1285.409556,-10807.006753,1332.370696,612.876398
1285.409877,-10658.965565,444.123565,2145.067394
1285.410198,-9400.615463,-1628.453072,1762.019645
1285.410519,-9030.512492,-3108.864956,383.047749
1285.410839,-9844.739029,-3034.844362,1838.629195
1285.411160,-9326.594869,-3849.070898,2068.457845
1285.411481,-8364.327145,-3108.864956,1608.800546
1285.411802,-8216.285956,-2442.679609,1149.143247
1285.412122,-8808.450710,-814.226536,842.705048
1285.412443,-9104.533087,0.000000,1072.533697
1285.412764,-9326.594869,518.144159,1072.533697
1285.413085,-9844.739029,1332.370696,995.924147
1285.413405,-10584.944971,1184.329507,1149.143247
1285.413726,-9918.759623,444.123565,383.047749
1285.414047,-9918.759623,444.123565,0.000000
1285.414368,-9992.780217,1776.494261,919.314598
1285.414688,-10436.903782,1258.350101,2757.943793
1285.415009,-10214.842000,-888.247130,3064.381992
1285.415330,-9770.718434,-2590.720797,2528.115143
1285.415651,-9770.718434,-3108.864956,2604.724693
1285.415971,-9474.636058,-3404.947333,2834.553343
1285.416292,-7920.203579,-3478.967927,2528.115143
1285.416613,-8216.285956,-3330.926739,1685.410096
1285.416934,-8142.265362,-1554.432478,995.924147
1285.417254,-8512.368333,-370.102971,1455.581446
1285.417575,-9548.656652,-370.102971,1149.143247
1285.417896,-9770.718434,1036.288319,1302.362347
1285.418216,-11325.150913,740.205942,919.314598
1285.418537,-10732.986159,1480.411884,536.266849
1285.418858,-10584.944971,962.267725,766.095498
1285.419179,-9252.574275,2072.576638,-995.924147
1285.419499,-10288.862594,2368.659014,0.000000
1285.419820,-10066.800811,2072.576638,1378.971896
1285.420141,-10066.800811,0.000000,2604.724693
1285.420462,-9844.739029,-1850.514855,919.314598
1285.420782,-10214.842000,-2664.741391,1302.362347
1285.421103,-9918.759623,-3108.864956,1991.848295
1285.421424,-8956.491898,-2960.823768,1532.190996
1285.421745,-7994.224174,-1332.370696,842.705048
1285.422065,-8956.491898,370.102971,383.047749
1285.422386,-9474.636058,1036.288319,995.924147
1285.422707,-9326.594869,814.226536,383.047749
1285.423028,-9770.718434,1110.308913,0.000000
1285.423348,-10362.883188,1702.473667,-995.924147
1285.423669,-10362.883188,2072.576638,-612.876398
1285.423990,-9622.677246,1776.494261,-1072.533697
1285.424311,-9252.574275,2368.659014,-1915.238745
1285.424631,-10436.903782,2886.803174,612.876398
1285.424952,-10955.047942,2146.597232,1991.848295
1285.425273,-10510.924376,74.020594,2298.286494
1285.425594,-9770.718434,-1332.370696,2528.115143
1285.425914,-9252.574275,-2368.659014,2681.334243
1285.426235,-9104.533087,-3552.988522,2528.115143
1285.426556,-8142.265362,-3997.112087,1838.629195
1285.426877,-8290.306550,-2738.761985,1378.971896
1285.427197,-7772.162391,-1110.308913,1455.581446
1285.427518,-8808.450710,-1554.432478,1608.800546
1285.427839,-9326.594869,-148.041188,919.314598
1285.428160,-9844.739029,666.185348,0.000000
1285.428480,-10584.944971,2294.638420,0.000000
1285.428801,-10140.821405,1998.556043,306.438199
1285.429122,-9696.697840,962.267725,-612.876398
1285.429443,-10510.924376,1554.432478,76.609550
1285.429763,-10436.903782,1702.473667,1378.971896
1285.430084,-10807.006753,0.000000,2757.943793
1285.430405,-9696.697840,-2368.659014,2374.896044
1285.430726,-9474.636058,-2664.741391,1685.410096
1285.431046,-9622.677246,-2368.659014,1685.410096
1285.431367,-8586.388927,-2072.576638,1378.971896
1285.431688,-7994.224174,-2442.679609,995.924147
1285.432008,-7994.224174,-1184.329507,306.438199
1285.432329,-9252.574275,-444.123565,76.609550
1285.432650,-9326.594869,-370.102971,383.047749
1285.432971,-9844.739029,222.061783,842.705048
1285.433291,-10881.027347,1184.329507,919.314598
1285.433612,-10881.027347,1332.370696,842.705048
1285.433933,-10658.965565,592.164754,0.000000
1285.434254,-9696.697840,740.205942,-306.438199
1285.434574,-10436.903782,1776.494261,-1072.533697
1285.434895,-10732.986159,2368.659014,1685.410096
1285.435216,-11177.109724,222.061783,1762.019645
1285.435537,-7994.224174,-1554.432478,536.266849
1285.435857,-9622.677246,-2442.679609,459.657299
1285.436178,-9252.574275,-2442.679609,1302.362347
1285.436499,-8068.244768,-3627.009116,1225.752797
1285.436820,-8586.388927,-3330.926739,3524.039291
1285.437140,-8216.285956,-2442.679609,153.219100
1285.437461,-8734.430116,-1628.453072,306.438199
1285.437782,-8734.430116,148.041188,995.924147
1285.438103,-9844.739029,1998.556043,1455.581446
1285.438423,-10807.006753,1998.556043,2604.724693
1285.438744,-10214.842000,1554.432478,2145.067394
1285.439065,-10140.821405,0.000000,1838.629195
1285.439386,-10955.047942,-1628.453072,306.438199
1285.439706,-9844.739029,740.205942,76.609550
1285.440027,-10140.821405,222.061783,1608.800546
1285.440348,-8438.347739,1628.453072,1455.581446
1285.440669,-8808.450710,-222.061783,1685.410096
1285.440989,-8068.244768,-1258.350101,995.924147
1285.441310,-8882.471304,-2368.659014,2145.067394
1285.441631,-8882.471304,-4071.132681,2068.457845
1285.441952,-7624.121203,-3330.926739,1608.800546
1285.442272,-9030.512492,-2368.659014,1838.629195
1285.442593,-9622.677246,-666.185348,2834.553343
1285.442914,-9030.512492,74.020594,2528.115143
1285.443235,-10362.883188,370.102971,1685.410096
1285.443555,-9770.718434,1480.411884,1072.533697
1285.443876,-9918.759623,370.102971,536.266849
1285.444197,-9770.718434,518.144159,-842.705048
1285.444518,-9622.677246,1480.411884,-1225.752797
1285.444838,-10584.944971,3108.864956,-229.828649
1285.445159,-10584.944971,1480.411884,0.000000
1285.445480,-10881.027347,148.041188,2145.067394
1285.445800,-10510.924376,-1776.494261,1762.019645
1285.446121,-10955.047942,-2442.679609,2451.505594
1285.446442,-10436.903782,-2960.823768,2681.334243
1285.446763,-8956.491898,-2886.803174,1225.752797
1285.447083,-8438.347739,-1850.514855,459.657299
1285.447404,-8290.306550,-592.164754,536.266849
1285.447725,-7846.182985,-444.123565,229.828649
1285.448046,-9252.574275,296.082377,0.000000
1285.448366,-9252.574275,1036.288319,-536.266849
1285.448687,-10584.944971,1258.350101,-459.657299
1285.449008,-11029.068536,1850.514855,-153.219100
1285.449329,-9992.780217,1554.432478,-1762.019645
1285.449649,-10066.800811,3478.967927,-919.314598
1285.449970,-11843.295072,3923.091493,1072.533697
1285.450291,-10436.903782,2220.617826,1608.800546
1285.450612,-10807.006753,-1110.308913,2145.067394
1285.450932,-9400.615463,-1924.535449,1685.410096
1285.451253,-9400.615463,-3034.844362,2451.505594
1285.451574,-9104.533087,-4737.318029,2528.115143
1285.451895,-6957.935855,-3552.988522,1378.971896
1285.452215,-7402.059420,-2590.720797,766.095498
1285.452536,-7846.182985,-1480.411884,1378.971896
1285.452857,-7179.997637,-740.205942,919.314598
1285.453178,-8586.388927,-592.164754,842.705048
1285.453498,-9770.718434,1258.350101,0.000000
1285.453819,-10214.842000,962.267725,1225.752797
1285.454140,-10584.944971,296.082377,1072.533697
1285.454461,-9770.718434,444.123565,0.000000
1285.454781,-10214.842000,2516.700203,766.095498
1285.455102,-11399.171507,1998.556043,2604.724693
1285.455423,-10510.924376,592.164754,3294.210641
1285.455744,-9844.739029,-1036.288319,2374.896044
1285.456064,-9622.677246,-2442.679609,1915.238745
1285.456385,-9178.553681,-2368.659014,1762.019645
1285.456706,-8660.409521,-3849.070898,2451.505594
1285.457027,-7179.997637,-3775.050304,1378.971896
1285.457347,-7846.182985,-1702.473667,842.705048
1285.457668,-9252.574275,-740.205942,1225.752797
1285.457989,-9400.615463,0.000000,1838.629195
1285.458310,-10140.821405,518.144159,1838.629195
1285.458630,-10955.047942,1110.308913,689.485948
1285.458951,-11399.171507,2072.576638,76.609550
1285.459272,-11325.150913,2220.617826,0.000000
1285.459592,-10732.986159,2590.720797,-383.047749
1285.459913,-11621.233289,3478.967927,0.000000
1285.460234,-11029.068536,2368.659014,383.047749
1285.460555,-10881.027347,1036.288319,459.657299
1285.460875,-10066.800811,-962.267725,842.705048
1285.461196,-10288.862594,-2072.576638,1225.752797
1285.461517,-9548.656652,-3256.906145,1991.848295
1285.461838,-8882.471304,-3552.988522,2681.334243
1285.462158,-7772.162391,-4071.132681,842.705048
1285.462479,-8660.409521,-3478.967927,1685.410096
1285.462800,-8808.450710,-3330.926739,1302.362347
1285.463121,-8438.347739,-1998.556043,536.266849
1285.463441,-9400.615463,-296.082377,-383.047749
1285.463762,-9696.697840,1554.432478,-612.876398
1285.464083,-10066.800811,2146.597232,0.000000
1285.464404,-9992.780217,1332.370696,-612.876398
1285.464724,-9030.512492,2294.638420,536.266849
1285.465045,-11177.109724,2072.576638,689.485948
1285.465366,-10584.944971,1110.308913,1991.848295
1285.465687,-9992.780217,-962.267725,2221.676944
1285.466007,-9474.636058,-1924.535449,2528.115143
1285.466328,-9178.553681,-2516.700203,2374.896044
1285.466649,-8586.388927,-3330.926739,3064.381992
1285.466970,-7698.141797,-4293.194464,2374.896044
1285.467290,-6957.935855,-2960.823768,1685.410096
1285.467611,-8290.306550,-1924.535449,2374.896044
1285.467932,-8364.327145,-888.247130,2451.505594
1285.468253,-8734.430116,0.000000,1455.581446
1285.468573,-9622.677246,814.226536,1608.800546
1285.468894,-10140.821405,1554.432478,2221.676944
1285.469215,-11177.109724,1184.329507,1149.143247
1285.469536,-10140.821405,1702.473667,-459.657299
1285.469856,-10436.903782,3552.988522,-306.438199
1285.470177,-11695.253884,4219.173869,1762.019645
1285.470498,-11547.212695,2738.761985,2451.505594
1285.470819,-10807.006753,666.185348,2451.505594
1285.471139,-10510.924376,-1702.473667,2528.115143
1285.471460,-10214.842000,-3478.967927,2374.896044
1285.471781,-9400.615463,-4071.132681,2911.162892
1285.472101,-8734.430116,-4293.194464,1685.410096
1285.472422,-7772.162391,-1924.535449,766.095498
1285.472743,-8660.409521,0.000000,766.095498
1285.473064,-8364.327145,296.082377,689.485948
1285.473384,-8660.409521,1110.308913,536.266849
1285.473705,-10658.965565,592.164754,229.828649
1285.474026,-10436.903782,1480.411884,0.000000
1285.474347,-10658.965565,1702.473667,-2068.457845
1285.474667,-10362.883188,2368.659014,-1072.533697
1285.474988,-10732.986159,4367.215058,-229.828649
1285.475309,-11399.171507,3627.009116,1455.581446
1285.475630,-10288.862594,1184.329507,1378.971896
1285.475950,-9992.780217,-1258.350101,766.095498
1285.476271,-9918.759623,-2738.761985,536.266849
1285.476592,-9252.574275,-3182.885551,1378.971896
1285.476913,-8438.347739,-3256.906145,1685.410096
1285.477233,-6143.709319,-3108.864956,0.000000
1285.477554,-7624.121203,-1998.556043,995.924147
1285.477875,-8142.265362,-1480.411884,842.705048
1285.478196,-8216.285956,-1036.288319,766.095498
1285.478516,-8586.388927,-740.205942,1072.533697
1285.478837,-10066.800811,1258.350101,306.438199
1285.479158,-9918.759623,2072.576638,459.657299
1285.479479,-10214.842000,1110.308913,229.828649
1285.479799,-9474.636058,1628.453072,-536.266849
1285.480120,-10807.006753,1776.494261,306.438199
1285.480441,-11251.130318,666.185348,1225.752797
1285.480762,-10214.842000,0.000000,1838.629195
1285.481082,-10214.842000,-1850.514855,2298.286494
1285.481403,-9770.718434,-2072.576638,2374.896044
1285.481724,-9548.656652,-3330.926739,2757.943793
1285.482045,-8808.450710,-3923.091493,2221.676944
1285.482365,-8142.265362,-2812.782580,1915.238745
1285.482686,-8660.409521,-1480.411884,1149.143247
1285.483007,-8364.327145,-1184.329507,1991.848295
1285.483328,-9030.512492,-740.205942,1072.533697
1285.483648,-9770.718434,74.020594,689.485948
1285.483969,-10584.944971,1184.329507,229.828649
1285.484290,-11029.068536,1480.411884,-229.828649
1285.484611,-9992.780217,2516.700203,-536.266849
1285.484931,-11325.150913,2442.679609,-842.705048
1285.485252,-11251.130318,2738.761985,229.828649
1285.485573,-9104.533087,3330.926739,306.438199
1285.485893,-11547.212695,0.000000,919.314598
1285.486214,-9548.656652,-740.205942,1915.238745
1285.486535,-9918.759623,-3849.070898,2068.457845
1285.486856,-9696.697840,-3478.967927,1915.238745
1285.487176,-7920.203579,-3775.050304,1225.752797
1285.487497,-7105.977043,-3108.864956,1302.362347
1285.487818,-9030.512492,-1332.370696,2145.067394
1285.488139,-7994.224174,-1480.411884,842.705048
1285.488459,-8438.347739,-592.164754,689.485948
1285.488780,-8734.430116,148.041188,76.609550
1285.489101,-9400.615463,2072.576638,0.000000
1285.489422,-10807.006753,1258.350101,459.657299
1285.489742,-9030.512492,1702.473667,-995.924147
1285.490063,-9548.656652,2590.720797,-766.095498
1285.490384,-11547.212695,1850.514855,229.828649
1285.490705,-10140.821405,1998.556043,1838.629195
1285.491025,-10288.862594,-370.102971,3370.820191
1285.491346,-10214.842000,-1406.391290,2298.286494
1285.491667,-9474.636058,-2368.659014,2911.162892
1285.491988,-9104.533087,-4885.359217,2911.162892
1285.492308,-7402.059420,-4293.194464,1685.410096
1285.492629,-7254.018232,-2664.741391,153.219100
1285.492950,-8290.306550,-518.144159,1762.019645
1285.493271,-8364.327145,-1036.288319,1302.362347
1285.493591,-8364.327145,-148.041188,766.095498
1285.493912,-10066.800811,296.082377,0.000000
1285.494233,-10955.047942,1702.473667,689.485948
1285.494554,-10436.903782,1628.453072,766.095498
1285.494874,-11177.109724,2072.576638,1072.533697
1285.495195,-11399.171507,1998.556043,76.609550
1285.495516,-11843.295072,1406.391290,2374.896044
1285.495837,-12065.356855,-370.102971,2911.162892
1285.496157,-10362.883188,-2072.576638,2145.067394
1285.496478,-10214.842000,-2368.659014,1455.581446
1285.496799,-9400.615463,-2146.597232,1608.800546
1285.497120,-8142.265362,-3034.844362,1225.752797
1285.497440,-7105.977043,-3627.009116,0.000000
1285.497761,-7402.059420,-2664.741391,229.828649
1285.498082,-8586.388927,-1924.535449,383.047749
1285.498403,-8660.409521,-148.041188,766.095498
1285.498723,-10288.862594,1184.329507,1302.362347
1285.499044,-11103.089130,2368.659014,1072.533697
1285.499365,-10436.903782,2812.782580,-459.657299
1285.499685,-10510.924376,1110.308913,-306.438199
1285.500006,-9918.759623,1776.494261,-995.924147
1285.500327,-10732.986159,2664.741391,-536.266849
1285.500648,-11473.192101,2516.700203,1072.533697
1285.500968,-9548.656652,1332.370696,459.657299
1285.501289,-9474.636058,-518.144159,536.266849
1285.501610,-9548.656652,-1258.350101,1608.800546
1285.501931,-9252.574275,-3182.885551,2298.286494
1285.502251,-8956.491898,-4811.338623,2068.457845
1285.502572,-7328.038826,-4071.132681,1225.752797
1285.502893,-8364.327145,-2368.659014,766.095498
1285.503214,-8660.409521,-592.164754,2068.457845
1285.503534,-8364.327145,1110.308913,2068.457845
1285.503855,-9326.594869,1480.411884,1455.581446
1285.504176,-9474.636058,1110.308913,0.000000
1285.504497,-9844.739029,296.082377,-383.047749
1285.504817,-9326.594869,666.185348,-842.705048
1285.505138,-10140.821405,2072.576638,-612.876398
1285.505459,-10881.027347,2220.617826,1915.238745
1285.505780,-10955.047942,962.267725,2757.943793
1285.506100,-10658.965565,-1480.411884,2604.724693
1285.506421,-10362.883188,-2960.823768,2298.286494
1285.506742,-10881.027347,-3034.844362,2681.334243
1285.507063,-9548.656652,-4219.173869,2604.724693
1285.507383,-8142.265362,-3627.009116,1838.629195
1285.507704,-7698.141797,-2664.741391,306.438199
1285.508025,-7698.141797,-814.226536,383.047749
1285.508346,-8216.285956,-296.082377,229.828649
1285.508666,-8290.306550,814.226536,-536.266849
1285.508987,-9992.780217,2072.576638,-306.438199
1285.509308,-11621.233289,2812.782580,306.438199
1285.509629,-10955.047942,2368.659014,766.095498
1285.509949,-11103.089130,740.205942,536.266849
1285.510270,-10214.842000,2146.597232,612.876398
1285.510591,-11473.192101,1702.473667,1532.190996
1285.510912,-11103.089130,666.185348,1991.848295
1285.511232,-9844.739029,666.185348,1685.410096
1285.511553,-9622.677246,-296.082377,1378.971896
1285.511874,-9918.759623,-1776.494261,1455.581446
1285.512195,-8438.347739,-2960.823768,2911.162892
1285.512515,-8216.285956,-3775.050304,459.657299
1285.512836,-8068.244768,-2294.638420,689.485948
1285.513157,-8882.471304,-666.185348,1532.190996
1285.513477,-9252.574275,0.000000,1608.800546
1285.513798,-9104.533087,1258.350101,842.705048
1285.514119,-9696.697840,2072.576638,383.047749
1285.514439,-10214.842000,1924.535449,-306.438199
1285.514760,-9474.636058,1776.494261,-306.438199
1285.515081,-9548.656652,2516.700203,0.000000
1285.515401,-9992.780217,2516.700203,536.266849
1285.515722,-10955.047942,1110.308913,1991.848295
1285.516043,-9844.739029,-1332.370696,2298.286494
1285.516363,-10140.821405,-3182.885551,2068.457845
1285.516684,-9622.677246,-3552.988522,2068.457845
1285.517005,-9548.656652,-3404.947333,2987.772442
1285.517325,-8882.471304,-4071.132681,3064.381992
1285.517646,-7328.038826,-3849.070898,1302.362347
1285.517967,-7476.080014,-1554.432478,919.314598
1285.518287,-8512.368333,-1332.370696,1072.533697
1285.518608,-8142.265362,-1258.350101,1072.533697
1285.518929,-9252.574275,74.020594,612.876398
1285.519249,-10140.821405,1776.494261,1532.190996
1285.519570,-10807.006753,2072.576638,229.828649
1285.519891,-10362.883188,1480.411884,919.314598
1285.520211,-11103.089130,962.267725,229.828649
1285.520532,-10881.027347,2368.659014,995.924147
1285.520853,-11843.295072,740.205942,2068.457845
1285.521173,-10066.800811,-592.164754,2068.457845
1285.521494,-9992.780217,-1554.432478,1838.629195
1285.521815,-10436.903782,-2812.782580,1608.800546
1285.522136,-9696.697840,-2886.803174,1685.410096
1285.522456,-9252.574275,-2368.659014,1149.143247
1285.522777,-7994.224174,-888.247130,383.047749
1285.523098,-9178.553681,0.000000,995.924147
1285.523418,-9252.574275,1850.514855,0.000000
1285.523739,-9178.553681,1554.432478,995.924147
1285.524060,-9770.718434,1628.453072,229.828649
1285.524380,-10510.924376,2590.720797,689.485948
1285.524701,-11177.109724,1628.453072,766.095498
1285.525022,-9992.780217,1184.329507,153.219100
1285.525342,-10140.821405,1998.556043,0.000000
1285.525663,-10732.986159,2590.720797,919.314598
1285.525984,-9844.739029,1406.391290,1838.629195
1285.526304,-9622.677246,-666.185348,2145.067394
1285.526625,-9474.636058,-1406.391290,1991.848295
1285.526946,-9474.636058,-2368.659014,1915.238745
1285.527266,-9178.553681,-3182.885551,2374.896044
1285.527587,-8586.388927,-3849.070898,2374.896044
1285.527908,-8068.244768,-2960.823768,1532.190996
1285.528228,-8290.306550,-1258.350101,1608.800546
1285.528549,-8216.285956,-148.041188,1608.800546
1285.528870,-9030.512492,1036.288319,1225.752797
1285.529190,-9400.615463,2072.576638,995.924147
1285.529511,-10362.883188,2072.576638,766.095498
1285.529832,-9696.697840,592.164754,-153.219100
1285.530152,-8512.368333,370.102971,-1455.581446
1285.530473,-8438.347739,1110.308913,-306.438199
1285.530794,-10807.006753,1184.329507,2068.457845
1285.531114,-10807.006753,-518.144159,2834.553343
1285.531435,-9622.677246,-2368.659014,2145.067394
1285.531756,-9474.636058,-3182.885551,1762.019645
1285.532076,-10140.821405,-3256.906145,2681.334243
1285.532397,-9696.697840,-3330.926739,2911.162892
1285.532718,-8438.347739,-3182.885551,1072.533697
1285.533038,-8142.265362,-1628.453072,153.219100
1285.533359,-8734.430116,-518.144159,383.047749
1285.533680,-8808.450710,74.020594,76.609550
1285.534001,-9474.636058,222.061783,0.000000
1285.534321,-10140.821405,592.164754,0.000000
1285.534642,-9918.759623,1110.308913,-306.438199
1285.534963,-10955.047942,740.205942,-612.876398
1285.535283,-10510.924376,1110.308913,-1072.533697
1285.535604,-10732.986159,2664.741391,76.609550
1285.535925,-11177.109724,2072.576638,1991.848295
1285.536245,-10658.965565,148.041188,2681.334243
1285.536566,-9992.780217,-2368.659014,1532.190996
1285.536887,-10214.842000,-3627.009116,1532.190996
1285.537207,-9326.594869,-3997.112087,1455.581446
1285.537528,-8216.285956,-4219.173869,1838.629195
1285.537849,-7105.977043,-3108.864956,689.485948
1285.538169,-8068.244768,-1110.308913,153.219100
1285.538490,-8586.388927,-296.082377,612.876398
1285.538811,-8956.491898,592.164754,1225.752797
1285.539131,-9770.718434,0.000000,612.876398
1285.539452,-10881.027347,518.144159,1532.190996
1285.539773,-11103.089130,1702.473667,1838.629195
1285.540093,-10955.047942,0.000000,1991.848295
1285.540414,-10658.965565,222.061783,995.924147
1285.540735,-10362.883188,1776.494261,1455.581446
1285.541055,-10658.965565,-1258.350101,2298.286494
1285.541376,-8142.265362,-592.164754,1225.752797
1285.541697,-9178.553681,-2220.617826,2911.162892
1285.542017,-9178.553681,-3108.864956,1302.362347
1285.542338,-7994.224174,-2960.823768,2911.162892
1285.542659,-8364.327145,-4663.297435,2145.067394
1285.542979,-7550.100608,-2442.679609,3983.696590
1285.543300,-8660.409521,-2960.823768,766.095498
1285.543621,-9474.636058,-518.144159,2681.334243
1285.543941,-8882.471304,0.000000,1838.629195
1285.544262,-9844.739029,1480.411884,1072.533697
1285.544583,-10362.883188,2368.659014,919.314598
1285.544904,-10362.883188,1924.535449,-536.266849
1285.545224,-9548.656652,1332.370696,-612.876398
1285.545545,-10658.965565,2072.576638,-153.219100
1285.545866,-10436.903782,2294.638420,1532.190996
1285.546186,-11399.171507,962.267725,2451.505594
1285.546507,-10584.944971,74.020594,2681.334243
1285.546828,-10658.965565,-1110.308913,2145.067394
1285.547148,-10881.027347,-1702.473667,2451.505594
1285.547469,-9252.574275,-2368.659014,2681.334243
1285.547790,-9400.615463,-3034.844362,1532.190996
1285.548110,-7920.203579,-1480.411884,766.095498
1285.548431,-9104.533087,-296.082377,459.657299
1285.548752,-8882.471304,1110.308913,459.657299
1285.549072,-8808.450710,1406.391290,-459.657299
1285.549393,-10362.883188,2442.679609,0.000000
1285.549714,-10807.006753,2590.720797,-1225.752797
1285.550034,-9918.759623,2368.659014,-459.657299
1285.550355,-9918.759623,2812.782580,-1149.143247
1285.550676,-10584.944971,3478.967927,-383.047749
1285.550996,-11695.253884,3997.112087,2298.286494
1285.551317,-11103.089130,1850.514855,2068.457845
1285.551638,-10436.903782,-444.123565,3064.381992
1285.551958,-10436.903782,-2738.761985,3294.210641
1285.552279,-9474.636058,-3923.091493,3064.381992
1285.552600,-8512.368333,-4737.318029,2451.505594
1285.552920,-6957.935855,-3775.050304,766.095498
1285.553241,-6735.874072,-2146.597232,-1149.143247
1285.553562,-6217.729913,222.061783,-1072.533697
1285.553882,-7179.997637,1110.308913,-1302.362347
1285.554203,-7994.224174,2442.679609,-306.438199
1285.554524,-9696.697840,2368.659014,-306.438199
1285.554844,-10658.965565,962.267725,76.609550
1285.555165,-9918.759623,0.000000,0.000000
1285.555486,-11325.150913,296.082377,1302.362347
1285.555806,-11399.171507,1332.370696,2451.505594
1285.556127,-11547.212695,1036.288319,3140.991542
1285.556448,-10362.883188,-444.123565,3064.381992
1285.556769,-9918.759623,-2664.741391,1302.362347
1285.557089,-9030.512492,-2146.597232,1225.752797
1285.557410,-10288.862594,-3182.885551,1991.848295
1285.557731,-7920.203579,-3478.967927,1685.410096
1285.558051,-7179.997637,-4145.153275,842.705048
1285.558372,-8290.306550,-2738.761985,1532.190996
1285.558693,-8956.491898,-1406.391290,995.924147
1285.559013,-9548.656652,0.000000,1378.971896
1285.559334,-10658.965565,1480.411884,1532.190996
1285.559655,-10658.965565,1850.514855,76.609550
1285.559975,-11251.130318,1628.453072,76.609550
1285.560296,-10584.944971,2072.576638,-842.705048
1285.560617,-11103.089130,2738.761985,-536.266849
1285.560937,-11769.274478,3256.906145,459.657299
1285.561258,-11103.089130,2812.782580,2374.896044
1285.561579,-10807.006753,-814.226536,1608.800546
1285.561899,-9770.718434,-2146.597232,1072.533697
1285.562220,-9844.739029,-4293.194464,1072.533697
1285.562541,-8068.244768,-4293.194464,1762.019645
1285.562861,-7920.203579,-3552.988522,306.438199
1285.563182,-7402.059420,-1924.535449,459.657299
1285.563503,-8956.491898,-1480.411884,1302.362347
1285.563823,-9178.553681,-740.205942,2068.457845
1285.564144,-9992.780217,-1258.350101,1838.629195
1285.564465,-10362.883188,-444.123565,1838.629195
1285.564785,-11621.233289,962.267725,1838.629195
1285.565106,-10436.903782,888.247130,1225.752797
1285.565427,-8808.450710,814.226536,-536.266849
1285.565747,-8364.327145,2294.638420,-1532.190996
1285.566068,-8808.450710,3404.947333,0.000000
1285.566389,-9844.739029,888.247130,2145.067394
1285.566709,-9326.594869,-2072.576638,2757.943793
1285.567030,-9474.636058,-3849.070898,2987.772442
1285.567351,-10066.800811,-4811.338623,3064.381992
1285.567671,-8882.471304,-4737.318029,4060.306139
1285.567992,-7846.182985,-3849.070898,3907.087040
1285.568313,-8142.265362,-2220.617826,3064.381992
1285.568634,-8808.450710,-1480.411884,2068.457845
1285.568954,-7624.121203,-444.123565,1149.143247
1285.569275,-8142.265362,-592.164754,0.000000
1285.569596,-9104.533087,740.205942,-459.657299
1285.569916,-10881.027347,2368.659014,76.609550
1285.570237,-10881.027347,1332.370696,-383.047749
1285.570558,-9918.759623,2220.617826,-842.705048
1285.570878,-10732.986159,2812.782580,919.314598
1285.571199,-11843.295072,3256.906145,2451.505594
1285.571520,-11843.295072,1406.391290,3140.991542
1285.571840,-10584.944971,-1406.391290,2298.286494
1285.572161,-9400.615463,-2294.638420,842.705048
1285.572482,-9548.656652,-2960.823768,689.485948
1285.572802,-8290.306550,-3108.864956,919.314598
1285.573123,-7846.182985,-2146.597232,459.657299
1285.573444,-8364.327145,-370.102971,153.219100
1285.573764,-9474.636058,0.000000,766.095498
1285.574085,-9474.636058,0.000000,1149.143247
1285.574406,-10436.903782,518.144159,536.266849
1285.574726,-11029.068536,2072.576638,383.047749
1285.575047,-10881.027347,2886.803174,1072.533697
1285.575368,-9548.656652,2516.700203,-766.095498
1285.575688,-10214.842000,2664.741391,-1302.362347
1285.576009,-11029.068536,3256.906145,-153.219100
1285.576330,-11399.171507,2368.659014,1149.143247
1285.576650,-10288.862594,222.061783,1608.800546
1285.576971,-9992.780217,-1480.411884,1685.410096
1285.577292,-9918.759623,-1776.494261,2221.676944
1285.577612,-9696.697840,-2294.638420,3294.210641
1285.577933,-8290.306550,-3552.988522,1991.848295
1285.578254,-7105.977043,-3627.009116,842.705048
1285.578574,-7476.080014,-2516.700203,76.609550
1285.578895,-7846.182985,-1036.288319,536.266849
1285.579216,-7179.997637,-370.102971,1072.533697
1285.579536,-8364.327145,1924.535449,306.438199
1285.579857,-9918.759623,2220.617826,612.876398
1285.580178,-10510.924376,1258.350101,306.438199
1285.580499,-9992.780217,296.082377,153.219100
1285.580819,-10584.944971,74.020594,0.000000
1285.581140,-10214.842000,1702.473667,1149.143247
1285.581461,-11177.109724,592.164754,2451.505594
1285.581781,-10288.862594,-518.144159,2911.162892
1285.582102,-9918.759623,-2442.679609,1455.581446
1285.582423,-9474.636058,-2886.803174,1838.629195
1285.582743,-8660.409521,-2960.823768,2451.505594
1285.583064,-8586.388927,-3923.091493,2298.286494
1285.583385,-7550.100608,-2146.597232,-306.438199
1285.583705,-8808.450710,-1258.350101,1302.362347
1285.584026,-8586.388927,-888.247130,1762.019645
1285.584347,-8808.450710,296.082377,766.095498
1285.584667,-10436.903782,1702.473667,229.828649
1285.584988,-11177.109724,2590.720797,459.657299
1285.585309,-10955.047942,2590.720797,0.000000
1285.585629,-10732.986159,2294.638420,-612.876398
1285.585950,-10881.027347,2442.679609,-306.438199
1285.586271,-12139.377449,1924.535449,842.705048
1285.586591,-11029.068536,148.041188,2374.896044
1285.586912,-10288.862594,-2146.597232,1149.143247
1285.587233,-9918.759623,-2442.679609,1225.752797
1285.587553,-10066.800811,-2664.741391,3600.648841
1285.587874,-9326.594869,-3182.885551,2987.772442
1285.588195,-8142.265362,-3552.988522,1685.410096
1285.588515,-7328.038826,-2146.597232,689.485948
1285.588836,-8068.244768,-1998.556043,612.876398
1285.589157,-7624.121203,-1036.288319,459.657299
1285.589477,-9178.553681,-740.205942,229.828649
1285.589798,-9400.615463,740.205942,0.000000
1285.590119,-10066.800811,1702.473667,-229.828649
1285.590439,-10066.800811,1628.453072,76.609550
1285.590760,-10214.842000,1480.411884,-153.219100
1285.591081,-11029.068536,1702.473667,0.000000
1285.591401,-10140.821405,2220.617826,1455.581446
1285.591722,-10288.862594,0.000000,2604.724693
1285.592043,-9252.574275,-1036.288319,1532.190996
1285.592364,-9622.677246,-3108.864956,2068.457845
1285.592684,-9178.553681,-3923.091493,2221.676944
1285.593005,-7698.141797,-4071.132681,2604.724693
1285.593326,-8142.265362,-4367.215058,2298.286494
1285.593646,-7402.059420,-2590.720797,1302.362347
1285.593967,-8956.491898,-1184.329507,1608.800546
1285.594288,-8438.347739,-370.102971,842.705048
1285.594608,-8734.430116,1332.370696,-689.485948
1285.594929,-10140.821405,2220.617826,306.438199
1285.595250,-10288.862594,2516.700203,689.485948
1285.595570,-11177.109724,1184.329507,76.609550
1285.595891,-11103.089130,1110.308913,-689.485948
1285.596212,-11917.315666,2368.659014,1149.143247
1285.596532,-12583.501014,1924.535449,2757.943793
1285.596853,-11029.068536,74.020594,3217.601092
1285.597174,-10436.903782,-1850.514855,1838.629195
1285.597494,-9252.574275,-2146.597232,1532.190996
1285.597815,-9548.656652,-2960.823768,2221.676944
1285.598136,-8068.244768,-2664.741391,2145.067394
1285.598456,-7994.224174,-3108.864956,612.876398
1285.598777,-7920.203579,-1702.473667,76.609550
1285.599098,-8586.388927,-444.123565,459.657299
1285.599418,-8290.306550,0.000000,153.219100
1285.599739,-9474.636058,1776.494261,76.609550
1285.600060,-10732.986159,3108.864956,383.047749
1285.600380,-11103.089130,2664.741391,0.000000
1285.600701,-10584.944971,2146.597232,-689.485948
1285.601022,-9474.636058,2886.803174,-1608.800546
1285.601342,-11547.212695,4145.153275,536.266849
1285.601663,-11473.192101,1554.432478,2604.724693
1285.601984,-9548.656652,0.000000,3140.991542
1285.602304,-9992.780217,-2886.803174,1455.581446
1285.602625,-9326.594869,-3330.926739,2068.457845
1285.602946,-8734.430116,-4219.173869,2911.162892
1285.603266,-8660.409521,-4293.194464,3600.648841
1285.603587,-7105.977043,-3849.070898,2221.676944
1285.603908,-7698.141797,-2368.659014,919.314598
1285.604229,-8438.347739,222.061783,1915.238745
1285.604549,-8512.368333,444.123565,1225.752797
1285.604870,-9770.718434,1332.370696,1225.752797
1285.605191,-9622.677246,2146.597232,1149.143247
1285.605511,-9770.718434,518.144159,0.000000
1285.605832,-9474.636058,222.061783,-383.047749
1285.606153,-10066.800811,740.205942,0.000000
1285.606473,-11399.171507,1702.473667,1608.800546
1285.606794,-11103.089130,1036.288319,2681.334243
1285.607115,-10288.862594,-1110.308913,2451.505594
1285.607435,-10066.800811,-2516.700203,2068.457845
1285.607756,-9548.656652,-3923.091493,1532.190996
1285.608077,-9696.697840,-3775.050304,2451.505594
1285.608397,-8364.327145,-2442.679609,1302.362347
1285.608718,-8142.265362,-1480.411884,536.266849
1285.609039,-9474.636058,-444.123565,2145.067394
1285.609359,-8586.388927,0.000000,2145.067394
1285.609680,-10214.842000,0.000000,1532.190996
1285.610001,-11029.068536,370.102971,1072.533697
1285.610321,-10881.027347,148.041188,229.828649
1285.610642,-10362.883188,148.041188,-1072.533697
1285.610963,-9474.636058,1036.288319,-2221.676944
1285.611283,-9548.656652,3256.906145,-1838.629195
1285.611604,-10584.944971,4071.132681,76.609550
1285.611925,-10214.842000,1776.494261,766.095498
1285.612245,-10288.862594,-222.061783,995.924147
1285.612566,-11325.150913,-1776.494261,1532.190996
1285.612887,-11325.150913,-3256.906145,2374.896044
1285.613208,-9474.636058,-4071.132681,2374.896044
1285.613529,-7994.224174,-3775.050304,1072.533697
1285.613849,-7920.203579,-2220.617826,995.924147
1285.614170,-8660.409521,-888.247130,995.924147
1285.614491,-7920.203579,0.000000,306.438199
1285.614812,-8734.430116,666.185348,0.000000
1285.615132,-9474.636058,1332.370696,-995.924147
1285.615453,-9548.656652,2146.597232,1762.019645
1285.615774,-10140.821405,0.000000,-536.266849
1285.616095,-9326.594869,2738.761985,-536.266849
1285.616416,-12361.439231,1850.514855,1302.362347
1285.616736,-11251.130318,1850.514855,2528.115143
1285.617057,-11473.192101,370.102971,2987.772442
1285.617378,-9844.739029,-888.247130,2757.943793
1285.617699,-9844.739029,-2146.597232,2911.162892
1285.618019,-9178.553681,-3182.885551,1838.629195
1285.618340,-7105.977043,-3849.070898,919.314598
1285.618661,-5699.585753,-2738.761985,-1225.752797
1285.618982,-6809.894666,-148.041188,383.047749
1285.619302,-8142.265362,-296.082377,2068.457845
1285.619623,-9104.533087,-962.267725,2604.724693
1285.619944,-10510.924376,-1628.453072,2451.505594
1285.620265,-11843.295072,-1258.350101,2528.115143
1285.620586,-12583.501014,74.020594,3600.648841
1285.620906,-11695.253884,148.041188,1915.238745
1285.621227,-9992.780217,1850.514855,383.047749
1285.621548,-9992.780217,2368.659014,-306.438199
1285.621869,-9030.512492,2294.638420,0.000000
1285.622189,-9104.533087,0.000000,-306.438199
1285.622510,-8808.450710,-740.205942,-306.438199
1285.622831,-9548.656652,-2072.576638,1149.143247
1285.623152,-9104.533087,-2664.741391,2451.505594
1285.623472,-9178.553681,-3775.050304,2757.943793
1285.623793,-9474.636058,-3256.906145,2757.943793
1285.624114,-9548.656652,-1554.432478,3217.601092
1285.624435,-9696.697840,-1110.308913,2451.505594
1285.624756,-8956.491898,518.144159,1225.752797
1285.625076,-9474.636058,1258.350101,0.000000
1285.625397,-8808.450710,2442.679609,-1302.362347
1285.625718,-9770.718434,2220.617826,-995.924147
1285.626039,-9326.594869,1776.494261,-1378.971896
1285.626359,-10288.862594,2072.576638,-612.876398
1285.626680,-12065.356855,1406.391290,1378.971896
1285.627001,-11325.150913,666.185348,2911.162892
1285.627322,-11251.130318,-1406.391290,2528.115143
1285.627642,-10436.903782,-1850.514855,1762.019645
1285.627963,-9770.718434,-1554.432478,2068.457845
1285.628284,-8956.491898,-2516.700203,1915.238745
1285.628605,-7402.059420,-2442.679609,919.314598
1285.628926,-7550.100608,-1998.556043,0.000000
1285.629246,-7846.182985,-1184.329507,306.438199
1285.629567,-8660.409521,-444.123565,0.000000
1285.629888,-8956.491898,74.020594,919.314598
1285.630209,-10066.800811,444.123565,1072.533697
1285.630529,-10436.903782,1184.329507,1225.752797
1285.630850,-10584.944971,1036.288319,2911.162892
1285.631171,-9918.759623,518.144159,0.000000
1285.631492,-10658.965565,1702.473667,612.876398
1285.631812,-11103.089130,1184.329507,1915.238745
1285.632133,-9474.636058,518.144159,1991.848295
1285.632454,-9696.697840,-2146.597232,1455.581446
1285.632775,-9548.656652,-2442.679609,2145.067394
1285.633096,-9622.677246,-3182.885551,2604.724693
1285.633416,-9104.533087,-3849.070898,2604.724693
1285.633737,-7846.182985,-3478.967927,1378.971896
1285.634058,-8586.388927,-1480.411884,689.485948
1285.634379,-8438.347739,-222.061783,229.828649
1285.634699,-8512.368333,0.000000,0.000000
1285.635020,-9178.553681,0.000000,919.314598
1285.635341,-10140.821405,888.247130,0.000000
1285.635662,-10658.965565,1776.494261,306.438199
1285.635982,-10140.821405,1776.494261,383.047749
1285.636303,-10584.944971,2590.720797,306.438199
1285.636624,-11621.233289,2738.761985,459.657299
1285.636945,-11029.068536,1776.494261,1455.581446
1285.637266,-10140.821405,-74.020594,1302.362347
1285.637586,-9770.718434,-2220.617826,76.609550
1285.637907,-9918.759623,-1924.535449,76.609550
1285.638228,-9770.718434,-2072.576638,1378.971896
1285.638549,-8660.409521,-2368.659014,1378.971896
1285.638869,-7994.224174,-2294.638420,383.047749
1285.639190,-8586.388927,-1850.514855,-306.438199
1285.639511,-9252.574275,-814.226536,1225.752797
1285.639832,-9104.533087,370.102971,1608.800546
1285.640153,-9474.636058,74.020594,919.314598
1285.640473,-9770.718434,814.226536,153.219100
1285.640794,-9548.656652,962.267725,76.609550
1285.641115,-9400.615463,888.247130,-689.485948
1285.641436,-10140.821405,2516.700203,-689.485948
1285.641756,-10436.903782,3256.906145,1149.143247
1285.642077,-11399.171507,888.247130,2145.067394
1285.642398,-9474.636058,-222.061783,2221.676944
1285.642719,-10066.800811,-1702.473667,2451.505594
1285.643039,-9992.780217,-3108.864956,2757.943793
1285.643360,-8956.491898,-3701.029710,3217.601092
1285.643681,-7994.224174,-3330.926739,1762.019645
1285.644002,-7254.018232,-1480.411884,459.657299
1285.644323,-8068.244768,-370.102971,1149.143247
1285.644643,-8068.244768,-74.020594,612.876398
1285.644964,-8660.409521,0.000000,536.266849
1285.645285,-9548.656652,370.102971,612.876398
1285.645606,-10732.986159,666.185348,1838.629195
1285.645926,-10807.006753,444.123565,2374.896044
1285.646247,-10140.821405,74.020594,1455.581446
1285.646568,-10288.862594,1332.370696,612.876398
1285.646889,-10955.047942,2368.659014,1685.410096
1285.647209,-10214.842000,814.226536,2068.457845
1285.647530,-10214.842000,-1036.288319,2145.067394
1285.647851,-9770.718434,-1924.535449,995.924147
1285.648172,-9770.718434,-2294.638420,842.705048
1285.648493,-9474.636058,-2664.741391,2221.676944
1285.648813,-8734.430116,-4071.132681,1149.143247
1285.649134,-7846.182985,-2442.679609,1072.533697
1285.649455,-9474.636058,-740.205942,766.095498
1285.649776,-9548.656652,0.000000,1532.190996
1285.650096,-9918.759623,518.144159,1608.800546
1285.650417,-9474.636058,74.020594,919.314598
1285.650738,-10066.800811,370.102971,-383.047749
1285.651059,-9844.739029,222.061783,-842.705048
1285.651379,-9474.636058,666.185348,-1378.971896
1285.651700,-10140.821405,3034.844362,-612.876398
1285.652021,-10881.027347,2368.659014,842.705048
1285.652342,-10510.924376,814.226536,2221.676944
1285.652663,-10214.842000,-1110.308913,1762.019645
1285.652983,-10288.862594,-2146.597232,1991.848295
1285.653304,-9548.656652,-2442.679609,2528.115143
1285.653625,-8216.285956,-2516.700203,2451.505594
1285.653946,-8068.244768,-1702.473667,1225.752797
1285.654266,-7994.224174,-370.102971,689.485948
1285.654587,-7994.224174,0.000000,919.314598
1285.654908,-8660.409521,-296.082377,766.095498
1285.655229,-9178.553681,0.000000,459.657299
1285.655549,-10658.965565,1184.329507,995.924147
1285.655870,-10807.006753,1480.411884,919.314598
1285.656191,-9474.636058,814.226536,612.876398
1285.656512,-9992.780217,148.041188,229.828649
1285.656833,-9770.718434,222.061783,459.657299
1285.657153,-10288.862594,0.000000,1149.143247
1285.657474,-9992.780217,-888.247130,1532.190996
1285.657795,-9326.594869,-1998.556043,842.705048
1285.658116,-9770.718434,-1702.473667,1455.581446
1285.658436,-10066.800811,-2220.617826,1838.629195
1285.658757,-8956.491898,-2516.700203,1685.410096
1285.659078,-8660.409521,-2812.782580,842.705048
1285.659399,-8660.409521,-1480.411884,383.047749
1285.659720,-9474.636058,-222.061783,536.266849
1285.660040,-9252.574275,1184.329507,612.876398
1285.660361,-9992.780217,2072.576638,383.047749
1285.660682,-10807.006753,2368.659014,536.266849
1285.661003,-9992.780217,1480.411884,0.000000
1285.661323,-10436.903782,0.000000,-383.047749
1285.661644,-9844.739029,814.226536,-459.657299
1285.661965,-11325.150913,666.185348,1532.190996
1285.662286,-10584.944971,666.185348,2528.115143
1285.662606,-10658.965565,-296.082377,2298.286494
1285.662927,-9844.739029,-888.247130,1915.238745
1285.663248,-9992.780217,-888.247130,1762.019645
1285.663569,-9104.533087,-888.247130,1838.629195
1285.663890,-8882.471304,-2368.659014,1762.019645
1285.664210,-6735.874072,-3034.844362,536.266849
1285.664531,-8142.265362,-1332.370696,-766.095498
1285.664852,-8438.347739,0.000000,459.657299
1285.665173,-9252.574275,666.185348,1302.362347
1285.665493,-10140.821405,888.247130,1991.848295
1285.665814,-11325.150913,370.102971,2528.115143
1285.666135,-10732.986159,0.000000,1685.410096
1285.666456,-10436.903782,-222.061783,1685.410096
1285.666776,-10140.821405,962.267725,1991.848295
1285.667097,-9992.780217,814.226536,2374.896044
1285.667418,-9252.574275,-222.061783,2145.067394
1285.667739,-8216.285956,-1480.411884,153.219100
1285.668060,-7846.182985,-1480.411884,229.828649
1285.668380,-9326.594869,-2812.782580,383.047749
1285.668701,-8216.285956,-2294.638420,1838.629195
1285.669022,-8438.347739,-2738.761985,1455.581446
1285.669343,-8364.327145,-2294.638420,919.314598
1285.669663,-9178.553681,-444.123565,1532.190996
1285.669984,-10140.821405,-888.247130,2145.067394
1285.670305,-9252.574275,-296.082377,1302.362347
1285.670626,-10214.842000,592.164754,153.219100
1285.670946,-10214.842000,1036.288319,153.219100
1285.671267,-8808.450710,444.123565,-842.705048
1285.671588,-9992.780217,888.247130,-766.095498
1285.671909,-10732.986159,2072.576638,-383.047749
1285.672230,-10881.027347,1850.514855,1225.752797
1285.672550,-10436.903782,-296.082377,2451.505594
1285.672871,-10140.821405,-1776.494261,1685.410096
1285.673192,-10584.944971,-2368.659014,1762.019645
1285.673513,-9992.780217,-2294.638420,2451.505594
1285.673833,-9474.636058,-2442.679609,1455.581446
1285.674154,-8068.244768,-1406.391290,766.095498
1285.674475,-8216.285956,-1036.288319,0.000000
1285.674796,-8660.409521,74.020594,0.000000
1285.675116,-9252.574275,222.061783,-229.828649
1285.675437,-8808.450710,814.226536,0.000000
1285.675758,-9474.636058,2886.803174,-153.219100
1285.676079,-11029.068536,2220.617826,229.828649
1285.676400,-10658.965565,1110.308913,229.828649
1285.676720,-9622.677246,2146.597232,0.000000
1285.677041,-10584.944971,1258.350101,0.000000
1285.677362,-9770.718434,2294.638420,1455.581446
1285.677683,-10881.027347,-740.205942,1915.238745
1285.678003,-9178.553681,-1924.535449,1762.019645
1285.678324,-9844.739029,-1258.350101,2068.457845
1285.678645,-9326.594869,-2886.803174,2987.772442
1285.678966,-8808.450710,-3701.029710,3140.991542
1285.679286,-8734.430116,-3330.926739,2451.505594
1285.679607,-8068.244768,-1554.432478,2068.457845
1285.679928,-8438.347739,-962.267725,1532.190996
1285.680249,-7846.182985,592.164754,1302.362347
1285.680570,-8808.450710,0.000000,0.000000
1285.680890,-8290.306550,1480.411884,766.095498
1285.681211,-10214.842000,814.226536,766.095498
1285.681532,-9474.636058,592.164754,229.828649
1285.681853,-9622.677246,740.205942,842.705048
1285.682173,-11769.274478,1110.308913,3064.381992
1285.682494,-11325.150913,1110.308913,3830.477490
1285.682815,-10584.944971,-1776.494261,3677.258390
1285.683136,-9696.697840,-1998.556043,2834.553343
1285.683457,-9326.594869,-2664.741391,2451.505594
1285.683777,-9918.759623,-3478.967927,2604.724693
1285.684098,-7698.141797,-3775.050304,1149.143247
1285.684419,-7105.977043,-2516.700203,-995.924147
1285.684740,-8068.244768,0.000000,-536.266849
1285.685060,-9400.615463,888.247130,-459.657299
1285.685381,-9474.636058,1332.370696,919.314598
1285.685702,-10955.047942,1184.329507,229.828649
1285.686023,-10807.006753,1850.514855,229.828649
1285.686343,-11325.150913,1406.391290,0.000000
1285.686664,-11325.150913,1702.473667,-383.047749
1285.686985,-11177.109724,2590.720797,-306.438199
1285.687306,-10436.903782,3182.885551,153.219100
1285.687627,-10732.986159,1406.391290,459.657299
1285.687947,-9252.574275,-1110.308913,459.657299
1285.688268,-9622.677246,-2664.741391,689.485948
1285.688589,-9918.759623,-3256.906145,1072.533697
1285.688910,-8808.450710,-3256.906145,1455.581446
1285.689230,-7846.182985,-3330.926739,306.438199
1285.689551,-8586.388927,-1332.370696,1072.533697
1285.689872,-8660.409521,-444.123565,1532.190996
1285.690193,-8734.430116,-518.144159,919.314598
1285.690513,-8956.491898,-148.041188,536.266849
1285.690834,-9548.656652,888.247130,-459.657299
1285.691155,-10362.883188,1702.473667,0.000000
1285.691476,-10140.821405,814.226536,229.828649
1285.691797,-9474.636058,1184.329507,-766.095498
1285.692117,-9992.780217,1406.391290,0.000000
1285.692438,-10955.047942,1332.370696,2221.676944
1285.692759,-10584.944971,148.041188,2987.772442
1285.693080,-9548.656652,-1776.494261,2987.772442
1285.693400,-9696.697840,-2368.659014,2757.943793
1285.693721,-7920.203579,-2590.720797,2604.724693
1285.694042,-7920.203579,-3997.112087,3140.991542
1285.694363,-6809.894666,-3997.112087,1991.848295
1285.694683,-8068.244768,-2368.659014,2604.724693
1285.695004,-8586.388927,-1480.411884,1302.362347
1285.695325,-7846.182985,962.267725,1225.752797
1285.695646,-10584.944971,888.247130,1991.848295
1285.695967,-10436.903782,1924.535449,1685.410096
1285.696287,-10807.006753,1406.391290,1149.143247
1285.696608,-10732.986159,296.082377,229.828649
1285.696929,-9992.780217,740.205942,0.000000
1285.697250,-11473.192101,1924.535449,919.314598
1285.697570,-11029.068536,1406.391290,2068.457845
1285.697891,-10362.883188,-296.082377,2221.676944
1285.698212,-10066.800811,-1406.391290,2298.286494
1285.698533,-10066.800811,-2664.741391,2374.896044
1285.698853,-9844.739029,-2960.823768,2528.115143
1285.699174,-8956.491898,-3775.050304,2221.676944
1285.699495,-8068.244768,-2368.659014,766.095498
1285.699816,-8142.265362,-592.164754,383.047749
1285.700137,-9104.533087,296.082377,842.705048
1285.700457,-9178.553681,222.061783,612.876398
1285.700778,-9474.636058,444.123565,-459.657299
1285.701099,-10362.883188,666.185348,-766.095498
1285.701420,-10584.944971,1406.391290,-459.657299
1285.701740,-9992.780217,1628.453072,-766.095498
1285.702061,-10510.924376,2146.597232,-383.047749
1285.702382,-11251.130318,2812.782580,842.705048
1285.702703,-10436.903782,1258.350101,1149.143247
1285.703023,-9770.718434,-296.082377,1378.971896
1285.703344,-9844.739029,-1628.453072,995.924147
1285.703665,-9400.615463,-1998.556043,1762.019645
1285.703986,-8586.388927,-2590.720797,1915.238745
1285.704307,-7254.018232,-2886.803174,766.095498
1285.704627,-7550.100608,-2146.597232,842.705048
1285.704948,-8068.244768,-962.267725,1532.190996
1285.705269,-8734.430116,-888.247130,995.924147
1285.705590,-8290.306550,0.000000,766.095498
1285.705910,-9030.512492,814.226536,0.000000
1285.706231,-9992.780217,1480.411884,612.876398
1285.706552,-10214.842000,1184.329507,0.000000
1285.706873,-10066.800811,1036.288319,0.000000
1285.707194,-10066.800811,1258.350101,-612.876398
1285.707514,-10807.006753,1776.494261,1455.581446
1285.707835,-10807.006753,370.102971,3370.820191
1285.708156,-9992.780217,-2072.576638,2451.505594
1285.708477,-9548.656652,-3552.988522,2145.067394
1285.708797,-8956.491898,-4145.153275,2451.505594
1285.709118,-8660.409521,-4293.194464,2298.286494
1285.709439,-8216.285956,-3701.029710,2221.676944
1285.709760,-8216.285956,-1998.556043,1532.190996
1285.710080,-8734.430116,-666.185348,2298.286494
1285.710401,-8734.430116,0.000000,1225.752797
1285.710722,-10362.883188,444.123565,1149.143247
1285.711043,-11029.068536,1998.556043,842.705048
1285.711364,-11917.315666,2590.720797,229.828649
1285.711685,-10732.986159,1554.432478,0.000000
1285.712005,-10955.047942,1332.370696,-1072.533697
1285.712326,-10881.027347,1924.535449,-153.219100
1285.712647,-11547.212695,2072.576638,842.705048
1285.712968,-10881.027347,814.226536,1532.190996
1285.713288,-10066.800811,-814.226536,1225.752797
1285.713609,-9622.677246,-1628.453072,1072.533697
1285.713930,-10140.821405,-2516.700203,1915.238745
1285.714251,-8808.450710,-3330.926739,1608.800546
1285.714572,-7698.141797,-3256.906145,1072.533697
1285.714892,-8364.327145,-1406.391290,842.705048
1285.715213,-8808.450710,-148.041188,995.924147
1285.715534,-8438.347739,518.144159,1149.143247
1285.715855,-8586.388927,666.185348,-766.095498
1285.716175,-9622.677246,-962.267725,-306.438199
1285.716496,-6143.709319,3034.844362,0.000000
1285.716817,-13175.665768,0.000000,-1532.190996
1285.717138,-9400.615463,1702.473667,-995.924147
1285.717458,-11103.089130,1554.432478,-153.219100
1285.717779,-11177.109724,2220.617826,1532.190996
1285.718100,-10436.903782,222.061783,3217.601092
1285.718421,-11103.089130,-1850.514855,3753.867940
1285.718741,-9104.533087,-3775.050304,3064.381992
1285.719062,-8808.450710,-4885.359217,2145.067394
1285.719383,-6809.894666,-4885.359217,1455.581446
1285.719704,-6957.935855,-1924.535449,689.485948
1285.720024,-9030.512492,-1036.288319,2451.505594
1285.720345,-7254.018232,-888.247130,1991.848295
1285.720666,-7846.182985,-962.267725,153.219100
1285.720987,-9104.533087,740.205942,76.609550
1285.721307,-9918.759623,1776.494261,153.219100
1285.721628,-11399.171507,3108.864956,1455.581446
1285.721949,-10955.047942,2368.659014,919.314598
1285.722270,-10955.047942,2812.782580,612.876398
1285.722590,-13471.748144,2738.761985,2451.505594
1285.722911,-11843.295072,1554.432478,3370.820191
1285.723232,-12287.418637,-1628.453072,3600.648841
1285.723553,-10214.842000,-2146.597232,2528.115143
1285.723873,-9622.677246,-1998.556043,1838.629195
1285.724194,-8216.285956,-2072.576638,1685.410096
1285.724515,-7772.162391,-2738.761985,689.485948
1285.724836,-7031.956449,-1924.535449,153.219100
1285.725156,-7994.224174,-962.267725,383.047749
1285.725477,-8142.265362,-1110.308913,-383.047749
1285.725798,-9474.636058,0.000000,995.924147
1285.726119,-10584.944971,518.144159,1302.362347
1285.726439,-10955.047942,1258.350101,1149.143247
1285.726760,-11547.212695,1480.411884,-995.924147
1285.727081,-10140.821405,1258.350101,-383.047749
1285.727402,-11399.171507,1850.514855,76.609550
1285.727722,-11621.233289,2072.576638,919.314598
1285.728043,-10510.924376,888.247130,1302.362347
1285.728364,-9548.656652,-666.185348,1225.752797
1285.728685,-9548.656652,-1110.308913,1455.581446
1285.729005,-9326.594869,-2146.597232,2298.286494
1285.729326,-8734.430116,-3627.009116,2528.115143
1285.729647,-7328.038826,-4145.153275,2298.286494
1285.729968,-7105.977043,-3182.885551,383.047749
1285.730288,-7920.203579,-1332.370696,459.657299
1285.730609,-7920.203579,-222.061783,459.657299
1285.730930,-9030.512492,1036.288319,536.266849
1285.731251,-9548.656652,1776.494261,536.266849
1285.731571,-10066.800811,1110.308913,0.000000
1285.731892,-9918.759623,888.247130,-766.095498
1285.732213,-9696.697840,0.000000,-1685.410096
1285.732534,-10140.821405,2368.659014,-1532.190996
1285.732854,-10362.883188,2664.741391,-459.657299
1285.733175,-10214.842000,2072.576638,995.924147
1285.733496,-9918.759623,0.000000,1532.190996
