#time,accel_x,accel_y,accel_z
1184.743306,-9030.512492,-3701.029710,3447.429741
1184.743627,-8808.450710,-3182.885551,3907.087040
1184.743948,-8956.491898,-2220.617826,2834.553343
1184.744269,-9400.615463,-1258.350101,1685.410096
1184.744590,-9400.615463,-296.082377,1149.143247
1184.744911,-9770.718434,444.123565,536.266849
1184.745232,-9770.718434,1258.350101,689.485948
1184.745553,-10436.903782,888.247130,536.266849
1184.745873,-10140.821405,1036.288319,1302.362347
1184.746194,-10584.944971,-148.041188,1302.362347
1184.746515,-10066.800811,-666.185348,1302.362347
1184.746836,-10362.883188,-1184.329507,1915.238745
1184.747157,-9548.656652,-1850.514855,1762.019645
1184.747478,-9400.615463,-2146.597232,1915.238745
1184.747799,-9178.553681,-1406.391290,1225.752797
1184.748120,-8512.368333,-2146.597232,1378.971896
1184.748441,-8660.409521,-2368.659014,1378.971896
1184.748762,-8586.388927,-2072.576638,1685.410096
1184.749083,-8660.409521,-1776.494261,3907.087040
1184.749404,-9474.636058,-1110.308913,2528.115143
1184.749725,-9474.636058,-592.164754,3294.210641
1184.750046,-9844.739029,-1036.288319,3447.429741
1184.750367,-10288.862594,-1480.411884,3753.867940
1184.750688,-9548.656652,-2146.597232,4213.525239
1184.751008,-9770.718434,-2664.741391,4136.915689
1184.751329,-9400.615463,-3404.947333,4443.353888
1184.751650,-9104.533087,-3627.009116,4673.182538
1184.751971,-8956.491898,-3849.070898,5592.497135
1184.752292,-9030.512492,-4441.235652,5056.230287
1184.752613,-8734.430116,-4589.276840,5669.106685
1184.752934,-8956.491898,-5107.421000,5592.497135
1184.753255,-9252.574275,-4663.297435,5439.278036
1184.753576,-9252.574275,-4515.256246,5669.106685
1184.753897,-9104.533087,-4145.153275,5209.449386
1184.754218,-9252.574275,-3256.906145,4749.792088
1184.754539,-9474.636058,-2664.741391,4596.572988
1184.754860,-9474.636058,-2368.659014,4826.401637
1184.755181,-10288.862594,-2294.638420,4749.792088
1184.755502,-9696.697840,-2294.638420,4596.572988
1184.755822,-10510.924376,-2664.741391,4749.792088
1184.756143,-9770.718434,-3182.885551,5362.668486
1184.756464,-9918.759623,-3627.009116,4903.011187
1184.756785,-9622.677246,-4071.132681,4673.182538
1184.757106,-9474.636058,-4737.318029,4443.353888
1184.757427,-8956.491898,-5477.523971,4366.744339
1184.757748,-9326.594869,-5699.585753,3907.087040
1184.758069,-8956.491898,-5847.626942,3447.429741
1184.758390,-8956.491898,-5033.400406,2451.505594
1184.758711,-9178.553681,-3997.112087,2068.457845
1184.759032,-9474.636058,-2812.782580,2221.676944
1184.759353,-9622.677246,-1998.556043,1762.019645
1184.759674,-9918.759623,-1332.370696,1225.752797
1184.759995,-10214.842000,-888.247130,995.924147
1184.760316,-10362.883188,-444.123565,306.438199
1184.760637,-10510.924376,-814.226536,1149.143247
1184.760957,-10362.883188,-1406.391290,1685.410096
1184.761278,-10140.821405,-2516.700203,1225.752797
1184.761599,-9474.636058,-2960.823768,995.924147
1184.761920,-9104.533087,-3997.112087,-306.438199
1184.762241,-8734.430116,-3256.906145,-612.876398
1184.762562,-8808.450710,-2368.659014,-1072.533697
1184.762883,-9030.512492,-592.164754,-995.924147
1184.763204,-9400.615463,222.061783,-1302.362347
1184.763525,-9474.636058,1110.308913,-1225.752797
1184.763846,-9992.780217,1332.370696,-612.876398
1184.764167,-10362.883188,1406.391290,383.047749
1184.764488,-10066.800811,814.226536,229.828649
1184.764809,-10288.862594,518.144159,1455.581446
1184.765130,-10214.842000,-370.102971,1225.752797
1184.765451,-9474.636058,-814.226536,1378.971896
1184.765771,-9326.594869,-1406.391290,0.000000
1184.766092,-9252.574275,-740.205942,1991.848295
1184.766413,-8882.471304,0.000000,1915.238745
1184.766734,-9178.553681,-222.061783,1455.581446
1184.767055,-8734.430116,0.000000,1225.752797
1184.767376,-8734.430116,0.000000,1072.533697
1184.767697,-9252.574275,296.082377,612.876398
1184.768018,-9178.553681,1036.288319,306.438199
1184.768339,-9918.759623,2368.659014,383.047749
1184.768660,-11103.089130,4071.132681,76.609550
1184.768981,-10732.986159,4737.318029,919.314598
1184.769302,-10955.047942,5033.400406,1225.752797
1184.769623,-10658.965565,5181.441594,2145.067394
1184.769944,-10658.965565,3627.009116,2528.115143
1184.770265,-10140.821405,1776.494261,3140.991542
1184.770586,-9918.759623,-740.205942,3217.601092
1184.770907,-9326.594869,-1924.535449,2987.772442
1184.771228,-9030.512492,-2960.823768,2604.724693
1184.771549,-8438.347739,-2072.576638,2528.115143
1184.771870,-8586.388927,-1480.411884,2374.896044
1184.772191,-8586.388927,-296.082377,2374.896044
1184.772512,-9030.512492,296.082377,1991.848295
1184.772833,-9622.677246,740.205942,1991.848295
1184.773153,-9770.718434,740.205942,1532.190996
1184.773474,-9992.780217,740.205942,1532.190996
1184.773795,-9918.759623,814.226536,919.314598
1184.774116,-10066.800811,1184.329507,229.828649
1184.774437,-9696.697840,1480.411884,0.000000
1184.774758,-9696.697840,1554.432478,-459.657299
1184.775079,-9696.697840,1406.391290,-306.438199
1184.775400,-9622.677246,962.267725,-306.438199
1184.775721,-9474.636058,0.000000,306.438199
1184.776042,-9696.697840,-962.267725,919.314598
1184.776363,-9992.780217,-2590.720797,2068.457845
1184.776684,-9474.636058,-3997.112087,2374.896044
1184.777005,-8734.430116,-5181.441594,1915.238745
1184.777326,-9104.533087,-4885.359217,1915.238745
1184.777647,-8660.409521,-3627.009116,1225.752797
1184.777968,-8956.491898,-2368.659014,919.314598
1184.778289,-8512.368333,-1480.411884,-306.438199
1184.778610,-9400.615463,0.000000,-229.828649
1184.778931,-9548.656652,148.041188,-612.876398
1184.779252,-9696.697840,148.041188,-1072.533697
1184.779573,-10732.986159,-370.102971,-689.485948
1184.779894,-10510.924376,-370.102971,-995.924147
1184.780215,-10658.965565,0.000000,-459.657299
1184.780536,-10214.842000,-222.061783,-612.876398
1184.780857,-10214.842000,296.082377,-612.876398
1184.781177,-9178.553681,-370.102971,536.266849
1184.781498,-9696.697840,-592.164754,1072.533697
1184.781819,-9844.739029,-1258.350101,1838.629195
1184.782140,-9622.677246,-2516.700203,2221.676944
1184.782461,-9474.636058,-3849.070898,1991.848295
1184.782782,-9326.594869,-4293.194464,3140.991542
1184.783103,-9252.574275,-4145.153275,2681.334243
1184.783424,-8882.471304,-2664.741391,2451.505594
1184.783745,-9178.553681,-592.164754,2068.457845
1184.784066,-9474.636058,1480.411884,2068.457845
1184.784387,-9326.594869,2368.659014,1608.800546
1184.784708,-9770.718434,1998.556043,1149.143247
1184.785029,-9992.780217,1776.494261,612.876398
1184.785350,-9844.739029,1036.288319,919.314598
1184.785671,-9770.718434,148.041188,1072.533697
1184.785992,-10066.800811,-148.041188,995.924147
1184.786313,-9770.718434,-74.020594,1072.533697
1184.786634,-9252.574275,148.041188,1532.190996
1184.786955,-9252.574275,444.123565,842.705048
1184.787276,-9400.615463,592.164754,1149.143247
1184.787597,-9400.615463,814.226536,1378.971896
1184.787918,-9770.718434,666.185348,2145.067394
1184.788239,-9474.636058,0.000000,2374.896044
1184.788560,-9252.574275,-1702.473667,2374.896044
1184.788880,-9326.594869,-2442.679609,2068.457845
1184.789201,-9030.512492,-2220.617826,1838.629195
1184.789522,-9030.512492,-1036.288319,1608.800546
1184.789843,-9030.512492,518.144159,1838.629195
1184.790164,-9030.512492,1036.288319,1455.581446
1184.790485,-9400.615463,1480.411884,842.705048
1184.790806,-9326.594869,1850.514855,0.000000
1184.791127,-9400.615463,1332.370696,-229.828649
1184.791448,-9474.636058,814.226536,-229.828649
1184.791769,-9252.574275,1110.308913,-919.314598
1184.792090,-9474.636058,1036.288319,-995.924147
1184.792411,-9918.759623,1554.432478,-383.047749
1184.792732,-9992.780217,2072.576638,-306.438199
1184.793053,-10140.821405,1924.535449,306.438199
1184.793374,-10658.965565,1998.556043,1225.752797
1184.793695,-10807.006753,1184.329507,1532.190996
1184.794016,-10881.027347,148.041188,2298.286494
1184.794337,-10436.903782,-1258.350101,2451.505594
1184.794658,-9696.697840,-2146.597232,1762.019645
1184.794979,-9474.636058,-2072.576638,2145.067394
1184.795300,-9252.574275,-1998.556043,766.095498
1184.795621,-8882.471304,-888.247130,536.266849
1184.795942,-8882.471304,74.020594,383.047749
1184.796263,-8882.471304,814.226536,0.000000
1184.796583,-9474.636058,444.123565,-306.438199
1184.796904,-9622.677246,148.041188,-383.047749
1184.797225,-9992.780217,0.000000,306.438199
1184.797546,-10436.903782,0.000000,766.095498
1184.797867,-9770.718434,-592.164754,536.266849
1184.798188,-9992.780217,-222.061783,153.219100
1184.798509,-9548.656652,518.144159,459.657299
1184.798830,-9548.656652,666.185348,383.047749
1184.799151,-9844.739029,592.164754,689.485948
1184.799472,-9252.574275,-370.102971,842.705048
1184.799793,-9474.636058,-1184.329507,2068.457845
1184.800114,-9326.594869,-2220.617826,2451.505594
1184.800435,-9252.574275,-3404.947333,2451.505594
1184.800756,-9104.533087,-3997.112087,2604.724693
1184.801077,-8512.368333,-3552.988522,2374.896044
1184.801398,-9030.512492,-2738.761985,2068.457845
1184.801719,-8956.491898,-1776.494261,2298.286494
1184.802040,-9104.533087,-1036.288319,2451.505594
1184.802361,-9252.574275,-962.267725,1302.362347
1184.802682,-9548.656652,-370.102971,1149.143247
1184.803003,-9548.656652,-444.123565,919.314598
1184.803324,-9844.739029,-370.102971,1378.971896
1184.803645,-9622.677246,-592.164754,536.266849
1184.803966,-10066.800811,-370.102971,306.438199
1184.804287,-9918.759623,-296.082377,459.657299
1184.804607,-9770.718434,296.082377,689.485948
1184.804928,-10436.903782,740.205942,1225.752797
1184.805249,-10288.862594,296.082377,1838.629195
1184.805570,-10140.821405,-222.061783,2298.286494
1184.805891,-10140.821405,-1480.411884,2757.943793
1184.806212,-9400.615463,-2738.761985,2681.334243
1184.806533,-9474.636058,-3627.009116,1762.019645
1184.806854,-9178.553681,-3330.926739,1685.410096
1184.807175,-9252.574275,-1998.556043,1378.971896
1184.807496,-9400.615463,-444.123565,229.828649
1184.807817,-9178.553681,1110.308913,612.876398
1184.808138,-9400.615463,888.247130,306.438199
1184.808459,-9474.636058,518.144159,0.000000
1184.808780,-9770.718434,444.123565,229.828649
1184.809101,-10066.800811,0.000000,229.828649
1184.809422,-10140.821405,-296.082377,153.219100
1184.809743,-9844.739029,-666.185348,0.000000
1184.810064,-9548.656652,0.000000,-229.828649
1184.810385,-9474.636058,592.164754,229.828649
1184.810706,-9622.677246,1036.288319,-229.828649
1184.811027,-9770.718434,1332.370696,153.219100
1184.811348,-9918.759623,1036.288319,919.314598
1184.811669,-10066.800811,0.000000,1838.629195
1184.811990,-9770.718434,-962.267725,2451.505594
1184.812310,-9622.677246,-2146.597232,2528.115143
1184.812631,-9548.656652,-2960.823768,2451.505594
1184.812952,-9178.553681,-2368.659014,2068.457845
1184.813273,-9030.512492,-1702.473667,1991.848295
1184.813594,-9252.574275,0.000000,1838.629195
1184.813915,-9178.553681,814.226536,1225.752797
1184.814236,-9104.533087,1110.308913,1072.533697
1184.814557,-9178.553681,592.164754,306.438199
1184.814878,-9474.636058,888.247130,153.219100
1184.815199,-9770.718434,592.164754,0.000000
1184.815520,-9992.780217,888.247130,306.438199
1184.815841,-9178.553681,1036.288319,229.828649
1184.816162,-9992.780217,888.247130,229.828649
1184.816483,-9844.739029,1184.329507,229.828649
1184.816804,-10066.800811,1332.370696,919.314598
1184.817125,-10214.842000,1036.288319,1532.190996
1184.817446,-10140.821405,0.000000,2145.067394
1184.817767,-10066.800811,-1332.370696,2528.115143
1184.818088,-9844.739029,-2516.700203,2221.676944
1184.818409,-9400.615463,-3256.906145,1838.629195
1184.818730,-8660.409521,-2812.782580,1378.971896
1184.819051,-9030.512492,-1406.391290,1302.362347
1184.819372,-8882.471304,148.041188,919.314598
1184.819693,-9326.594869,1702.473667,536.266849
1184.820014,-8882.471304,666.185348,229.828649
1184.820334,-9474.636058,1036.288319,0.000000
1184.820655,-9770.718434,296.082377,0.000000
1184.820976,-10214.842000,0.000000,0.000000
1184.821297,-10066.800811,74.020594,1532.190996
1184.821618,-9844.739029,-444.123565,229.828649
1184.821939,-9548.656652,74.020594,-76.609550
1184.822260,-9548.656652,518.144159,229.828649
1184.822581,-9770.718434,962.267725,995.924147
1184.822902,-9622.677246,888.247130,1225.752797
1184.823223,-9696.697840,222.061783,1532.190996
1184.823544,-9696.697840,-814.226536,1991.848295
1184.823865,-9770.718434,-1776.494261,2298.286494
1184.824186,-9400.615463,-3034.844362,3753.867940
1184.824507,-9104.533087,-3627.009116,2145.067394
1184.824828,-9030.512492,-2442.679609,1915.238745
1184.825149,-9178.553681,-1258.350101,1762.019645
1184.825470,-9104.533087,148.041188,4443.353888
1184.825791,-9104.533087,888.247130,1225.752797
1184.826112,-9178.553681,814.226536,766.095498
1184.826433,-9474.636058,666.185348,383.047749
1184.826754,-9696.697840,296.082377,229.828649
1184.827075,-9548.656652,-444.123565,383.047749
1184.827396,-9622.677246,-740.205942,459.657299
1184.827717,-9622.677246,-444.123565,0.000000
1184.828037,-9992.780217,296.082377,76.609550
1184.828358,-10362.883188,1110.308913,459.657299
1184.828679,-10140.821405,962.267725,1149.143247
1184.829000,-10288.862594,148.041188,1455.581446
1184.829321,-9622.677246,-814.226536,1608.800546
1184.829642,-9992.780217,-2516.700203,1532.190996
1184.829963,-9696.697840,-2960.823768,2451.505594
1184.830284,-9178.553681,-3627.009116,2145.067394
1184.830605,-9326.594869,-2516.700203,2068.457845
1184.830926,-8956.491898,-1406.391290,1762.019645
1184.831247,-9178.553681,0.000000,1838.629195
1184.831568,-9400.615463,888.247130,1455.581446
1184.831889,-9474.636058,962.267725,919.314598
1184.832210,-9548.656652,814.226536,153.219100
1184.832531,-9770.718434,370.102971,689.485948
1184.832852,-9622.677246,0.000000,0.000000
1184.833173,-9696.697840,0.000000,-153.219100
1184.833494,-9696.697840,518.144159,0.000000
1184.833815,-9622.677246,1036.288319,-229.828649
1184.834136,-9992.780217,1184.329507,766.095498
1184.834457,-10214.842000,1110.308913,1455.581446
1184.834778,-9918.759623,1258.350101,1608.800546
1184.835099,-10288.862594,666.185348,1762.019645
1184.835420,-9770.718434,0.000000,2757.943793
1184.835740,-9622.677246,-1332.370696,2834.553343
1184.836061,-9400.615463,-2738.761985,2528.115143
1184.836382,-9030.512492,-2960.823768,2068.457845
1184.836703,-9400.615463,-2368.659014,1915.238745
1184.837024,-9474.636058,-1184.329507,1762.019645
1184.837345,-8956.491898,148.041188,1532.190996
1184.837666,-9400.615463,888.247130,995.924147
1184.837987,-9178.553681,1036.288319,995.924147
1184.838308,-9696.697840,814.226536,612.876398
1184.838629,-10288.862594,0.000000,766.095498
1184.838950,-9918.759623,0.000000,383.047749
1184.839271,-10066.800811,0.000000,536.266849
1184.839592,-9696.697840,296.082377,383.047749
1184.839913,-9696.697840,1036.288319,536.266849
1184.840234,-9844.739029,1184.329507,1149.143247
1184.840555,-10066.800811,888.247130,1225.752797
1184.840876,-10214.842000,0.000000,1378.971896
1184.841197,-9992.780217,-1110.308913,1915.238745
1184.841518,-9770.718434,-2072.576638,2451.505594
1184.841839,-9622.677246,-2812.782580,2604.724693
1184.842160,-9252.574275,-3330.926739,2145.067394
1184.842481,-8882.471304,-2220.617826,1302.362347
1184.842802,-9178.553681,-666.185348,842.705048
1184.843123,-9178.553681,444.123565,612.876398
1184.843444,-9030.512492,1554.432478,459.657299
1184.843764,-9400.615463,1406.391290,0.000000
1184.844085,-9548.656652,1184.329507,-536.266849
1184.844406,-10066.800811,444.123565,-306.438199
1184.844727,-10066.800811,0.000000,0.000000
1184.845048,-9918.759623,-296.082377,-766.095498
1184.845369,-10362.883188,0.000000,0.000000
1184.845690,-9548.656652,740.205942,459.657299
1184.846011,-10140.821405,592.164754,612.876398
1184.846332,-9252.574275,814.226536,1455.581446
1184.846653,-9770.718434,518.144159,1302.362347
1184.846974,-9696.697840,-888.247130,1838.629195
1184.847295,-9474.636058,-1776.494261,1838.629195
1184.847616,-9548.656652,-3034.844362,2681.334243
1184.847937,-9104.533087,-3627.009116,2145.067394
1184.848258,-9104.533087,-3108.864956,2298.286494
1184.848579,-9252.574275,-2294.638420,2145.067394
1184.848900,-8956.491898,-888.247130,1685.410096
1184.849221,-8956.491898,74.020594,842.705048
1184.849542,-9104.533087,1036.288319,842.705048
1184.849863,-9252.574275,814.226536,383.047749
1184.850184,-9474.636058,518.144159,-153.219100
1184.850505,-9622.677246,1036.288319,0.000000
1184.850826,-9696.697840,0.000000,0.000000
1184.851147,-9770.718434,74.020594,229.828649
1184.851467,-10214.842000,592.164754,536.266849
1184.851788,-9992.780217,1110.308913,1072.533697
1184.852109,-10066.800811,888.247130,1532.190996
1184.852430,-9992.780217,666.185348,2374.896044
1184.852751,-10214.842000,-370.102971,2681.334243
1184.853072,-9918.759623,-1332.370696,2681.334243
1184.853393,-9622.677246,-2368.659014,2911.162892
1184.853714,-9326.594869,-2886.803174,2528.115143
1184.854035,-9178.553681,-2886.803174,1991.848295
1184.854356,-8808.450710,-2072.576638,1685.410096
1184.854677,-9622.677246,-370.102971,842.705048
1184.854998,-9474.636058,666.185348,1302.362347
1184.855319,-9474.636058,1036.288319,689.485948
1184.855640,-9622.677246,740.205942,612.876398
1184.855961,-9770.718434,222.061783,536.266849
1184.856282,-9770.718434,0.000000,306.438199
1184.856603,-9992.780217,-518.144159,153.219100
1184.856924,-9696.697840,-370.102971,0.000000
1184.857245,-9770.718434,74.020594,0.000000
1184.857566,-9696.697840,518.144159,383.047749
1184.857887,-9918.759623,814.226536,153.219100
1184.858208,-9918.759623,888.247130,459.657299
1184.858529,-10066.800811,740.205942,1149.143247
1184.858850,-10140.821405,-148.041188,1532.190996
1184.859171,-9770.718434,-1110.308913,2145.067394
1184.859491,-9622.677246,-2220.617826,2221.676944
1184.859812,-9104.533087,-2812.782580,1532.190996
1184.860133,-9030.512492,-2146.597232,1685.410096
1184.860454,-9548.656652,-1036.288319,1685.410096
1184.860775,-9252.574275,-296.082377,1455.581446
1184.861096,-9326.594869,370.102971,1149.143247
1184.861417,-9252.574275,296.082377,153.219100
1184.861738,-9474.636058,148.041188,-536.266849
1184.862059,-9770.718434,0.000000,0.000000
1184.862380,-9622.677246,-222.061783,76.609550
1184.862701,-9770.718434,0.000000,0.000000
1184.863022,-9844.739029,0.000000,229.828649
1184.863343,-9622.677246,592.164754,0.000000
1184.863664,-9918.759623,1480.411884,306.438199
1184.863985,-9844.739029,1258.350101,1072.533697
1184.864306,-10214.842000,814.226536,919.314598
1184.864627,-9844.739029,-148.041188,1915.238745
1184.864948,-9844.739029,-1702.473667,2145.067394
1184.865269,-9474.636058,-2738.761985,2451.505594
1184.865590,-9178.553681,-3701.029710,1991.848295
1184.865911,-8882.471304,-3404.947333,1378.971896
1184.866232,-8660.409521,-1924.535449,1225.752797
1184.866552,-9252.574275,-666.185348,1149.143247
1184.866873,-9252.574275,666.185348,1532.190996
1184.867194,-10066.800811,518.144159,2451.505594
1184.867515,-9622.677246,814.226536,459.657299
1184.867836,-9770.718434,222.061783,229.828649
1184.868157,-9622.677246,74.020594,383.047749
1184.868478,-9992.780217,-222.061783,153.219100
1184.868799,-9622.677246,-222.061783,76.609550
1184.869119,-9548.656652,518.144159,-459.657299
1184.869440,-9622.677246,740.205942,0.000000
1184.869761,-9770.718434,1850.514855,842.705048
1184.870082,-10214.842000,1258.350101,1302.362347
1184.870403,-9844.739029,740.205942,1608.800546
1184.870724,-10140.821405,-592.164754,2298.286494
1184.871045,-9696.697840,-2146.597232,2681.334243
1184.871366,-8438.347739,-3923.091493,2681.334243
1184.871687,-9252.574275,-3552.988522,2528.115143
1184.872007,-8956.491898,-2886.803174,1991.848295
1184.872328,-8808.450710,-1776.494261,1685.410096
1184.872649,-8956.491898,-296.082377,1532.190996
1184.872970,-9104.533087,592.164754,1149.143247
1184.873291,-9326.594869,962.267725,612.876398
1184.873612,-9400.615463,740.205942,76.609550
1184.873933,-9770.718434,518.144159,0.000000
1184.874254,-9918.759623,296.082377,0.000000
1184.874574,-9918.759623,444.123565,306.438199
1184.874895,-10214.842000,962.267725,229.828649
1184.875216,-10140.821405,1406.391290,383.047749
1184.875537,-10140.821405,1480.411884,0.000000
1184.875858,-10288.862594,1110.308913,1225.752797
1184.876179,-10436.903782,444.123565,1685.410096
1184.876500,-10436.903782,-814.226536,1915.238745
1184.876821,-9844.739029,-2146.597232,2145.067394
1184.877142,-9474.636058,-3552.988522,2145.067394
1184.877462,-9030.512492,-3849.070898,1455.581446
1184.877783,-9030.512492,-2442.679609,689.485948
1184.878104,-9104.533087,-1332.370696,612.876398
1184.878425,-9104.533087,-370.102971,536.266849
1184.878746,-9252.574275,518.144159,536.266849
1184.879067,-9400.615463,666.185348,0.000000
1184.879388,-9770.718434,814.226536,0.000000
1184.879709,-9918.759623,444.123565,0.000000
1184.880029,-9770.718434,-222.061783,-229.828649
1184.880350,-9770.718434,-370.102971,-612.876398
1184.880671,-9548.656652,222.061783,-536.266849
1184.880992,-9770.718434,592.164754,-153.219100
1184.881313,-9474.636058,1184.329507,459.657299
1184.881634,-9474.636058,1332.370696,612.876398
1184.881955,-9770.718434,1110.308913,1455.581446
1184.882276,-10140.821405,444.123565,2451.505594
1184.882597,-9918.759623,-1036.288319,2681.334243
1184.882917,-9918.759623,-2368.659014,3600.648841
1184.883238,-9548.656652,-3256.906145,3753.867940
1184.883559,-9178.553681,-3182.885551,3370.820191
1184.883880,-8438.347739,-1332.370696,3907.087040
1184.884201,-9252.574275,-592.164754,2528.115143
1184.884522,-9252.574275,370.102971,1608.800546
1184.884843,-9104.533087,666.185348,1455.581446
1184.885164,-9252.574275,666.185348,1991.848295
1184.885484,-9252.574275,518.144159,229.828649
1184.885805,-9770.718434,74.020594,153.219100
1184.886126,-9622.677246,0.000000,153.219100
1184.886447,-10140.821405,74.020594,153.219100
1184.886768,-10066.800811,222.061783,306.438199
1184.887089,-9548.656652,740.205942,459.657299
1184.887410,-10066.800811,1036.288319,1225.752797
1184.887731,-10288.862594,740.205942,1762.019645
1184.888052,-9844.739029,370.102971,2068.457845
1184.888372,-9696.697840,-1332.370696,2221.676944
1184.888693,-9474.636058,-2590.720797,2528.115143
1184.889014,-9474.636058,-3330.926739,2374.896044
1184.889335,-9178.553681,-3330.926739,1608.800546
1184.889656,-8956.491898,-2220.617826,1608.800546
1184.889977,-9030.512492,-740.205942,1455.581446
1184.890298,-9474.636058,370.102971,1072.533697
1184.890619,-9178.553681,1406.391290,766.095498
1184.890939,-9474.636058,962.267725,459.657299
1184.891260,-9696.697840,888.247130,153.219100
1184.891581,-9696.697840,296.082377,0.000000
1184.891902,-9622.677246,-296.082377,-459.657299
1184.892223,-9622.677246,0.000000,76.609550
1184.892544,-9474.636058,222.061783,-919.314598
1184.892865,-9548.656652,592.164754,-383.047749
1184.893186,-9770.718434,740.205942,153.219100
1184.893507,-9696.697840,666.185348,383.047749
1184.893827,-10066.800811,296.082377,766.095498
1184.894148,-9992.780217,0.000000,1532.190996
1184.894469,-10066.800811,-1332.370696,2451.505594
1184.894790,-9770.718434,-2442.679609,2451.505594
1184.895111,-9696.697840,-3330.926739,2221.676944
1184.895432,-9178.553681,-3330.926739,2145.067394
1184.895753,-9178.553681,-1924.535449,2145.067394
1184.896074,-9326.594869,-370.102971,2068.457845
1184.896394,-9770.718434,1184.329507,1455.581446
1184.896715,-9178.553681,1332.370696,766.095498
1184.897036,-9400.615463,1332.370696,459.657299
1184.897357,-9622.677246,1184.329507,459.657299
1184.897678,-10140.821405,666.185348,536.266849
1184.897999,-10288.862594,592.164754,306.438199
1184.898320,-10066.800811,444.123565,459.657299
1184.898641,-9918.759623,592.164754,536.266849
1184.898961,-9918.759623,888.247130,842.705048
1184.899282,-10658.965565,1480.411884,1762.019645
1184.899603,-10510.924376,666.185348,2221.676944
1184.899924,-10066.800811,-296.082377,2681.334243
1184.900245,-9696.697840,-1776.494261,2681.334243
1184.900566,-9104.533087,-2442.679609,4443.353888
1184.900887,-9252.574275,-3849.070898,2987.772442
1184.901208,-8956.491898,-3775.050304,2528.115143
1184.901529,-8956.491898,-3182.885551,2221.676944
1184.901849,-9030.512492,-1480.411884,1762.019645
1184.902170,-8882.471304,0.000000,1532.190996
1184.902491,-9474.636058,296.082377,1225.752797
1184.902812,-9548.656652,962.267725,459.657299
1184.903133,-9474.636058,444.123565,0.000000
1184.903454,-9622.677246,592.164754,-383.047749
1184.903775,-9548.656652,148.041188,-689.485948
1184.904096,-9770.718434,0.000000,-536.266849
1184.904416,-9474.636058,370.102971,-229.828649
1184.904737,-9474.636058,740.205942,-1455.581446
1184.905058,-10066.800811,1258.350101,-306.438199
1184.905379,-10140.821405,1332.370696,766.095498
1184.905700,-10140.821405,888.247130,1225.752797
1184.906021,-10066.800811,0.000000,1608.800546
1184.906342,-9622.677246,-1110.308913,1838.629195
1184.906663,-9548.656652,-2220.617826,1915.238745
1184.906984,-9474.636058,-2812.782580,1608.800546
1184.907304,-9104.533087,-2442.679609,1608.800546
1184.907625,-8586.388927,-1702.473667,1455.581446
1184.907946,-9178.553681,-296.082377,766.095498
1184.908267,-9252.574275,222.061783,612.876398
1184.908588,-9326.594869,666.185348,306.438199
1184.908909,-9400.615463,666.185348,-842.705048
1184.909230,-9844.739029,592.164754,-153.219100
1184.909551,-9918.759623,0.000000,-306.438199
1184.909871,-10066.800811,0.000000,-153.219100
1184.910192,-9992.780217,0.000000,536.266849
1184.910513,-10214.842000,74.020594,306.438199
1184.910834,-9770.718434,666.185348,536.266849
1184.911155,-10066.800811,962.267725,1302.362347
1184.911476,-10140.821405,518.144159,2145.067394
1184.911797,-9474.636058,-666.185348,2298.286494
1184.912118,-9992.780217,-1776.494261,2681.334243
1184.912439,-9474.636058,-2738.761985,2681.334243
1184.912759,-8956.491898,-2886.803174,2451.505594
1184.913080,-9400.615463,-1924.535449,2528.115143
1184.913401,-8734.430116,-1332.370696,2145.067394
1184.913722,-9326.594869,0.000000,2374.896044
1184.914043,-9030.512492,444.123565,1378.971896
1184.914364,-9178.553681,962.267725,919.314598
1184.914685,-9770.718434,962.267725,689.485948
1184.915006,-9474.636058,962.267725,689.485948
1184.915326,-9770.718434,222.061783,229.828649
1184.915647,-9400.615463,0.000000,0.000000
1184.915968,-9474.636058,-592.164754,-459.657299
1184.916289,-9770.718434,666.185348,-153.219100
1184.916610,-9770.718434,1036.288319,459.657299
1184.916931,-9770.718434,740.205942,689.485948
1184.917252,-9178.553681,1036.288319,1685.410096
1184.917573,-10214.842000,444.123565,1685.410096
1184.917894,-9844.739029,-592.164754,2145.067394
1184.918214,-9844.739029,-1924.535449,2604.724693
1184.918535,-9770.718434,-3330.926739,2604.724693
1184.918856,-8956.491898,-3627.009116,1915.238745
1184.919177,-9178.553681,-2960.823768,1608.800546
1184.919498,-9400.615463,-1332.370696,1915.238745
1184.919819,-9326.594869,-370.102971,1532.190996
1184.920140,-8586.388927,1406.391290,153.219100
1184.920461,-9400.615463,814.226536,-459.657299
1184.920781,-9696.697840,1110.308913,-306.438199
1184.921102,-10140.821405,222.061783,153.219100
1184.921423,-9622.677246,148.041188,-689.485948
1184.921744,-10288.862594,74.020594,-383.047749
1184.922065,-9992.780217,74.020594,-459.657299
1184.922386,-9696.697840,1110.308913,76.609550
1184.922707,-10140.821405,888.247130,612.876398
1184.923028,-9770.718434,1406.391290,1072.533697
1184.923349,-10436.903782,370.102971,1915.238745
1184.923669,-9622.677246,-518.144159,2068.457845
1184.923990,-9770.718434,-2072.576638,2451.505594
1184.924311,-9770.718434,-3404.947333,1915.238745
1184.924632,-8956.491898,-3923.091493,1838.629195
1184.924953,-8734.430116,-3034.844362,1608.800546
1184.925274,-8808.450710,-1554.432478,1302.362347
1184.925595,-9178.553681,0.000000,1072.533697
1184.925916,-9252.574275,740.205942,1072.533697
1184.926236,-9474.636058,962.267725,689.485948
1184.926557,-9400.615463,814.226536,0.000000
1184.926878,-9474.636058,0.000000,-229.828649
1184.927199,-9992.780217,148.041188,0.000000
1184.927520,-9770.718434,-222.061783,0.000000
1184.927841,-9548.656652,148.041188,-459.657299
1184.928162,-9918.759623,814.226536,229.828649
1184.928483,-9622.677246,222.061783,306.438199
1184.928804,-9844.739029,814.226536,689.485948
1184.929124,-9770.718434,666.185348,1608.800546
1184.929445,-9918.759623,0.000000,1915.238745
1184.929766,-9474.636058,-1184.329507,2298.286494
1184.930087,-9178.553681,-2812.782580,2451.505594
1184.930408,-9252.574275,-3182.885551,2451.505594
1184.930729,-8882.471304,-2960.823768,2298.286494
1184.931050,-8734.430116,-1702.473667,1762.019645
1184.931371,-9104.533087,740.205942,1072.533697
1184.931691,-9104.533087,1110.308913,1302.362347
1184.932012,-9326.594869,1406.391290,919.314598
1184.932333,-9548.656652,740.205942,459.657299
1184.932654,-9696.697840,296.082377,0.000000
1184.932975,-10510.924376,-74.020594,229.828649
1184.933296,-9844.739029,-148.041188,76.609550
1184.933617,-10288.862594,0.000000,0.000000
1184.933938,-10066.800811,444.123565,76.609550
1184.934259,-9696.697840,1628.453072,0.000000
1184.934579,-9622.677246,1554.432478,536.266849
1184.934900,-10214.842000,1258.350101,1225.752797
1184.935221,-9992.780217,148.041188,1762.019645
1184.935542,-9918.759623,-1258.350101,2298.286494
1184.935863,-9474.636058,-2960.823768,2681.334243
1184.936184,-9548.656652,-3552.988522,2757.943793
1184.936505,-9400.615463,-3701.029710,2451.505594
1184.936826,-9178.553681,-2294.638420,2221.676944
1184.937146,-9104.533087,-740.205942,2221.676944
1184.937467,-9400.615463,0.000000,1685.410096
1184.937788,-9326.594869,666.185348,919.314598
1184.938109,-9474.636058,592.164754,536.266849
1184.938430,-9474.636058,666.185348,153.219100
1184.938751,-9548.656652,444.123565,76.609550
1184.939072,-9622.677246,-148.041188,-459.657299
1184.939393,-9622.677246,-296.082377,-459.657299
1184.939714,-9622.677246,0.000000,0.000000
1184.940034,-9178.553681,518.144159,-536.266849
1184.940355,-9992.780217,1184.329507,536.266849
1184.940676,-9992.780217,1184.329507,919.314598
1184.940997,-9918.759623,1036.288319,1225.752797
1184.941318,-9992.780217,148.041188,1685.410096
1184.941639,-9770.718434,-1406.391290,2145.067394
1184.941960,-9548.656652,-2516.700203,2451.505594
1184.942281,-9474.636058,-3108.864956,2068.457845
1184.942601,-9178.553681,-2368.659014,1838.629195
1184.942922,-9178.553681,-1702.473667,2221.676944
1184.943243,-9104.533087,-222.061783,1838.629195
1184.943564,-9326.594869,518.144159,1378.971896
1184.943885,-9326.594869,592.164754,766.095498
1184.944206,-9474.636058,444.123565,1072.533697
1184.944527,-9770.718434,518.144159,0.000000
1184.944848,-9770.718434,222.061783,0.000000
1184.945169,-9844.739029,518.144159,-306.438199
1184.945489,-9844.739029,888.247130,1685.410096
1184.945810,-9770.718434,518.144159,153.219100
1184.946131,-9918.759623,814.226536,76.609550
1184.946452,-10288.862594,740.205942,612.876398
1184.946773,-10140.821405,444.123565,1455.581446
1184.947094,-9992.780217,-296.082377,2145.067394
1184.947415,-9992.780217,-1480.411884,2757.943793
1184.947736,-9844.739029,-2368.659014,2911.162892
1184.948056,-9548.656652,-3256.906145,2834.553343
1184.948377,-9696.697840,-2590.720797,2145.067394
1184.948698,-8660.409521,-1702.473667,1685.410096
1184.949019,-9326.594869,-444.123565,1532.190996
1184.949340,-8808.450710,814.226536,1455.581446
1184.949661,-8660.409521,1850.514855,1225.752797
1184.949982,-9474.636058,1184.329507,306.438199
1184.950303,-9474.636058,814.226536,0.000000
1184.950623,-10066.800811,518.144159,153.219100
1184.950944,-9918.759623,0.000000,0.000000
1184.951265,-9770.718434,0.000000,0.000000
1184.951586,-9844.739029,222.061783,383.047749
1184.951907,-9770.718434,888.247130,766.095498
1184.952228,-10066.800811,1184.329507,1225.752797
1184.952549,-10066.800811,1110.308913,1072.533697
1184.952870,-9844.739029,370.102971,2145.067394
1184.953191,-9770.718434,-444.123565,2451.505594
1184.953511,-9548.656652,-1480.411884,2681.334243
1184.953832,-9622.677246,-2368.659014,4060.306139
1184.954153,-8956.491898,-3034.844362,2374.896044
1184.954474,-9474.636058,-2516.700203,2068.457845
1184.954795,-9474.636058,-1332.370696,1762.019645
1184.955116,-9178.553681,-518.144159,1762.019645
1184.955437,-9474.636058,592.164754,766.095498
1184.955758,-9178.553681,444.123565,306.438199
1184.956078,-9400.615463,666.185348,76.609550
1184.956399,-9918.759623,222.061783,536.266849
1184.956720,-9770.718434,370.102971,0.000000
1184.957041,-9770.718434,-592.164754,0.000000
1184.957362,-9622.677246,-370.102971,-153.219100
1184.957683,-9622.677246,0.000000,-76.609550
1184.958004,-9696.697840,1036.288319,1608.800546
1184.958325,-10214.842000,518.144159,919.314598
1184.958646,-9992.780217,0.000000,1455.581446
1184.958966,-9992.780217,-518.144159,1532.190996
1184.959287,-9474.636058,-1110.308913,2145.067394
1184.959608,-10066.800811,-2368.659014,2604.724693
1184.959929,-9326.594869,-2738.761985,2451.505594
1184.960250,-9104.533087,-3256.906145,1532.190996
1184.960571,-8734.430116,-1702.473667,842.705048
1184.960892,-9474.636058,-444.123565,842.705048
1184.961213,-9252.574275,1110.308913,612.876398
1184.961533,-9622.677246,1776.494261,766.095498
1184.961854,-9770.718434,1036.288319,153.219100
1184.962175,-9548.656652,370.102971,-153.219100
1184.962496,-10140.821405,0.000000,76.609550
1184.962817,-9844.739029,-518.144159,-229.828649
1184.963138,-9844.739029,0.000000,76.609550
1184.963459,-9622.677246,148.041188,76.609550
1184.963780,-9474.636058,518.144159,0.000000
1184.964101,-9992.780217,962.267725,612.876398
1184.964421,-9992.780217,1036.288319,1072.533697
1184.964742,-10066.800811,370.102971,1915.238745
1184.965063,-10362.883188,-296.082377,2068.457845
1184.965384,-9474.636058,-2072.576638,2374.896044
1184.965705,-9622.677246,-2442.679609,2604.724693
1184.966026,-9252.574275,-3034.844362,2451.505594
1184.966346,-8808.450710,-2442.679609,766.095498
1184.966667,-9474.636058,-962.267725,1762.019645
1184.966988,-9252.574275,0.000000,1455.581446
1184.967308,-9252.574275,592.164754,1149.143247
1184.967629,-9474.636058,592.164754,995.924147
1184.967950,-9474.636058,814.226536,306.438199
1184.968271,-9770.718434,296.082377,689.485948
1184.968591,-9696.697840,-148.041188,612.876398
1184.968912,-9770.718434,-296.082377,306.438199
1184.969233,-10436.903782,222.061783,229.828649
1184.969554,-9992.780217,888.247130,383.047749
1184.969874,-9844.739029,1776.494261,995.924147
1184.970195,-9992.780217,1702.473667,1532.190996
1184.970516,-9844.739029,1258.350101,2145.067394
1184.970837,-10362.883188,0.000000,2451.505594
1184.971157,-9696.697840,-1850.514855,2451.505594
1184.971478,-9918.759623,-2812.782580,2528.115143
1184.971799,-9400.615463,-3256.906145,1915.238745
1184.972119,-8734.430116,-2886.803174,1302.362347
1184.972440,-8956.491898,-1554.432478,689.485948
1184.972761,-9326.594869,-148.041188,919.314598
1184.973082,-9252.574275,666.185348,383.047749
1184.973402,-9326.594869,888.247130,0.000000
1184.973723,-8956.491898,1036.288319,-612.876398
1184.974044,-9770.718434,296.082377,-536.266849
1184.974365,-9770.718434,-222.061783,-536.266849
1184.974685,-9844.739029,-666.185348,-995.924147
1184.975006,-9696.697840,-370.102971,-689.485948
1184.975327,-9992.780217,370.102971,-229.828649
1184.975648,-10214.842000,1110.308913,612.876398
1184.975968,-10362.883188,1258.350101,919.314598
1184.976289,-10066.800811,962.267725,919.314598
1184.976610,-10140.821405,444.123565,1225.752797
1184.976930,-9918.759623,-444.123565,1685.410096
1184.977251,-9696.697840,-1776.494261,2221.676944
1184.977572,-9178.553681,-2294.638420,306.438199
1184.977893,-8882.471304,-2590.720797,1532.190996
1184.978213,-9326.594869,-1850.514855,1685.410096
1184.978534,-9400.615463,-814.226536,1838.629195
1184.978855,-9400.615463,-296.082377,1685.410096
1184.979176,-9474.636058,0.000000,842.705048
1184.979496,-9474.636058,518.144159,536.266849
1184.979817,-9548.656652,0.000000,0.000000
1184.980138,-9770.718434,-222.061783,306.438199
1184.980458,-9326.594869,-666.185348,0.000000
1184.980779,-9696.697840,0.000000,0.000000
1184.981100,-9696.697840,148.041188,459.657299
1184.981421,-9696.697840,592.164754,842.705048
1184.981741,-9030.512492,0.000000,1608.800546
1184.982062,-10066.800811,740.205942,2145.067394
1184.982383,-10214.842000,0.000000,2451.505594
1184.982704,-9770.718434,-1184.329507,2987.772442
1184.983024,-9696.697840,-2516.700203,2987.772442
1184.983345,-9178.553681,-3552.988522,2604.724693
1184.983666,-9326.594869,-3404.947333,2528.115143
1184.983987,-8660.409521,-1998.556043,2145.067394
1184.984307,-8956.491898,-666.185348,1838.629195
1184.984628,-8808.450710,0.000000,2145.067394
1184.984949,-9474.636058,1036.288319,1455.581446
1184.985269,-9770.718434,888.247130,919.314598
1184.985590,-9844.739029,518.144159,689.485948
1184.985911,-9770.718434,-148.041188,1149.143247
1184.986232,-9696.697840,-740.205942,459.657299
1184.986552,-9770.718434,-444.123565,153.219100
1184.986873,-9844.739029,0.000000,459.657299
1184.987194,-9622.677246,888.247130,153.219100
1184.987515,-9696.697840,1258.350101,306.438199
1184.987835,-10066.800811,1406.391290,919.314598
1184.988156,-9770.718434,1036.288319,1072.533697
1184.988477,-10140.821405,0.000000,1838.629195
1184.988798,-10140.821405,-1480.411884,1455.581446
1184.989118,-9474.636058,-2664.741391,2145.067394
1184.989439,-9770.718434,-2960.823768,2374.896044
1184.989760,-9326.594869,-2590.720797,2221.676944
1184.990080,-9178.553681,-1702.473667,1455.581446
1184.990401,-9104.533087,-592.164754,842.705048
1184.990722,-9104.533087,296.082377,689.485948
1184.991043,-9252.574275,222.061783,306.438199
1184.991363,-9252.574275,444.123565,0.000000
1184.991684,-9548.656652,814.226536,-459.657299
1184.992005,-9696.697840,0.000000,-766.095498
1184.992326,-9770.718434,518.144159,-919.314598
1184.992646,-9770.718434,814.226536,-689.485948
1184.992967,-9918.759623,2590.720797,1149.143247
1184.993288,-10066.800811,2368.659014,229.828649
1184.993609,-10362.883188,1628.453072,995.924147
1184.993929,-10066.800811,1036.288319,1532.190996
1184.994250,-10140.821405,0.000000,2145.067394
1184.994571,-9918.759623,-1554.432478,2374.896044
1184.994891,-9474.636058,-3034.844362,2374.896044
1184.995212,-8956.491898,-3627.009116,2068.457845
1184.995533,-8734.430116,-3552.988522,1455.581446
1184.995854,-8142.265362,-2294.638420,1762.019645
1184.996174,-9326.594869,-148.041188,1302.362347
1184.996495,-9030.512492,814.226536,1608.800546
1184.996816,-9474.636058,1184.329507,1302.362347
1184.997137,-9622.677246,1036.288319,689.485948
1184.997457,-9992.780217,666.185348,612.876398
1184.997778,-10140.821405,0.000000,842.705048
1184.998099,-9918.759623,-444.123565,459.657299
1184.998420,-9918.759623,-444.123565,76.609550
1184.998740,-9844.739029,518.144159,0.000000
1184.999061,-9548.656652,814.226536,536.266849
1184.999382,-9548.656652,1110.308913,612.876398
1184.999702,-9400.615463,888.247130,919.314598
1185.000023,-9178.553681,296.082377,2221.676944
1185.000344,-10140.821405,-444.123565,2221.676944
1185.000665,-9992.780217,-1480.411884,2604.724693
1185.000985,-9770.718434,-2664.741391,2911.162892
1185.001306,-9622.677246,-2812.782580,2834.553343
1185.001627,-9548.656652,-2072.576638,2451.505594
1185.001948,-9326.594869,-1110.308913,2374.896044
1185.002268,-9252.574275,222.061783,1838.629195
1185.002589,-9326.594869,962.267725,995.924147
1185.002910,-9030.512492,888.247130,1072.533697
1185.003230,-9252.574275,370.102971,0.000000
1185.003551,-9474.636058,0.000000,0.000000
1185.003872,-9622.677246,-222.061783,0.000000
1185.004193,-9844.739029,-296.082377,-459.657299
1185.004513,-9770.718434,0.000000,153.219100
1185.004834,-9770.718434,592.164754,229.828649
1185.005155,-10066.800811,1036.288319,766.095498
1185.005476,-10140.821405,222.061783,842.705048
1185.005796,-10140.821405,592.164754,1915.238745
1185.006117,-10066.800811,-592.164754,2221.676944
1185.006438,-10140.821405,-1702.473667,2451.505594
1185.006759,-9474.636058,-2812.782580,2374.896044
1185.007079,-9252.574275,-3627.009116,2068.457845
1185.007400,-8882.471304,-3256.906145,1532.190996
1185.007721,-8734.430116,-1776.494261,689.485948
1185.008041,-9104.533087,-74.020594,612.876398
1185.008362,-8734.430116,888.247130,1302.362347
1185.008683,-9474.636058,962.267725,229.828649
1185.009004,-9918.759623,74.020594,153.219100
1185.009324,-9474.636058,-222.061783,-383.047749
1185.009645,-10066.800811,-592.164754,-536.266849
1185.009966,-9844.739029,-444.123565,-306.438199
1185.010287,-9548.656652,222.061783,-306.438199
1185.010607,-9696.697840,1036.288319,229.828649
1185.010928,-9770.718434,1998.556043,689.485948
1185.011249,-9918.759623,1776.494261,919.314598
1185.011570,-10140.821405,1184.329507,1225.752797
1185.011890,-9770.718434,592.164754,1608.800546
1185.012211,-9844.739029,-518.144159,2298.286494
1185.012532,-9696.697840,-1258.350101,2298.286494
1185.012852,-9548.656652,-3034.844362,2834.553343
1185.013173,-9252.574275,-3701.029710,2451.505594
1185.013494,-8882.471304,-2368.659014,1838.629195
1185.013815,-9400.615463,-518.144159,1608.800546
1185.014135,-9474.636058,296.082377,1991.848295
1185.014456,-9474.636058,1036.288319,1378.971896
1185.014777,-9252.574275,814.226536,766.095498
1185.015098,-9474.636058,296.082377,459.657299
1185.015418,-10066.800811,0.000000,153.219100
1185.015739,-9696.697840,-518.144159,153.219100
1185.016060,-9696.697840,-592.164754,76.609550
1185.016381,-9770.718434,0.000000,-459.657299
1185.016701,-9844.739029,666.185348,-689.485948
1185.017022,-10066.800811,1406.391290,153.219100
1185.017343,-9844.739029,1776.494261,766.095498
1185.017663,-10436.903782,518.144159,1608.800546
1185.017984,-9844.739029,-592.164754,2757.943793
1185.018305,-9548.656652,-2590.720797,2374.896044
1185.018626,-9696.697840,-3256.906145,2681.334243
1185.018946,-8956.491898,-3627.009116,2374.896044
1185.019267,-9104.533087,-2664.741391,1991.848295
1185.019588,-9326.594869,-888.247130,1838.629195
1185.019909,-8882.471304,148.041188,919.314598
1185.020229,-9252.574275,1332.370696,995.924147
1185.020550,-9474.636058,962.267725,995.924147
1185.020871,-8290.306550,222.061783,153.219100
1185.021192,-9548.656652,296.082377,76.609550
1185.021512,-9622.677246,0.000000,0.000000
1185.021833,-9696.697840,-296.082377,0.000000
1185.022154,-10140.821405,296.082377,306.438199
1185.022474,-9696.697840,814.226536,153.219100
1185.022795,-9992.780217,1036.288319,229.828649
1185.023116,-10140.821405,962.267725,766.095498
1185.023437,-9770.718434,666.185348,612.876398
1185.023757,-9918.759623,0.000000,1762.019645
1185.024078,-10066.800811,-1258.350101,1915.238745
1185.024399,-9622.677246,-2738.761985,2145.067394
1185.024720,-9474.636058,-3923.091493,1685.410096
1185.025040,-8956.491898,-4145.153275,1378.971896
1185.025361,-8882.471304,-2516.700203,1838.629195
1185.025682,-9030.512492,-1110.308913,1838.629195
1185.026002,-9400.615463,-148.041188,1532.190996
1185.026323,-9252.574275,74.020594,612.876398
1185.026644,-9548.656652,222.061783,536.266849
1185.026965,-9548.656652,0.000000,306.438199
1185.027285,-9770.718434,-444.123565,0.000000
1185.027606,-9992.780217,-222.061783,-153.219100
1185.027927,-9622.677246,0.000000,153.219100
1185.028248,-9622.677246,74.020594,0.000000
1185.028568,-9696.697840,740.205942,0.000000
1185.028889,-9770.718434,962.267725,689.485948
1185.029210,-9548.656652,296.082377,1685.410096
1185.029531,-10140.821405,-222.061783,2145.067394
1185.029851,-9696.697840,-1332.370696,2604.724693
1185.030172,-9622.677246,-2442.679609,2987.772442
1185.030493,-9474.636058,-3182.885551,2528.115143
1185.030813,-9030.512492,-3182.885551,2298.286494
1185.031134,-8956.491898,-2368.659014,2068.457845
1185.031455,-9030.512492,-740.205942,1378.971896
1185.031776,-9178.553681,666.185348,1149.143247
1185.032096,-9104.533087,1184.329507,612.876398
1185.032417,-9474.636058,1628.453072,383.047749
1185.032738,-9548.656652,1184.329507,0.000000
1185.033059,-9696.697840,592.164754,-459.657299
1185.033379,-9474.636058,222.061783,306.438199
1185.033700,-9992.780217,0.000000,0.000000
1185.034021,-10066.800811,740.205942,0.000000
1185.034342,-9992.780217,1110.308913,306.438199
1185.034662,-9918.759623,1554.432478,2145.067394
1185.034983,-10140.821405,1258.350101,919.314598
1185.035304,-10066.800811,962.267725,1302.362347
1185.035624,-9992.780217,0.000000,2068.457845
1185.035945,-9770.718434,-1332.370696,2145.067394
1185.036266,-9474.636058,-2664.741391,2757.943793
1185.036587,-9400.615463,-3701.029710,2374.896044
1185.036907,-8956.491898,-2960.823768,2451.505594
1185.037228,-9252.574275,-1998.556043,1838.629195
1185.037549,-9030.512492,-592.164754,1838.629195
1185.037870,-9178.553681,74.020594,1378.971896
1185.038190,-9104.533087,740.205942,612.876398
1185.038511,-9326.594869,666.185348,153.219100
1185.038832,-9548.656652,518.144159,-153.219100
1185.039153,-9474.636058,74.020594,0.000000
1185.039473,-9696.697840,-148.041188,0.000000
1185.039794,-9622.677246,370.102971,-306.438199
1185.040115,-9844.739029,814.226536,306.438199
1185.040435,-9770.718434,1036.288319,919.314598
1185.040756,-9992.780217,888.247130,1302.362347
1185.041077,-9992.780217,518.144159,1762.019645
1185.041398,-10140.821405,-296.082377,2145.067394
1185.041718,-9622.677246,-1480.411884,1915.238745
1185.042039,-9400.615463,-2590.720797,2757.943793
1185.042360,-8956.491898,-3552.988522,1991.848295
1185.042681,-8808.450710,-2590.720797,1532.190996
1185.043001,-9104.533087,-1406.391290,2298.286494
1185.043322,-9178.553681,0.000000,1608.800546
1185.043643,-9178.553681,962.267725,1302.362347
1185.043964,-9474.636058,1036.288319,995.924147
1185.044284,-9918.759623,888.247130,612.876398
1185.044605,-10288.862594,518.144159,842.705048
1185.044926,-9918.759623,-518.144159,766.095498
1185.045246,-9770.718434,-740.205942,306.438199
1185.045567,-9622.677246,-518.144159,-153.219100
1185.045888,-9474.636058,296.082377,536.266849
1185.046209,-9548.656652,962.267725,0.000000
1185.046529,-9696.697840,1850.514855,306.438199
1185.046850,-9918.759623,1480.411884,842.705048
1185.047171,-10066.800811,1110.308913,1762.019645
1185.047492,-10362.883188,-148.041188,2145.067394
1185.047812,-10140.821405,-1998.556043,2451.505594
1185.048133,-9770.718434,-2886.803174,2757.943793
1185.048454,-9474.636058,-3552.988522,2528.115143
1185.048774,-9400.615463,-2738.761985,2298.286494
1185.049095,-9030.512492,-1850.514855,1915.238745
1185.049416,-9252.574275,-518.144159,1915.238745
1185.049737,-9178.553681,148.041188,1532.190996
1185.050057,-8882.471304,0.000000,76.609550
1185.050378,-9474.636058,666.185348,0.000000
1185.050699,-9474.636058,0.000000,-153.219100
1185.051020,-9252.574275,148.041188,-383.047749
1185.051340,-9844.739029,296.082377,-306.438199
1185.051661,-9918.759623,444.123565,-383.047749
1185.051982,-9918.759623,1406.391290,-306.438199
1185.052303,-10140.821405,1628.453072,153.219100
1185.052623,-10066.800811,1554.432478,919.314598
1185.052944,-10066.800811,666.185348,1072.533697
1185.053265,-10214.842000,-518.144159,2374.896044
1185.053585,-9622.677246,-1850.514855,2528.115143
1185.053906,-9474.636058,-2812.782580,2451.505594
1185.054227,-9104.533087,-3849.070898,2451.505594
1185.054548,-8882.471304,-2812.782580,1455.581446
1185.054868,-8660.409521,-1702.473667,1149.143247
1185.055189,-9104.533087,0.000000,1072.533697
1185.055510,-9400.615463,1258.350101,766.095498
1185.055831,-9548.656652,1332.370696,459.657299
1185.056151,-9696.697840,1036.288319,306.438199
1185.056472,-9622.677246,370.102971,76.609550
1185.056793,-10140.821405,148.041188,76.609550
1185.057114,-10214.842000,-222.061783,-153.219100
1185.057434,-9622.677246,0.000000,-229.828649
1185.057755,-9844.739029,444.123565,0.000000
1185.058076,-9918.759623,962.267725,383.047749
1185.058396,-9474.636058,888.247130,459.657299
1185.058717,-9992.780217,518.144159,1225.752797
1185.059038,-10066.800811,148.041188,1455.581446
1185.059359,-9992.780217,-814.226536,2068.457845
1185.059679,-9474.636058,-2368.659014,2757.943793
1185.060000,-9474.636058,-2960.823768,2451.505594
1185.060321,-9474.636058,-3034.844362,2145.067394
1185.060642,-9104.533087,-2072.576638,2298.286494
1185.060962,-9252.574275,-888.247130,1685.410096
1185.061283,-9400.615463,0.000000,1608.800546
1185.061604,-9326.594869,962.267725,1149.143247
1185.061925,-9474.636058,888.247130,689.485948
1185.062245,-9400.615463,666.185348,306.438199
1185.062566,-9104.533087,222.061783,-766.095498
1185.062887,-9622.677246,0.000000,0.000000
1185.063207,-9992.780217,296.082377,-229.828649
1185.063528,-9622.677246,444.123565,229.828649
1185.063849,-9696.697840,1258.350101,-689.485948
1185.064170,-9844.739029,1184.329507,612.876398
1185.064490,-10140.821405,1258.350101,1225.752797
1185.064811,-10362.883188,814.226536,1915.238745
1185.065132,-9844.739029,-740.205942,2451.505594
1185.065453,-9844.739029,-2294.638420,2757.943793
1185.065773,-9474.636058,-3404.947333,2451.505594
1185.066094,-9252.574275,-3256.906145,1991.848295
1185.066415,-9030.512492,-2368.659014,1915.238745
1185.066736,-8142.265362,-814.226536,1225.752797
1185.067056,-8882.471304,222.061783,919.314598
1185.067377,-8808.450710,1258.350101,383.047749
1185.067698,-9326.594869,1332.370696,-229.828649
1185.068018,-9622.677246,740.205942,1762.019645
1185.068339,-9844.739029,148.041188,306.438199
1185.068660,-9918.759623,-666.185348,153.219100
1185.068981,-10214.842000,-888.247130,153.219100
1185.069301,-9844.739029,-518.144159,0.000000
1185.069622,-9844.739029,370.102971,459.657299
1185.069943,-9844.739029,370.102971,689.485948
1185.070264,-9548.656652,592.164754,919.314598
1185.070584,-9696.697840,444.123565,1302.362347
1185.070905,-9030.512492,-592.164754,2757.943793
1185.071226,-9548.656652,-1480.411884,2604.724693
1185.071547,-9474.636058,-2590.720797,3294.210641
1185.071867,-9400.615463,-3627.009116,3140.991542
1185.072188,-9252.574275,-2886.803174,2757.943793
1185.072509,-9104.533087,-2294.638420,2834.553343
1185.072830,-9252.574275,-1036.288319,2604.724693
1185.073150,-9030.512492,74.020594,1915.238745
1185.073471,-9326.594869,148.041188,995.924147
1185.073792,-9104.533087,962.267725,0.000000
1185.074113,-9474.636058,740.205942,-229.828649
1185.074433,-9770.718434,0.000000,0.000000
1185.074754,-9696.697840,444.123565,0.000000
1185.075075,-9474.636058,-444.123565,-153.219100
1185.075395,-9918.759623,814.226536,76.609550
1185.075716,-10362.883188,1036.288319,612.876398
1185.076037,-10066.800811,814.226536,919.314598
1185.076358,-10510.924376,444.123565,1762.019645
1185.076678,-10214.842000,0.000000,1225.752797
1185.076999,-10140.821405,-1110.308913,2221.676944
1185.077320,-9622.677246,-2590.720797,2604.724693
1185.077641,-9474.636058,-3552.988522,2068.457845
1185.077961,-9252.574275,-3108.864956,1762.019645
1185.078282,-8660.409521,-2146.597232,1225.752797
1185.078603,-8956.491898,-814.226536,1225.752797
1185.078924,-9400.615463,444.123565,1302.362347
1185.079244,-9030.512492,1332.370696,842.705048
1185.079565,-9548.656652,740.205942,689.485948
1185.079886,-9548.656652,518.144159,153.219100
1185.080207,-9696.697840,74.020594,229.828649
1185.080527,-10066.800811,-370.102971,1532.190996
1185.080848,-9474.636058,-518.144159,-153.219100
1185.081169,-9474.636058,-222.061783,-153.219100
1185.081489,-9622.677246,148.041188,0.000000
1185.081810,-9474.636058,518.144159,459.657299
1185.082131,-9918.759623,666.185348,919.314598
1185.082452,-9548.656652,444.123565,1532.190996
1185.082772,-9844.739029,-74.020594,1991.848295
1185.083093,-9622.677246,-1258.350101,2145.067394
1185.083414,-9104.533087,-2738.761985,2681.334243
1185.083735,-9252.574275,-2812.782580,2374.896044
1185.084055,-9252.574275,-2146.597232,2221.676944
1185.084376,-9400.615463,-962.267725,2145.067394
1185.084697,-9252.574275,0.000000,2068.457845
1185.085018,-9104.533087,444.123565,995.924147
1185.085338,-9474.636058,814.226536,459.657299
1185.085659,-9178.553681,740.205942,0.000000
1185.085980,-9474.636058,888.247130,0.000000
1185.086301,-9548.656652,0.000000,-1072.533697
1185.086621,-9474.636058,296.082377,153.219100
1185.086942,-10140.821405,518.144159,229.828649
1185.087263,-10066.800811,740.205942,766.095498
1185.087583,-9474.636058,1258.350101,612.876398
1185.087904,-10288.862594,1184.329507,1532.190996
1185.088225,-10510.924376,888.247130,1991.848295
1185.088546,-10214.842000,0.000000,2451.505594
1185.088866,-9918.759623,-1406.391290,1915.238745
1185.089187,-9326.594869,-2812.782580,2145.067394
1185.089508,-9030.512492,-3108.864956,1915.238745
1185.089829,-9030.512492,-2812.782580,2145.067394
1185.090149,-8956.491898,-1406.391290,1455.581446
1185.090470,-9178.553681,-296.082377,1225.752797
1185.090791,-9326.594869,666.185348,1072.533697
1185.091112,-9474.636058,1332.370696,1072.533697
1185.091432,-9770.718434,518.144159,459.657299
1185.091753,-9622.677246,148.041188,0.000000
1185.092074,-9918.759623,444.123565,76.609550
1185.092395,-9918.759623,-370.102971,-76.609550
1185.092715,-9400.615463,-296.082377,-612.876398
1185.093036,-9844.739029,148.041188,-536.266849
1185.093357,-9474.636058,962.267725,0.000000
1185.093678,-9770.718434,1406.391290,76.609550
1185.093998,-9844.739029,1036.288319,919.314598
1185.094319,-9770.718434,148.041188,1378.971896
1185.094640,-9696.697840,-888.247130,1991.848295
1185.094960,-9844.739029,-1850.514855,2298.286494
1185.095281,-9252.574275,-2960.823768,2221.676944
1185.095602,-9252.574275,-2960.823768,2145.067394
1185.095923,-8808.450710,-1036.288319,3217.601092
1185.096243,-9030.512492,-962.267725,1838.629195
1185.096564,-9252.574275,-370.102971,1762.019645
1185.096885,-9104.533087,296.082377,766.095498
1185.097206,-9104.533087,814.226536,2604.724693
1185.097526,-9474.636058,518.144159,306.438199
1185.097847,-9474.636058,0.000000,0.000000
1185.098168,-9548.656652,-148.041188,0.000000
1185.098489,-9992.780217,0.000000,0.000000
1185.098809,-9918.759623,444.123565,766.095498
1185.099130,-10140.821405,666.185348,229.828649
1185.099451,-10436.903782,1184.329507,306.438199
1185.099772,-10510.924376,1332.370696,1225.752797
1185.100092,-10732.986159,518.144159,2221.676944
1185.100413,-10214.842000,-444.123565,2528.115143
1185.100734,-9918.759623,-1776.494261,2987.772442
1185.101054,-9770.718434,-2812.782580,2757.943793
1185.101375,-9252.574275,-2960.823768,2681.334243
1185.101696,-8882.471304,-2368.659014,2298.286494
1185.102017,-9326.594869,-1332.370696,2298.286494
1185.102337,-9030.512492,148.041188,2221.676944
1185.102658,-9178.553681,296.082377,1915.238745
1185.102979,-9178.553681,222.061783,1378.971896
1185.103300,-9548.656652,0.000000,536.266849
1185.103620,-9770.718434,-444.123565,689.485948
1185.103941,-9622.677246,-518.144159,536.266849
1185.104262,-9178.553681,-814.226536,153.219100
1185.104583,-9696.697840,-148.041188,0.000000
1185.104903,-9696.697840,222.061783,0.000000
1185.105224,-9770.718434,592.164754,229.828649
1185.105545,-9548.656652,592.164754,1072.533697
1185.105866,-9696.697840,666.185348,766.095498
1185.106186,-9696.697840,74.020594,842.705048
1185.106507,-9474.636058,-592.164754,1455.581446
1185.106828,-9622.677246,-1998.556043,1685.410096
1185.107148,-9548.656652,-2960.823768,2298.286494
1185.107469,-9252.574275,-2960.823768,1685.410096
1185.107790,-9622.677246,-1850.514855,1762.019645
1185.108111,-9474.636058,-740.205942,1685.410096
1185.108431,-9696.697840,296.082377,1532.190996
1185.108752,-9252.574275,592.164754,842.705048
1185.109073,-9326.594869,814.226536,153.219100
1185.109394,-9548.656652,444.123565,-76.609550
1185.109714,-9622.677246,222.061783,0.000000
1185.110035,-9696.697840,0.000000,-153.219100
1185.110356,-9992.780217,74.020594,-229.828649
1185.110677,-10140.821405,740.205942,0.000000
1185.110997,-10362.883188,1258.350101,383.047749
1185.111318,-10066.800811,888.247130,1685.410096
1185.111639,-10436.903782,814.226536,1225.752797
1185.111960,-10140.821405,222.061783,2145.067394
1185.112280,-9992.780217,-962.267725,2221.676944
1185.112601,-9844.739029,-1998.556043,3294.210641
1185.112922,-9104.533087,-3108.864956,2528.115143
1185.113242,-9178.553681,-3701.029710,2221.676944
1185.113563,-8808.450710,-2590.720797,1915.238745
1185.113884,-8808.450710,-1776.494261,1608.800546
1185.114205,-9252.574275,74.020594,1685.410096
1185.114525,-9252.574275,888.247130,1302.362347
1185.114846,-9252.574275,1110.308913,919.314598
1185.115167,-9548.656652,666.185348,306.438199
1185.115488,-9548.656652,518.144159,76.609550
1185.115808,-9918.759623,-222.061783,0.000000
1185.116129,-9622.677246,-222.061783,0.000000
1185.116450,-9474.636058,0.000000,0.000000
1185.116771,-9178.553681,-592.164754,-689.485948
1185.117091,-9918.759623,444.123565,306.438199
1185.117412,-9696.697840,1036.288319,919.314598
1185.117733,-9918.759623,962.267725,1225.752797
1185.118054,-9770.718434,222.061783,1455.581446
1185.118374,-9770.718434,-962.267725,2374.896044
1185.118695,-9400.615463,-2442.679609,2604.724693
1185.119016,-9400.615463,-3478.967927,2298.286494
1185.119337,-8808.450710,-3034.844362,1991.848295
1185.119657,-9252.574275,-1776.494261,2145.067394
1185.119978,-9326.594869,-296.082377,2145.067394
1185.120299,-9474.636058,666.185348,1072.533697
1185.120619,-9474.636058,740.205942,919.314598
1185.120940,-9474.636058,962.267725,153.219100
1185.121261,-9992.780217,592.164754,229.828649
1185.121582,-10066.800811,148.041188,76.609550
1185.121902,-9844.739029,0.000000,0.000000
1185.122223,-10066.800811,888.247130,1685.410096
1185.122544,-10066.800811,592.164754,0.000000
1185.122865,-10140.821405,1036.288319,229.828649
1185.123185,-10214.842000,814.226536,689.485948
1185.123506,-10066.800811,814.226536,1149.143247
1185.123827,-10362.883188,296.082377,1762.019645
1185.124148,-9770.718434,-740.205942,2068.457845
1185.124468,-9622.677246,-2146.597232,2145.067394
1185.124789,-9326.594869,-3182.885551,1991.848295
1185.125110,-8734.430116,-2886.803174,1915.238745
1185.125431,-8956.491898,-1480.411884,1225.752797
1185.125751,-9400.615463,0.000000,1225.752797
1185.126072,-9252.574275,1258.350101,1532.190996
1185.126393,-9400.615463,1554.432478,919.314598
1185.126713,-9474.636058,814.226536,306.438199
1185.127034,-9474.636058,148.041188,306.438199
1185.127355,-9622.677246,0.000000,383.047749
1185.127676,-9770.718434,-592.164754,153.219100
1185.127996,-9474.636058,-148.041188,76.609550
1185.128317,-9474.636058,0.000000,153.219100
1185.128638,-9622.677246,666.185348,306.438199
1185.128959,-9844.739029,962.267725,766.095498
1185.129279,-9770.718434,592.164754,612.876398
1185.129600,-9844.739029,296.082377,1685.410096
1185.129921,-9770.718434,-888.247130,2374.896044
1185.130242,-9622.677246,-2220.617826,2528.115143
1185.130562,-9104.533087,-4145.153275,2221.676944
1185.130883,-9474.636058,-3997.112087,2451.505594
1185.131204,-9104.533087,-2960.823768,1991.848295
1185.131525,-9326.594869,-1702.473667,2298.286494
1185.131845,-9178.553681,-296.082377,1685.410096
1185.132166,-9104.533087,518.144159,1225.752797
1185.132487,-9400.615463,1036.288319,919.314598
1185.132807,-9696.697840,962.267725,306.438199
1185.133128,-9918.759623,592.164754,459.657299
1185.133449,-10140.821405,0.000000,153.219100
1185.133770,-10066.800811,0.000000,-306.438199
1185.134090,-10140.821405,740.205942,-153.219100
1185.134411,-10140.821405,1554.432478,153.219100
1185.134732,-10288.862594,2368.659014,842.705048
1185.135053,-10510.924376,1480.411884,1149.143247
1185.135373,-10214.842000,740.205942,2068.457845
1185.135694,-10362.883188,-592.164754,2145.067394
1185.136015,-9770.718434,-1924.535449,2528.115143
1185.136336,-9622.677246,-3404.947333,2451.505594
1185.136656,-9326.594869,-3701.029710,2298.286494
1185.136977,-9178.553681,-3034.844362,1608.800546
1185.137298,-9030.512492,-1776.494261,1455.581446
1185.137619,-9400.615463,-148.041188,1149.143247
1185.137939,-9252.574275,148.041188,1072.533697
1185.138260,-9548.656652,740.205942,383.047749
1185.138581,-9548.656652,666.185348,0.000000
1185.138902,-8438.347739,-148.041188,766.095498
1185.139222,-9474.636058,-296.082377,0.000000
1185.139543,-9252.574275,-666.185348,0.000000
1185.139864,-9474.636058,-518.144159,-153.219100
1185.140184,-9622.677246,0.000000,-153.219100
1185.140505,-9474.636058,370.102971,689.485948
1185.140826,-9474.636058,592.164754,689.485948
1185.141147,-9622.677246,740.205942,1302.362347
1185.141467,-9770.718434,370.102971,1608.800546
1185.141788,-9622.677246,-1036.288319,1762.019645
1185.142109,-9400.615463,-1998.556043,2757.943793
1185.142430,-9400.615463,-2812.782580,2451.505594
1185.142750,-9030.512492,-3034.844362,2068.457845
1185.143071,-8660.409521,-1850.514855,1378.971896
1185.143392,-9326.594869,-444.123565,1838.629195
1185.143713,-9252.574275,444.123565,1378.971896
1185.144033,-9400.615463,1110.308913,766.095498
1185.144354,-9474.636058,1036.288319,0.000000
1185.144675,-9696.697840,1036.288319,153.219100
1185.144996,-10362.883188,222.061783,383.047749
1185.145316,-9992.780217,-444.123565,383.047749
1185.145637,-9992.780217,-370.102971,-229.828649
1185.145958,-9252.574275,-296.082377,-459.657299
1185.146278,-9474.636058,592.164754,-383.047749
1185.146599,-9770.718434,888.247130,76.609550
1185.146920,-10140.821405,888.247130,536.266849
1185.147241,-9918.759623,1480.411884,306.438199
1185.147561,-10214.842000,0.000000,1608.800546
1185.147882,-9844.739029,-1628.453072,2145.067394
1185.148203,-9844.739029,-2220.617826,2528.115143
1185.148524,-9548.656652,-2516.700203,2298.286494
1185.148844,-9326.594869,-2368.659014,1608.800546
1185.149165,-9030.512492,-888.247130,1608.800546
1185.149486,-9474.636058,-296.082377,1455.581446
1185.149807,-9326.594869,1184.329507,919.314598
1185.150127,-8882.471304,888.247130,536.266849
1185.150448,-9326.594869,888.247130,153.219100
1185.150769,-9474.636058,592.164754,153.219100
1185.151090,-9918.759623,0.000000,383.047749
1185.151410,-9252.574275,-370.102971,1685.410096
1185.151731,-9992.780217,0.000000,229.828649
1185.152052,-9622.677246,222.061783,459.657299
1185.152372,-9548.656652,1036.288319,536.266849
1185.152693,-9992.780217,1258.350101,919.314598
1185.153014,-9844.739029,1184.329507,995.924147
1185.153335,-9770.718434,370.102971,1608.800546
1185.153655,-9622.677246,-666.185348,1838.629195
1185.153976,-9400.615463,-1924.535449,1991.848295
1185.154297,-8808.450710,-2960.823768,1915.238745
1185.154618,-9178.553681,-2738.761985,1915.238745
1185.154938,-8956.491898,-1850.514855,1838.629195
1185.155259,-9104.533087,-888.247130,1991.848295
1185.155580,-9326.594869,0.000000,2451.505594
1185.155901,-9400.615463,222.061783,1455.581446
1185.156221,-9326.594869,222.061783,689.485948
1185.156542,-9770.718434,74.020594,459.657299
1185.156863,-9548.656652,-296.082377,0.000000
1185.157184,-9844.739029,-444.123565,153.219100
1185.157504,-9992.780217,-74.020594,229.828649
1185.157825,-9918.759623,74.020594,306.438199
1185.158146,-10066.800811,592.164754,306.438199
1185.158467,-10658.965565,1480.411884,1225.752797
1185.158787,-10288.862594,962.267725,1762.019645
1185.159108,-10214.842000,74.020594,2528.115143
1185.159429,-10066.800811,-814.226536,2681.334243
1185.159749,-9622.677246,-2146.597232,2911.162892
1185.160070,-9400.615463,-2812.782580,2451.505594
1185.160391,-9474.636058,-3108.864956,2068.457845
1185.160712,-8882.471304,-2368.659014,1455.581446
1185.161032,-8882.471304,-740.205942,1378.971896
1185.161353,-9030.512492,0.000000,1225.752797
1185.161674,-9326.594869,962.267725,1072.533697
1185.161995,-9770.718434,518.144159,612.876398
1185.162315,-9474.636058,666.185348,229.828649
1185.162636,-9474.636058,0.000000,995.924147
1185.162957,-9844.739029,-370.102971,0.000000
1185.163278,-9844.739029,-592.164754,0.000000
1185.163598,-9770.718434,0.000000,-306.438199
1185.163919,-9104.533087,-74.020594,-459.657299
1185.164240,-9400.615463,518.144159,0.000000
1185.164561,-9844.739029,888.247130,536.266849
1185.164881,-9844.739029,592.164754,919.314598
1185.165202,-9844.739029,-296.082377,1608.800546
1185.165523,-9474.636058,-1258.350101,1762.019645
1185.165843,-9474.636058,-2664.741391,2145.067394
1185.166164,-9474.636058,-3478.967927,2221.676944
1185.166485,-9104.533087,-3108.864956,1838.629195
1185.166806,-8586.388927,-2368.659014,2298.286494
1185.167126,-9178.553681,-666.185348,1685.410096
1185.167447,-9252.574275,0.000000,1455.581446
1185.167768,-9400.615463,148.041188,919.314598
1185.168089,-9770.718434,814.226536,0.000000
1185.168409,-9696.697840,296.082377,536.266849
1185.168730,-9992.780217,0.000000,536.266849
1185.169051,-9918.759623,-370.102971,459.657299
1185.169372,-10362.883188,0.000000,383.047749
1185.169692,-9770.718434,888.247130,229.828649
1185.170013,-10362.883188,1184.329507,1225.752797
1185.170334,-10066.800811,1480.411884,1455.581446
1185.170655,-10066.800811,444.123565,1149.143247
1185.170975,-9770.718434,148.041188,2374.896044
1185.171296,-9918.759623,-1036.288319,2451.505594
1185.171617,-9992.780217,-2294.638420,2604.724693
1185.171938,-9326.594869,-3182.885551,2528.115143
1185.172259,-9326.594869,-3627.009116,1762.019645
1185.172579,-8734.430116,-1924.535449,1532.190996
1185.172900,-9178.553681,-592.164754,1149.143247
1185.173221,-9178.553681,888.247130,1378.971896
1185.173542,-9474.636058,962.267725,842.705048
1185.173862,-9696.697840,814.226536,612.876398
1185.174183,-9844.739029,592.164754,0.000000
1185.174504,-9918.759623,296.082377,229.828649
1185.174825,-9918.759623,-592.164754,383.047749
1185.175145,-9252.574275,0.000000,0.000000
1185.175466,-9844.739029,370.102971,76.609550
1185.175787,-9770.718434,814.226536,0.000000
1185.176108,-9622.677246,1480.411884,229.828649
1185.176428,-9770.718434,1554.432478,842.705048
1185.176749,-9992.780217,1184.329507,1225.752797
1185.177070,-9992.780217,222.061783,1915.238745
1185.177391,-9622.677246,-1110.308913,2374.896044
1185.177711,-9474.636058,-2368.659014,2451.505594
1185.178032,-9030.512492,-3404.947333,2221.676944
1185.178353,-8882.471304,-2442.679609,2221.676944
1185.178674,-9178.553681,-1480.411884,1532.190996
1185.178994,-9178.553681,0.000000,1532.190996
1185.179315,-9252.574275,1184.329507,1149.143247
1185.179636,-9252.574275,1184.329507,306.438199
1185.179957,-9474.636058,1258.350101,0.000000
1185.180277,-9696.697840,666.185348,0.000000
1185.180598,-9992.780217,222.061783,0.000000
1185.180919,-10066.800811,148.041188,-536.266849
1185.181240,-9992.780217,370.102971,0.000000
1185.181560,-10066.800811,814.226536,76.609550
1185.181881,-9622.677246,1332.370696,306.438199
1185.182202,-9918.759623,296.082377,842.705048
1185.182523,-9918.759623,1110.308913,1455.581446
1185.182844,-9770.718434,-518.144159,2068.457845
1185.183164,-9622.677246,-2220.617826,2374.896044
1185.183485,-9400.615463,-3108.864956,2451.505594
1185.183806,-9400.615463,-3330.926739,2068.457845
1185.184127,-8956.491898,-2812.782580,1762.019645
1185.184447,-8956.491898,-1480.411884,1838.629195
1185.184768,-8882.471304,-148.041188,1455.581446
1185.185089,-9326.594869,888.247130,1149.143247
1185.185410,-9474.636058,814.226536,842.705048
1185.185730,-9770.718434,370.102971,459.657299
1185.186051,-9770.718434,0.000000,459.657299
1185.186372,-9696.697840,0.000000,153.219100
1185.186693,-9548.656652,0.000000,-459.657299
1185.187013,-9622.677246,296.082377,76.609550
1185.187334,-9474.636058,740.205942,0.000000
1185.187655,-9844.739029,1258.350101,306.438199
1185.187976,-9474.636058,1776.494261,1072.533697
1185.188296,-9770.718434,740.205942,1072.533697
1185.188617,-9844.739029,0.000000,1762.019645
1185.188938,-9992.780217,-814.226536,2451.505594
1185.189259,-9696.697840,-1998.556043,2604.724693
1185.189579,-9548.656652,-3108.864956,2911.162892
1185.189900,-8956.491898,-3701.029710,1991.848295
1185.190221,-9178.553681,-2960.823768,1762.019645
1185.190542,-9326.594869,-1258.350101,2068.457845
1185.190862,-9178.553681,222.061783,2374.896044
1185.191183,-9474.636058,518.144159,1685.410096
1185.191504,-9178.553681,592.164754,459.657299
1185.191825,-9548.656652,296.082377,0.000000
1185.192145,-9844.739029,-518.144159,-306.438199
1185.192466,-9844.739029,-666.185348,306.438199
1185.192787,-10140.821405,-444.123565,-229.828649
1185.193108,-9696.697840,0.000000,-153.219100
1185.193428,-10066.800811,1036.288319,383.047749
1185.193749,-10140.821405,1184.329507,919.314598
1185.194070,-10436.903782,1184.329507,995.924147
1185.194391,-10140.821405,148.041188,1685.410096
1185.194712,-10140.821405,-1184.329507,1991.848295
1185.195032,-9844.739029,-2294.638420,2451.505594
1185.195353,-9548.656652,-2960.823768,2221.676944
1185.195674,-9252.574275,-3404.947333,1762.019645
1185.195995,-8586.388927,-2368.659014,1685.410096
1185.196315,-9252.574275,-1924.535449,2374.896044
1185.196636,-8660.409521,-222.061783,766.095498
1185.196957,-9326.594869,666.185348,153.219100
1185.197278,-9104.533087,1184.329507,0.000000
1185.197598,-9400.615463,1258.350101,689.485948
1185.197919,-9622.677246,592.164754,-229.828649
1185.198240,-9844.739029,0.000000,0.000000
1185.198561,-9918.759623,-518.144159,-153.219100
1185.198881,-9992.780217,-222.061783,0.000000
1185.199202,-10288.862594,148.041188,612.876398
1185.199523,-9918.759623,962.267725,842.705048
1185.199844,-9622.677246,1036.288319,459.657299
1185.200164,-9844.739029,962.267725,842.705048
1185.200485,-9326.594869,148.041188,2528.115143
1185.200806,-9918.759623,-962.267725,2451.505594
1185.201127,-9474.636058,-2442.679609,2298.286494
1185.201447,-9400.615463,-3034.844362,2987.772442
1185.201768,-9326.594869,-2886.803174,2757.943793
1185.202089,-9474.636058,-1480.411884,2681.334243
1185.202410,-9474.636058,-370.102971,2757.943793
1185.202730,-9326.594869,222.061783,1838.629195
1185.203051,-9400.615463,888.247130,1149.143247
1185.203372,-9326.594869,814.226536,1072.533697
1185.203693,-9696.697840,888.247130,536.266849
1185.204013,-9844.739029,444.123565,229.828649
1185.204334,-9696.697840,148.041188,0.000000
1185.204655,-10658.965565,1480.411884,0.000000
1185.204976,-9844.739029,518.144159,0.000000
1185.205296,-10066.800811,1036.288319,76.609550
1185.205617,-10510.924376,1554.432478,919.314598
1185.205938,-10436.903782,1258.350101,1378.971896
1185.206259,-10362.883188,666.185348,2068.457845
1185.206580,-10288.862594,-666.185348,2451.505594
1185.206900,-9770.718434,-2220.617826,2298.286494
1185.207221,-9474.636058,-2886.803174,2298.286494
1185.207542,-9326.594869,-3034.844362,1762.019645
1185.207863,-8512.368333,-1850.514855,1225.752797
1185.208183,-8808.450710,-740.205942,995.924147
1185.208504,-9252.574275,740.205942,1149.143247
1185.208825,-8586.388927,1036.288319,1072.533697
1185.209146,-9474.636058,962.267725,0.000000
1185.209466,-9104.533087,444.123565,0.000000
1185.209787,-9918.759623,74.020594,0.000000
1185.210108,-9992.780217,-592.164754,459.657299
1185.210429,-9992.780217,-370.102971,-306.438199
1185.210749,-9622.677246,0.000000,-459.657299
1185.211070,-9548.656652,370.102971,-536.266849
1185.211391,-9622.677246,814.226536,-306.438199
1185.211712,-10066.800811,1554.432478,76.609550
1185.212032,-9844.739029,1184.329507,919.314598
1185.212353,-9992.780217,148.041188,1838.629195
1185.212674,-9622.677246,-1480.411884,2298.286494
1185.212995,-9474.636058,-2368.659014,3983.696590
1185.213315,-9474.636058,-3775.050304,2451.505594
1185.213636,-9104.533087,-3182.885551,2145.067394
1185.213957,-9030.512492,-2220.617826,2221.676944
1185.214278,-9178.553681,-962.267725,2145.067394
1185.214598,-9252.574275,-296.082377,1838.629195
1185.214919,-9400.615463,0.000000,919.314598
1185.215240,-9252.574275,74.020594,76.609550
1185.215561,-9622.677246,0.000000,153.219100
1185.215881,-9844.739029,-148.041188,-229.828649
1185.216202,-9696.697840,74.020594,0.000000
1185.216523,-10066.800811,518.144159,0.000000
1185.216844,-10140.821405,888.247130,383.047749
1185.217165,-9992.780217,888.247130,536.266849
1185.217485,-10510.924376,1036.288319,1072.533697
1185.217806,-10658.965565,592.164754,2068.457845
1185.218127,-10510.924376,0.000000,2757.943793
1185.218448,-9992.780217,-1184.329507,2374.896044
1185.218768,-9474.636058,-2812.782580,2911.162892
1185.219089,-9178.553681,-3552.988522,2681.334243
1185.219410,-9030.512492,-3701.029710,2374.896044
1185.219731,-8882.471304,-2368.659014,2221.676944
1185.220051,-9252.574275,-666.185348,1838.629195
1185.220372,-9252.574275,666.185348,1608.800546
1185.220693,-9252.574275,1258.350101,1378.971896
1185.221014,-9474.636058,888.247130,536.266849
1185.221334,-9178.553681,-296.082377,536.266849
1185.221655,-9548.656652,222.061783,-229.828649
1185.221976,-10362.883188,-296.082377,0.000000
1185.222297,-10066.800811,-296.082377,153.219100
1185.222617,-9548.656652,370.102971,0.000000
1185.222938,-9844.739029,1036.288319,0.000000
1185.223259,-9400.615463,1036.288319,0.000000
1185.223580,-9696.697840,962.267725,383.047749
1185.223900,-9844.739029,592.164754,1225.752797
1185.224221,-9178.553681,-592.164754,1302.362347
1185.224542,-9696.697840,-1406.391290,2068.457845
1185.224863,-9548.656652,-2812.782580,2221.676944
1185.225183,-9178.553681,-3182.885551,1762.019645
1185.225504,-8364.327145,-2368.659014,1762.019645
1185.225825,-9030.512492,-962.267725,1991.848295
1185.226146,-9104.533087,0.000000,1072.533697
1185.226466,-9252.574275,74.020594,919.314598
1185.226787,-9178.553681,666.185348,-1302.362347
1185.227108,-9326.594869,814.226536,-306.438199
1185.227429,-9622.677246,370.102971,0.000000
1185.227749,-9474.636058,222.061783,0.000000
1185.228070,-9844.739029,296.082377,-229.828649
1185.228391,-10362.883188,518.144159,0.000000
1185.228712,-10066.800811,1110.308913,459.657299
1185.229033,-10214.842000,1036.288319,536.266849
1185.229353,-10362.883188,1258.350101,1455.581446
1185.229674,-9474.636058,888.247130,2604.724693
1185.229995,-10140.821405,-148.041188,2298.286494
1185.230316,-10140.821405,-1406.391290,2757.943793
1185.230636,-9474.636058,-2738.761985,2911.162892
1185.230957,-9474.636058,-3552.988522,2834.553343
1185.231278,-9104.533087,-3108.864956,2145.067394
1185.231599,-8882.471304,-1554.432478,1608.800546
1185.231919,-9400.615463,-296.082377,1915.238745
1185.232240,-9178.553681,1036.288319,2145.067394
1185.232561,-9400.615463,814.226536,1302.362347
1185.232882,-9918.759623,518.144159,842.705048
1185.233202,-9844.739029,370.102971,689.485948
1185.233523,-9918.759623,-518.144159,383.047749
1185.233844,-9622.677246,148.041188,0.000000
1185.234165,-9474.636058,-666.185348,-153.219100
1185.234485,-9474.636058,370.102971,-306.438199
1185.234806,-9548.656652,814.226536,0.000000
1185.235127,-9474.636058,962.267725,-689.485948
1185.235448,-9696.697840,666.185348,383.047749
1185.235768,-10066.800811,444.123565,1072.533697
1185.236089,-9844.739029,0.000000,1991.848295
1185.236410,-9696.697840,-1184.329507,2145.067394
1185.236731,-8882.471304,-2664.741391,2068.457845
1185.237051,-9104.533087,-2590.720797,1762.019645
1185.237372,-9326.594869,-1776.494261,1532.190996
1185.237693,-9474.636058,-592.164754,1455.581446
1185.238014,-9770.718434,0.000000,689.485948
1185.238334,-9326.594869,518.144159,842.705048
1185.238655,-9178.553681,592.164754,153.219100
1185.238976,-9474.636058,814.226536,0.000000
1185.239297,-9696.697840,370.102971,459.657299
1185.239618,-9548.656652,0.000000,-153.219100
1185.239938,-9918.759623,148.041188,0.000000
1185.240259,-9770.718434,296.082377,-153.219100
1185.240580,-9918.759623,1332.370696,0.000000
1185.240901,-10066.800811,1702.473667,612.876398
1185.241221,-10066.800811,1036.288319,1072.533697
1185.241542,-9992.780217,740.205942,1532.190996
1185.241863,-10362.883188,-296.082377,2298.286494
1185.242184,-10510.924376,-888.247130,2298.286494
1185.242504,-9474.636058,-3034.844362,2451.505594
1185.242825,-9104.533087,-3330.926739,2298.286494
1185.243146,-8956.491898,-2368.659014,1532.190996
1185.243467,-8882.471304,-962.267725,1072.533697
1185.243787,-8882.471304,222.061783,1302.362347
1185.244108,-9178.553681,962.267725,1532.190996
1185.244429,-9548.656652,740.205942,842.705048
1185.244750,-9548.656652,222.061783,1149.143247
1185.245070,-9622.677246,-222.061783,536.266849
1185.245391,-9992.780217,-666.185348,689.485948
1185.245712,-9844.739029,-888.247130,459.657299
1185.246033,-9696.697840,-222.061783,459.657299
1185.246353,-8586.388927,1184.329507,1685.410096
1185.246674,-10066.800811,1850.514855,842.705048
1185.246995,-9992.780217,2072.576638,842.705048
1185.247316,-10140.821405,2220.617826,1302.362347
1185.247636,-10214.842000,1406.391290,2068.457845
1185.247957,-9918.759623,0.000000,2451.505594
1185.248278,-9918.759623,-1702.473667,2451.505594
1185.248599,-9622.677246,-3256.906145,2298.286494
1185.248919,-9104.533087,-3256.906145,2145.067394
1185.249240,-9474.636058,-2146.597232,1762.019645
1185.249561,-9326.594869,-962.267725,1838.629195
1185.249882,-9104.533087,74.020594,1455.581446
1185.250202,-9400.615463,592.164754,1302.362347
1185.250523,-9104.533087,370.102971,1915.238745
1185.250844,-9622.677246,-148.041188,536.266849
1185.251165,-9548.656652,-1110.308913,0.000000
1185.251486,-9326.594869,-1554.432478,-383.047749
1185.251806,-9622.677246,-1036.288319,689.485948
1185.252127,-9622.677246,0.000000,0.000000
1185.252448,-9844.739029,518.144159,0.000000
1185.252769,-9844.739029,1036.288319,0.000000
1185.253089,-9992.780217,1184.329507,919.314598
1185.253410,-10140.821405,962.267725,1608.800546
1185.253731,-9992.780217,-666.185348,2451.505594
1185.254052,-9844.739029,-1998.556043,2451.505594
1185.254372,-9474.636058,-2886.803174,2451.505594
1185.254693,-9474.636058,-3256.906145,1762.019645
1185.255014,-8734.430116,-2220.617826,1532.190996
1185.255335,-8956.491898,-962.267725,1685.410096
1185.255655,-9178.553681,518.144159,1149.143247
1185.255976,-9400.615463,1258.350101,1225.752797
1185.256297,-9548.656652,1036.288319,919.314598
1185.256618,-9770.718434,296.082377,459.657299
1185.256938,-9918.759623,-518.144159,459.657299
1185.257259,-9844.739029,-1628.453072,459.657299
1185.257580,-9770.718434,-1332.370696,76.609550
1185.257901,-9918.759623,-444.123565,0.000000
1185.258221,-9770.718434,296.082377,0.000000
1185.258542,-9770.718434,1628.453072,383.047749
1185.258863,-9992.780217,1776.494261,919.314598
1185.259184,-9844.739029,1110.308913,1685.410096
1185.259504,-9992.780217,-296.082377,1838.629195
1185.259825,-10066.800811,-2072.576638,2298.286494
1185.260146,-9770.718434,-3701.029710,2221.676944
1185.260467,-9104.533087,-4219.173869,2145.067394
1185.260787,-8808.450710,-3256.906145,2298.286494
1185.261108,-9326.594869,-1850.514855,1991.848295
1185.261429,-9030.512492,-518.144159,1838.629195
1185.261750,-9252.574275,222.061783,1455.581446
1185.262071,-9622.677246,1110.308913,229.828649
1185.262391,-9696.697840,814.226536,536.266849
1185.262712,-9770.718434,370.102971,612.876398
1185.263033,-9918.759623,0.000000,383.047749
1185.263354,-9474.636058,-370.102971,76.609550
1185.263674,-10066.800811,-148.041188,153.219100
1185.263995,-9696.697840,592.164754,-306.438199
1185.264316,-9770.718434,1332.370696,306.438199
1185.264637,-9696.697840,1850.514855,76.609550
1185.264957,-10066.800811,1110.308913,842.705048
1185.265278,-9918.759623,222.061783,1225.752797
1185.265599,-9770.718434,-1628.453072,1838.629195
1185.265920,-9548.656652,-3034.844362,1915.238745
1185.266240,-9030.512492,-4367.215058,2911.162892
1185.266561,-9400.615463,-3775.050304,1685.410096
1185.266882,-9474.636058,-2072.576638,1608.800546
1185.267203,-9474.636058,-444.123565,1608.800546
1185.267523,-9548.656652,1110.308913,1072.533697
1185.267844,-9400.615463,1554.432478,1149.143247
1185.268165,-9918.759623,888.247130,0.000000
1185.268486,-9622.677246,592.164754,0.000000
1185.268806,-9474.636058,0.000000,-459.657299
1185.269127,-9252.574275,-296.082377,-153.219100
1185.269448,-9548.656652,74.020594,-306.438199
1185.269769,-9844.739029,740.205942,0.000000
1185.270089,-10066.800811,1628.453072,306.438199
1185.270410,-9474.636058,2812.782580,2145.067394
1185.270731,-10066.800811,1628.453072,1685.410096
1185.271052,-10362.883188,1184.329507,2451.505594
1185.271372,-10214.842000,0.000000,2834.553343
1185.271693,-9844.739029,-1480.411884,3140.991542
1185.272014,-9474.636058,-2442.679609,3294.210641
1185.272335,-9178.553681,-3404.947333,2757.943793
1185.272655,-8586.388927,-2812.782580,2298.286494
1185.272976,-8882.471304,-1258.350101,1991.848295
1185.273297,-8438.347739,-592.164754,1762.019645
1185.273618,-9104.533087,222.061783,1455.581446
1185.273938,-8882.471304,74.020594,536.266849
1185.274259,-9030.512492,0.000000,229.828649
1185.274580,-10140.821405,-222.061783,536.266849
1185.274901,-9918.759623,-666.185348,459.657299
1185.275221,-9992.780217,-518.144159,306.438199
1185.275542,-10288.862594,0.000000,0.000000
1185.275863,-9918.759623,518.144159,229.828649
1185.276184,-9474.636058,1406.391290,229.828649
1185.276504,-9696.697840,1628.453072,229.828649
1185.276825,-9696.697840,814.226536,919.314598
1185.277146,-9770.718434,0.000000,1149.143247
1185.277467,-9400.615463,-1702.473667,383.047749
1185.277787,-9474.636058,-2590.720797,1378.971896
1185.278108,-9400.615463,-3478.967927,1608.800546
1185.278429,-9104.533087,-2442.679609,1532.190996
1185.278750,-9030.512492,-1554.432478,1225.752797
1185.279070,-9548.656652,0.000000,1378.971896
1185.279391,-9548.656652,888.247130,995.924147
1185.279712,-9770.718434,888.247130,919.314598
1185.280033,-9770.718434,592.164754,383.047749
1185.280353,-9992.780217,518.144159,0.000000
1185.280674,-9844.739029,-296.082377,153.219100
1185.280995,-9548.656652,-740.205942,-459.657299
1185.281316,-9696.697840,-518.144159,-383.047749
1185.281636,-9400.615463,74.020594,153.219100
1185.281957,-9696.697840,592.164754,76.609550
1185.282278,-10140.821405,1184.329507,689.485948
1185.282599,-9992.780217,1554.432478,1378.971896
1185.282919,-10436.903782,666.185348,3064.381992
1185.283240,-10140.821405,-814.226536,2528.115143
1185.283561,-9696.697840,-2442.679609,2451.505594
1185.283882,-9474.636058,-3256.906145,2298.286494
1185.284202,-9104.533087,-3330.926739,1685.410096
1185.284523,-8808.450710,-1998.556043,1762.019645
1185.284844,-9030.512492,-296.082377,2068.457845
1185.285165,-9622.677246,148.041188,2145.067394
1185.285485,-9104.533087,518.144159,1685.410096
1185.285806,-9474.636058,222.061783,842.705048
1185.286127,-9622.677246,0.000000,995.924147
1185.286448,-9474.636058,-592.164754,766.095498
1185.286768,-9622.677246,-296.082377,995.924147
1185.287089,-9400.615463,74.020594,995.924147
1185.287410,-9474.636058,592.164754,229.828649
1185.287731,-9992.780217,1332.370696,842.705048
1185.288051,-9918.759623,1480.411884,995.924147
1185.288372,-10288.862594,1554.432478,1685.410096
1185.288693,-10140.821405,962.267725,2145.067394
1185.289014,-9622.677246,-222.061783,2681.334243
1185.289334,-9770.718434,-1702.473667,3140.991542
1185.289655,-9474.636058,-2738.761985,2681.334243
1185.289976,-9326.594869,-3478.967927,2451.505594
1185.290297,-8734.430116,-2368.659014,1762.019645
1185.290617,-9104.533087,-1628.453072,1455.581446
1185.290938,-8882.471304,370.102971,766.095498
1185.291259,-9474.636058,444.123565,459.657299
1185.291580,-9474.636058,1036.288319,536.266849
1185.291900,-9622.677246,888.247130,76.609550
1185.292221,-9770.718434,0.000000,-76.609550
1185.292542,-10066.800811,-148.041188,-383.047749
1185.292863,-9844.739029,-148.041188,-919.314598
1185.293183,-9992.780217,74.020594,-766.095498
1185.293504,-9696.697840,814.226536,-842.705048
1185.293825,-9622.677246,1036.288319,-153.219100
1185.294146,-10140.821405,740.205942,306.438199
1185.294466,-9918.759623,592.164754,306.438199
1185.294787,-10066.800811,0.000000,1149.143247
1185.295108,-9770.718434,-1184.329507,1762.019645
1185.295429,-9104.533087,-1332.370696,3064.381992
1185.295749,-9474.636058,-3256.906145,2374.896044
1185.296070,-9178.553681,-3034.844362,1838.629195
1185.296391,-9178.553681,-1924.535449,1455.581446
1185.296712,-9400.615463,-518.144159,1532.190996
1185.297032,-9474.636058,592.164754,1608.800546
1185.297353,-9474.636058,1332.370696,995.924147
1185.297674,-9400.615463,1036.288319,459.657299
1185.297995,-9474.636058,740.205942,0.000000
1185.298315,-8956.491898,0.000000,-153.219100
1185.298636,-9992.780217,-148.041188,459.657299
1185.298957,-9844.739029,0.000000,0.000000
1185.299278,-9992.780217,518.144159,0.000000
1185.299598,-9178.553681,740.205942,2145.067394
1185.299919,-9844.739029,1554.432478,1378.971896
1185.300240,-10214.842000,1036.288319,1762.019645
1185.300561,-10140.821405,444.123565,1915.238745
1185.300881,-9844.739029,-1110.308913,2451.505594
1185.301202,-9548.656652,-2294.638420,2528.115143
1185.301523,-9474.636058,-2960.823768,2834.553343
1185.301844,-9030.512492,-2960.823768,2068.457845
1185.302164,-8882.471304,-1776.494261,1991.848295
1185.302485,-9326.594869,0.000000,1378.971896
1185.302806,-9178.553681,1258.350101,1225.752797
1185.303127,-9548.656652,1776.494261,1455.581446
1185.303447,-9770.718434,1406.391290,766.095498
1185.303768,-9548.656652,444.123565,0.000000
1185.304089,-9696.697840,0.000000,153.219100
1185.304410,-9770.718434,-740.205942,383.047749
1185.304730,-9696.697840,-888.247130,229.828649
1185.305051,-9548.656652,-592.164754,0.000000
1185.305372,-8956.491898,222.061783,0.000000
1185.305693,-9548.656652,888.247130,229.828649
1185.306013,-9770.718434,518.144159,766.095498
1185.306334,-9474.636058,296.082377,1532.190996
1185.306655,-10362.883188,-222.061783,1838.629195
1185.306976,-9548.656652,-2072.576638,2374.896044
1185.307296,-9252.574275,-3256.906145,2604.724693
1185.307617,-9326.594869,-3923.091493,2604.724693
1185.307938,-9104.533087,-2368.659014,1915.238745
1185.308259,-9178.553681,-1702.473667,2068.457845
1185.308579,-9178.553681,-296.082377,1378.971896
1185.308900,-9178.553681,592.164754,1072.533697
1185.309221,-9178.553681,666.185348,689.485948
1185.309542,-9400.615463,888.247130,0.000000
1185.309862,-9548.656652,222.061783,-153.219100
1185.310183,-9770.718434,148.041188,-76.609550
1185.310504,-9770.718434,0.000000,-612.876398
1185.310825,-10362.883188,740.205942,-229.828649
1185.311145,-10140.821405,814.226536,0.000000
1185.311466,-10510.924376,1480.411884,536.266849
1185.311787,-10140.821405,1258.350101,842.705048
1185.312108,-11103.089130,1258.350101,153.219100
1185.312428,-10140.821405,0.000000,1685.410096
1185.312749,-9918.759623,-1628.453072,1915.238745
1185.313070,-9548.656652,-2960.823768,2145.067394
1185.313391,-9474.636058,-3627.009116,1685.410096
1185.313711,-9178.553681,-3404.947333,1838.629195
1185.314032,-8808.450710,-1850.514855,1302.362347
1185.314353,-9400.615463,0.000000,1608.800546
1185.314674,-9548.656652,1184.329507,1838.629195
1185.314994,-9548.656652,1850.514855,1915.238745
1185.315315,-9844.739029,814.226536,1072.533697
1185.315636,-9548.656652,518.144159,612.876398
1185.315957,-10436.903782,-592.164754,842.705048
1185.316277,-10214.842000,518.144159,2145.067394
1185.316598,-9474.636058,-666.185348,383.047749
1185.316919,-9548.656652,-370.102971,0.000000
1185.317240,-9326.594869,740.205942,153.219100
1185.317560,-9844.739029,1332.370696,306.438199
1185.317881,-9622.677246,1332.370696,1225.752797
1185.318202,-9918.759623,740.205942,1838.629195
1185.318523,-9918.759623,-592.164754,2528.115143
1185.318843,-9474.636058,-1924.535449,3064.381992
1185.319164,-9326.594869,-3404.947333,2987.772442
1185.319485,-8956.491898,-3849.070898,2451.505594
1185.319806,-9030.512492,-2812.782580,2221.676944
1185.320126,-9030.512492,-1480.411884,2374.896044
1185.320447,-8216.285956,518.144159,2834.553343
1185.320768,-9030.512492,592.164754,1225.752797
1185.321089,-9030.512492,1036.288319,536.266849
1185.321409,-9400.615463,592.164754,0.000000
1185.321730,-9622.677246,74.020594,0.000000
1185.322051,-9844.739029,-148.041188,-536.266849
1185.322372,-10140.821405,0.000000,-153.219100
1185.322692,-10066.800811,148.041188,0.000000
1185.323013,-10066.800811,1036.288319,0.000000
1185.323334,-10658.965565,2368.659014,459.657299
1185.323655,-10140.821405,1702.473667,842.705048
1185.323975,-10214.842000,1184.329507,1378.971896
1185.324296,-10214.842000,74.020594,1991.848295
1185.324617,-9770.718434,-370.102971,3524.039291
1185.324938,-9918.759623,-2886.803174,2528.115143
1185.325258,-9326.594869,-3627.009116,1838.629195
1185.325579,-9030.512492,-3256.906145,1225.752797
1185.325900,-9030.512492,-1480.411884,1149.143247
1185.326221,-9178.553681,0.000000,1072.533697
1185.326541,-9252.574275,1184.329507,995.924147
1185.326862,-9474.636058,1406.391290,842.705048
1185.327183,-9622.677246,1184.329507,459.657299
1185.327504,-10214.842000,962.267725,0.000000
1185.327824,-10066.800811,-74.020594,229.828649
1185.328145,-9918.759623,-518.144159,0.000000
1185.328466,-9918.759623,-296.082377,-153.219100
1185.328787,-9622.677246,518.144159,-306.438199
1185.329107,-9696.697840,1258.350101,76.609550
1185.329428,-9844.739029,1258.350101,689.485948
1185.329749,-9696.697840,1258.350101,1072.533697
1185.330070,-9918.759623,222.061783,1378.971896
1185.330390,-9696.697840,-962.267725,2221.676944
1185.330711,-9548.656652,-2368.659014,2604.724693
1185.331032,-9252.574275,-3701.029710,2681.334243
1185.331353,-8660.409521,-3552.988522,2451.505594
1185.331673,-9178.553681,-2368.659014,2068.457845
1185.331994,-9178.553681,-1258.350101,2451.505594
1185.332315,-9030.512492,0.000000,1991.848295
1185.332636,-9326.594869,518.144159,1608.800546
1185.332956,-8808.450710,666.185348,995.924147
1185.333277,-9252.574275,444.123565,-76.609550
1185.333598,-9178.553681,0.000000,-306.438199
1185.333919,-9326.594869,-222.061783,-766.095498
1185.334239,-9622.677246,0.000000,-766.095498
1185.334560,-9918.759623,444.123565,-766.095498
1185.334881,-9844.739029,888.247130,0.000000
1185.335202,-10140.821405,888.247130,383.047749
1185.335522,-10436.903782,592.164754,1225.752797
1185.335843,-10881.027347,592.164754,1915.238745
1185.336164,-10510.924376,-666.185348,2145.067394
1185.336485,-9844.739029,-1332.370696,2451.505594
1185.336805,-9844.739029,-3034.844362,2145.067394
1185.337126,-9178.553681,-3552.988522,2987.772442
1185.337447,-8882.471304,-2812.782580,1378.971896
1185.337768,-8882.471304,-1554.432478,1225.752797
1185.338088,-9474.636058,222.061783,1532.190996
1185.338409,-9474.636058,1184.329507,1608.800546
1185.338730,-9622.677246,1184.329507,1378.971896
1185.339051,-9918.759623,592.164754,1149.143247
1185.339371,-9992.780217,-222.061783,612.876398
1185.339692,-9696.697840,-296.082377,536.266849
1185.340013,-9548.656652,-962.267725,0.000000
1185.340334,-9770.718434,0.000000,76.609550
1185.340654,-9622.677246,518.144159,0.000000
1185.340975,-9696.697840,1110.308913,383.047749
1185.341296,-9548.656652,666.185348,383.047749
1185.341617,-9844.739029,666.185348,1455.581446
1185.341937,-10066.800811,0.000000,1991.848295
1185.342258,-9844.739029,-1332.370696,2604.724693
1185.342579,-9548.656652,-2516.700203,2987.772442
1185.342900,-9326.594869,-3701.029710,2681.334243
1185.343220,-8882.471304,-3256.906145,2528.115143
1185.343541,-9030.512492,-2146.597232,2298.286494
1185.343862,-9104.533087,-666.185348,1991.848295
1185.344183,-9030.512492,148.041188,1532.190996
1185.344503,-8882.471304,518.144159,766.095498
1185.344824,-9104.533087,518.144159,76.609550
1185.345145,-9474.636058,222.061783,-229.828649
1185.345466,-9696.697840,0.000000,-153.219100
1185.345786,-9622.677246,0.000000,-306.438199
1185.346107,-9844.739029,370.102971,-383.047749
1185.346428,-9844.739029,740.205942,-306.438199
1185.346749,-9918.759623,1406.391290,459.657299
1185.347069,-9844.739029,962.267725,383.047749
1185.347390,-10066.800811,666.185348,1302.362347
1185.347711,-10140.821405,74.020594,1532.190996
1185.348032,-9918.759623,-1184.329507,2298.286494
1185.348352,-9474.636058,-2368.659014,3064.381992
1185.348673,-9252.574275,-3108.864956,2145.067394
1185.348994,-8956.491898,-3034.844362,1302.362347
1185.349315,-8808.450710,-1554.432478,1302.362347
1185.349635,-9104.533087,-296.082377,2681.334243
1185.349956,-9474.636058,1110.308913,1378.971896
1185.350277,-9622.677246,1554.432478,1225.752797
1185.350598,-9696.697840,1110.308913,995.924147
1185.350918,-9770.718434,222.061783,689.485948
1185.351239,-9992.780217,-296.082377,612.876398
1185.351560,-9770.718434,-1036.288319,0.000000
1185.351881,-9474.636058,-592.164754,-536.266849
1185.352201,-9696.697840,0.000000,-383.047749
1185.352522,-10066.800811,1406.391290,-153.219100
1185.352843,-9770.718434,1406.391290,76.609550
1185.353164,-10140.821405,1258.350101,612.876398
1185.353484,-9844.739029,814.226536,1455.581446
1185.353805,-10436.903782,-1406.391290,2221.676944
1185.354126,-9696.697840,-1406.391290,2298.286494
1185.354447,-9474.636058,-2516.700203,2451.505594
1185.354767,-9474.636058,-3256.906145,2451.505594
1185.355088,-8956.491898,-2738.761985,2145.067394
1185.355409,-9030.512492,-1554.432478,1838.629195
1185.355730,-9178.553681,-370.102971,1685.410096
1185.356050,-8882.471304,370.102971,1225.752797
1185.356371,-9400.615463,888.247130,919.314598
1185.356692,-9030.512492,888.247130,612.876398
1185.357013,-9252.574275,370.102971,0.000000
1185.357333,-9474.636058,0.000000,0.000000
1185.357654,-9770.718434,148.041188,0.000000
1185.357975,-10436.903782,1628.453072,-383.047749
1185.358296,-10066.800811,1110.308913,0.000000
1185.358616,-9844.739029,1924.535449,383.047749
1185.358937,-10066.800811,2146.597232,689.485948
1185.359258,-10436.903782,1406.391290,1455.581446
1185.359579,-10066.800811,74.020594,1915.238745
1185.359899,-9770.718434,-1480.411884,1838.629195
1185.360220,-9474.636058,-2960.823768,2221.676944
1185.360541,-9252.574275,-3478.967927,1991.848295
1185.360862,-9178.553681,-3108.864956,1685.410096
1185.361182,-9030.512492,-2146.597232,1838.629195
1185.361503,-9104.533087,-518.144159,1915.238745
1185.361824,-9474.636058,444.123565,1608.800546
1185.362145,-9622.677246,2146.597232,76.609550
1185.362465,-9844.739029,518.144159,1225.752797
1185.362786,-9474.636058,0.000000,1072.533697
1185.363107,-9918.759623,-592.164754,536.266849
1185.363428,-9474.636058,-592.164754,153.219100
1185.363748,-9548.656652,0.000000,0.000000
1185.364069,-9844.739029,444.123565,76.609550
1185.364390,-9622.677246,1480.411884,0.000000
1185.364711,-9918.759623,1850.514855,153.219100
1185.365031,-10288.862594,1702.473667,919.314598
1185.365352,-10288.862594,814.226536,1685.410096
1185.365673,-10140.821405,-962.267725,1915.238745
1185.365994,-9696.697840,-2516.700203,2451.505594
1185.366314,-9770.718434,-3552.988522,4366.744339
1185.366635,-9104.533087,-4219.173869,2145.067394
1185.366956,-8512.368333,-2960.823768,1608.800546
1185.367277,-9178.553681,-1110.308913,1608.800546
1185.367597,-8882.471304,222.061783,1225.752797
1185.367918,-9252.574275,1406.391290,612.876398
1185.368239,-9326.594869,1184.329507,76.609550
1185.368560,-9178.553681,444.123565,0.000000
1185.368880,-9696.697840,-296.082377,-153.219100
1185.369201,-9622.677246,-740.205942,306.438199
1185.369522,-9844.739029,-444.123565,-229.828649
1185.369843,-10362.883188,296.082377,0.000000
1185.370163,-9992.780217,962.267725,383.047749
1185.370484,-10436.903782,1036.288319,229.828649
1185.370805,-9918.759623,1036.288319,689.485948
1185.371125,-9918.759623,444.123565,1149.143247
1185.371446,-9992.780217,-814.226536,1838.629195
1185.371767,-9770.718434,-1924.535449,2528.115143
1185.372088,-9252.574275,-3256.906145,2834.553343
1185.372408,-9104.533087,-3552.988522,2757.943793
1185.372729,-9104.533087,-3256.906145,2068.457845
1185.373050,-9030.512492,-1258.350101,1455.581446
1185.373371,-9400.615463,148.041188,1455.581446
1185.373691,-9326.594869,1258.350101,1455.581446
1185.374012,-9326.594869,1406.391290,1072.533697
1185.374333,-9474.636058,592.164754,0.000000
1185.374653,-9548.656652,-296.082377,0.000000
1185.374974,-9548.656652,-444.123565,-229.828649
1185.375295,-9548.656652,-518.144159,-229.828649
1185.375616,-9918.759623,148.041188,306.438199
1185.375936,-9696.697840,962.267725,459.657299
1185.376257,-9992.780217,1258.350101,842.705048
1185.376578,-10214.842000,1036.288319,919.314598
1185.376899,-9992.780217,888.247130,1378.971896
1185.377219,-10362.883188,518.144159,2298.286494
1185.377540,-9622.677246,-148.041188,4443.353888
1185.377861,-9474.636058,-2146.597232,2987.772442
1185.378182,-9474.636058,-3256.906145,2834.553343
1185.378502,-9326.594869,-3330.926739,2145.067394
1185.378823,-9178.553681,-1998.556043,2451.505594
1185.379144,-9252.574275,-666.185348,1838.629195
1185.379464,-9178.553681,814.226536,1302.362347
1185.379785,-9400.615463,1332.370696,1149.143247
1185.380106,-9178.553681,1184.329507,383.047749
1185.380427,-9400.615463,962.267725,-383.047749
1185.380747,-9770.718434,222.061783,0.000000
1185.381068,-9696.697840,-296.082377,-153.219100
1185.381389,-9918.759623,0.000000,-459.657299
1185.381710,-10066.800811,592.164754,1915.238745
1185.382030,-9622.677246,666.185348,-536.266849
1185.382351,-9474.636058,1258.350101,-306.438199
1185.382672,-9844.739029,1184.329507,612.876398
1185.382992,-10140.821405,518.144159,1225.752797
1185.383313,-10214.842000,-814.226536,1685.410096
1185.383634,-9770.718434,-2368.659014,2298.286494
1185.383955,-9474.636058,-3552.988522,2374.896044
1185.384275,-9326.594869,-3923.091493,1685.410096
1185.384596,-9696.697840,-1850.514855,1302.362347
1185.384917,-8660.409521,-814.226536,1149.143247
1185.385238,-9178.553681,888.247130,1685.410096
1185.385558,-9252.574275,1554.432478,919.314598
1185.385879,-9400.615463,1110.308913,1149.143247
1185.386200,-9326.594869,814.226536,0.000000
1185.386521,-9770.718434,222.061783,-229.828649
1185.386841,-9992.780217,0.000000,76.609550
1185.387162,-9992.780217,-148.041188,229.828649
1185.387483,-10066.800811,0.000000,153.219100
1185.387803,-9770.718434,888.247130,766.095498
1185.388124,-9992.780217,1258.350101,919.314598
1185.388445,-10214.842000,1628.453072,1762.019645
1185.388766,-10584.944971,1258.350101,2068.457845
1185.389086,-10140.821405,592.164754,2604.724693
1185.389407,-9844.739029,-1110.308913,2681.334243
1185.389728,-9548.656652,-2368.659014,3217.601092
1185.390049,-9622.677246,-4071.132681,3140.991542
1185.390369,-8882.471304,-3923.091493,2834.553343
1185.390690,-9178.553681,-2960.823768,2374.896044
1185.391011,-9178.553681,-1036.288319,2068.457845
1185.391331,-9326.594869,0.000000,1685.410096
1185.391652,-9178.553681,740.205942,842.705048
1185.391973,-9178.553681,888.247130,306.438199
1185.392294,-9400.615463,222.061783,459.657299
1185.392614,-9696.697840,-370.102971,0.000000
1185.392935,-9696.697840,-814.226536,-612.876398
1185.393256,-9918.759623,-74.020594,-383.047749
1185.393577,-9474.636058,444.123565,-229.828649
1185.393897,-10066.800811,1184.329507,229.828649
1185.394218,-9992.780217,2368.659014,1838.629195
1185.394539,-10288.862594,1184.329507,1378.971896
1185.394860,-10214.842000,0.000000,1685.410096
1185.395180,-9992.780217,-1184.329507,2374.896044
1185.395501,-9548.656652,-2664.741391,2145.067394
1185.395822,-9252.574275,-3478.967927,2221.676944
1185.396142,-8882.471304,-3701.029710,1302.362347
1185.396463,-8660.409521,-2294.638420,842.705048
1185.396784,-9030.512492,-666.185348,842.705048
1185.397105,-9696.697840,740.205942,689.485948
1185.397425,-9474.636058,1702.473667,76.609550
1185.397746,-9918.759623,1628.453072,0.000000
1185.398067,-9770.718434,1036.288319,-306.438199
1185.398388,-9474.636058,148.041188,-383.047749
1185.398708,-10214.842000,-888.247130,-383.047749
1185.399029,-9474.636058,-962.267725,-766.095498
1185.399350,-9548.656652,-518.144159,-766.095498
1185.399671,-9696.697840,148.041188,0.000000
1185.399991,-9844.739029,888.247130,229.828649
1185.400312,-10288.862594,1332.370696,1072.533697
1185.400633,-9918.759623,1110.308913,1608.800546
1185.400953,-10288.862594,222.061783,2451.505594
1185.401274,-9770.718434,-740.205942,2834.553343
1185.401595,-9696.697840,-2886.803174,3677.258390
1185.401916,-9400.615463,-3923.091493,2987.772442
1185.402236,-8882.471304,-3701.029710,2221.676944
1185.402557,-9252.574275,-2368.659014,1608.800546
1185.402878,-9400.615463,-444.123565,2068.457845
1185.403199,-9178.553681,740.205942,1991.848295
1185.403519,-9474.636058,1110.308913,1532.190996
1185.403840,-9178.553681,740.205942,1225.752797
1185.404161,-9474.636058,0.000000,919.314598
1185.404481,-9696.697840,-962.267725,1149.143247
1185.404802,-9696.697840,-962.267725,612.876398
1185.405123,-9844.739029,0.000000,229.828649
1185.405444,-9770.718434,814.226536,153.219100
1185.405764,-9622.677246,1406.391290,689.485948
1185.406085,-9992.780217,1554.432478,1225.752797
1185.406406,-10214.842000,1184.329507,1838.629195
1185.406727,-10066.800811,-814.226536,1072.533697
1185.407047,-9770.718434,-1628.453072,2681.334243
1185.407368,-9548.656652,-2960.823768,2528.115143
1185.407689,-9474.636058,-3330.926739,2681.334243
1185.408010,-9326.594869,-3404.947333,1762.019645
1185.408330,-8586.388927,-1776.494261,1685.410096
1185.408651,-9252.574275,74.020594,1302.362347
1185.408972,-9030.512492,1480.411884,1072.533697
1185.409292,-9696.697840,1850.514855,995.924147
1185.409613,-10214.842000,1776.494261,0.000000
1185.409934,-9548.656652,740.205942,0.000000
1185.410255,-10214.842000,-222.061783,0.000000
1185.410575,-9696.697840,-666.185348,0.000000
1185.410896,-10510.924376,-444.123565,153.219100
1185.411217,-9104.533087,444.123565,-689.485948
1185.411538,-10066.800811,1036.288319,-766.095498
1185.411858,-9844.739029,1628.453072,-536.266849
1185.412179,-9992.780217,2072.576638,383.047749
1185.412500,-10214.842000,962.267725,1072.533697
1185.412820,-10214.842000,74.020594,1378.971896
1185.413141,-10140.821405,-1776.494261,2068.457845
1185.413462,-9992.780217,-3108.864956,2374.896044
1185.413783,-9622.677246,-3478.967927,2374.896044
1185.414103,-9178.553681,-2442.679609,1455.581446
1185.414424,-9030.512492,-1036.288319,919.314598
1185.414745,-9104.533087,296.082377,766.095498
1185.415066,-8586.388927,1184.329507,2451.505594
1185.415386,-9178.553681,1036.288319,76.609550
1185.415707,-9400.615463,518.144159,0.000000
1185.416028,-9622.677246,-148.041188,-153.219100
1185.416349,-9844.739029,-666.185348,306.438199
1185.416669,-9844.739029,-518.144159,306.438199
1185.416990,-10066.800811,0.000000,536.266849
1185.417311,-10214.842000,1258.350101,842.705048
1185.417631,-9844.739029,1628.453072,766.095498
1185.417952,-9770.718434,1776.494261,1225.752797
1185.418273,-10214.842000,814.226536,1991.848295
1185.418594,-9844.739029,-666.185348,2374.896044
1185.418914,-9696.697840,-2294.638420,2528.115143
1185.419235,-8512.368333,-3256.906145,2757.943793
1185.419556,-9104.533087,-3849.070898,2451.505594
1185.419877,-8956.491898,-2960.823768,2221.676944
1185.420197,-8882.471304,-1036.288319,2298.286494
1185.420518,-9474.636058,592.164754,1838.629195
1185.420839,-9252.574275,1480.411884,1685.410096
1185.421159,-9622.677246,1850.514855,919.314598
1185.421480,-9696.697840,1332.370696,1149.143247
1185.421801,-9770.718434,740.205942,306.438199
1185.422122,-9030.512492,-592.164754,306.438199
1185.422442,-9622.677246,-666.185348,153.219100
1185.422763,-9548.656652,-444.123565,0.000000
1185.423084,-9622.677246,222.061783,0.000000
1185.423405,-9622.677246,666.185348,-766.095498
1185.423725,-9770.718434,1332.370696,612.876398
1185.424046,-9992.780217,1036.288319,1455.581446
1185.424367,-9992.780217,222.061783,1838.629195
1185.424688,-10140.821405,-1184.329507,2298.286494
1185.425008,-9696.697840,-3182.885551,2528.115143
1185.425329,-9474.636058,-3701.029710,2374.896044
1185.425650,-8882.471304,-3775.050304,1915.238745
1185.425970,-9178.553681,-2516.700203,2221.676944
1185.426291,-8808.450710,-814.226536,1378.971896
1185.426612,-8956.491898,296.082377,1072.533697
1185.426933,-9030.512492,666.185348,766.095498
1185.427253,-9030.512492,518.144159,0.000000
1185.427574,-9104.533087,-222.061783,-1072.533697
1185.427895,-9622.677246,-370.102971,0.000000
1185.428216,-9400.615463,-666.185348,0.000000
1185.428536,-9844.739029,-814.226536,0.000000
1185.428857,-9918.759623,0.000000,459.657299
1185.429178,-9918.759623,592.164754,383.047749
1185.429498,-10362.883188,1628.453072,842.705048
1185.429819,-10214.842000,1554.432478,842.705048
1185.430140,-10288.862594,1036.288319,1608.800546
1185.430461,-10066.800811,-148.041188,1608.800546
1185.430781,-9844.739029,-1924.535449,2068.457845
1185.431102,-9400.615463,-3108.864956,1685.410096
1185.431423,-9252.574275,-3552.988522,1302.362347
1185.431744,-8734.430116,-2294.638420,1225.752797
1185.432064,-9030.512492,-1036.288319,1378.971896
1185.432385,-9474.636058,222.061783,1455.581446
1185.432706,-9474.636058,1110.308913,1149.143247
1185.433027,-9992.780217,1110.308913,612.876398
1185.433347,-9474.636058,-222.061783,1225.752797
1185.433668,-9844.739029,0.000000,229.828649
1185.433989,-9992.780217,-592.164754,229.828649
1185.434309,-9770.718434,-74.020594,153.219100
1185.434630,-9992.780217,592.164754,0.000000
1185.434951,-10066.800811,1258.350101,306.438199
1185.435272,-10140.821405,1776.494261,536.266849
1185.435592,-9844.739029,1776.494261,1225.752797
1185.435913,-10362.883188,444.123565,1072.533697
1185.436234,-8586.388927,296.082377,1991.848295
1185.436555,-9770.718434,-1258.350101,2757.943793
1185.436875,-9400.615463,-2664.741391,3064.381992
1185.437196,-9326.594869,-3627.009116,3524.039291
1185.437517,-8956.491898,-3256.906145,3983.696590
1185.437838,-8808.450710,-2294.638420,2604.724693
1185.438158,-9030.512492,-740.205942,2451.505594
1185.438479,-9178.553681,74.020594,2221.676944
1185.438800,-9178.553681,444.123565,1378.971896
1185.439120,-8956.491898,444.123565,689.485948
1185.439441,-9178.553681,74.020594,689.485948
1185.439762,-9770.718434,-222.061783,536.266849
1185.440083,-9548.656652,-444.123565,76.609550
1185.440403,-9030.512492,0.000000,-229.828649
1185.440724,-9696.697840,666.185348,153.219100
1185.441045,-9844.739029,1628.453072,0.000000
1185.441366,-10066.800811,1850.514855,536.266849
1185.441686,-9992.780217,444.123565,689.485948
1185.442007,-10140.821405,296.082377,1532.190996
1185.442328,-9992.780217,-1036.288319,1608.800546
1185.442648,-9844.739029,-2368.659014,1838.629195
1185.442969,-9400.615463,-3108.864956,2298.286494
1185.443290,-9548.656652,-3552.988522,766.095498
1185.443611,-8808.450710,-2220.617826,995.924147
1185.443931,-9030.512492,-888.247130,383.047749
1185.444252,-9326.594869,148.041188,459.657299
1185.444573,-9696.697840,370.102971,0.000000
1185.444894,-9918.759623,814.226536,153.219100
1185.445214,-9696.697840,666.185348,-306.438199
1185.445535,-9918.759623,0.000000,-306.438199
1185.445856,-10066.800811,-592.164754,-612.876398
1185.446177,-10140.821405,0.000000,-689.485948
1185.446497,-9918.759623,814.226536,-689.485948
1185.446818,-9992.780217,1480.411884,-383.047749
1185.447139,-9770.718434,1924.535449,0.000000
1185.447459,-10881.027347,1850.514855,766.095498
1185.447780,-9992.780217,666.185348,919.314598
1185.448101,-10214.842000,0.000000,2068.457845
1185.448422,-9622.677246,-1776.494261,2451.505594
1185.448742,-9400.615463,-2812.782580,2757.943793
1185.449063,-9178.553681,-4071.132681,2911.162892
1185.449384,-8808.450710,-3256.906145,2451.505594
1185.449705,-9030.512492,-2146.597232,2451.505594
1185.450025,-8808.450710,-518.144159,2145.067394
1185.450346,-8882.471304,370.102971,1838.629195
1185.450667,-9178.553681,740.205942,1225.752797
1185.450987,-9104.533087,222.061783,612.876398
1185.451308,-9474.636058,74.020594,459.657299
1185.451629,-9992.780217,296.082377,612.876398
1185.451950,-9992.780217,-370.102971,689.485948
1185.452270,-10214.842000,0.000000,766.095498
1185.452591,-9770.718434,370.102971,689.485948
1185.452912,-9474.636058,666.185348,306.438199
1185.453233,-9844.739029,1110.308913,1225.752797
1185.453553,-10288.862594,962.267725,2374.896044
1185.453874,-10436.903782,-370.102971,2528.115143
1185.454195,-9992.780217,-1776.494261,4749.792088
1185.454516,-9548.656652,-3256.906145,3140.991542
1185.454836,-9400.615463,-4071.132681,2604.724693
1185.455157,-9400.615463,-3701.029710,2528.115143
1185.455478,-9178.553681,-2294.638420,2221.676944
1185.455798,-9252.574275,0.000000,1991.848295
1185.456119,-9326.594869,814.226536,1072.533697
1185.456440,-9030.512492,1332.370696,459.657299
1185.456761,-9622.677246,962.267725,0.000000
1185.457081,-9844.739029,370.102971,-1532.190996
1185.457402,-10140.821405,-296.082377,0.000000
1185.457723,-9992.780217,-444.123565,-153.219100
1185.458044,-10066.800811,0.000000,-383.047749
1185.458364,-9918.759623,666.185348,-153.219100
1185.458685,-9770.718434,1554.432478,229.828649
1185.459006,-9918.759623,1554.432478,0.000000
1185.459326,-10066.800811,1554.432478,306.438199
1185.459647,-10140.821405,888.247130,766.095498
1185.459968,-10066.800811,-222.061783,2221.676944
1185.460289,-9622.677246,-1924.535449,2068.457845
1185.460609,-9252.574275,-2960.823768,1838.629195
1185.460930,-9030.512492,-3330.926739,1455.581446
1185.461251,-9104.533087,-2368.659014,3217.601092
1185.461572,-9326.594869,-1184.329507,2298.286494
1185.461892,-9400.615463,-296.082377,1378.971896
1185.462213,-9104.533087,444.123565,1072.533697
1185.462534,-9104.533087,296.082377,536.266849
1185.462855,-9326.594869,444.123565,229.828649
1185.463175,-9474.636058,222.061783,76.609550
1185.463496,-9326.594869,-444.123565,0.000000
1185.463817,-9326.594869,0.000000,-383.047749
1185.464137,-9474.636058,740.205942,-383.047749
1185.464458,-9696.697840,962.267725,0.000000
1185.464779,-9844.739029,1406.391290,612.876398
1185.465100,-9844.739029,1332.370696,995.924147
1185.465420,-9844.739029,740.205942,2145.067394
1185.465741,-10066.800811,-518.144159,2374.896044
1185.466062,-9918.759623,-2368.659014,2451.505594
1185.466383,-9474.636058,-3478.967927,2451.505594
1185.466703,-9252.574275,-3849.070898,2451.505594
1185.467024,-8808.450710,-3034.844362,2221.676944
1185.467345,-9178.553681,-1480.411884,2145.067394
1185.467665,-9326.594869,0.000000,1991.848295
1185.467986,-9400.615463,1110.308913,1838.629195
1185.468307,-9030.512492,1110.308913,1225.752797
1185.468628,-9770.718434,592.164754,1225.752797
1185.468948,-9844.739029,0.000000,995.924147
1185.469269,-9992.780217,-814.226536,842.705048
1185.469590,-10214.842000,-666.185348,612.876398
1185.469910,-9696.697840,0.000000,-229.828649
1185.470231,-9696.697840,740.205942,-229.828649
1185.470552,-9548.656652,1554.432478,0.000000
1185.470872,-9918.759623,1850.514855,76.609550
1185.471193,-9992.780217,1998.556043,995.924147
1185.471514,-10436.903782,518.144159,1532.190996
1185.471834,-9918.759623,-962.267725,2374.896044
1185.472155,-9770.718434,-2590.720797,2604.724693
1185.472476,-9104.533087,-3849.070898,2451.505594
1185.472796,-9474.636058,-3552.988522,2298.286494
1185.473117,-9252.574275,-2516.700203,1915.238745
1185.473438,-9252.574275,-962.267725,1685.410096
1185.473758,-9178.553681,296.082377,1149.143247
1185.474079,-9326.594869,1036.288319,689.485948
1185.474400,-9326.594869,814.226536,0.000000
1185.474720,-9178.553681,370.102971,-536.266849
1185.475041,-9474.636058,0.000000,-536.266849
1185.475362,-9400.615463,-148.041188,-383.047749
1185.475682,-9992.780217,0.000000,-459.657299
1185.476003,-9918.759623,222.061783,-229.828649
1185.476324,-10140.821405,1480.411884,229.828649
1185.476644,-9844.739029,2072.576638,842.705048
1185.476965,-10436.903782,1406.391290,1225.752797
1185.477286,-10140.821405,296.082377,1915.238745
1185.477606,-9770.718434,-962.267725,2298.286494
1185.477927,-9622.677246,-2738.761985,2528.115143
1185.478248,-9178.553681,-3627.009116,2528.115143
1185.478568,-9104.533087,-3775.050304,2221.676944
1185.478889,-8586.388927,-2516.700203,1762.019645
1185.479210,-9030.512492,-370.102971,1991.848295
1185.479530,-9474.636058,1110.308913,1608.800546
1185.479851,-9400.615463,1702.473667,1302.362347
1185.480172,-9548.656652,888.247130,766.095498
1185.480492,-9622.677246,444.123565,306.438199
1185.480813,-9696.697840,-666.185348,-306.438199
1185.481134,-9992.780217,-592.164754,689.485948
1185.481454,-9770.718434,-296.082377,0.000000
1185.481775,-9696.697840,518.144159,0.000000
1185.482096,-9770.718434,1258.350101,0.000000
1185.482416,-9844.739029,1480.411884,306.438199
1185.482737,-9992.780217,1184.329507,612.876398
1185.483058,-9622.677246,888.247130,995.924147
1185.483378,-10214.842000,0.000000,1838.629195
1185.483699,-9400.615463,-1480.411884,2911.162892
1185.484020,-9548.656652,-2738.761985,2987.772442
1185.484340,-9474.636058,-3627.009116,2604.724693
1185.484661,-9326.594869,-2960.823768,1685.410096
1185.484982,-8068.244768,-2516.700203,3217.601092
1185.485302,-9400.615463,0.000000,2374.896044
1185.485623,-9326.594869,740.205942,1838.629195
1185.485943,-9474.636058,962.267725,919.314598
1185.486264,-8882.471304,666.185348,76.609550
1185.486585,-9474.636058,592.164754,76.609550
1185.486905,-10140.821405,-370.102971,536.266849
1185.487226,-9400.615463,-148.041188,153.219100
1185.487547,-10288.862594,-148.041188,0.000000
1185.487867,-9696.697840,444.123565,-459.657299
1185.488188,-9770.718434,1110.308913,383.047749
1185.488509,-10288.862594,1554.432478,1455.581446
1185.488829,-9992.780217,962.267725,1225.752797
1185.489150,-10288.862594,1110.308913,919.314598
1185.489471,-9844.739029,-1184.329507,2145.067394
1185.489791,-9474.636058,-2812.782580,2145.067394
1185.490112,-9474.636058,-3552.988522,1915.238745
1185.490433,-8956.491898,-3775.050304,1915.238745
1185.490753,-8438.347739,-2368.659014,1685.410096
1185.491074,-9252.574275,-888.247130,1455.581446
1185.491395,-9474.636058,0.000000,1455.581446
1185.491715,-9030.512492,962.267725,689.485948
1185.492036,-9696.697840,814.226536,612.876398
1185.492357,-9400.615463,0.000000,0.000000
1185.492677,-9548.656652,-740.205942,229.828649
1185.492998,-9622.677246,-1406.391290,-229.828649
1185.493319,-9252.574275,-1036.288319,-536.266849
1185.493639,-9474.636058,370.102971,-383.047749
1185.493960,-9696.697840,1110.308913,-76.609550
1185.494281,-10066.800811,1554.432478,383.047749
1185.494601,-10214.842000,1332.370696,919.314598
1185.494922,-10066.800811,1036.288319,1532.190996
1185.495243,-10362.883188,296.082377,1991.848295
1185.495563,-10066.800811,-1258.350101,2528.115143
1185.495884,-9918.759623,-2516.700203,2911.162892
1185.496205,-9474.636058,-3330.926739,2834.553343
1185.496525,-8956.491898,-2812.782580,1991.848295
1185.496846,-9548.656652,-1554.432478,2145.067394
1185.497167,-8808.450710,0.000000,1991.848295
1185.497487,-9770.718434,1258.350101,1072.533697
1185.497808,-9326.594869,1110.308913,1072.533697
1185.498129,-9400.615463,1036.288319,536.266849
1185.498449,-9918.759623,370.102971,383.047749
1185.498770,-10066.800811,-444.123565,383.047749
1185.499091,-9696.697840,-444.123565,0.000000
1185.499411,-9992.780217,74.020594,0.000000
1185.499732,-9548.656652,740.205942,-383.047749
1185.500053,-9622.677246,1554.432478,-153.219100
1185.500373,-10140.821405,1998.556043,612.876398
1185.500694,-9918.759623,1258.350101,1149.143247
1185.501015,-9918.759623,-74.020594,1915.238745
1185.501335,-9918.759623,-1850.514855,2068.457845
1185.501656,-9474.636058,-3330.926739,1991.848295
1185.501977,-9326.594869,-4145.153275,2451.505594
1185.502297,-8956.491898,-3701.029710,2145.067394
1185.502618,-8438.347739,-1554.432478,1378.971896
1185.502939,-8956.491898,148.041188,1455.581446
1185.503259,-9474.636058,1406.391290,1302.362347
1185.503580,-9030.512492,1406.391290,842.705048
1185.503901,-9622.677246,888.247130,0.000000
1185.504221,-9548.656652,370.102971,0.000000
1185.504542,-9252.574275,0.000000,0.000000
1185.504863,-10066.800811,-296.082377,0.000000
1185.505183,-9844.739029,222.061783,-459.657299
1185.505504,-9622.677246,740.205942,0.000000
1185.505825,-9252.574275,1258.350101,612.876398
1185.506145,-9844.739029,1406.391290,536.266849
1185.506466,-9992.780217,1184.329507,1378.971896
1185.506787,-10214.842000,740.205942,1838.629195
1185.507107,-9844.739029,-444.123565,2451.505594
1185.507428,-9474.636058,-2516.700203,2298.286494
1185.507748,-8956.491898,-3108.864956,2451.505594
1185.508069,-9474.636058,-4145.153275,1991.848295
1185.508390,-8734.430116,-2442.679609,1915.238745
1185.508710,-9548.656652,-814.226536,2451.505594
1185.509031,-9474.636058,0.000000,2145.067394
1185.509352,-9252.574275,888.247130,842.705048
1185.509672,-9548.656652,888.247130,536.266849
1185.509993,-9400.615463,888.247130,383.047749
1185.510314,-9474.636058,518.144159,-536.266849
1185.510634,-10362.883188,0.000000,306.438199
1185.510955,-9622.677246,-518.144159,0.000000
1185.511276,-9770.718434,370.102971,0.000000
1185.511596,-10214.842000,888.247130,612.876398
1185.511917,-9474.636058,1258.350101,459.657299
1185.512238,-10066.800811,740.205942,1225.752797
1185.512558,-10214.842000,74.020594,1991.848295
1185.512879,-9770.718434,-1110.308913,2374.896044
1185.513200,-9770.718434,-2812.782580,2757.943793
1185.513520,-9252.574275,-3849.070898,1608.800546
1185.513841,-9104.533087,-3849.070898,2374.896044
1185.514162,-8882.471304,-3034.844362,1762.019645
1185.514482,-8586.388927,-962.267725,1378.971896
1185.514803,-9474.636058,666.185348,1838.629195
1185.515124,-9030.512492,1850.514855,1072.533697
1185.515444,-9326.594869,888.247130,766.095498
1185.515765,-9548.656652,148.041188,612.876398
1185.516086,-9548.656652,-296.082377,459.657299
1185.516406,-9844.739029,-370.102971,76.609550
1185.516727,-9622.677246,-814.226536,1685.410096
1185.517048,-9770.718434,74.020594,0.000000
1185.517368,-9622.677246,814.226536,0.000000
1185.517689,-9622.677246,1110.308913,0.000000
1185.518010,-9918.759623,1258.350101,612.876398
1185.518330,-9992.780217,1628.453072,229.828649
1185.518651,-10140.821405,444.123565,1455.581446
1185.518972,-9918.759623,-962.267725,2221.676944
1185.519292,-9696.697840,-2368.659014,2451.505594
1185.519613,-9770.718434,-3034.844362,2451.505594
1185.519934,-9548.656652,-2664.741391,3600.648841
1185.520254,-9474.636058,-1998.556043,2068.457845
1185.520575,-9400.615463,-1184.329507,1608.800546
1185.520896,-9030.512492,0.000000,995.924147
1185.521216,-9400.615463,148.041188,842.705048
1185.521537,-9178.553681,0.000000,383.047749
1185.521858,-9474.636058,74.020594,-383.047749
1185.522178,-9548.656652,0.000000,-459.657299
1185.522499,-9770.718434,222.061783,-536.266849
1185.522820,-9992.780217,592.164754,-459.657299
1185.523140,-9178.553681,814.226536,-459.657299
1185.523461,-9696.697840,1184.329507,76.609550
1185.523782,-9992.780217,1184.329507,689.485948
1185.524102,-10362.883188,814.226536,1455.581446
1185.524423,-10066.800811,-222.061783,1991.848295
1185.524744,-9548.656652,-1258.350101,1378.971896
1185.525064,-9474.636058,-2442.679609,2451.505594
1185.525385,-9474.636058,-3330.926739,2374.896044
1185.525706,-8956.491898,-3182.885551,2145.067394
1185.526026,-8956.491898,-2368.659014,1838.629195
1185.526347,-9326.594869,-592.164754,1149.143247
1185.526668,-9474.636058,74.020594,1838.629195
1185.526988,-9326.594869,888.247130,1378.971896
1185.527309,-9622.677246,888.247130,1225.752797
1185.527630,-9696.697840,740.205942,612.876398
1185.527950,-9474.636058,296.082377,383.047749
1185.528271,-9474.636058,-296.082377,0.000000
1185.528592,-9622.677246,-148.041188,-612.876398
1185.528912,-9474.636058,296.082377,-766.095498
1185.529233,-9474.636058,1258.350101,-459.657299
1185.529553,-9622.677246,1628.453072,-383.047749
1185.529874,-10510.924376,1480.411884,689.485948
1185.530195,-9696.697840,1110.308913,1072.533697
1185.530515,-10584.944971,-148.041188,2451.505594
1185.530836,-9548.656652,-740.205942,2681.334243
1185.531157,-9770.718434,-2738.761985,3064.381992
1185.531477,-9474.636058,-3330.926739,2834.553343
1185.531798,-9030.512492,-2368.659014,2451.505594
1185.532119,-9104.533087,-1480.411884,2145.067394
1185.532439,-9474.636058,148.041188,2604.724693
1185.532760,-8660.409521,666.185348,1455.581446
1185.533081,-9178.553681,888.247130,1149.143247
1185.533401,-9030.512492,814.226536,383.047749
1185.533722,-9548.656652,74.020594,383.047749
1185.534043,-9474.636058,0.000000,0.000000
1185.534363,-9696.697840,-296.082377,0.000000
1185.534684,-10066.800811,-148.041188,0.000000
1185.535005,-9844.739029,370.102971,76.609550
1185.535325,-10066.800811,1036.288319,306.438199
1185.535646,-10288.862594,1480.411884,383.047749
1185.535967,-10436.903782,962.267725,1149.143247
1185.536287,-10066.800811,0.000000,1915.238745
1185.536608,-9622.677246,-1258.350101,1991.848295
1185.536929,-9696.697840,-2590.720797,2145.067394
1185.537249,-9474.636058,-2294.638420,1455.581446
1185.537570,-9030.512492,-3330.926739,1455.581446
1185.537891,-8660.409521,-2294.638420,1302.362347
1185.538211,-8956.491898,-592.164754,995.924147
1185.538532,-9400.615463,740.205942,842.705048
1185.538853,-10066.800811,1406.391290,1455.581446
1185.539173,-9696.697840,1258.350101,229.828649
1185.539494,-9696.697840,740.205942,229.828649
1185.539815,-9844.739029,74.020594,0.000000
1185.540135,-10066.800811,-222.061783,306.438199
