#time,accel_x,accel_y,accel_z
1102.868169,-9992.780217,-1554.432478,2911.162892
1102.868490,-9622.677246,-1776.494261,2834.553343
1102.868811,-9770.718434,-2146.597232,2757.943793
1102.869132,-9696.697840,-2442.679609,2298.286494
1102.869453,-9252.574275,-2664.741391,2451.505594
1102.869773,-8956.491898,-2738.761985,1685.410096
1102.870094,-9252.574275,-1998.556043,1532.190996
1102.870415,-9252.574275,-1702.473667,995.924147
1102.870736,-9252.574275,-1036.288319,1149.143247
1102.871057,-9252.574275,-370.102971,919.314598
1102.871377,-9548.656652,1258.350101,2757.943793
1102.871698,-9992.780217,1332.370696,1608.800546
1102.872019,-10140.821405,962.267725,1455.581446
1102.872340,-9992.780217,444.123565,1302.362347
1102.872661,-10066.800811,148.041188,1455.581446
1102.872982,-9474.636058,-444.123565,1455.581446
1102.873302,-9622.677246,-592.164754,1762.019645
1102.873623,-9400.615463,-1036.288319,1455.581446
1102.873944,-9474.636058,-1332.370696,1838.629195
1102.874265,-9326.594869,-2294.638420,995.924147
1102.874586,-9400.615463,-1924.535449,1302.362347
1102.874906,-9474.636058,-1110.308913,1302.362347
1102.875227,-9622.677246,-962.267725,1149.143247
1102.875548,-8734.430116,-666.185348,1608.800546
1102.875869,-9770.718434,-148.041188,459.657299
1102.876190,-9548.656652,0.000000,76.609550
1102.876511,-10066.800811,518.144159,306.438199
1102.876831,-10066.800811,74.020594,153.219100
1102.877152,-9622.677246,592.164754,153.219100
1102.877473,-10066.800811,370.102971,842.705048
1102.877794,-9548.656652,-296.082377,842.705048
1102.878115,-9474.636058,-592.164754,1302.362347
1102.878435,-9474.636058,-1480.411884,1378.971896
1102.878756,-9400.615463,-1480.411884,1762.019645
1102.879077,-9178.553681,-1406.391290,2145.067394
1102.879398,-9252.574275,-1702.473667,2221.676944
1102.879719,-8512.368333,-1850.514855,1991.848295
1102.880040,-9178.553681,-1332.370696,2221.676944
1102.880360,-9030.512492,-1258.350101,2374.896044
1102.880681,-9252.574275,-1036.288319,1915.238745
1102.881002,-9474.636058,-592.164754,2298.286494
1102.881323,-9474.636058,-592.164754,2451.505594
1102.881644,-9770.718434,148.041188,2604.724693
1102.881964,-9770.718434,-222.061783,2451.505594
1102.882285,-9770.718434,-296.082377,2451.505594
1102.882606,-9178.553681,-518.144159,2987.772442
1102.882927,-9622.677246,-1184.329507,2451.505594
1102.883248,-9548.656652,-1332.370696,2681.334243
1102.883569,-9474.636058,-1924.535449,2451.505594
1102.883889,-9252.574275,-2738.761985,3294.210641
1102.884210,-9400.615463,-2368.659014,2604.724693
1102.884531,-9474.636058,-2442.679609,2374.896044
1102.884852,-9622.677246,-2368.659014,2298.286494
1102.885173,-9474.636058,-2368.659014,2068.457845
1102.885493,-9178.553681,-2072.576638,2298.286494
1102.885814,-9622.677246,-1850.514855,1991.848295
1102.886135,-9622.677246,-1258.350101,1455.581446
1102.886456,-9696.697840,-1036.288319,1378.971896
1102.886777,-9474.636058,-1036.288319,2757.943793
1102.887098,-9770.718434,-814.226536,1225.752797
1102.887418,-9770.718434,-1036.288319,1149.143247
1102.887739,-9918.759623,-1258.350101,1072.533697
1102.888060,-9622.677246,-1110.308913,1072.533697
1102.888381,-9622.677246,-1406.391290,919.314598
1102.888702,-9696.697840,-1406.391290,689.485948
1102.889022,-9474.636058,-1406.391290,536.266849
1102.889343,-9400.615463,-1184.329507,612.876398
1102.889664,-9474.636058,-1184.329507,1302.362347
1102.889985,-9252.574275,-962.267725,229.828649
1102.890306,-9474.636058,-666.185348,306.438199
1102.890627,-9474.636058,-222.061783,383.047749
1102.890947,-8512.368333,0.000000,0.000000
1102.891268,-9548.656652,222.061783,76.609550
1102.891589,-9696.697840,592.164754,0.000000
1102.891910,-9770.718434,740.205942,0.000000
1102.892230,-10140.821405,444.123565,1149.143247
1102.892551,-9844.739029,518.144159,0.000000
1102.892872,-9696.697840,370.102971,-306.438199
1102.893192,-9770.718434,296.082377,0.000000
1102.893513,-9622.677246,148.041188,306.438199
1102.893833,-9548.656652,148.041188,383.047749
1102.894154,-9622.677246,148.041188,0.000000
1102.894474,-9474.636058,0.000000,459.657299
1102.894795,-9548.656652,0.000000,612.876398
1102.895116,-9030.512492,148.041188,689.485948
1102.895436,-9474.636058,444.123565,995.924147
1102.895757,-9622.677246,666.185348,919.314598
1102.896077,-9622.677246,740.205942,995.924147
1102.896398,-9770.718434,666.185348,919.314598
1102.896718,-9696.697840,962.267725,1149.143247
1102.897039,-9992.780217,1258.350101,1072.533697
1102.897360,-9696.697840,1110.308913,1225.752797
1102.897680,-9770.718434,1110.308913,1915.238745
1102.898001,-9696.697840,666.185348,2298.286494
1102.898321,-9548.656652,296.082377,1991.848295
1102.898642,-9548.656652,74.020594,1915.238745
1102.898962,-9474.636058,148.041188,2221.676944
1102.899283,-8364.327145,296.082377,2528.115143
1102.899604,-9104.533087,74.020594,1762.019645
1102.899924,-9030.512492,296.082377,1915.238745
1102.900245,-9326.594869,444.123565,1685.410096
1102.900565,-9400.615463,148.041188,1685.410096
1102.900886,-9474.636058,222.061783,2145.067394
1102.901206,-9622.677246,296.082377,1838.629195
1102.901527,-9844.739029,444.123565,1762.019645
1102.901848,-9844.739029,370.102971,1991.848295
1102.902168,-9844.739029,148.041188,1608.800546
1102.902489,-9696.697840,0.000000,1532.190996
1102.902809,-9622.677246,-222.061783,1455.581446
1102.903130,-9474.636058,-888.247130,1072.533697
1102.903450,-9030.512492,-370.102971,1608.800546
1102.903771,-9326.594869,-962.267725,919.314598
1102.904092,-9178.553681,-1110.308913,1149.143247
1102.904412,-9622.677246,-1110.308913,995.924147
1102.904733,-9474.636058,-1110.308913,1072.533697
1102.905053,-9474.636058,-1554.432478,919.314598
1102.905374,-9474.636058,-1332.370696,995.924147
1102.905694,-9548.656652,-1258.350101,919.314598
1102.906015,-9548.656652,-1110.308913,459.657299
1102.906336,-10214.842000,-814.226536,842.705048
1102.906656,-9770.718434,-962.267725,689.485948
1102.906977,-9844.739029,-1036.288319,919.314598
1102.907297,-9548.656652,-1184.329507,612.876398
1102.907618,-9844.739029,-1554.432478,995.924147
1102.907938,-9696.697840,-1184.329507,919.314598
1102.908259,-9548.656652,-1332.370696,995.924147
1102.908580,-9548.656652,-1110.308913,383.047749
1102.908900,-9474.636058,-1332.370696,536.266849
1102.909221,-9474.636058,-1332.370696,459.657299
1102.909541,-9622.677246,-1110.308913,536.266849
1102.909862,-9622.677246,-1036.288319,383.047749
1102.910182,-9548.656652,-666.185348,536.266849
1102.910503,-10140.821405,0.000000,229.828649
1102.910824,-9474.636058,-296.082377,459.657299
1102.911144,-9696.697840,-148.041188,536.266849
1102.911465,-9770.718434,0.000000,842.705048
1102.911785,-10436.903782,0.000000,459.657299
1102.912106,-9844.739029,-148.041188,842.705048
1102.912426,-9770.718434,0.000000,689.485948
1102.912747,-9622.677246,-222.061783,919.314598
1102.913068,-9770.718434,0.000000,1302.362347
1102.913388,-9474.636058,-222.061783,1455.581446
1102.913709,-9474.636058,-592.164754,1225.752797
1102.914029,-9548.656652,-592.164754,1225.752797
1102.914350,-9474.636058,-740.205942,1072.533697
1102.914670,-9918.759623,0.000000,1608.800546
1102.914991,-9474.636058,-296.082377,1685.410096
1102.915312,-9474.636058,-370.102971,1302.362347
1102.915632,-9474.636058,74.020594,2068.457845
1102.915953,-9400.615463,0.000000,3677.258390
1102.916273,-9474.636058,0.000000,1838.629195
1102.916594,-9770.718434,148.041188,1685.410096
1102.916914,-9696.697840,74.020594,1762.019645
1102.917235,-9474.636058,0.000000,1455.581446
1102.917556,-9474.636058,74.020594,1608.800546
1102.917876,-9474.636058,0.000000,1608.800546
1102.918197,-9474.636058,-148.041188,1455.581446
1102.918517,-9622.677246,0.000000,1608.800546
1102.918838,-9548.656652,-222.061783,229.828649
1102.919158,-9622.677246,74.020594,1455.581446
1102.919479,-9548.656652,0.000000,1455.581446
1102.919800,-9622.677246,0.000000,1149.143247
1102.920120,-9622.677246,0.000000,766.095498
1102.920441,-9548.656652,74.020594,919.314598
1102.920761,-9844.739029,0.000000,919.314598
1102.921082,-9844.739029,370.102971,1072.533697
1102.921402,-9844.739029,296.082377,766.095498
1102.921723,-9992.780217,444.123565,536.266849
1102.922043,-9622.677246,222.061783,612.876398
1102.922364,-9696.697840,0.000000,153.219100
1102.922685,-9548.656652,0.000000,459.657299
1102.923005,-9918.759623,-444.123565,1225.752797
1102.923326,-9622.677246,-296.082377,459.657299
1102.923646,-9252.574275,-370.102971,306.438199
1102.923967,-9622.677246,0.000000,229.828649
1102.924287,-9474.636058,0.000000,612.876398
1102.924608,-9474.636058,-296.082377,689.485948
1102.924929,-9548.656652,-444.123565,306.438199
1102.925249,-9622.677246,-222.061783,459.657299
1102.925570,-9696.697840,0.000000,306.438199
1102.925890,-9548.656652,74.020594,76.609550
1102.926211,-9548.656652,0.000000,536.266849
1102.926531,-9548.656652,0.000000,459.657299
1102.926852,-9548.656652,74.020594,919.314598
1102.927173,-8734.430116,-222.061783,1225.752797
1102.927493,-9622.677246,-370.102971,919.314598
1102.927814,-9548.656652,-666.185348,1455.581446
1102.928134,-9400.615463,-962.267725,1762.019645
1102.928455,-9400.615463,-1036.288319,1455.581446
1102.928775,-9326.594869,-1036.288319,1608.800546
1102.929096,-9326.594869,-1184.329507,1685.410096
1102.929417,-9178.553681,-1184.329507,1608.800546
1102.929737,-9474.636058,-1036.288319,1302.362347
1102.930058,-9474.636058,-444.123565,2145.067394
1102.930378,-9696.697840,-444.123565,1915.238745
1102.930699,-9622.677246,-666.185348,1838.629195
1102.931019,-9548.656652,-740.205942,1532.190996
1102.931340,-9548.656652,-666.185348,1685.410096
1102.931661,-9770.718434,-1110.308913,1302.362347
1102.931981,-9770.718434,-888.247130,1838.629195
1102.932302,-9622.677246,-1036.288319,2068.457845
1102.932622,-9252.574275,-1184.329507,1455.581446
1102.932943,-9548.656652,-1036.288319,3753.867940
1102.933263,-9696.697840,-1480.411884,1762.019645
1102.933584,-9696.697840,-1184.329507,2374.896044
1102.933905,-9770.718434,-1332.370696,1608.800546
1102.934225,-9696.697840,-1184.329507,1378.971896
1102.934546,-9474.636058,-1554.432478,536.266849
1102.934866,-9622.677246,-888.247130,1225.752797
1102.935187,-9770.718434,-666.185348,1225.752797
1102.935507,-9696.697840,-518.144159,1532.190996
1102.935828,-8956.491898,-222.061783,1072.533697
1102.936149,-9548.656652,-518.144159,766.095498
1102.936469,-9770.718434,-296.082377,842.705048
1102.936790,-9992.780217,-148.041188,1072.533697
1102.937110,-9992.780217,444.123565,2145.067394
1102.937431,-9770.718434,-370.102971,689.485948
1102.937751,-9548.656652,-592.164754,766.095498
1102.938072,-9548.656652,-592.164754,459.657299
1102.938393,-9696.697840,-296.082377,689.485948
1102.938713,-9548.656652,-370.102971,383.047749
1102.939034,-9474.636058,-518.144159,76.609550
1102.939354,-9474.636058,-296.082377,76.609550
1102.939675,-9474.636058,-148.041188,153.219100
1102.939995,-9030.512492,-148.041188,-153.219100
1102.940316,-9696.697840,148.041188,0.000000
1102.940637,-9548.656652,296.082377,536.266849
1102.940957,-9696.697840,296.082377,536.266849
1102.941278,-9844.739029,0.000000,0.000000
1102.941598,-9696.697840,148.041188,919.314598
1102.941919,-9548.656652,-370.102971,612.876398
1102.942239,-9474.636058,-296.082377,766.095498
1102.942560,-9474.636058,-370.102971,919.314598
1102.942881,-9548.656652,0.000000,1072.533697
1102.943201,-9548.656652,0.000000,1149.143247
1102.943522,-9326.594869,0.000000,1225.752797
1102.943842,-9622.677246,0.000000,1149.143247
1102.944163,-10510.924376,740.205942,1225.752797
1102.944483,-9622.677246,222.061783,1532.190996
1102.944804,-9548.656652,222.061783,1532.190996
1102.945125,-9770.718434,148.041188,1225.752797
1102.945445,-9622.677246,814.226536,3370.820191
1102.945766,-9770.718434,0.000000,1378.971896
1102.946086,-9844.739029,74.020594,1915.238745
1102.946407,-9770.718434,0.000000,2068.457845
1102.946727,-9474.636058,-296.082377,1532.190996
1102.947048,-9474.636058,0.000000,1608.800546
1102.947369,-9474.636058,-222.061783,1838.629195
1102.947689,-9622.677246,-370.102971,1685.410096
1102.948010,-9474.636058,-148.041188,1455.581446
1102.948330,-9178.553681,-370.102971,1378.971896
1102.948651,-9548.656652,0.000000,1072.533697
1102.948971,-9548.656652,0.000000,995.924147
1102.949292,-9696.697840,222.061783,1072.533697
1102.949613,-9622.677246,0.000000,0.000000
1102.949933,-9770.718434,0.000000,766.095498
1102.950254,-9474.636058,0.000000,689.485948
1102.950574,-9770.718434,-296.082377,1072.533697
1102.950895,-9770.718434,-148.041188,689.485948
1102.951215,-9696.697840,0.000000,459.657299
1102.951536,-9548.656652,0.000000,766.095498
1102.951857,-9474.636058,-296.082377,536.266849
1102.952177,-9400.615463,-370.102971,766.095498
1102.952498,-9918.759623,222.061783,383.047749
1102.952818,-9400.615463,-370.102971,229.828649
1102.953139,-9474.636058,-296.082377,76.609550
1102.953459,-9474.636058,-444.123565,383.047749
1102.953780,-9474.636058,-666.185348,383.047749
1102.954101,-9548.656652,-222.061783,536.266849
1102.954421,-9622.677246,0.000000,842.705048
1102.954742,-9548.656652,0.000000,919.314598
1102.955062,-9696.697840,0.000000,1072.533697
1102.955383,-9474.636058,-148.041188,1149.143247
1102.955703,-9622.677246,-592.164754,1149.143247
1102.956024,-9622.677246,-518.144159,1149.143247
1102.956345,-9326.594869,-740.205942,1072.533697
1102.956665,-9252.574275,-1036.288319,1225.752797
1102.956986,-9474.636058,-740.205942,1225.752797
1102.957306,-9474.636058,-666.185348,1608.800546
1102.957627,-9770.718434,-592.164754,1378.971896
1102.957947,-9400.615463,-518.144159,1302.362347
1102.958268,-9622.677246,-370.102971,1302.362347
1102.958589,-9474.636058,-222.061783,1838.629195
1102.958909,-9770.718434,-296.082377,2068.457845
1102.959230,-9770.718434,-444.123565,2374.896044
1102.959550,-9622.677246,-592.164754,2221.676944
1102.959871,-9474.636058,-666.185348,1685.410096
1102.960191,-9770.718434,-592.164754,1915.238745
1102.960512,-9622.677246,-518.144159,1915.238745
1102.960833,-9770.718434,-518.144159,2374.896044
1102.961153,-9622.677246,-666.185348,2145.067394
1102.961474,-9474.636058,-888.247130,2068.457845
1102.961794,-9622.677246,-962.267725,1685.410096
1102.962115,-9326.594869,-296.082377,1378.971896
1102.962435,-9622.677246,-962.267725,1455.581446
1102.962756,-9474.636058,-666.185348,1378.971896
1102.963077,-9474.636058,-666.185348,1685.410096
1102.963397,-9770.718434,-740.205942,1378.971896
1102.963718,-9770.718434,-962.267725,1149.143247
1102.964038,-9622.677246,-740.205942,995.924147
1102.964359,-9622.677246,-666.185348,919.314598
1102.964679,-9622.677246,-518.144159,1225.752797
1102.965000,-9252.574275,-814.226536,842.705048
1102.965321,-9474.636058,-592.164754,689.485948
1102.965641,-9474.636058,-592.164754,612.876398
1102.965962,-9474.636058,-592.164754,153.219100
1102.966282,-9844.739029,0.000000,306.438199
1102.966603,-9770.718434,-518.144159,306.438199
1102.966923,-9696.697840,-518.144159,383.047749
1102.967244,-9548.656652,-370.102971,0.000000
1102.967565,-9400.615463,-222.061783,153.219100
1102.967885,-9696.697840,0.000000,153.219100
1102.968206,-9770.718434,0.000000,383.047749
1102.968526,-9918.759623,-148.041188,153.219100
1102.968847,-9548.656652,-148.041188,153.219100
1102.969167,-9696.697840,74.020594,689.485948
1102.969488,-9622.677246,0.000000,536.266849
1102.969809,-9770.718434,0.000000,536.266849
1102.970129,-9474.636058,0.000000,383.047749
1102.970450,-9548.656652,-740.205942,153.219100
1102.970770,-9400.615463,-296.082377,919.314598
1102.971091,-9548.656652,-370.102971,919.314598
1102.971411,-9474.636058,-296.082377,1225.752797
1102.971732,-9548.656652,-148.041188,2528.115143
1102.972053,-9400.615463,0.000000,1072.533697
1102.972373,-9770.718434,74.020594,1532.190996
1102.972694,-9622.677246,0.000000,1685.410096
1102.973014,-9696.697840,0.000000,1915.238745
1102.973335,-9252.574275,-296.082377,1762.019645
1102.973655,-9474.636058,0.000000,1685.410096
1102.973976,-9770.718434,0.000000,2068.457845
1102.974297,-9696.697840,-296.082377,1838.629195
1102.974617,-9844.739029,0.000000,1608.800546
1102.974938,-9474.636058,-444.123565,2068.457845
1102.975258,-9622.677246,-370.102971,1915.238745
1102.975579,-9474.636058,-666.185348,1915.238745
1102.975899,-9548.656652,-370.102971,1915.238745
1102.976220,-9622.677246,-370.102971,1762.019645
1102.976540,-9770.718434,-148.041188,1991.848295
1102.976861,-9474.636058,-222.061783,1608.800546
1102.977182,-9548.656652,-222.061783,1685.410096
1102.977502,-9696.697840,-148.041188,1302.362347
1102.977823,-9548.656652,0.000000,1149.143247
1102.978143,-9474.636058,-222.061783,1072.533697
1102.978464,-9548.656652,0.000000,1072.533697
1102.978784,-9622.677246,-592.164754,306.438199
1102.979105,-9474.636058,-296.082377,842.705048
1102.979426,-9474.636058,-296.082377,612.876398
1102.979746,-9844.739029,-296.082377,459.657299
1102.980067,-9622.677246,-296.082377,2834.553343
1102.980387,-9622.677246,-370.102971,383.047749
1102.980708,-9548.656652,-444.123565,995.924147
1102.981028,-9696.697840,-518.144159,383.047749
1102.981349,-9474.636058,-444.123565,0.000000
1102.981670,-9548.656652,-296.082377,383.047749
1102.981990,-9696.697840,0.000000,153.219100
1102.982311,-9622.677246,0.000000,0.000000
1102.982631,-9548.656652,222.061783,0.000000
1102.982952,-9474.636058,0.000000,1302.362347
1102.983272,-9770.718434,222.061783,0.000000
1102.983593,-9844.739029,0.000000,153.219100
1102.983914,-9622.677246,0.000000,689.485948
1102.984234,-9696.697840,-592.164754,1225.752797
1102.984555,-9622.677246,-370.102971,919.314598
1102.984875,-9474.636058,-740.205942,689.485948
1102.985196,-9622.677246,-666.185348,1149.143247
1102.985516,-9474.636058,-370.102971,1225.752797
1102.985837,-9622.677246,-370.102971,1149.143247
1102.986158,-9474.636058,-370.102971,1149.143247
1102.986478,-9474.636058,-148.041188,1302.362347
1102.986799,-9696.697840,-74.020594,1608.800546
1102.987119,-9844.739029,74.020594,1149.143247
1102.987440,-9770.718434,-148.041188,1762.019645
1102.987760,-9696.697840,-222.061783,1762.019645
1102.988081,-9770.718434,-222.061783,1991.848295
1102.988402,-9474.636058,-888.247130,2451.505594
1102.988722,-9622.677246,-370.102971,1915.238745
1102.989043,-9548.656652,-666.185348,2374.896044
1102.989363,-9548.656652,-740.205942,2068.457845
1102.989684,-9400.615463,-1036.288319,2145.067394
1102.990004,-9474.636058,-1258.350101,2145.067394
1102.990325,-9474.636058,-1110.308913,2221.676944
1102.990646,-9474.636058,-888.247130,2145.067394
1102.990966,-9622.677246,-814.226536,1915.238745
1102.991287,-9548.656652,-888.247130,1532.190996
1102.991607,-9622.677246,-592.164754,1225.752797
1102.991928,-9400.615463,-518.144159,1455.581446
1102.992249,-9770.718434,-444.123565,1149.143247
1102.992569,-10584.944971,0.000000,0.000000
1102.992890,-9622.677246,-148.041188,1225.752797
1102.993211,-10066.800811,-296.082377,1072.533697
1102.993531,-9622.677246,-296.082377,995.924147
1102.993852,-9844.739029,-444.123565,1149.143247
1102.994173,-9622.677246,-592.164754,689.485948
1102.994493,-9622.677246,-592.164754,383.047749
1102.994814,-9474.636058,-666.185348,459.657299
1102.995135,-9474.636058,-740.205942,153.219100
1102.995455,-9400.615463,-518.144159,306.438199
1102.995776,-9622.677246,-296.082377,-153.219100
1102.996097,-9474.636058,0.000000,-229.828649
1102.996417,-9696.697840,74.020594,153.219100
1102.996738,-10066.800811,-222.061783,-536.266849
1102.997059,-9622.677246,148.041188,153.219100
1102.997379,-9992.780217,296.082377,306.438199
1102.997700,-9844.739029,74.020594,153.219100
1102.998021,-9696.697840,0.000000,229.828649
1102.998341,-9548.656652,0.000000,306.438199
1102.998662,-9474.636058,-222.061783,536.266849
1102.998983,-9474.636058,-444.123565,766.095498
1102.999303,-9474.636058,-666.185348,766.095498
1102.999624,-9474.636058,-740.205942,536.266849
1102.999945,-9400.615463,-666.185348,1072.533697
1103.000265,-9474.636058,-370.102971,1072.533697
1103.000586,-9622.677246,-148.041188,1455.581446
1103.000907,-9030.512492,222.061783,2834.553343
1103.001227,-9474.636058,-222.061783,1455.581446
1103.001548,-9622.677246,-370.102971,1378.971896
1103.001869,-9696.697840,0.000000,1532.190996
1103.002189,-9548.656652,-296.082377,1532.190996
1103.002510,-9696.697840,296.082377,1532.190996
1103.002831,-9622.677246,0.000000,1838.629195
1103.003151,-9474.636058,0.000000,1838.629195
1103.003472,-9622.677246,-370.102971,1991.848295
1103.003793,-9252.574275,-740.205942,2221.676944
1103.004113,-9548.656652,-814.226536,2068.457845
1103.004434,-9474.636058,-518.144159,1991.848295
1103.004755,-9474.636058,-592.164754,1991.848295
1103.005075,-9770.718434,-888.247130,2221.676944
1103.005396,-9400.615463,-370.102971,1685.410096
1103.005717,-9548.656652,0.000000,1532.190996
1103.006037,-9622.677246,0.000000,1608.800546
1103.006358,-9696.697840,74.020594,1225.752797
1103.006679,-9622.677246,0.000000,1072.533697
1103.006999,-9770.718434,0.000000,1072.533697
1103.007320,-9770.718434,222.061783,1072.533697
1103.007641,-9844.739029,0.000000,919.314598
1103.007961,-9474.636058,0.000000,1762.019645
1103.008282,-9770.718434,-74.020594,1149.143247
1103.008603,-9474.636058,-222.061783,689.485948
1103.008923,-9622.677246,-518.144159,536.266849
1103.009244,-10140.821405,1554.432478,0.000000
1103.009565,-9474.636058,-518.144159,306.438199
1103.009885,-9474.636058,-666.185348,229.828649
1103.010206,-9622.677246,-444.123565,0.000000
1103.010527,-9474.636058,0.000000,76.609550
1103.010847,-9548.656652,296.082377,383.047749
1103.011168,-9696.697840,148.041188,76.609550
1103.011489,-9548.656652,444.123565,153.219100
1103.011809,-9696.697840,0.000000,459.657299
1103.012130,-9400.615463,0.000000,1225.752797
1103.012451,-9474.636058,-296.082377,612.876398
1103.012771,-9474.636058,0.000000,766.095498
1103.013092,-9548.656652,-296.082377,995.924147
1103.013413,-9474.636058,0.000000,1072.533697
1103.013733,-9474.636058,-666.185348,1072.533697
1103.014054,-9622.677246,-740.205942,1149.143247
1103.014375,-9474.636058,-666.185348,919.314598
1103.014695,-9400.615463,-740.205942,1378.971896
1103.015016,-9474.636058,-518.144159,1302.362347
1103.015336,-9400.615463,-444.123565,1532.190996
1103.015657,-9696.697840,-592.164754,1608.800546
1103.015978,-9474.636058,-444.123565,1378.971896
1103.016298,-9178.553681,-666.185348,2145.067394
1103.016619,-9770.718434,-296.082377,1991.848295
1103.016940,-9696.697840,-296.082377,1762.019645
1103.017260,-9918.759623,-666.185348,1991.848295
1103.017581,-9326.594869,-888.247130,1225.752797
1103.017902,-9548.656652,-962.267725,2145.067394
1103.018222,-9696.697840,-1554.432478,2145.067394
1103.018543,-9474.636058,-1184.329507,2068.457845
1103.018864,-9474.636058,-1258.350101,2145.067394
1103.019184,-9474.636058,-1110.308913,1838.629195
1103.019505,-9474.636058,-962.267725,1991.848295
1103.019826,-9400.615463,-666.185348,1838.629195
1103.020146,-9474.636058,-814.226536,1225.752797
1103.020467,-9770.718434,-148.041188,1532.190996
1103.020788,-9474.636058,-592.164754,1225.752797
1103.021108,-9696.697840,-370.102971,1532.190996
1103.021429,-9992.780217,-296.082377,1455.581446
1103.021750,-9622.677246,74.020594,919.314598
1103.022070,-9696.697840,-592.164754,842.705048
1103.022391,-9548.656652,-592.164754,919.314598
1103.022712,-9548.656652,-592.164754,766.095498
1103.023032,-9548.656652,-666.185348,459.657299
1103.023353,-9696.697840,-296.082377,536.266849
1103.023674,-9770.718434,-592.164754,612.876398
1103.023994,-9622.677246,-370.102971,459.657299
1103.024315,-9474.636058,-296.082377,-153.219100
1103.024636,-9400.615463,0.000000,0.000000
1103.024956,-9696.697840,0.000000,76.609550
1103.025277,-9622.677246,74.020594,229.828649
1103.025598,-9622.677246,74.020594,0.000000
1103.025918,-9622.677246,592.164754,536.266849
1103.026239,-9622.677246,0.000000,536.266849
1103.026560,-9696.697840,0.000000,536.266849
1103.026880,-9474.636058,0.000000,766.095498
1103.027201,-9696.697840,-148.041188,536.266849
1103.027522,-9474.636058,-148.041188,612.876398
1103.027842,-9474.636058,-148.041188,612.876398
1103.028163,-9548.656652,-296.082377,459.657299
1103.028484,-9400.615463,-222.061783,842.705048
1103.028804,-9400.615463,0.000000,919.314598
1103.029125,-9474.636058,-148.041188,1225.752797
1103.029446,-9474.636058,222.061783,1455.581446
1103.029766,-9696.697840,0.000000,1532.190996
1103.030087,-9770.718434,518.144159,1991.848295
1103.030408,-9696.697840,148.041188,1685.410096
1103.030728,-9696.697840,0.000000,1838.629195
1103.031049,-9622.677246,0.000000,1455.581446
1103.031370,-9696.697840,0.000000,1532.190996
1103.031690,-9474.636058,-222.061783,1608.800546
1103.032011,-9622.677246,-518.144159,1608.800546
1103.032332,-9474.636058,-518.144159,1608.800546
1103.032652,-9474.636058,-444.123565,1608.800546
1103.032973,-9696.697840,0.000000,1532.190996
1103.033294,-9474.636058,-592.164754,1608.800546
1103.033614,-9326.594869,-444.123565,1685.410096
1103.033935,-9844.739029,-370.102971,1532.190996
1103.034256,-9918.759623,-74.020594,76.609550
1103.034576,-9696.697840,0.000000,1532.190996
1103.034897,-9622.677246,0.000000,1072.533697
1103.035218,-9474.636058,0.000000,842.705048
1103.035538,-9770.718434,0.000000,919.314598
1103.035859,-9474.636058,0.000000,766.095498
1103.036180,-9696.697840,-370.102971,536.266849
1103.036500,-9696.697840,-222.061783,536.266849
1103.036821,-9622.677246,-296.082377,612.876398
1103.037142,-8512.368333,-814.226536,1225.752797
1103.037462,-9474.636058,-592.164754,766.095498
1103.037783,-9770.718434,-592.164754,536.266849
1103.038104,-9474.636058,-296.082377,0.000000
1103.038424,-9178.553681,-888.247130,-1072.533697
1103.038745,-9696.697840,148.041188,153.219100
1103.039066,-9474.636058,0.000000,0.000000
1103.039386,-9474.636058,0.000000,0.000000
1103.039707,-9548.656652,0.000000,0.000000
1103.040028,-9474.636058,0.000000,0.000000
1103.040348,-9770.718434,0.000000,383.047749
1103.040669,-9622.677246,0.000000,306.438199
1103.040990,-9622.677246,0.000000,459.657299
1103.041310,-9844.739029,148.041188,383.047749
1103.041631,-9474.636058,-518.144159,612.876398
1103.041952,-9770.718434,-666.185348,842.705048
1103.042272,-9548.656652,-518.144159,1149.143247
1103.042593,-9844.739029,1258.350101,919.314598
1103.042914,-9474.636058,-814.226536,1072.533697
1103.043234,-9400.615463,-740.205942,1225.752797
1103.043555,-9474.636058,-592.164754,1608.800546
1103.043876,-9622.677246,-370.102971,1532.190996
1103.044196,-9918.759623,-148.041188,1455.581446
1103.044517,-9548.656652,-370.102971,1838.629195
1103.044838,-9770.718434,-444.123565,1685.410096
1103.045158,-9622.677246,-518.144159,2068.457845
1103.045479,-9474.636058,-666.185348,1608.800546
1103.045800,-9622.677246,-814.226536,2221.676944
1103.046120,-9548.656652,-740.205942,1991.848295
1103.046441,-9548.656652,-814.226536,2221.676944
1103.046762,-9252.574275,-370.102971,1455.581446
1103.047082,-9474.636058,-1110.308913,1838.629195
1103.047403,-9474.636058,-1258.350101,2145.067394
1103.047723,-9474.636058,-962.267725,1762.019645
1103.048044,-9622.677246,-962.267725,1838.629195
1103.048365,-9252.574275,-444.123565,1378.971896
1103.048685,-9474.636058,-518.144159,1455.581446
1103.049006,-9696.697840,-444.123565,1302.362347
1103.049327,-9622.677246,-296.082377,1302.362347
1103.049647,-9400.615463,-296.082377,1532.190996
1103.049968,-9844.739029,-296.082377,995.924147
1103.050289,-9622.677246,-296.082377,1149.143247
1103.050609,-9622.677246,-370.102971,919.314598
1103.050930,-9992.780217,-444.123565,76.609550
1103.051251,-9622.677246,-370.102971,689.485948
1103.051571,-9622.677246,-666.185348,919.314598
1103.051892,-9474.636058,-666.185348,612.876398
1103.052213,-9474.636058,-518.144159,306.438199
1103.052533,-9400.615463,-296.082377,306.438199
1103.052854,-9400.615463,0.000000,0.000000
1103.053175,-9474.636058,0.000000,229.828649
1103.053495,-9548.656652,0.000000,459.657299
1103.053816,-9548.656652,296.082377,536.266849
1103.054137,-9696.697840,0.000000,0.000000
1103.054457,-9696.697840,222.061783,306.438199
1103.054778,-9622.677246,0.000000,306.438199
1103.055099,-9696.697840,-222.061783,842.705048
1103.055419,-9474.636058,-222.061783,842.705048
1103.055740,-9474.636058,-222.061783,919.314598
1103.056061,-9400.615463,-666.185348,1072.533697
1103.056381,-9622.677246,-592.164754,1225.752797
1103.056702,-9474.636058,-444.123565,1072.533697
1103.057023,-9474.636058,-592.164754,1455.581446
1103.057343,-9474.636058,-296.082377,1225.752797
1103.057664,-9548.656652,-518.144159,1455.581446
1103.057985,-9548.656652,0.000000,2145.067394
1103.058305,-9844.739029,-222.061783,1302.362347
1103.058626,-9548.656652,0.000000,1532.190996
1103.058947,-9548.656652,0.000000,1455.581446
1103.059267,-9844.739029,148.041188,1838.629195
1103.059588,-9622.677246,0.000000,1838.629195
1103.059909,-9622.677246,74.020594,1685.410096
1103.060229,-9622.677246,-148.041188,1532.190996
1103.060550,-9696.697840,0.000000,1685.410096
1103.060871,-9696.697840,-222.061783,1915.238745
1103.061191,-9474.636058,-518.144159,1762.019645
1103.061512,-9548.656652,-370.102971,1685.410096
1103.061833,-9622.677246,-148.041188,1608.800546
1103.062153,-9918.759623,-444.123565,1302.362347
1103.062474,-9770.718434,-222.061783,1685.410096
1103.062795,-9696.697840,-296.082377,1378.971896
1103.063115,-9548.656652,0.000000,1149.143247
1103.063436,-10066.800811,74.020594,766.095498
1103.063757,-9696.697840,-148.041188,1225.752797
1103.064077,-9548.656652,0.000000,919.314598
1103.064398,-9622.677246,0.000000,842.705048
1103.064719,-9622.677246,0.000000,612.876398
1103.065039,-9400.615463,-74.020594,459.657299
1103.065360,-9622.677246,-296.082377,612.876398
1103.065681,-9474.636058,-296.082377,612.876398
1103.066001,-9844.739029,-222.061783,766.095498
1103.066322,-9622.677246,-296.082377,229.828649
1103.066643,-9474.636058,-370.102971,76.609550
1103.066963,-9474.636058,0.000000,306.438199
1103.067284,-9474.636058,74.020594,306.438199
1103.067605,-9770.718434,0.000000,0.000000
1103.067925,-9548.656652,0.000000,459.657299
1103.068246,-9548.656652,-148.041188,229.828649
1103.068567,-9622.677246,0.000000,766.095498
1103.068887,-9474.636058,-148.041188,689.485948
1103.069208,-9474.636058,-370.102971,689.485948
1103.069529,-9474.636058,-222.061783,612.876398
1103.069849,-9474.636058,-296.082377,1149.143247
1103.070170,-9548.656652,-666.185348,1455.581446
1103.070491,-9918.759623,-370.102971,919.314598
1103.070811,-9622.677246,-296.082377,1149.143247
1103.071132,-9548.656652,-148.041188,1225.752797
1103.071453,-9474.636058,-296.082377,1378.971896
1103.071773,-9548.656652,-370.102971,766.095498
1103.072094,-9474.636058,-666.185348,1225.752797
1103.072415,-9474.636058,-518.144159,1838.629195
1103.072735,-9548.656652,-444.123565,1762.019645
1103.073056,-9548.656652,-592.164754,1685.410096
1103.073377,-9474.636058,-518.144159,1915.238745
1103.073697,-9770.718434,-370.102971,2068.457845
1103.074018,-9844.739029,-592.164754,2374.896044
1103.074339,-9622.677246,-740.205942,2221.676944
1103.074659,-9918.759623,-888.247130,1915.238745
1103.074980,-9770.718434,-1110.308913,1991.848295
1103.075301,-9696.697840,-1110.308913,1685.410096
1103.075621,-9548.656652,-814.226536,1532.190996
1103.075942,-9326.594869,-296.082377,1225.752797
1103.076263,-9474.636058,-814.226536,1762.019645
1103.076583,-9622.677246,-666.185348,1532.190996
1103.076904,-9548.656652,-666.185348,1225.752797
1103.077225,-9548.656652,-666.185348,1225.752797
1103.077545,-9548.656652,-592.164754,995.924147
1103.077866,-9622.677246,-592.164754,1302.362347
1103.078187,-9548.656652,-740.205942,1072.533697
1103.078507,-9770.718434,-592.164754,1149.143247
1103.078828,-9992.780217,-222.061783,919.314598
1103.079149,-9622.677246,-592.164754,536.266849
1103.079469,-9770.718434,-592.164754,459.657299
1103.079790,-9696.697840,-296.082377,689.485948
1103.080110,-9400.615463,0.000000,919.314598
1103.080431,-9548.656652,-370.102971,229.828649
1103.080752,-9548.656652,-296.082377,153.219100
1103.081072,-9474.636058,0.000000,0.000000
1103.081393,-9400.615463,296.082377,0.000000
1103.081714,-9548.656652,74.020594,536.266849
1103.082034,-9548.656652,0.000000,0.000000
1103.082355,-9474.636058,0.000000,229.828649
1103.082676,-9770.718434,222.061783,612.876398
1103.082996,-9992.780217,0.000000,689.485948
1103.083317,-9474.636058,0.000000,689.485948
1103.083638,-9548.656652,-222.061783,383.047749
1103.083958,-9474.636058,0.000000,689.485948
1103.084279,-10288.862594,-296.082377,1072.533697
1103.084600,-9474.636058,0.000000,689.485948
1103.084920,-9474.636058,-148.041188,995.924147
1103.085241,-9400.615463,0.000000,1072.533697
1103.085562,-9474.636058,-296.082377,2374.896044
1103.085882,-9548.656652,0.000000,1225.752797
1103.086203,-9622.677246,74.020594,1378.971896
1103.086524,-9400.615463,0.000000,1608.800546
1103.086844,-9548.656652,0.000000,1915.238745
1103.087165,-9622.677246,-296.082377,1225.752797
1103.087486,-9696.697840,-296.082377,1685.410096
1103.087806,-9400.615463,-370.102971,1685.410096
1103.088127,-9918.759623,-518.144159,1838.629195
1103.088448,-9548.656652,-74.020594,4979.620737
1103.088768,-9474.636058,-592.164754,1762.019645
1103.089089,-9474.636058,-370.102971,1915.238745
1103.089410,-9474.636058,-666.185348,1838.629195
1103.089730,-9622.677246,-518.144159,1685.410096
1103.090051,-9548.656652,-370.102971,1991.848295
1103.090372,-9770.718434,-444.123565,1838.629195
1103.090692,-9548.656652,-222.061783,1915.238745
1103.091013,-9696.697840,0.000000,1532.190996
1103.091334,-9918.759623,148.041188,1455.581446
1103.091654,-9770.718434,0.000000,1455.581446
1103.091975,-9696.697840,-148.041188,1072.533697
1103.092296,-9548.656652,-370.102971,842.705048
1103.092616,-8734.430116,-814.226536,306.438199
1103.092937,-9548.656652,-296.082377,689.485948
1103.093258,-9474.636058,-370.102971,612.876398
1103.093578,-9622.677246,-444.123565,612.876398
1103.093899,-9474.636058,-592.164754,383.047749
1103.094220,-9696.697840,-666.185348,612.876398
1103.094540,-9548.656652,-592.164754,229.828649
1103.094861,-9474.636058,-296.082377,459.657299
1103.095182,-9548.656652,0.000000,153.219100
1103.095502,-9252.574275,0.000000,1302.362347
1103.095823,-9400.615463,-222.061783,612.876398
1103.096144,-9474.636058,0.000000,0.000000
1103.096464,-9474.636058,0.000000,0.000000
1103.096785,-9770.718434,666.185348,536.266849
1103.097105,-9548.656652,0.000000,459.657299
1103.097426,-9474.636058,-444.123565,459.657299
1103.097747,-9696.697840,-444.123565,689.485948
1103.098067,-9696.697840,-296.082377,612.876398
1103.098388,-9474.636058,-518.144159,612.876398
1103.098709,-9474.636058,-666.185348,1149.143247
1103.099029,-9474.636058,-518.144159,919.314598
1103.099350,-9474.636058,-148.041188,1532.190996
1103.099671,-9178.553681,-222.061783,2145.067394
1103.099991,-9474.636058,-148.041188,1532.190996
1103.100312,-9696.697840,-370.102971,1532.190996
1103.100632,-9770.718434,-370.102971,1302.362347
1103.100953,-9400.615463,-148.041188,2987.772442
1103.101274,-9622.677246,-518.144159,1838.629195
1103.101594,-9844.739029,-518.144159,2068.457845
1103.101915,-9622.677246,-592.164754,2221.676944
1103.102236,-9622.677246,-592.164754,2145.067394
1103.102556,-9548.656652,-962.267725,2528.115143
1103.102877,-9622.677246,-888.247130,2145.067394
1103.103198,-9548.656652,-962.267725,2068.457845
1103.103518,-9474.636058,-962.267725,2068.457845
1103.103839,-9474.636058,-444.123565,1991.848295
1103.104160,-9474.636058,-592.164754,2068.457845
1103.104480,-9474.636058,-592.164754,1991.848295
1103.104801,-9474.636058,-592.164754,1685.410096
1103.105121,-10140.821405,-148.041188,1225.752797
1103.105442,-9770.718434,-444.123565,1608.800546
1103.105763,-9696.697840,-444.123565,1608.800546
1103.106083,-9770.718434,-444.123565,1532.190996
1103.106404,-9770.718434,-296.082377,1378.971896
1103.106725,-9548.656652,-592.164754,1378.971896
1103.107045,-9770.718434,-518.144159,1072.533697
1103.107366,-9474.636058,-370.102971,766.095498
1103.107687,-9770.718434,-592.164754,919.314598
1103.108007,-9252.574275,-370.102971,1915.238745
1103.108328,-9548.656652,-518.144159,383.047749
1103.108649,-9326.594869,-518.144159,153.219100
1103.108969,-9548.656652,-222.061783,0.000000
1103.109290,-9326.594869,0.000000,536.266849
1103.109610,-9622.677246,0.000000,76.609550
1103.109931,-9474.636058,0.000000,229.828649
1103.110252,-9770.718434,74.020594,153.219100
1103.110572,-9770.718434,74.020594,306.438199
1103.110893,-9696.697840,0.000000,229.828649
1103.111214,-9474.636058,0.000000,536.266849
1103.111534,-9770.718434,0.000000,306.438199
1103.111855,-9622.677246,0.000000,612.876398
1103.112176,-9400.615463,-592.164754,76.609550
1103.112496,-9622.677246,-444.123565,1072.533697
1103.112817,-9400.615463,-592.164754,536.266849
1103.113138,-9400.615463,-296.082377,612.876398
1103.113458,-10214.842000,1554.432478,459.657299
1103.113779,-9474.636058,222.061783,1149.143247
1103.114099,-9696.697840,0.000000,1149.143247
1103.114420,-9770.718434,0.000000,1225.752797
1103.114741,-9548.656652,0.000000,1225.752797
1103.115061,-9696.697840,74.020594,1838.629195
1103.115382,-10066.800811,0.000000,1685.410096
1103.115703,-9844.739029,0.000000,1455.581446
1103.116023,-9548.656652,-444.123565,1685.410096
1103.116344,-9548.656652,-222.061783,2374.896044
1103.116665,-9474.636058,-296.082377,1608.800546
1103.116985,-9474.636058,-518.144159,2068.457845
1103.117306,-9474.636058,-444.123565,1608.800546
1103.117626,-8438.347739,-1332.370696,1072.533697
1103.117947,-9474.636058,-296.082377,1685.410096
1103.118268,-9622.677246,-370.102971,1378.971896
1103.118588,-9696.697840,0.000000,1455.581446
1103.118909,-9696.697840,0.000000,1685.410096
1103.119230,-9918.759623,74.020594,1225.752797
1103.119550,-9770.718434,74.020594,1225.752797
1103.119871,-9696.697840,-222.061783,919.314598
1103.120192,-9696.697840,0.000000,1302.362347
1103.120512,-9622.677246,-814.226536,459.657299
1103.120833,-9770.718434,0.000000,919.314598
1103.121154,-9474.636058,0.000000,536.266849
1103.121474,-9474.636058,-592.164754,536.266849
1103.121795,-9622.677246,-296.082377,536.266849
1103.122115,-9474.636058,-518.144159,689.485948
1103.122436,-9622.677246,-296.082377,842.705048
1103.122757,-9548.656652,-370.102971,153.219100
1103.123077,-9474.636058,0.000000,229.828649
1103.123398,-9770.718434,0.000000,459.657299
1103.123719,-9622.677246,148.041188,306.438199
1103.124039,-9770.718434,0.000000,76.609550
1103.124360,-9622.677246,0.000000,383.047749
1103.124681,-9548.656652,666.185348,383.047749
1103.125001,-9622.677246,0.000000,459.657299
1103.125322,-9326.594869,-370.102971,229.828649
1103.125643,-9622.677246,-444.123565,306.438199
1103.125963,-10214.842000,74.020594,229.828649
1103.126284,-9622.677246,-888.247130,842.705048
1103.126604,-9622.677246,-814.226536,842.705048
1103.126925,-9474.636058,-740.205942,1072.533697
1103.127246,-9696.697840,-592.164754,1072.533697
1103.127566,-9696.697840,-296.082377,1149.143247
1103.127887,-9548.656652,-296.082377,1225.752797
1103.128208,-9400.615463,-370.102971,1302.362347
1103.128528,-9474.636058,-222.061783,1302.362347
1103.128849,-9770.718434,-518.144159,1455.581446
1103.129170,-9548.656652,-370.102971,1378.971896
1103.129490,-9696.697840,-444.123565,1685.410096
1103.129811,-9548.656652,-518.144159,1762.019645
1103.130131,-9918.759623,0.000000,689.485948
1103.130452,-9770.718434,-740.205942,2221.676944
1103.130773,-9548.656652,-1036.288319,1991.848295
1103.131093,-9622.677246,-1110.308913,2145.067394
1103.131414,-9696.697840,-1036.288319,1685.410096
1103.131735,-9548.656652,-962.267725,1838.629195
1103.132055,-9770.718434,-1036.288319,1991.848295
1103.132376,-9548.656652,-888.247130,1532.190996
1103.132697,-9622.677246,-740.205942,1838.629195
1103.133017,-9622.677246,-592.164754,1915.238745
1103.133338,-9400.615463,-592.164754,1455.581446
1103.133659,-9548.656652,-444.123565,1608.800546
1103.133979,-9844.739029,-444.123565,1532.190996
1103.134300,-9770.718434,-148.041188,153.219100
1103.134620,-9622.677246,-444.123565,1149.143247
1103.134941,-9770.718434,-444.123565,919.314598
1103.135262,-9622.677246,-518.144159,1149.143247
1103.135582,-9474.636058,-592.164754,766.095498
1103.135903,-9474.636058,-444.123565,689.485948
1103.136224,-9474.636058,-518.144159,689.485948
1103.136544,-9474.636058,-518.144159,536.266849
1103.136865,-9622.677246,-444.123565,229.828649
1103.137186,-9474.636058,-296.082377,-306.438199
1103.137506,-9474.636058,74.020594,0.000000
1103.137827,-9696.697840,444.123565,0.000000
1103.138148,-9548.656652,0.000000,0.000000
1103.138468,-9548.656652,-222.061783,306.438199
1103.138789,-9622.677246,0.000000,76.609550
1103.139109,-9696.697840,222.061783,383.047749
1103.139430,-9844.739029,148.041188,383.047749
1103.139751,-9548.656652,0.000000,612.876398
1103.140071,-9474.636058,0.000000,153.219100
1103.140392,-9474.636058,-296.082377,459.657299
1103.140713,-9474.636058,-518.144159,919.314598
1103.141033,-9548.656652,-296.082377,1149.143247
1103.141354,-9918.759623,0.000000,536.266849
1103.141675,-9326.594869,0.000000,919.314598
1103.141995,-9474.636058,74.020594,766.095498
1103.142316,-9474.636058,-148.041188,1302.362347
1103.142637,-9474.636058,222.061783,1915.238745
1103.142957,-9622.677246,-222.061783,1608.800546
1103.143278,-9548.656652,-74.020594,1685.410096
1103.143598,-9770.718434,0.000000,1762.019645
1103.143919,-9696.697840,74.020594,1762.019645
1103.144240,-9844.739029,-74.020594,1991.848295
1103.144560,-9474.636058,-222.061783,2068.457845
1103.144881,-9548.656652,-370.102971,1762.019645
1103.145202,-9622.677246,-148.041188,1838.629195
1103.145522,-10066.800811,-518.144159,1455.581446
1103.145843,-9474.636058,-444.123565,1455.581446
1103.146164,-9622.677246,-370.102971,1991.848295
1103.146484,-9622.677246,-296.082377,1685.410096
1103.146805,-9548.656652,-222.061783,2604.724693
1103.147125,-9474.636058,-518.144159,1302.362347
1103.147446,-9474.636058,-222.061783,1378.971896
1103.147767,-9548.656652,-296.082377,1149.143247
1103.148087,-9474.636058,0.000000,1302.362347
1103.148408,-9844.739029,0.000000,1149.143247
1103.148729,-9770.718434,-296.082377,1149.143247
1103.149049,-9696.697840,-222.061783,842.705048
1103.149370,-9770.718434,-444.123565,689.485948
1103.149691,-9918.759623,0.000000,842.705048
1103.150011,-9548.656652,-740.205942,383.047749
1103.150332,-9770.718434,-444.123565,842.705048
1103.150653,-9622.677246,-222.061783,612.876398
1103.150973,-9474.636058,-962.267725,76.609550
1103.151294,-9400.615463,-296.082377,229.828649
1103.151614,-9622.677246,0.000000,229.828649
1103.151935,-9622.677246,0.000000,766.095498
1103.152256,-9622.677246,0.000000,229.828649
1103.152576,-9770.718434,0.000000,0.000000
1103.152897,-9622.677246,0.000000,0.000000
1103.153218,-9622.677246,-148.041188,76.609550
1103.153538,-9770.718434,0.000000,229.828649
1103.153859,-9400.615463,-370.102971,153.219100
1103.154180,-9622.677246,-296.082377,689.485948
1103.154500,-9548.656652,-370.102971,995.924147
1103.154821,-9400.615463,-370.102971,842.705048
1103.155142,-9474.636058,222.061783,842.705048
1103.155462,-9474.636058,-518.144159,1072.533697
1103.155783,-9474.636058,-296.082377,1149.143247
1103.156103,-9474.636058,-592.164754,1072.533697
1103.156424,-9474.636058,-296.082377,1225.752797
1103.156745,-9474.636058,0.000000,1455.581446
1103.157065,-9548.656652,-370.102971,1685.410096
1103.157386,-9548.656652,-222.061783,1762.019645
1103.157707,-9548.656652,-518.144159,1915.238745
1103.158027,-9918.759623,-296.082377,1608.800546
1103.158348,-9622.677246,-740.205942,1915.238745
1103.158669,-9622.677246,-592.164754,2298.286494
1103.158989,-9622.677246,-666.185348,2221.676944
1103.159310,-9474.636058,-444.123565,2221.676944
1103.159630,-9400.615463,-814.226536,2145.067394
1103.159951,-9696.697840,-444.123565,1838.629195
1103.160272,-9474.636058,-592.164754,1991.848295
1103.160592,-9474.636058,-740.205942,1915.238745
1103.160913,-9696.697840,-592.164754,1685.410096
1103.161234,-9548.656652,-740.205942,1915.238745
1103.161554,-9548.656652,-444.123565,1378.971896
1103.161875,-9622.677246,-222.061783,1378.971896
1103.162196,-10066.800811,74.020594,1532.190996
1103.162516,-9770.718434,-296.082377,1225.752797
1103.162837,-9696.697840,-444.123565,1378.971896
1103.163158,-9622.677246,-296.082377,1149.143247
1103.163478,-9770.718434,148.041188,2451.505594
1103.163799,-9622.677246,-592.164754,919.314598
1103.164119,-9474.636058,-592.164754,842.705048
1103.164440,-9770.718434,-592.164754,919.314598
1103.164761,-9696.697840,-518.144159,459.657299
1103.165081,-9400.615463,-740.205942,76.609550
1103.165402,-9474.636058,-296.082377,0.000000
1103.165723,-9548.656652,74.020594,76.609550
1103.166043,-9548.656652,148.041188,229.828649
1103.166364,-10140.821405,370.102971,229.828649
1103.166685,-9844.739029,148.041188,76.609550
1103.167005,-9770.718434,74.020594,0.000000
1103.167326,-9844.739029,-74.020594,229.828649
1103.167647,-9696.697840,0.000000,153.219100
1103.167967,-9474.636058,-444.123565,229.828649
1103.168288,-9548.656652,-296.082377,459.657299
1103.168608,-9474.636058,-370.102971,536.266849
1103.168929,-9696.697840,0.000000,842.705048
1103.169250,-9400.615463,-370.102971,612.876398
1103.169570,-9474.636058,-370.102971,919.314598
1103.169891,-9474.636058,-444.123565,995.924147
1103.170212,-9622.677246,-296.082377,1225.752797
1103.170532,-9548.656652,296.082377,2911.162892
1103.170853,-9474.636058,0.000000,1149.143247
1103.171174,-9474.636058,222.061783,1302.362347
1103.171494,-9770.718434,74.020594,1302.362347
1103.171815,-9548.656652,0.000000,1378.971896
1103.172136,-9400.615463,-592.164754,1455.581446
1103.172456,-9696.697840,-518.144159,1608.800546
1103.172777,-9770.718434,-592.164754,1685.410096
1103.173097,-9622.677246,-592.164754,1915.238745
1103.173418,-9474.636058,-592.164754,3140.991542
1103.173739,-9252.574275,-518.144159,1915.238745
1103.174059,-9474.636058,-888.247130,1991.848295
1103.174380,-9622.677246,-444.123565,1455.581446
1103.174701,-9622.677246,-592.164754,1762.019645
1103.175021,-9696.697840,-518.144159,919.314598
1103.175342,-9844.739029,74.020594,1378.971896
1103.175663,-9622.677246,0.000000,1455.581446
1103.175983,-9770.718434,0.000000,1455.581446
1103.176304,-9548.656652,74.020594,229.828649
1103.176624,-9696.697840,-222.061783,1225.752797
1103.176945,-9548.656652,-148.041188,1225.752797
1103.177266,-9548.656652,0.000000,842.705048
1103.177586,-9548.656652,-296.082377,919.314598
1103.177907,-9548.656652,-222.061783,536.266849
1103.178228,-9474.636058,-444.123565,536.266849
1103.178548,-9474.636058,-518.144159,689.485948
1103.178869,-9844.739029,-222.061783,995.924147
1103.179190,-9770.718434,-222.061783,0.000000
1103.179510,-9548.656652,-148.041188,229.828649
1103.179831,-9474.636058,0.000000,76.609550
1103.180152,-9474.636058,148.041188,536.266849
1103.180472,-9474.636058,0.000000,536.266849
1103.180793,-9400.615463,148.041188,0.000000
1103.181113,-9474.636058,0.000000,76.609550
1103.181434,-9622.677246,-74.020594,229.828649
1103.181755,-9548.656652,-222.061783,536.266849
1103.182075,-9548.656652,-296.082377,536.266849
1103.182396,-9474.636058,0.000000,536.266849
1103.182717,-9548.656652,-74.020594,919.314598
1103.183037,-9770.718434,-518.144159,919.314598
1103.183358,-9696.697840,-814.226536,995.924147
1103.183679,-9326.594869,-1036.288319,689.485948
1103.183999,-9400.615463,-518.144159,689.485948
1103.184320,-9400.615463,-296.082377,1302.362347
1103.184641,-9400.615463,-296.082377,919.314598
1103.184961,-9400.615463,-296.082377,1915.238745
1103.185282,-9548.656652,-296.082377,1685.410096
1103.185602,-9622.677246,-148.041188,1685.410096
1103.185923,-9770.718434,-518.144159,1225.752797
1103.186244,-9770.718434,-370.102971,1608.800546
1103.186564,-9770.718434,-592.164754,1532.190996
1103.186885,-9844.739029,-518.144159,1991.848295
1103.187206,-9770.718434,-666.185348,2068.457845
1103.187526,-9474.636058,-888.247130,2145.067394
1103.187847,-9474.636058,-740.205942,1762.019645
1103.188168,-9474.636058,-888.247130,1838.629195
1103.188488,-9474.636058,-1036.288319,1915.238745
1103.188809,-9400.615463,-1036.288319,2068.457845
1103.189129,-9548.656652,-888.247130,1608.800546
1103.189450,-9474.636058,-888.247130,1608.800546
1103.189771,-9474.636058,-666.185348,1455.581446
1103.190091,-9770.718434,-370.102971,1149.143247
1103.190412,-9770.718434,-444.123565,1378.971896
1103.190733,-9548.656652,-518.144159,1685.410096
1103.191053,-9696.697840,-444.123565,1378.971896
1103.191374,-9770.718434,-370.102971,1378.971896
1103.191695,-9474.636058,-444.123565,919.314598
1103.192015,-9548.656652,-518.144159,1378.971896
1103.192336,-9622.677246,-518.144159,842.705048
1103.192657,-9548.656652,-518.144159,612.876398
1103.192977,-9548.656652,-518.144159,306.438199
1103.193298,-9178.553681,-740.205942,1072.533697
1103.193618,-9400.615463,0.000000,229.828649
1103.193939,-9474.636058,-296.082377,153.219100
1103.194260,-9548.656652,222.061783,383.047749
1103.194580,-9548.656652,0.000000,459.657299
1103.194901,-9622.677246,0.000000,229.828649
1103.195222,-9548.656652,296.082377,0.000000
1103.195542,-9770.718434,222.061783,229.828649
1103.195863,-9770.718434,74.020594,612.876398
1103.196183,-9474.636058,74.020594,76.609550
1103.196504,-9696.697840,-222.061783,229.828649
1103.196825,-9622.677246,148.041188,459.657299
1103.197145,-9548.656652,0.000000,842.705048
1103.197466,-9400.615463,-444.123565,995.924147
1103.197787,-9474.636058,-296.082377,1072.533697
1103.198107,-9252.574275,-296.082377,1225.752797
1103.198428,-9548.656652,0.000000,995.924147
1103.198748,-9548.656652,0.000000,1225.752797
1103.199069,-9696.697840,148.041188,1838.629195
1103.199390,-9622.677246,0.000000,1302.362347
1103.199710,-9622.677246,-222.061783,1762.019645
1103.200031,-9622.677246,0.000000,1455.581446
1103.200352,-9548.656652,0.000000,2145.067394
1103.200672,-9548.656652,0.000000,1991.848295
1103.200993,-9326.594869,-222.061783,1455.581446
1103.201313,-9474.636058,0.000000,1838.629195
1103.201634,-9474.636058,-296.082377,1762.019645
1103.201955,-9622.677246,-518.144159,1838.629195
1103.202275,-9252.574275,-592.164754,1455.581446
1103.202596,-9474.636058,-592.164754,1762.019645
1103.202917,-9622.677246,-518.144159,1991.848295
1103.203237,-9622.677246,-444.123565,2451.505594
1103.203558,-9622.677246,-148.041188,1532.190996
1103.203878,-9548.656652,-592.164754,1302.362347
1103.204199,-9474.636058,-370.102971,1455.581446
1103.204520,-9548.656652,-370.102971,2911.162892
1103.204840,-9548.656652,-222.061783,1378.971896
1103.205161,-9696.697840,0.000000,1455.581446
1103.205482,-9622.677246,0.000000,1149.143247
1103.205802,-9474.636058,-370.102971,689.485948
1103.206123,-9770.718434,-222.061783,919.314598
1103.206443,-9770.718434,-148.041188,536.266849
1103.206764,-9548.656652,-148.041188,536.266849
1103.207085,-9770.718434,-222.061783,689.485948
1103.207405,-9992.780217,0.000000,0.000000
1103.207726,-9696.697840,-592.164754,0.000000
1103.208047,-9474.636058,-148.041188,229.828649
1103.208367,-9696.697840,0.000000,153.219100
1103.208688,-9622.677246,1480.411884,0.000000
1103.209008,-9918.759623,0.000000,0.000000
1103.209329,-9622.677246,0.000000,153.219100
1103.209650,-9770.718434,-296.082377,229.828649
1103.209970,-9622.677246,0.000000,536.266849
1103.210291,-9474.636058,0.000000,153.219100
1103.210612,-9548.656652,-296.082377,612.876398
1103.210932,-9548.656652,-370.102971,612.876398
1103.211253,-9548.656652,-222.061783,689.485948
1103.211573,-9622.677246,-370.102971,536.266849
1103.211894,-9770.718434,-518.144159,919.314598
1103.212215,-9474.636058,-296.082377,919.314598
1103.212535,-9622.677246,-370.102971,919.314598
1103.212856,-8882.471304,222.061783,689.485948
1103.213177,-9474.636058,-74.020594,1225.752797
1103.213497,-9622.677246,-444.123565,1532.190996
1103.213818,-9548.656652,-666.185348,1915.238745
1103.214138,-9622.677246,-148.041188,1685.410096
1103.214459,-9696.697840,-444.123565,1915.238745
1103.214780,-9474.636058,-666.185348,2298.286494
1103.215100,-9770.718434,-666.185348,1915.238745
1103.215421,-9548.656652,-814.226536,1991.848295
1103.215742,-9696.697840,-740.205942,1915.238745
1103.216062,-9622.677246,-888.247130,2221.676944
1103.216383,-9622.677246,-740.205942,2528.115143
1103.216703,-9548.656652,-740.205942,2145.067394
1103.217024,-9622.677246,-666.185348,459.657299
1103.217345,-9548.656652,-888.247130,1762.019645
1103.217665,-9622.677246,-518.144159,1838.629195
1103.217986,-9474.636058,-740.205942,2068.457845
1103.218307,-9548.656652,-666.185348,1608.800546
1103.218627,-9622.677246,-666.185348,1455.581446
1103.218948,-9474.636058,-666.185348,1225.752797
1103.219268,-9770.718434,-592.164754,1608.800546
1103.219589,-9622.677246,-592.164754,1302.362347
1103.219910,-9474.636058,-888.247130,919.314598
1103.220230,-9548.656652,-666.185348,1149.143247
1103.220551,-9548.656652,-740.205942,766.095498
1103.220872,-9622.677246,-740.205942,995.924147
1103.221192,-8438.347739,-1406.391290,2604.724693
1103.221513,-9474.636058,-888.247130,153.219100
1103.221833,-9548.656652,-518.144159,306.438199
1103.222154,-9474.636058,-444.123565,76.609550
1103.222475,-9474.636058,-222.061783,306.438199
1103.222795,-9400.615463,-222.061783,383.047749
1103.223116,-9622.677246,-148.041188,229.828649
1103.223437,-9622.677246,-222.061783,0.000000
1103.223757,-9696.697840,0.000000,459.657299
1103.224078,-9474.636058,-370.102971,153.219100
1103.224398,-9770.718434,0.000000,459.657299
1103.224719,-9622.677246,0.000000,459.657299
1103.225040,-9696.697840,-148.041188,536.266849
1103.225360,-9696.697840,-370.102971,383.047749
1103.225681,-9622.677246,-518.144159,842.705048
1103.226002,-9696.697840,-296.082377,919.314598
1103.226322,-9474.636058,-148.041188,689.485948
1103.226643,-9548.656652,-296.082377,1149.143247
1103.226963,-9844.739029,0.000000,766.095498
1103.227284,-9474.636058,-296.082377,536.266849
1103.227605,-9622.677246,-148.041188,1225.752797
1103.227925,-9622.677246,0.000000,1302.362347
1103.228246,-9622.677246,0.000000,689.485948
1103.228567,-9844.739029,74.020594,1762.019645
1103.228887,-9844.739029,0.000000,1762.019645
1103.229208,-9918.759623,-222.061783,1838.629195
1103.229528,-9918.759623,-814.226536,1762.019645
1103.229849,-9696.697840,-518.144159,1838.629195
1103.230170,-9474.636058,-370.102971,1455.581446
1103.230490,-9474.636058,-370.102971,1838.629195
1103.230811,-9474.636058,-148.041188,1838.629195
1103.231132,-9400.615463,-222.061783,1455.581446
1103.231452,-9474.636058,-222.061783,1302.362347
1103.231773,-9474.636058,0.000000,1149.143247
1103.232093,-9548.656652,0.000000,1149.143247
1103.232414,-9400.615463,0.000000,1685.410096
1103.232735,-9622.677246,0.000000,1302.362347
1103.233055,-9622.677246,0.000000,1072.533697
1103.233376,-9918.759623,0.000000,1149.143247
1103.233697,-9992.780217,518.144159,459.657299
1103.234017,-9696.697840,0.000000,842.705048
1103.234338,-9548.656652,0.000000,842.705048
1103.234658,-9474.636058,-74.020594,459.657299
1103.234979,-9474.636058,-370.102971,459.657299
1103.235300,-9326.594869,0.000000,536.266849
1103.235620,-9548.656652,-296.082377,536.266849
1103.235941,-9548.656652,-222.061783,229.828649
1103.236262,-9474.636058,-222.061783,383.047749
1103.236582,-9696.697840,592.164754,229.828649
1103.236903,-9696.697840,148.041188,306.438199
1103.237223,-9696.697840,0.000000,383.047749
1103.237544,-9770.718434,0.000000,76.609550
1103.237865,-9918.759623,0.000000,0.000000
1103.238185,-9918.759623,74.020594,689.485948
1103.238506,-9474.636058,0.000000,995.924147
1103.238827,-9696.697840,-370.102971,919.314598
1103.239147,-9104.533087,-444.123565,689.485948
1103.239468,-9474.636058,-740.205942,612.876398
1103.239788,-9548.656652,-666.185348,536.266849
1103.240109,-9474.636058,-666.185348,919.314598
1103.240430,-9474.636058,-814.226536,919.314598
1103.240750,-9474.636058,-740.205942,919.314598
1103.241071,-9622.677246,-592.164754,1302.362347
1103.241392,-9548.656652,-518.144159,1455.581446
1103.241712,-9696.697840,-222.061783,1532.190996
1103.242033,-9548.656652,-1036.288319,1302.362347
1103.242353,-9622.677246,-740.205942,1838.629195
1103.242674,-9548.656652,-444.123565,1685.410096
1103.242995,-9474.636058,-888.247130,1762.019645
1103.243315,-9326.594869,-592.164754,1685.410096
1103.243636,-9622.677246,-814.226536,1762.019645
1103.243957,-9474.636058,-740.205942,1685.410096
1103.244277,-9622.677246,-962.267725,1762.019645
1103.244598,-9400.615463,-1036.288319,2145.067394
1103.244918,-9622.677246,-592.164754,1838.629195
1103.245239,-9474.636058,-962.267725,1838.629195
1103.245560,-9696.697840,-888.247130,1991.848295
1103.245880,-9844.739029,-814.226536,1991.848295
1103.246201,-9030.512492,-444.123565,1608.800546
1103.246522,-9696.697840,-518.144159,1455.581446
1103.246842,-9548.656652,-444.123565,1608.800546
1103.247163,-9474.636058,-444.123565,1302.362347
1103.247483,-9696.697840,-592.164754,1225.752797
1103.247804,-9548.656652,-444.123565,1072.533697
1103.248125,-9622.677246,-370.102971,842.705048
1103.248445,-9622.677246,-592.164754,919.314598
1103.248766,-9696.697840,-296.082377,689.485948
1103.249087,-9252.574275,-592.164754,1149.143247
1103.249407,-9770.718434,-296.082377,536.266849
1103.249728,-9622.677246,-666.185348,766.095498
1103.250048,-9622.677246,-370.102971,536.266849
1103.250369,-9474.636058,0.000000,689.485948
1103.250690,-9474.636058,0.000000,306.438199
1103.251010,-9770.718434,296.082377,459.657299
1103.251331,-9548.656652,0.000000,383.047749
1103.251652,-9548.656652,0.000000,306.438199
1103.251972,-9622.677246,74.020594,0.000000
1103.252293,-9770.718434,148.041188,76.609550
1103.252613,-9474.636058,0.000000,383.047749
1103.252934,-9696.697840,0.000000,306.438199
1103.253255,-9474.636058,148.041188,1072.533697
1103.253575,-9622.677246,0.000000,612.876398
1103.253896,-9548.656652,-370.102971,1225.752797
1103.254217,-9696.697840,-296.082377,766.095498
1103.254537,-9548.656652,74.020594,2604.724693
1103.254858,-9474.636058,-296.082377,1225.752797
1103.255178,-9474.636058,-148.041188,1302.362347
1103.255499,-9474.636058,-296.082377,1302.362347
1103.255820,-9548.656652,-222.061783,1072.533697
1103.256140,-9548.656652,0.000000,1532.190996
1103.256461,-9474.636058,0.000000,1302.362347
1103.256782,-9548.656652,0.000000,1455.581446
1103.257102,-9474.636058,518.144159,1608.800546
1103.257423,-9548.656652,-222.061783,1225.752797
1103.257743,-9696.697840,-74.020594,1838.629195
1103.258064,-9622.677246,-222.061783,2068.457845
1103.258385,-9622.677246,-592.164754,1991.848295
1103.258705,-8956.491898,296.082377,2068.457845
1103.259026,-9548.656652,-222.061783,1762.019645
1103.259347,-9474.636058,-592.164754,1915.238745
1103.259667,-9474.636058,-666.185348,1532.190996
1103.259988,-9474.636058,-518.144159,1378.971896
1103.260308,-9474.636058,-222.061783,1608.800546
1103.260629,-9548.656652,0.000000,1685.410096
1103.260950,-9622.677246,-222.061783,1225.752797
1103.261270,-9622.677246,-148.041188,919.314598
1103.261591,-10436.903782,518.144159,919.314598
1103.261912,-9918.759623,148.041188,1302.362347
1103.262232,-9696.697840,0.000000,1072.533697
1103.262553,-9770.718434,0.000000,1072.533697
1103.262873,-9696.697840,148.041188,229.828649
1103.263194,-9770.718434,-222.061783,919.314598
1103.263515,-9622.677246,-296.082377,842.705048
1103.263835,-9622.677246,-666.185348,306.438199
1103.264156,-9326.594869,-592.164754,229.828649
1103.264477,-9474.636058,-444.123565,76.609550
1103.264797,-9696.697840,0.000000,0.000000
1103.265118,-9326.594869,0.000000,76.609550
1103.265438,-9548.656652,-148.041188,229.828649
1103.265759,-9178.553681,-296.082377,0.000000
1103.266080,-9992.780217,0.000000,229.828649
1103.266400,-9770.718434,0.000000,229.828649
1103.266721,-9696.697840,0.000000,459.657299
1103.267042,-10140.821405,-740.205942,306.438199
1103.267362,-9474.636058,-444.123565,383.047749
1103.267683,-9474.636058,-740.205942,689.485948
1103.268003,-9474.636058,-444.123565,689.485948
1103.268324,-9474.636058,-444.123565,612.876398
1103.268645,-9548.656652,-666.185348,919.314598
1103.268965,-9326.594869,-592.164754,459.657299
1103.269286,-9696.697840,-148.041188,919.314598
1103.269607,-9474.636058,-74.020594,1072.533697
1103.269927,-9400.615463,-518.144159,1762.019645
1103.270248,-9696.697840,-370.102971,1608.800546
1103.270568,-9474.636058,-518.144159,1762.019645
1103.270889,-9622.677246,-518.144159,1838.629195
1103.271210,-9474.636058,-1554.432478,2451.505594
1103.271530,-9474.636058,-666.185348,2374.896044
1103.271851,-9474.636058,-814.226536,1762.019645
1103.272171,-9326.594869,-814.226536,1991.848295
1103.272492,-9622.677246,-1036.288319,1838.629195
1103.272813,-9696.697840,-888.247130,2298.286494
1103.273133,-9474.636058,-1332.370696,1838.629195
1103.273454,-9622.677246,-1110.308913,1838.629195
1103.273775,-9474.636058,-888.247130,2221.676944
1103.274095,-9622.677246,-518.144159,1838.629195
1103.274416,-9696.697840,-666.185348,1991.848295
1103.274736,-9548.656652,-592.164754,1762.019645
1103.275057,-9918.759623,-666.185348,1838.629195
1103.275378,-9326.594869,0.000000,2451.505594
1103.275698,-9622.677246,-370.102971,1532.190996
1103.276019,-9548.656652,-518.144159,1302.362347
1103.276340,-9696.697840,-444.123565,1225.752797
1103.276660,-9770.718434,-518.144159,1149.143247
1103.276981,-9474.636058,-518.144159,842.705048
1103.277301,-9548.656652,-444.123565,766.095498
1103.277622,-9474.636058,-592.164754,842.705048
1103.277943,-9622.677246,-592.164754,919.314598
1103.278263,-9622.677246,-370.102971,842.705048
1103.278584,-9548.656652,-296.082377,0.000000
1103.278905,-9474.636058,-296.082377,0.000000
1103.279225,-9696.697840,0.000000,76.609550
1103.279546,-8586.388927,222.061783,1302.362347
1103.279866,-9474.636058,0.000000,153.219100
1103.280187,-9548.656652,296.082377,0.000000
1103.280508,-9548.656652,148.041188,229.828649
1103.280828,-9622.677246,148.041188,459.657299
1103.281149,-9548.656652,-148.041188,229.828649
1103.281470,-9770.718434,0.000000,612.876398
1103.281790,-9474.636058,-444.123565,612.876398
1103.282111,-9474.636058,-518.144159,612.876398
1103.282431,-9992.780217,-148.041188,766.095498
1103.282752,-9622.677246,-518.144159,1072.533697
1103.283073,-9474.636058,-296.082377,919.314598
1103.283393,-9252.574275,-444.123565,766.095498
1103.283714,-9844.739029,592.164754,842.705048
1103.284035,-9770.718434,148.041188,1302.362347
1103.284355,-9548.656652,148.041188,1072.533697
1103.284676,-9696.697840,148.041188,919.314598
1103.284996,-9696.697840,148.041188,1378.971896
1103.285317,-9696.697840,0.000000,1378.971896
1103.285638,-9918.759623,0.000000,1991.848295
1103.285958,-9696.697840,-296.082377,1685.410096
1103.286279,-9622.677246,-370.102971,1991.848295
1103.286600,-9474.636058,-666.185348,2068.457845
1103.286920,-9474.636058,-814.226536,1685.410096
1103.287241,-9622.677246,-740.205942,1762.019645
1103.287561,-9548.656652,-592.164754,1608.800546
1103.287882,-9548.656652,0.000000,2757.943793
1103.288203,-9474.636058,-222.061783,1608.800546
1103.288523,-9474.636058,-222.061783,1455.581446
1103.288844,-9770.718434,0.000000,1532.190996
1103.289165,-9622.677246,0.000000,1072.533697
1103.289485,-9992.780217,296.082377,1225.752797
1103.289806,-9992.780217,0.000000,1225.752797
1103.290126,-9696.697840,0.000000,919.314598
1103.290447,-9622.677246,-148.041188,842.705048
1103.290768,-10288.862594,444.123565,995.924147
1103.291088,-9548.656652,-592.164754,612.876398
1103.291409,-9474.636058,-518.144159,766.095498
1103.291730,-9548.656652,-592.164754,536.266849
1103.292050,-9474.636058,0.000000,2221.676944
1103.292371,-9548.656652,-444.123565,383.047749
1103.292691,-9622.677246,-296.082377,459.657299
1103.293012,-9548.656652,0.000000,459.657299
1103.293333,-9548.656652,148.041188,229.828649
1103.293654,-9770.718434,296.082377,459.657299
1103.293974,-9548.656652,0.000000,383.047749
1103.294295,-9770.718434,148.041188,229.828649
1103.294616,-9548.656652,0.000000,229.828649
1103.294937,-9918.759623,74.020594,995.924147
1103.295257,-9770.718434,-148.041188,306.438199
1103.295578,-9622.677246,-296.082377,766.095498
1103.295899,-9770.718434,-444.123565,1149.143247
1103.296220,-9770.718434,148.041188,1149.143247
1103.296541,-9622.677246,-518.144159,1072.533697
1103.296861,-9474.636058,-740.205942,1225.752797
1103.297182,-9178.553681,-518.144159,1225.752797
1103.297503,-9474.636058,-518.144159,1302.362347
1103.297824,-9400.615463,-518.144159,1455.581446
1103.298144,-9474.636058,-518.144159,1378.971896
1103.298465,-9696.697840,-296.082377,1302.362347
1103.298786,-9696.697840,-444.123565,1378.971896
1103.299107,-10066.800811,0.000000,1532.190996
1103.299427,-9844.739029,-370.102971,1991.848295
1103.299748,-9770.718434,-148.041188,1532.190996
1103.300069,-9622.677246,-592.164754,1991.848295
1103.300390,-9548.656652,-1628.453072,306.438199
1103.300710,-9622.677246,-1036.288319,1915.238745
1103.301031,-9622.677246,-814.226536,2374.896044
1103.301352,-9474.636058,-962.267725,2145.067394
1103.301673,-9474.636058,-1110.308913,2145.067394
1103.301993,-9474.636058,-888.247130,1532.190996
1103.302314,-9474.636058,-814.226536,1762.019645
1103.302635,-9622.677246,-814.226536,1838.629195
1103.302956,-9622.677246,-592.164754,1455.581446
1103.303276,-9104.533087,-1406.391290,1991.848295
1103.303597,-9474.636058,-740.205942,1225.752797
1103.303918,-9548.656652,-518.144159,1149.143247
1103.304239,-9770.718434,-592.164754,1149.143247
1103.304559,-9622.677246,-370.102971,-383.047749
1103.304880,-9548.656652,-592.164754,612.876398
1103.305201,-9622.677246,-592.164754,689.485948
1103.305522,-9696.697840,-444.123565,383.047749
1103.305842,-9474.636058,-592.164754,612.876398
1103.306163,-9326.594869,-296.082377,842.705048
1103.306484,-9696.697840,-518.144159,459.657299
1103.306805,-9474.636058,-444.123565,153.219100
1103.307125,-9696.697840,-444.123565,0.000000
1103.307446,-9844.739029,0.000000,0.000000
1103.307767,-9474.636058,-296.082377,153.219100
1103.308088,-9622.677246,-74.020594,-76.609550
1103.308408,-9474.636058,0.000000,0.000000
1103.308729,-9770.718434,0.000000,306.438199
1103.309050,-9770.718434,296.082377,459.657299
1103.309371,-9696.697840,0.000000,536.266849
1103.309691,-9622.677246,74.020594,689.485948
1103.310012,-9844.739029,0.000000,842.705048
1103.310333,-9622.677246,0.000000,1072.533697
1103.310654,-9474.636058,-296.082377,919.314598
1103.310974,-9474.636058,-296.082377,919.314598
1103.311295,-9474.636058,-222.061783,1072.533697
1103.311616,-9622.677246,-296.082377,842.705048
1103.311937,-9548.656652,0.000000,1149.143247
1103.312257,-9474.636058,0.000000,1378.971896
1103.312578,-9622.677246,-222.061783,1455.581446
1103.312899,-9548.656652,-370.102971,1149.143247
1103.313220,-9622.677246,0.000000,1455.581446
1103.313540,-9770.718434,0.000000,1838.629195
1103.313861,-9770.718434,74.020594,1915.238745
1103.314182,-9474.636058,0.000000,1838.629195
1103.314503,-9548.656652,-222.061783,1532.190996
1103.314823,-9696.697840,0.000000,2145.067394
1103.315144,-9622.677246,-518.144159,1991.848295
1103.315465,-9548.656652,-444.123565,1762.019645
1103.315786,-9326.594869,-1258.350101,1685.410096
1103.316106,-9548.656652,-444.123565,1838.629195
1103.316427,-9474.636058,-592.164754,1532.190996
1103.316748,-9474.636058,-592.164754,1838.629195
1103.317069,-9400.615463,-296.082377,-153.219100
1103.317389,-9696.697840,-296.082377,1225.752797
1103.317710,-9622.677246,-296.082377,1225.752797
1103.318031,-9622.677246,0.000000,1072.533697
1103.318352,-9696.697840,-296.082377,1455.581446
1103.318672,-9474.636058,-296.082377,995.924147
1103.318993,-9696.697840,-296.082377,842.705048
1103.319314,-9548.656652,-296.082377,536.266849
1103.319635,-9548.656652,-444.123565,536.266849
1103.319955,-9844.739029,-592.164754,383.047749
1103.320276,-9548.656652,-444.123565,536.266849
1103.320597,-9474.636058,-296.082377,536.266849
1103.320918,-9622.677246,-444.123565,459.657299
1103.321238,-9548.656652,0.000000,1762.019645
1103.321559,-9770.718434,-148.041188,459.657299
1103.321880,-9548.656652,0.000000,229.828649
1103.322201,-9696.697840,0.000000,306.438199
1103.322521,-9548.656652,0.000000,153.219100
1103.322842,-9770.718434,74.020594,76.609550
1103.323163,-9696.697840,0.000000,536.266849
1103.323484,-9474.636058,-148.041188,306.438199
1103.323804,-9548.656652,0.000000,306.438199
1103.324125,-9844.739029,-296.082377,842.705048
1103.324446,-9770.718434,-296.082377,842.705048
1103.324767,-9548.656652,-444.123565,766.095498
1103.325087,-9622.677246,-518.144159,1072.533697
1103.325408,-9474.636058,-518.144159,1149.143247
1103.325729,-9548.656652,-296.082377,1072.533697
1103.326050,-9474.636058,-296.082377,1225.752797
1103.326371,-9474.636058,-370.102971,1149.143247
1103.326691,-9548.656652,-296.082377,1302.362347
1103.327012,-9548.656652,-148.041188,1608.800546
1103.327333,-9622.677246,-296.082377,1685.410096
1103.327654,-9548.656652,-444.123565,1685.410096
1103.327974,-9770.718434,-296.082377,1685.410096
1103.328295,-9474.636058,-740.205942,2834.553343
1103.328616,-9622.677246,-888.247130,2298.286494
1103.328937,-9770.718434,-962.267725,2145.067394
1103.329257,-9622.677246,-962.267725,2145.067394
1103.329578,-9326.594869,-1628.453072,2451.505594
1103.329899,-9770.718434,-740.205942,2451.505594
1103.330220,-9474.636058,-1184.329507,2145.067394
1103.330540,-9622.677246,-814.226536,1762.019645
1103.330861,-9474.636058,-592.164754,1532.190996
1103.331182,-9696.697840,-518.144159,1532.190996
1103.331503,-9548.656652,-740.205942,1608.800546
1103.331823,-9548.656652,-592.164754,1378.971896
1103.332144,-9474.636058,-518.144159,1302.362347
1103.332465,-9622.677246,-296.082377,1915.238745
1103.332786,-9696.697840,-518.144159,1378.971896
1103.333106,-9696.697840,-592.164754,1072.533697
1103.333427,-9474.636058,-740.205942,1149.143247
1103.333748,-9622.677246,-592.164754,0.000000
1103.334069,-9474.636058,-592.164754,842.705048
1103.334389,-9696.697840,-740.205942,536.266849
1103.334710,-9474.636058,-888.247130,766.095498
1103.335031,-9474.636058,-592.164754,306.438199
1103.335352,-9326.594869,-592.164754,459.657299
1103.335672,-9474.636058,-222.061783,76.609550
1103.335993,-9474.636058,-148.041188,0.000000
1103.336314,-9548.656652,0.000000,0.000000
1103.336635,-9844.739029,518.144159,229.828649
1103.336955,-9474.636058,0.000000,153.219100
1103.337276,-9696.697840,0.000000,459.657299
1103.337597,-9770.718434,-296.082377,689.485948
1103.337918,-9918.759623,-444.123565,689.485948
1103.338238,-9696.697840,-518.144159,1072.533697
1103.338559,-9474.636058,-518.144159,1072.533697
1103.338880,-9622.677246,-518.144159,842.705048
1103.339201,-9252.574275,-518.144159,842.705048
1103.339521,-9474.636058,-370.102971,459.657299
1103.339842,-9474.636058,-370.102971,612.876398
1103.340163,-9474.636058,0.000000,766.095498
1103.340484,-9474.636058,0.000000,766.095498
1103.340804,-9696.697840,222.061783,2068.457845
1103.341125,-9696.697840,74.020594,1302.362347
1103.341446,-9770.718434,222.061783,1532.190996
1103.341767,-9918.759623,0.000000,1455.581446
1103.342087,-9548.656652,-740.205942,76.609550
1103.342408,-9918.759623,-148.041188,1532.190996
1103.342729,-9622.677246,-518.144159,1532.190996
1103.343050,-9622.677246,-592.164754,1685.410096
1103.343370,-9326.594869,-296.082377,1532.190996
1103.343691,-9252.574275,-296.082377,1685.410096
1103.344012,-9400.615463,-444.123565,1608.800546
1103.344333,-9474.636058,-518.144159,1072.533697
1103.344653,-9474.636058,-222.061783,1302.362347
1103.344974,-8882.471304,-222.061783,1608.800546
1103.345295,-9770.718434,370.102971,1608.800546
1103.345616,-9918.759623,444.123565,1532.190996
1103.345936,-9622.677246,296.082377,689.485948
1103.346257,-9622.677246,0.000000,383.047749
1103.346578,-9622.677246,-296.082377,842.705048
1103.346899,-9770.718434,0.000000,689.485948
1103.347219,-9770.718434,-296.082377,995.924147
1103.347540,-9474.636058,-148.041188,766.095498
1103.347861,-9474.636058,-370.102971,919.314598
1103.348182,-9474.636058,-444.123565,612.876398
1103.348502,-9696.697840,-370.102971,689.485948
1103.348823,-9474.636058,-518.144159,919.314598
1103.349144,-10214.842000,370.102971,153.219100
1103.349465,-9474.636058,0.000000,153.219100
1103.349785,-9696.697840,148.041188,383.047749
1103.350106,-9548.656652,444.123565,383.047749
1103.350427,-9770.718434,518.144159,1991.848295
1103.350748,-9548.656652,222.061783,383.047749
1103.351068,-9770.718434,74.020594,536.266849
1103.351389,-9696.697840,0.000000,536.266849
1103.351710,-9474.636058,-444.123565,612.876398
1103.352031,-9030.512492,-370.102971,766.095498
1103.352351,-9622.677246,-518.144159,919.314598
1103.352672,-9400.615463,-592.164754,1225.752797
1103.352993,-9474.636058,-666.185348,1149.143247
1103.353314,-9770.718434,-1184.329507,306.438199
1103.353634,-9474.636058,-888.247130,995.924147
1103.353955,-9548.656652,-444.123565,1072.533697
1103.354276,-9474.636058,-370.102971,1225.752797
1103.354597,-9548.656652,-148.041188,1608.800546
1103.354917,-9844.739029,-296.082377,1532.190996
1103.355238,-9548.656652,-370.102971,1455.581446
1103.355559,-9548.656652,-444.123565,1302.362347
1103.355880,-9918.759623,-444.123565,1455.581446
1103.356200,-9548.656652,-740.205942,2374.896044
1103.356521,-9622.677246,-814.226536,1838.629195
1103.356842,-9474.636058,-962.267725,1532.190996
1103.357163,-9474.636058,-1110.308913,1915.238745
1103.357484,-9474.636058,-1258.350101,1915.238745
1103.357804,-9622.677246,-1258.350101,1991.848295
1103.358125,-9622.677246,-1184.329507,1608.800546
1103.358446,-9474.636058,-814.226536,1685.410096
1103.358767,-9474.636058,-666.185348,1532.190996
1103.359087,-9770.718434,-740.205942,1915.238745
1103.359408,-9474.636058,-740.205942,1608.800546
1103.359729,-9696.697840,-592.164754,995.924147
1103.360050,-9622.677246,-592.164754,1378.971896
1103.360370,-9622.677246,-518.144159,1225.752797
1103.360691,-9770.718434,-444.123565,1225.752797
1103.361012,-9326.594869,-444.123565,689.485948
1103.361333,-9696.697840,-370.102971,919.314598
1103.361653,-9030.512492,-370.102971,2068.457845
1103.361974,-9474.636058,-518.144159,536.266849
1103.362295,-9548.656652,-444.123565,459.657299
1103.362616,-9474.636058,-444.123565,459.657299
1103.362936,-9548.656652,-222.061783,995.924147
1103.363257,-9548.656652,-296.082377,459.657299
1103.363578,-9474.636058,0.000000,306.438199
1103.363899,-9474.636058,0.000000,0.000000
1103.364219,-9622.677246,74.020594,0.000000
1103.364540,-9770.718434,0.000000,-153.219100
1103.364861,-9696.697840,0.000000,153.219100
1103.365182,-9770.718434,0.000000,229.828649
1103.365502,-9770.718434,148.041188,383.047749
1103.365823,-9474.636058,0.000000,383.047749
1103.366144,-9622.677246,-296.082377,536.266849
1103.366465,-9548.656652,0.000000,995.924147
1103.366785,-9548.656652,-148.041188,766.095498
1103.367106,-9400.615463,0.000000,919.314598
1103.367427,-9474.636058,0.000000,995.924147
1103.367748,-9622.677246,-222.061783,1378.971896
1103.368068,-9400.615463,0.000000,919.314598
1103.368389,-9474.636058,0.000000,1302.362347
1103.368710,-9474.636058,-74.020594,1302.362347
1103.369031,-9622.677246,0.000000,1532.190996
1103.369351,-9548.656652,-222.061783,1532.190996
1103.369672,-9696.697840,0.000000,1838.629195
1103.369993,-9770.718434,296.082377,1532.190996
1103.370314,-9474.636058,-222.061783,1838.629195
1103.370634,-9474.636058,-296.082377,1685.410096
1103.370955,-9548.656652,-370.102971,2298.286494
1103.371276,-9474.636058,148.041188,1991.848295
1103.371597,-9548.656652,-592.164754,1991.848295
1103.371917,-9474.636058,-592.164754,1991.848295
1103.372238,-9548.656652,-370.102971,1991.848295
1103.372559,-9696.697840,-370.102971,1991.848295
1103.372880,-9400.615463,-444.123565,2068.457845
1103.373200,-9548.656652,-222.061783,1608.800546
1103.373521,-9696.697840,0.000000,1455.581446
1103.373842,-9622.677246,0.000000,1378.971896
1103.374163,-9622.677246,0.000000,-229.828649
1103.374483,-9622.677246,0.000000,919.314598
1103.374804,-9696.697840,-222.061783,1072.533697
1103.375125,-9696.697840,0.000000,1072.533697
1103.375446,-9622.677246,-148.041188,766.095498
1103.375766,-9696.697840,-148.041188,842.705048
1103.376087,-9696.697840,-370.102971,536.266849
1103.376408,-9770.718434,-74.020594,842.705048
1103.376729,-9548.656652,-444.123565,536.266849
1103.377049,-9844.739029,-592.164754,153.219100
1103.377370,-9326.594869,-592.164754,153.219100
1103.377691,-9548.656652,-296.082377,0.000000
1103.378012,-9770.718434,0.000000,0.000000
1103.378332,-9474.636058,-222.061783,-229.828649
1103.378653,-9622.677246,0.000000,153.219100
1103.378974,-9696.697840,296.082377,153.219100
1103.379295,-9622.677246,-222.061783,153.219100
1103.379615,-9548.656652,-296.082377,-306.438199
1103.379936,-9548.656652,-222.061783,306.438199
1103.380257,-9474.636058,-148.041188,612.876398
1103.380578,-9696.697840,-444.123565,612.876398
1103.380898,-9474.636058,-592.164754,842.705048
1103.381219,-9622.677246,-518.144159,1072.533697
1103.381540,-9622.677246,-592.164754,1302.362347
1103.381861,-9474.636058,-518.144159,1149.143247
1103.382181,-9400.615463,-592.164754,1072.533697
1103.382502,-9474.636058,-814.226536,919.314598
1103.382823,-9474.636058,-222.061783,1225.752797
1103.383144,-9548.656652,-148.041188,1378.971896
1103.383464,-9474.636058,-370.102971,1455.581446
1103.383785,-9548.656652,148.041188,3140.991542
1103.384106,-9696.697840,-444.123565,2068.457845
1103.384427,-9696.697840,-444.123565,1991.848295
1103.384747,-9696.697840,-666.185348,2298.286494
1103.385068,-9696.697840,-740.205942,2451.505594
1103.385389,-9474.636058,-740.205942,1915.238745
1103.385710,-9770.718434,-1258.350101,2221.676944
1103.386030,-9474.636058,-1036.288319,1991.848295
1103.386351,-9326.594869,-1036.288319,1915.238745
1103.386672,-9770.718434,-666.185348,2221.676944
1103.386993,-9252.574275,-962.267725,1608.800546
1103.387314,-9622.677246,-666.185348,1532.190996
1103.387634,-9548.656652,-592.164754,1762.019645
1103.387955,-9622.677246,-444.123565,1378.971896
1103.388276,-9844.739029,-666.185348,1455.581446
1103.388597,-9770.718434,-296.082377,1608.800546
1103.388917,-9844.739029,-444.123565,1685.410096
1103.389238,-9548.656652,-592.164754,1072.533697
1103.389559,-9622.677246,-444.123565,689.485948
1103.389880,-9474.636058,-666.185348,919.314598
1103.390200,-9474.636058,-444.123565,612.876398
1103.390521,-9548.656652,-444.123565,1149.143247
1103.390842,-10288.862594,0.000000,306.438199
1103.391163,-9622.677246,-666.185348,536.266849
1103.391483,-9548.656652,-296.082377,383.047749
1103.391804,-9696.697840,-148.041188,306.438199
1103.392125,-9622.677246,370.102971,-306.438199
1103.392446,-9696.697840,222.061783,76.609550
1103.392766,-9622.677246,296.082377,76.609550
1103.393087,-9474.636058,222.061783,76.609550
1103.393408,-9696.697840,296.082377,0.000000
1103.393729,-9696.697840,222.061783,383.047749
1103.394049,-9696.697840,0.000000,229.828649
1103.394370,-9548.656652,-148.041188,0.000000
1103.394691,-9474.636058,-296.082377,383.047749
1103.395012,-9622.677246,-592.164754,919.314598
1103.395332,-9474.636058,-666.185348,995.924147
1103.395653,-9474.636058,-592.164754,1225.752797
1103.395974,-9474.636058,-592.164754,995.924147
1103.396295,-9474.636058,-370.102971,995.924147
1103.396615,-9696.697840,-222.061783,919.314598
1103.396936,-9474.636058,-74.020594,1378.971896
1103.397257,-9622.677246,0.000000,1225.752797
1103.397577,-9548.656652,0.000000,1455.581446
1103.397898,-9400.615463,0.000000,1149.143247
1103.398219,-9622.677246,0.000000,1455.581446
1103.398540,-9622.677246,0.000000,1608.800546
1103.398860,-9548.656652,0.000000,1685.410096
1103.399181,-9844.739029,-814.226536,2068.457845
1103.399502,-9548.656652,-592.164754,1685.410096
1103.399823,-9622.677246,-666.185348,1838.629195
1103.400143,-9474.636058,-666.185348,1685.410096
1103.400464,-9622.677246,-814.226536,1991.848295
1103.400785,-9548.656652,-592.164754,1838.629195
1103.401106,-9696.697840,-370.102971,1608.800546
1103.401426,-9622.677246,-222.061783,1532.190996
1103.401747,-9548.656652,-148.041188,1532.190996
1103.402068,-9252.574275,-296.082377,766.095498
1103.402388,-9548.656652,0.000000,1302.362347
1103.402709,-9548.656652,0.000000,919.314598
1103.403030,-9770.718434,0.000000,766.095498
1103.403351,-9696.697840,666.185348,0.000000
1103.403671,-9770.718434,0.000000,459.657299
1103.403992,-9696.697840,-222.061783,995.924147
1103.404313,-9622.677246,-222.061783,766.095498
1103.404634,-9548.656652,-222.061783,919.314598
1103.404954,-9548.656652,-370.102971,689.485948
1103.405275,-9622.677246,-518.144159,919.314598
1103.405596,-9548.656652,-370.102971,612.876398
1103.405917,-9548.656652,0.000000,306.438199
1103.406237,-9326.594869,74.020594,842.705048
1103.406558,-9622.677246,0.000000,383.047749
1103.406879,-9474.636058,0.000000,306.438199
1103.407200,-9474.636058,222.061783,153.219100
1103.407520,-9992.780217,962.267725,-689.485948
1103.407841,-9474.636058,0.000000,459.657299
1103.408162,-9844.739029,-148.041188,459.657299
1103.408482,-9474.636058,-74.020594,842.705048
1103.408803,-9474.636058,-444.123565,995.924147
1103.409124,-9474.636058,-74.020594,1225.752797
1103.409445,-9474.636058,-370.102971,1149.143247
1103.409765,-9474.636058,-444.123565,1149.143247
1103.410086,-9474.636058,-518.144159,1378.971896
1103.410407,-9474.636058,-666.185348,1532.190996
1103.410728,-9474.636058,-296.082377,1225.752797
1103.411048,-9474.636058,-148.041188,1302.362347
1103.411369,-9474.636058,-444.123565,1302.362347
1103.411690,-9474.636058,-222.061783,2911.162892
1103.412011,-9548.656652,0.000000,1838.629195
1103.412331,-9696.697840,-296.082377,1608.800546
1103.412652,-9696.697840,-444.123565,1608.800546
1103.412973,-9918.759623,-518.144159,1838.629195
1103.413293,-9622.677246,-222.061783,1838.629195
1103.413614,-9548.656652,-740.205942,1608.800546
1103.413935,-9474.636058,-814.226536,1991.848295
1103.414256,-9622.677246,-962.267725,1838.629195
1103.414576,-8956.491898,-1036.288319,1685.410096
1103.414897,-9548.656652,-592.164754,1762.019645
1103.415218,-9548.656652,-666.185348,1532.190996
1103.415539,-9474.636058,-740.205942,1608.800546
1103.415859,-7624.121203,-1184.329507,1608.800546
1103.416180,-9548.656652,-888.247130,1915.238745
1103.416501,-9770.718434,-666.185348,1378.971896
1103.416822,-9548.656652,-962.267725,1225.752797
1103.417142,-9770.718434,-740.205942,1149.143247
1103.417463,-9770.718434,-518.144159,1378.971896
1103.417784,-9770.718434,-370.102971,1378.971896
1103.418105,-9622.677246,-518.144159,842.705048
1103.418425,-9474.636058,-592.164754,536.266849
1103.418746,-9474.636058,-444.123565,1302.362347
1103.419067,-9548.656652,-518.144159,459.657299
1103.419387,-9548.656652,-444.123565,306.438199
1103.419708,-9474.636058,-296.082377,153.219100
1103.420029,-9844.739029,296.082377,-306.438199
1103.420350,-9770.718434,-222.061783,0.000000
1103.420670,-9770.718434,-148.041188,153.219100
1103.420991,-9622.677246,-148.041188,383.047749
1103.421312,-9696.697840,0.000000,229.828649
1103.421633,-9770.718434,0.000000,459.657299
1103.421953,-9992.780217,0.000000,536.266849
1103.422274,-9474.636058,-148.041188,919.314598
1103.422595,-9548.656652,0.000000,536.266849
1103.422916,-9474.636058,222.061783,612.876398
1103.423236,-9548.656652,-148.041188,689.485948
1103.423557,-9474.636058,-296.082377,919.314598
1103.423878,-9622.677246,-296.082377,612.876398
1103.424198,-9548.656652,-444.123565,1072.533697
1103.424519,-9548.656652,-222.061783,766.095498
1103.424840,-9548.656652,-296.082377,1149.143247
1103.425161,-9622.677246,-296.082377,1302.362347
1103.425481,-9696.697840,-296.082377,1685.410096
1103.425802,-9548.656652,-296.082377,1532.190996
1103.426123,-9696.697840,-296.082377,2068.457845
1103.426444,-9770.718434,-370.102971,1915.238745
1103.426764,-9474.636058,-296.082377,1762.019645
1103.427085,-9622.677246,0.000000,1685.410096
1103.427406,-9474.636058,-592.164754,1685.410096
1103.427727,-9400.615463,-444.123565,1838.629195
1103.428047,-9474.636058,-518.144159,2068.457845
1103.428368,-9400.615463,222.061783,2528.115143
1103.428689,-9622.677246,-296.082377,1915.238745
1103.429009,-9622.677246,-370.102971,1455.581446
1103.429330,-9548.656652,-370.102971,1455.581446
1103.429651,-9844.739029,-518.144159,1915.238745
1103.429972,-9400.615463,-814.226536,1838.629195
1103.430292,-9622.677246,0.000000,1378.971896
1103.430613,-9548.656652,-296.082377,1072.533697
1103.430934,-9474.636058,0.000000,1072.533697
1103.431255,-9770.718434,-296.082377,1532.190996
1103.431575,-9252.574275,-444.123565,995.924147
1103.431896,-9400.615463,-148.041188,689.485948
1103.432217,-9548.656652,-296.082377,689.485948
1103.432538,-9696.697840,-296.082377,842.705048
1103.432858,-9252.574275,74.020594,1149.143247
1103.433179,-9696.697840,-222.061783,536.266849
1103.433500,-9474.636058,-296.082377,459.657299
1103.433821,-9622.677246,-296.082377,383.047749
1103.434141,-10510.924376,444.123565,-76.609550
1103.434462,-9696.697840,0.000000,306.438199
1103.434783,-9622.677246,74.020594,153.219100
1103.435103,-9770.718434,0.000000,76.609550
1103.435424,-9622.677246,0.000000,0.000000
1103.435745,-9548.656652,222.061783,612.876398
1103.436066,-9474.636058,222.061783,306.438199
1103.436386,-9622.677246,0.000000,306.438199
1103.436707,-9474.636058,0.000000,306.438199
1103.437028,-9474.636058,-592.164754,153.219100
1103.437349,-9844.739029,-518.144159,842.705048
1103.437669,-9622.677246,-444.123565,842.705048
1103.437990,-9696.697840,-518.144159,1225.752797
1103.438311,-8882.471304,-814.226536,2451.505594
1103.438632,-9474.636058,-370.102971,919.314598
1103.438952,-9474.636058,-296.082377,1302.362347
1103.439273,-9474.636058,0.000000,1225.752797
1103.439594,-9548.656652,0.000000,1378.971896
1103.439914,-9548.656652,-222.061783,1225.752797
1103.440235,-9696.697840,-296.082377,1225.752797
1103.440556,-9548.656652,-296.082377,1532.190996
1103.440877,-9770.718434,-296.082377,1991.848295
1103.441197,-9622.677246,-222.061783,2145.067394
1103.441518,-9548.656652,-666.185348,1991.848295
1103.441839,-9548.656652,-666.185348,2068.457845
1103.442160,-9622.677246,-666.185348,2068.457845
1103.442480,-9548.656652,-962.267725,2451.505594
1103.442801,-9622.677246,-888.247130,2528.115143
1103.443122,-9474.636058,-962.267725,1762.019645
1103.443443,-9400.615463,-888.247130,1838.629195
1103.443763,-9548.656652,-518.144159,1838.629195
1103.444084,-9400.615463,-666.185348,1685.410096
1103.444405,-9474.636058,-592.164754,1455.581446
1103.444726,-9474.636058,-370.102971,1608.800546
1103.445046,-9548.656652,-222.061783,1302.362347
1103.445367,-9474.636058,148.041188,1225.752797
1103.445688,-9696.697840,-370.102971,1149.143247
1103.446008,-9696.697840,-666.185348,1072.533697
1103.446329,-9622.677246,-592.164754,1302.362347
1103.446650,-9770.718434,-666.185348,1149.143247
1103.446971,-9770.718434,-518.144159,1225.752797
1103.447291,-9474.636058,-962.267725,919.314598
1103.447612,-9474.636058,-1036.288319,383.047749
1103.447933,-9474.636058,-814.226536,459.657299
1103.448254,-9252.574275,-740.205942,-153.219100
1103.448574,-9548.656652,-444.123565,229.828649
1103.448895,-9400.615463,0.000000,536.266849
1103.449216,-9474.636058,-148.041188,0.000000
1103.449537,-8882.471304,-370.102971,383.047749
1103.449857,-9696.697840,-222.061783,229.828649
1103.450178,-9622.677246,-148.041188,229.828649
1103.450499,-9622.677246,-222.061783,459.657299
1103.450819,-9474.636058,0.000000,919.314598
1103.451140,-9622.677246,-148.041188,536.266849
1103.451461,-9622.677246,0.000000,612.876398
1103.451782,-9474.636058,-518.144159,919.314598
1103.452102,-9474.636058,-518.144159,919.314598
1103.452423,-9474.636058,-518.144159,919.314598
1103.452744,-9474.636058,-296.082377,919.314598
1103.453065,-9474.636058,-592.164754,842.705048
1103.453385,-9474.636058,-148.041188,1072.533697
1103.453706,-9770.718434,74.020594,1608.800546
1103.454027,-9622.677246,0.000000,1455.581446
1103.454348,-9622.677246,0.000000,1455.581446
1103.454668,-9548.656652,0.000000,1378.971896
1103.454989,-9770.718434,222.061783,689.485948
1103.455310,-9770.718434,0.000000,1838.629195
1103.455630,-9918.759623,0.000000,1608.800546
1103.455951,-9696.697840,0.000000,1532.190996
1103.456272,-9696.697840,-370.102971,1532.190996
1103.456593,-9474.636058,-296.082377,1378.971896
1103.456913,-9474.636058,-222.061783,1608.800546
1103.457234,-9770.718434,-74.020594,1608.800546
1103.457555,-9474.636058,0.000000,1378.971896
1103.457876,-9622.677246,-370.102971,1532.190996
1103.458196,-9844.739029,0.000000,1302.362347
1103.458517,-9696.697840,0.000000,1072.533697
1103.458838,-9622.677246,-148.041188,1149.143247
1103.459159,-9548.656652,0.000000,1685.410096
1103.459479,-9622.677246,0.000000,1072.533697
1103.459800,-9770.718434,74.020594,1072.533697
1103.460121,-9622.677246,0.000000,459.657299
1103.460442,-9770.718434,-148.041188,536.266849
1103.460762,-9474.636058,0.000000,459.657299
1103.461083,-9548.656652,-296.082377,612.876398
1103.461404,-9474.636058,0.000000,536.266849
1103.461724,-9474.636058,-296.082377,459.657299
1103.462045,-8512.368333,-666.185348,919.314598
1103.462366,-9474.636058,-296.082377,306.438199
1103.462687,-9474.636058,-222.061783,229.828649
1103.463007,-9474.636058,0.000000,459.657299
1103.463328,-9548.656652,666.185348,0.000000
1103.463649,-9548.656652,-74.020594,689.485948
1103.463970,-9622.677246,0.000000,229.828649
1103.464290,-9696.697840,0.000000,919.314598
1103.464611,-9696.697840,-148.041188,536.266849
1103.464932,-9474.636058,-296.082377,459.657299
1103.465253,-9474.636058,-444.123565,766.095498
1103.465573,-9474.636058,-222.061783,459.657299
1103.465894,-9474.636058,-592.164754,1225.752797
1103.466215,-9178.553681,-518.144159,1608.800546
1103.466535,-9474.636058,-592.164754,1149.143247
1103.466856,-9548.656652,-444.123565,1225.752797
1103.467177,-9548.656652,-296.082377,1225.752797
1103.467498,-9622.677246,-592.164754,2451.505594
1103.467818,-9474.636058,-222.061783,1685.410096
1103.468139,-9548.656652,-444.123565,1685.410096
1103.468460,-9696.697840,-592.164754,1762.019645
1103.468781,-9622.677246,-962.267725,1685.410096
1103.469101,-9622.677246,-740.205942,1991.848295
1103.469422,-9548.656652,-740.205942,1838.629195
1103.469743,-9622.677246,-740.205942,2374.896044
1103.470064,-9474.636058,-1110.308913,2068.457845
1103.470384,-9474.636058,-444.123565,4366.744339
1103.470705,-9622.677246,-1110.308913,2068.457845
1103.471026,-9474.636058,-1110.308913,1915.238745
1103.471347,-9548.656652,-962.267725,1838.629195
1103.471667,-9548.656652,-814.226536,1838.629195
1103.471988,-9474.636058,-888.247130,1685.410096
1103.472309,-9326.594869,-814.226536,1455.581446
1103.472629,-9696.697840,-814.226536,1455.581446
1103.472950,-9474.636058,-814.226536,1378.971896
1103.473271,-9548.656652,-1332.370696,919.314598
1103.473592,-9548.656652,-888.247130,612.876398
1103.473912,-9696.697840,-444.123565,1072.533697
1103.474233,-9622.677246,-518.144159,1072.533697
1103.474554,-9178.553681,222.061783,766.095498
1103.474875,-9548.656652,-296.082377,612.876398
1103.475195,-9548.656652,-444.123565,459.657299
1103.475516,-9548.656652,-370.102971,229.828649
1103.475837,-9622.677246,-370.102971,0.000000
1103.476158,-9622.677246,-444.123565,383.047749
1103.476478,-9474.636058,0.000000,459.657299
1103.476799,-9622.677246,0.000000,306.438199
1103.477120,-9548.656652,0.000000,383.047749
1103.477440,-9474.636058,-222.061783,76.609550
1103.477761,-9474.636058,-74.020594,153.219100
1103.478082,-9770.718434,74.020594,153.219100
1103.478403,-9770.718434,74.020594,459.657299
1103.478723,-9696.697840,222.061783,1532.190996
1103.479044,-9770.718434,0.000000,459.657299
1103.479365,-9548.656652,0.000000,383.047749
1103.479686,-9622.677246,-296.082377,306.438199
1103.480006,-9622.677246,0.000000,766.095498
1103.480327,-9770.718434,-222.061783,1072.533697
1103.480648,-9770.718434,-222.061783,1455.581446
1103.480969,-9474.636058,0.000000,842.705048
1103.481289,-9548.656652,0.000000,1378.971896
1103.481610,-9474.636058,-296.082377,1455.581446
1103.481931,-9326.594869,-74.020594,1302.362347
1103.482251,-9622.677246,0.000000,1608.800546
1103.482572,-9474.636058,0.000000,1608.800546
1103.482893,-9770.718434,370.102971,612.876398
1103.483214,-9622.677246,0.000000,1532.190996
1103.483534,-9474.636058,0.000000,1762.019645
1103.483855,-9474.636058,-296.082377,1838.629195
1103.484176,-9770.718434,0.000000,1915.238745
1103.484497,-9548.656652,0.000000,1838.629195
1103.484817,-9622.677246,-444.123565,2298.286494
1103.485138,-9474.636058,-370.102971,1915.238745
1103.485459,-9400.615463,-444.123565,1915.238745
1103.485780,-9400.615463,-148.041188,1838.629195
1103.486100,-9474.636058,0.000000,1608.800546
1103.486421,-9548.656652,-296.082377,1378.971896
1103.486742,-9622.677246,-222.061783,1455.581446
1103.487063,-9178.553681,0.000000,919.314598
1103.487383,-9474.636058,-296.082377,766.095498
1103.487704,-9548.656652,-296.082377,1149.143247
1103.488025,-9696.697840,0.000000,995.924147
1103.488345,-9696.697840,-296.082377,766.095498
1103.488666,-9548.656652,-222.061783,536.266849
1103.488987,-9844.739029,-370.102971,612.876398
1103.489308,-9548.656652,-296.082377,459.657299
1103.489628,-9622.677246,-296.082377,689.485948
1103.489949,-9548.656652,-370.102971,459.657299
1103.490270,-9696.697840,-296.082377,0.000000
1103.490591,-9548.656652,-370.102971,0.000000
1103.490911,-9474.636058,0.000000,0.000000
1103.491232,-10066.800811,0.000000,229.828649
1103.491553,-9622.677246,222.061783,0.000000
1103.491874,-9622.677246,0.000000,76.609550
1103.492194,-9474.636058,0.000000,153.219100
1103.492515,-9696.697840,0.000000,383.047749
1103.492836,-9622.677246,222.061783,612.876398
1103.493156,-9474.636058,0.000000,306.438199
1103.493477,-9474.636058,-148.041188,306.438199
1103.493798,-9474.636058,-370.102971,612.876398
1103.494119,-9548.656652,-370.102971,459.657299
1103.494439,-9474.636058,-370.102971,766.095498
1103.494760,-9548.656652,-370.102971,995.924147
1103.495080,-9474.636058,-444.123565,1302.362347
1103.495401,-9918.759623,-444.123565,1838.629195
1103.495721,-9548.656652,-444.123565,1532.190996
1103.496042,-9622.677246,-222.061783,1455.581446
1103.496363,-9622.677246,-370.102971,1838.629195
1103.496684,-9474.636058,-592.164754,1302.362347
1103.497004,-9474.636058,-444.123565,1915.238745
1103.497325,-9548.656652,-370.102971,1762.019645
1103.497646,-9474.636058,-370.102971,2145.067394
1103.497966,-9474.636058,-518.144159,2068.457845
1103.498287,-9474.636058,-518.144159,1915.238745
1103.498608,-9474.636058,-740.205942,1838.629195
1103.498928,-9622.677246,-1110.308913,1991.848295
1103.499249,-9474.636058,-1110.308913,2145.067394
1103.499570,-9474.636058,-740.205942,0.000000
1103.499891,-9474.636058,-666.185348,1685.410096
1103.500211,-9474.636058,-666.185348,1991.848295
1103.500532,-9696.697840,-592.164754,1915.238745
1103.500853,-9252.574275,-444.123565,1762.019645
1103.501173,-9474.636058,-518.144159,1455.581446
1103.501494,-9770.718434,-222.061783,1838.629195
1103.501815,-9622.677246,-666.185348,1455.581446
1103.502135,-9622.677246,-370.102971,995.924147
1103.502456,-9548.656652,-888.247130,1378.971896
1103.502777,-9622.677246,-518.144159,1072.533697
1103.503098,-9696.697840,-592.164754,1072.533697
1103.503418,-9400.615463,-740.205942,689.485948
1103.503739,-9770.718434,-370.102971,995.924147
1103.504060,-9696.697840,-296.082377,1532.190996
1103.504380,-9400.615463,-592.164754,766.095498
1103.504701,-9474.636058,-592.164754,153.219100
1103.505022,-9326.594869,-370.102971,229.828649
1103.505342,-9400.615463,296.082377,1838.629195
1103.505663,-9474.636058,0.000000,306.438199
1103.505984,-9474.636058,0.000000,0.000000
1103.506305,-9548.656652,-74.020594,-229.828649
1103.506625,-9474.636058,0.000000,-153.219100
1103.506946,-9918.759623,148.041188,76.609550
1103.507267,-9622.677246,-148.041188,689.485948
1103.507587,-10066.800811,-444.123565,1072.533697
1103.507908,-9474.636058,-592.164754,766.095498
1103.508229,-9178.553681,-666.185348,536.266849
1103.508549,-9548.656652,-444.123565,995.924147
1103.508870,-9326.594869,-222.061783,766.095498
1103.509191,-9474.636058,-518.144159,919.314598
1103.509512,-8734.430116,148.041188,229.828649
1103.509832,-9326.594869,-296.082377,689.485948
1103.510153,-9474.636058,0.000000,1072.533697
1103.510474,-9622.677246,-148.041188,1378.971896
1103.510794,-9844.739029,-296.082377,1685.410096
1103.511115,-9696.697840,0.000000,1302.362347
1103.511436,-9770.718434,-148.041188,1685.410096
1103.511756,-9622.677246,-296.082377,1991.848295
1103.512077,-9622.677246,-222.061783,1762.019645
1103.512398,-9252.574275,-296.082377,1838.629195
1103.512719,-9548.656652,-370.102971,1762.019645
1103.513039,-9548.656652,-370.102971,1532.190996
1103.513360,-9474.636058,-444.123565,1685.410096
1103.513681,-9400.615463,-222.061783,1685.410096
1103.514001,-9622.677246,0.000000,1378.971896
1103.514322,-9474.636058,0.000000,1378.971896
1103.514643,-9770.718434,0.000000,1302.362347
1103.514963,-9696.697840,0.000000,1225.752797
1103.515284,-9770.718434,0.000000,1685.410096
1103.515605,-9548.656652,0.000000,1302.362347
1103.515926,-9622.677246,0.000000,1302.362347
1103.516246,-9548.656652,-370.102971,1302.362347
1103.516567,-9770.718434,0.000000,1455.581446
1103.516888,-9696.697840,-222.061783,919.314598
1103.517208,-9548.656652,-370.102971,689.485948
1103.517529,-9474.636058,-296.082377,153.219100
1103.517850,-9474.636058,-296.082377,536.266849
1103.518170,-9548.656652,-222.061783,536.266849
1103.518491,-9400.615463,-222.061783,383.047749
1103.518812,-9474.636058,0.000000,459.657299
1103.519133,-9400.615463,0.000000,459.657299
1103.519453,-9548.656652,74.020594,536.266849
1103.519774,-9844.739029,148.041188,383.047749
1103.520095,-9770.718434,0.000000,383.047749
1103.520415,-9622.677246,0.000000,306.438199
1103.520736,-9474.636058,-296.082377,229.828649
1103.521057,-9696.697840,-148.041188,459.657299
1103.521377,-9474.636058,-296.082377,689.485948
1103.521698,-9474.636058,-222.061783,612.876398
1103.522019,-9252.574275,-444.123565,459.657299
1103.522340,-9474.636058,-444.123565,842.705048
1103.522660,-9474.636058,-370.102971,995.924147
1103.522981,-9696.697840,-444.123565,1072.533697
1103.523302,-9474.636058,-296.082377,995.924147
1103.523622,-9474.636058,-444.123565,1302.362347
1103.523943,-9770.718434,-222.061783,1149.143247
1103.524264,-9622.677246,-222.061783,1378.971896
1103.524584,-9696.697840,-296.082377,1608.800546
1103.524905,-9104.533087,-444.123565,1915.238745
1103.525226,-9622.677246,-370.102971,1762.019645
1103.525547,-9918.759623,-740.205942,1838.629195
1103.525867,-9622.677246,-592.164754,1991.848295
1103.526188,-9992.780217,518.144159,2757.943793
1103.526509,-9474.636058,-1036.288319,1838.629195
1103.526829,-9474.636058,-888.247130,2145.067394
1103.527150,-9474.636058,-962.267725,2068.457845
1103.527471,-9548.656652,-814.226536,1991.848295
1103.527791,-9622.677246,-740.205942,1991.848295
1103.528112,-9474.636058,-962.267725,1685.410096
1103.528433,-9622.677246,-666.185348,2068.457845
1103.528754,-9622.677246,-814.226536,1838.629195
1103.529074,-9696.697840,-814.226536,1302.362347
1103.529395,-9474.636058,-592.164754,1455.581446
1103.529716,-9474.636058,-888.247130,1225.752797
1103.530036,-9474.636058,-814.226536,1302.362347
1103.530357,-9696.697840,-888.247130,2451.505594
1103.530678,-9696.697840,-740.205942,1225.752797
1103.530998,-9474.636058,-888.247130,1072.533697
1103.531319,-9474.636058,-592.164754,995.924147
1103.531640,-9474.636058,-666.185348,1072.533697
1103.531961,-9474.636058,-666.185348,919.314598
1103.532281,-9696.697840,-370.102971,842.705048
1103.532602,-9548.656652,-370.102971,229.828649
1103.532923,-9548.656652,-518.144159,229.828649
1103.533243,-9696.697840,-222.061783,0.000000
1103.533564,-9844.739029,74.020594,0.000000
1103.533885,-9622.677246,0.000000,0.000000
1103.534205,-9622.677246,0.000000,-153.219100
1103.534526,-9844.739029,296.082377,0.000000
1103.534847,-9770.718434,0.000000,0.000000
1103.535168,-9622.677246,0.000000,153.219100
1103.535488,-9548.656652,-296.082377,306.438199
1103.535809,-9474.636058,0.000000,536.266849
1103.536130,-9622.677246,0.000000,536.266849
1103.536450,-9770.718434,0.000000,766.095498
1103.536771,-9548.656652,-148.041188,1378.971896
1103.537092,-9770.718434,-518.144159,1302.362347
1103.537412,-8956.491898,0.000000,1149.143247
1103.537733,-9474.636058,0.000000,995.924147
1103.538054,-9548.656652,-148.041188,919.314598
1103.538375,-9474.636058,0.000000,1302.362347
1103.538695,-9400.615463,-444.123565,1455.581446
1103.539016,-9696.697840,0.000000,1608.800546
1103.539337,-9622.677246,0.000000,1685.410096
1103.539657,-9548.656652,-74.020594,1838.629195
1103.539978,-9622.677246,-222.061783,1838.629195
1103.540299,-9622.677246,-296.082377,2374.896044
1103.540619,-9696.697840,-444.123565,2298.286494
1103.540940,-9622.677246,-296.082377,1915.238745
1103.541261,-9548.656652,-444.123565,1915.238745
1103.541582,-9326.594869,-814.226536,1532.190996
1103.541902,-9252.574275,-592.164754,1838.629195
1103.542223,-9252.574275,-592.164754,1608.800546
1103.542544,-9326.594869,-296.082377,1608.800546
1103.542864,-9622.677246,148.041188,2604.724693
1103.543185,-9474.636058,0.000000,1532.190996
1103.543506,-9622.677246,-296.082377,1225.752797
1103.543826,-9696.697840,-222.061783,1532.190996
1103.544147,-9474.636058,-148.041188,1149.143247
1103.544468,-9918.759623,0.000000,1072.533697
1103.544789,-9548.656652,-148.041188,1225.752797
1103.545109,-9844.739029,-148.041188,995.924147
1103.545430,-9474.636058,-222.061783,842.705048
1103.545751,-9252.574275,-962.267725,536.266849
1103.546071,-9474.636058,-370.102971,459.657299
1103.546392,-9474.636058,-444.123565,459.657299
1103.546713,-9326.594869,-518.144159,306.438199
1103.547033,-9474.636058,-296.082377,229.828649
1103.547354,-9474.636058,0.000000,0.000000
1103.547675,-9844.739029,0.000000,0.000000
1103.547996,-9918.759623,74.020594,229.828649
1103.548316,-9992.780217,74.020594,153.219100
1103.548637,-9548.656652,148.041188,0.000000
1103.548958,-9770.718434,0.000000,383.047749
1103.549278,-9622.677246,0.000000,229.828649
1103.549599,-9474.636058,0.000000,459.657299
1103.549920,-8808.450710,-370.102971,0.000000
1103.550240,-9474.636058,-74.020594,306.438199
1103.550561,-9474.636058,-296.082377,612.876398
1103.550882,-9474.636058,-518.144159,766.095498
1103.551203,-9474.636058,222.061783,842.705048
1103.551523,-9770.718434,-666.185348,919.314598
1103.551844,-9474.636058,-518.144159,1072.533697
1103.552165,-9548.656652,-444.123565,1378.971896
1103.552485,-9770.718434,-296.082377,1608.800546
1103.552806,-9474.636058,-296.082377,1378.971896
1103.553127,-9622.677246,-370.102971,1532.190996
1103.553447,-9548.656652,-370.102971,1685.410096
1103.553768,-9548.656652,-444.123565,1532.190996
1103.554089,-9548.656652,0.000000,1225.752797
1103.554410,-9474.636058,-592.164754,2145.067394
1103.554730,-9548.656652,-962.267725,2298.286494
1103.555051,-9400.615463,-1110.308913,2374.896044
1103.555372,-9548.656652,-1258.350101,2374.896044
1103.555692,-9696.697840,-1036.288319,2451.505594
1103.556013,-9548.656652,-1036.288319,2145.067394
1103.556334,-9474.636058,-1036.288319,2221.676944
1103.556654,-9474.636058,-888.247130,1838.629195
1103.556975,-9622.677246,-444.123565,1838.629195
1103.557296,-9696.697840,-296.082377,1685.410096
1103.557617,-9548.656652,-592.164754,1838.629195
1103.557937,-9622.677246,-666.185348,1532.190996
1103.558258,-10140.821405,444.123565,2068.457845
1103.558579,-9770.718434,-296.082377,1838.629195
1103.558899,-9622.677246,-666.185348,1455.581446
1103.559220,-9548.656652,-592.164754,1302.362347
1103.559541,-9474.636058,-740.205942,842.705048
1103.559861,-9548.656652,-592.164754,995.924147
1103.560182,-9622.677246,-518.144159,766.095498
1103.560503,-9918.759623,-888.247130,766.095498
1103.560824,-9622.677246,-518.144159,383.047749
1103.561144,-9918.759623,-592.164754,0.000000
1103.561465,-9548.656652,0.000000,76.609550
1103.561786,-9844.739029,0.000000,612.876398
1103.562106,-9918.759623,222.061783,459.657299
1103.562427,-9326.594869,592.164754,536.266849
1103.562748,-9474.636058,370.102971,229.828649
1103.563069,-9548.656652,148.041188,0.000000
1103.563389,-9622.677246,0.000000,153.219100
1103.563710,-9770.718434,-74.020594,306.438199
1103.564031,-9474.636058,0.000000,306.438199
1103.564351,-9474.636058,-444.123565,383.047749
1103.564672,-9474.636058,-592.164754,536.266849
1103.564993,-9696.697840,-592.164754,766.095498
1103.565313,-9770.718434,-666.185348,536.266849
1103.565634,-9400.615463,-296.082377,919.314598
1103.565955,-9474.636058,-296.082377,689.485948
1103.566276,-9474.636058,0.000000,689.485948
1103.566596,-9178.553681,148.041188,153.219100
1103.566917,-9548.656652,148.041188,1302.362347
1103.567238,-9474.636058,74.020594,1149.143247
1103.567558,-9622.677246,0.000000,1072.533697
1103.567879,-9474.636058,-148.041188,1149.143247
1103.568200,-9770.718434,-148.041188,1838.629195
1103.568520,-9696.697840,-296.082377,1915.238745
1103.568841,-9474.636058,-592.164754,1532.190996
1103.569162,-9548.656652,-444.123565,1838.629195
1103.569483,-9622.677246,-592.164754,2374.896044
1103.569803,-9770.718434,-444.123565,2068.457845
1103.570124,-9474.636058,-740.205942,1608.800546
1103.570445,-9400.615463,-370.102971,1762.019645
1103.570765,-8068.244768,0.000000,1532.190996
1103.571086,-9474.636058,-74.020594,1532.190996
1103.571407,-9474.636058,0.000000,1225.752797
1103.571727,-9622.677246,0.000000,1532.190996
1103.572048,-9474.636058,0.000000,1302.362347
1103.572369,-9548.656652,74.020594,1149.143247
1103.572690,-9770.718434,0.000000,995.924147
1103.573010,-9992.780217,-74.020594,1149.143247
1103.573331,-9696.697840,0.000000,842.705048
1103.573652,-9918.759623,-370.102971,1302.362347
1103.573972,-9622.677246,-370.102971,1072.533697
1103.574293,-9696.697840,-370.102971,612.876398
1103.574614,-9548.656652,-592.164754,536.266849
1103.574934,-9992.780217,-222.061783,1915.238745
1103.575255,-9474.636058,-296.082377,383.047749
1103.575576,-9474.636058,-74.020594,0.000000
1103.575897,-9400.615463,0.000000,229.828649
1103.576217,-9474.636058,0.000000,229.828649
1103.576538,-9696.697840,148.041188,229.828649
1103.576859,-9770.718434,0.000000,76.609550
1103.577179,-9770.718434,148.041188,536.266849
1103.577500,-9918.759623,0.000000,766.095498
1103.577821,-9252.574275,-222.061783,1072.533697
1103.578141,-9548.656652,-222.061783,536.266849
1103.578462,-9474.636058,-296.082377,612.876398
1103.578783,-9474.636058,-296.082377,689.485948
1103.579104,-9474.636058,-814.226536,766.095498
1103.579424,-9474.636058,-666.185348,766.095498
1103.579745,-9474.636058,-888.247130,1225.752797
1103.580066,-9252.574275,-666.185348,1072.533697
1103.580386,-9474.636058,-666.185348,1225.752797
1103.580707,-9326.594869,-518.144159,1378.971896
1103.581028,-9548.656652,-296.082377,1378.971896
1103.581348,-9622.677246,-148.041188,1838.629195
1103.581669,-9770.718434,-148.041188,1455.581446
1103.581990,-9844.739029,-296.082377,1302.362347
1103.582311,-9696.697840,0.000000,1762.019645
1103.582631,-9770.718434,-296.082377,1685.410096
1103.582952,-9622.677246,-592.164754,1915.238745
1103.583273,-9326.594869,-1406.391290,2528.115143
1103.583593,-9548.656652,-888.247130,2068.457845
1103.583914,-9548.656652,-1332.370696,2145.067394
1103.584235,-9622.677246,-1110.308913,1762.019645
1103.584555,-9474.636058,-1184.329507,1685.410096
1103.584876,-9474.636058,-1036.288319,1685.410096
1103.585197,-9548.656652,-962.267725,1838.629195
1103.585518,-9548.656652,-888.247130,1762.019645
1103.585838,-9474.636058,-814.226536,1915.238745
1103.586159,-9548.656652,-370.102971,2451.505594
1103.586480,-9844.739029,-370.102971,1532.190996
1103.586800,-9844.739029,-592.164754,1608.800546
1103.587121,-9622.677246,-296.082377,1149.143247
1103.587442,-9548.656652,-518.144159,1072.533697
1103.587762,-9622.677246,-444.123565,1072.533697
1103.588083,-9548.656652,-444.123565,689.485948
1103.588404,-9474.636058,-814.226536,306.438199
1103.588725,-9326.594869,-370.102971,383.047749
1103.589045,-9622.677246,-518.144159,-153.219100
1103.589366,-9474.636058,-592.164754,383.047749
1103.589687,-9474.636058,-370.102971,0.000000
1103.590007,-9548.656652,-296.082377,383.047749
1103.590328,-9548.656652,-296.082377,153.219100
1103.590649,-9696.697840,0.000000,459.657299
1103.590969,-9696.697840,222.061783,153.219100
1103.591290,-9622.677246,148.041188,153.219100
1103.591611,-9844.739029,148.041188,76.609550
1103.591932,-9548.656652,148.041188,76.609550
1103.592252,-9548.656652,0.000000,689.485948
1103.592573,-9474.636058,-370.102971,306.438199
1103.592894,-9400.615463,-296.082377,459.657299
1103.593214,-9400.615463,0.000000,689.485948
1103.593535,-9474.636058,-518.144159,766.095498
1103.593856,-9622.677246,-296.082377,1072.533697
1103.594176,-9548.656652,-370.102971,1302.362347
1103.594497,-10140.821405,296.082377,919.314598
1103.594818,-9622.677246,-296.082377,1378.971896
1103.595139,-9474.636058,-444.123565,1225.752797
1103.595459,-9622.677246,-518.144159,1455.581446
1103.595780,-9548.656652,0.000000,1532.190996
1103.596101,-9474.636058,0.000000,1608.800546
1103.596421,-9474.636058,-148.041188,1762.019645
1103.596742,-9474.636058,0.000000,1685.410096
1103.597063,-9844.739029,0.000000,1838.629195
1103.597384,-9548.656652,-296.082377,1532.190996
1103.597704,-9918.759623,-222.061783,1685.410096
1103.598025,-9622.677246,-370.102971,2298.286494
1103.598346,-9548.656652,-518.144159,1915.238745
1103.598666,-9770.718434,0.000000,2068.457845
1103.598987,-9696.697840,-518.144159,1838.629195
1103.599308,-9622.677246,-518.144159,1915.238745
1103.599629,-9548.656652,-444.123565,1532.190996
1103.599949,-9400.615463,-148.041188,1378.971896
1103.600270,-9548.656652,-296.082377,1225.752797
1103.600591,-9622.677246,0.000000,1532.190996
1103.600911,-9844.739029,-148.041188,1149.143247
1103.601232,-9696.697840,-148.041188,1302.362347
1103.601553,-9770.718434,0.000000,2298.286494
1103.601874,-9770.718434,-148.041188,766.095498
1103.602194,-9696.697840,-222.061783,842.705048
1103.602515,-9844.739029,-148.041188,766.095498
1103.602836,-9622.677246,0.000000,1225.752797
1103.603156,-9770.718434,-296.082377,536.266849
1103.603477,-9474.636058,-518.144159,76.609550
1103.603798,-9474.636058,-370.102971,229.828649
1103.604119,-9474.636058,0.000000,0.000000
1103.604439,-9474.636058,74.020594,0.000000
1103.604760,-9622.677246,0.000000,0.000000
1103.605081,-9622.677246,74.020594,76.609550
1103.605401,-9548.656652,74.020594,0.000000
1103.605722,-9992.780217,592.164754,229.828649
1103.606043,-9770.718434,0.000000,229.828649
1103.606364,-9474.636058,0.000000,459.657299
1103.606684,-9770.718434,-296.082377,689.485948
1103.607005,-9474.636058,0.000000,0.000000
1103.607326,-9622.677246,-518.144159,919.314598
1103.607646,-9622.677246,-740.205942,1072.533697
1103.607967,-9400.615463,-666.185348,919.314598
1103.608288,-9474.636058,-518.144159,919.314598
1103.608609,-9474.636058,-518.144159,1072.533697
1103.608929,-9474.636058,-444.123565,995.924147
1103.609250,-9474.636058,-518.144159,1378.971896
1103.609571,-9474.636058,-296.082377,1302.362347
1103.609891,-9844.739029,148.041188,1455.581446
1103.610212,-9770.718434,-518.144159,1762.019645
1103.610533,-9696.697840,-518.144159,1838.629195
1103.610854,-9474.636058,-444.123565,1838.629195
1103.611174,-9548.656652,148.041188,3064.381992
1103.611495,-9844.739029,-592.164754,1991.848295
1103.611816,-9622.677246,-962.267725,2374.896044
1103.612136,-9548.656652,-1332.370696,1685.410096
1103.612457,-9400.615463,-1184.329507,1608.800546
1103.612778,-9622.677246,-814.226536,2068.457845
1103.613099,-9474.636058,-666.185348,1685.410096
1103.613419,-9474.636058,-1036.288319,1455.581446
1103.613740,-9474.636058,-666.185348,1838.629195
1103.614061,-9696.697840,-444.123565,1149.143247
1103.614381,-9696.697840,-666.185348,1225.752797
1103.614702,-9400.615463,-518.144159,1302.362347
1103.615023,-9770.718434,-518.144159,1455.581446
1103.615344,-9548.656652,-888.247130,995.924147
1103.615664,-9696.697840,-518.144159,689.485948
1103.615985,-9696.697840,-592.164754,995.924147
1103.616306,-9622.677246,-666.185348,995.924147
1103.616626,-9696.697840,-666.185348,842.705048
1103.616947,-9548.656652,-962.267725,766.095498
1103.617268,-9474.636058,-888.247130,536.266849
1103.617589,-9696.697840,-666.185348,536.266849
1103.617909,-9474.636058,-444.123565,306.438199
1103.618230,-9474.636058,-148.041188,1149.143247
1103.618551,-9474.636058,0.000000,459.657299
1103.618871,-9696.697840,74.020594,153.219100
1103.619192,-9622.677246,-74.020594,306.438199
1103.619513,-9252.574275,518.144159,919.314598
1103.619834,-9696.697840,0.000000,383.047749
1103.620154,-9696.697840,74.020594,383.047749
1103.620475,-9474.636058,-148.041188,536.266849
1103.620796,-9770.718434,0.000000,689.485948
1103.621116,-9178.553681,-296.082377,919.314598
1103.621437,-9770.718434,-370.102971,995.924147
1103.621758,-9622.677246,-518.144159,1149.143247
1103.622079,-9622.677246,-370.102971,995.924147
1103.622399,-9770.718434,-296.082377,1838.629195
1103.622720,-9474.636058,-592.164754,995.924147
1103.623041,-9548.656652,-222.061783,1378.971896
1103.623361,-9548.656652,-148.041188,1378.971896
1103.623682,-9548.656652,-370.102971,995.924147
1103.624003,-9622.677246,0.000000,1378.971896
1103.624324,-9548.656652,0.000000,1378.971896
1103.624644,-9622.677246,0.000000,1685.410096
1103.624965,-9696.697840,0.000000,1762.019645
1103.625286,-9622.677246,0.000000,1608.800546
1103.625606,-9770.718434,-370.102971,1915.238745
1103.625927,-9474.636058,-296.082377,1915.238745
1103.626248,-9622.677246,-666.185348,1838.629195
1103.626569,-9770.718434,-444.123565,1915.238745
1103.626889,-9770.718434,-222.061783,1532.190996
1103.627210,-9548.656652,74.020594,1532.190996
1103.627531,-9474.636058,0.000000,1685.410096
1103.627851,-9918.759623,0.000000,-306.438199
1103.628172,-9548.656652,0.000000,995.924147
1103.628493,-9622.677246,0.000000,1149.143247
1103.628814,-9770.718434,0.000000,1149.143247
1103.629134,-9474.636058,-148.041188,1072.533697
1103.629455,-9622.677246,296.082377,1072.533697
1103.629776,-9474.636058,0.000000,536.266849
1103.630096,-9548.656652,0.000000,612.876398
1103.630417,-9844.739029,0.000000,612.876398
1103.630738,-9104.533087,-592.164754,1225.752797
1103.631059,-9474.636058,-296.082377,306.438199
1103.631379,-9696.697840,0.000000,306.438199
1103.631700,-9474.636058,-296.082377,383.047749
1103.632021,-9474.636058,0.000000,766.095498
1103.632341,-9474.636058,0.000000,153.219100
1103.632662,-9622.677246,370.102971,459.657299
1103.632983,-9622.677246,-222.061783,229.828649
1103.633304,-9474.636058,-296.082377,459.657299
1103.633624,-9844.739029,-148.041188,0.000000
1103.633945,-9770.718434,0.000000,306.438199
1103.634266,-9548.656652,-148.041188,766.095498
1103.634586,-9622.677246,-148.041188,766.095498
1103.634907,-9474.636058,-296.082377,1685.410096
1103.635228,-9548.656652,-296.082377,536.266849
1103.635549,-9474.636058,-296.082377,842.705048
1103.635869,-9548.656652,-222.061783,842.705048
1103.636190,-9548.656652,-444.123565,689.485948
1103.636511,-9474.636058,-592.164754,1149.143247
1103.636831,-9474.636058,-666.185348,1302.362347
1103.637152,-9548.656652,-444.123565,1378.971896
1103.637473,-9548.656652,-444.123565,1608.800546
1103.637794,-9622.677246,-592.164754,1915.238745
1103.638114,-9622.677246,-296.082377,1762.019645
1103.638435,-9474.636058,-518.144159,1455.581446
1103.638756,-9622.677246,-592.164754,1685.410096
1103.639076,-9474.636058,-814.226536,1302.362347
1103.639397,-9474.636058,-1184.329507,1762.019645
1103.639718,-9622.677246,-814.226536,1991.848295
1103.640039,-9696.697840,-888.247130,2068.457845
1103.640359,-9770.718434,-1184.329507,1838.629195
1103.640680,-9252.574275,-1184.329507,1838.629195
1103.641001,-9622.677246,-1258.350101,1685.410096
1103.641321,-9548.656652,-962.267725,1685.410096
1103.641642,-9474.636058,-888.247130,1838.629195
1103.641963,-9770.718434,-666.185348,1378.971896
1103.642284,-9474.636058,-740.205942,1532.190996
1103.642604,-9696.697840,-518.144159,1302.362347
1103.642925,-9696.697840,-444.123565,1378.971896
1103.643246,-9844.739029,-518.144159,1149.143247
1103.643566,-9548.656652,-518.144159,766.095498
1103.643887,-9696.697840,-518.144159,459.657299
1103.644208,-9548.656652,-370.102971,459.657299
1103.644529,-9622.677246,-814.226536,-612.876398
1103.644849,-9696.697840,-370.102971,306.438199
1103.645170,-9622.677246,-518.144159,612.876398
1103.645491,-9622.677246,-370.102971,459.657299
1103.645811,-9696.697840,-370.102971,459.657299
1103.646132,-9474.636058,-370.102971,153.219100
1103.646453,-9548.656652,-296.082377,76.609550
1103.646774,-9474.636058,0.000000,153.219100
1103.647094,-9696.697840,0.000000,383.047749
1103.647415,-9770.718434,370.102971,383.047749
1103.647736,-9474.636058,0.000000,0.000000
1103.648056,-9474.636058,0.000000,229.828649
1103.648377,-9474.636058,0.000000,306.438199
1103.648698,-9696.697840,-518.144159,1608.800546
1103.649019,-9548.656652,-222.061783,689.485948
1103.649339,-9696.697840,-148.041188,612.876398
1103.649660,-9474.636058,-222.061783,995.924147
1103.649981,-9696.697840,-370.102971,1225.752797
1103.650301,-9696.697840,-222.061783,1532.190996
1103.650622,-9474.636058,-370.102971,1608.800546
1103.650943,-9474.636058,0.000000,1455.581446
1103.651263,-9474.636058,-222.061783,1532.190996
1103.651584,-8808.450710,-592.164754,689.485948
1103.651905,-9474.636058,-222.061783,1532.190996
1103.652226,-9474.636058,-222.061783,1762.019645
1103.652546,-9474.636058,0.000000,1685.410096
1103.652867,-9178.553681,-370.102971,3294.210641
1103.653188,-9622.677246,74.020594,1838.629195
1103.653508,-9548.656652,-222.061783,1991.848295
1103.653829,-9770.718434,-296.082377,1532.190996
1103.654150,-9474.636058,-148.041188,1378.971896
1103.654471,-9548.656652,-296.082377,1685.410096
1103.654791,-9770.718434,-444.123565,1608.800546
1103.655112,-9622.677246,-296.082377,1608.800546
1103.655433,-9474.636058,-370.102971,1762.019645
1103.655753,-10140.821405,666.185348,1991.848295
1103.656074,-9474.636058,-518.144159,1455.581446
1103.656395,-9474.636058,-222.061783,1072.533697
1103.656716,-9474.636058,-148.041188,1149.143247
1103.657036,-9548.656652,0.000000,766.095498
1103.657357,-9622.677246,0.000000,612.876398
1103.657678,-9474.636058,0.000000,1072.533697
1103.657998,-9844.739029,0.000000,766.095498
1103.658319,-9474.636058,-222.061783,689.485948
1103.658640,-9548.656652,222.061783,766.095498
1103.658961,-9844.739029,-222.061783,536.266849
1103.659281,-9770.718434,-296.082377,612.876398
1103.659602,-9696.697840,-370.102971,383.047749
1103.659923,-9696.697840,-296.082377,1072.533697
1103.660243,-9474.636058,0.000000,229.828649
1103.660564,-9474.636058,0.000000,0.000000
1103.660885,-9622.677246,148.041188,306.438199
1103.661206,-9622.677246,0.000000,153.219100
1103.661526,-9548.656652,0.000000,536.266849
1103.661847,-9548.656652,-148.041188,0.000000
1103.662168,-9696.697840,0.000000,229.828649
1103.662488,-9622.677246,0.000000,306.438199
1103.662809,-9474.636058,-518.144159,766.095498
1103.663130,-9548.656652,0.000000,612.876398
1103.663451,-9548.656652,0.000000,919.314598
1103.663771,-9474.636058,-222.061783,766.095498
1103.664092,-9400.615463,-296.082377,2145.067394
1103.664413,-9474.636058,-444.123565,1072.533697
1103.664733,-9474.636058,-518.144159,1302.362347
1103.665054,-9474.636058,-444.123565,1302.362347
1103.665375,-9400.615463,-1628.453072,-76.609550
1103.665696,-9622.677246,-518.144159,1149.143247
1103.666016,-9548.656652,-592.164754,1608.800546
1103.666337,-9622.677246,-370.102971,1455.581446
1103.666658,-9400.615463,-296.082377,1838.629195
1103.666978,-9622.677246,-666.185348,2221.676944
1103.667299,-9696.697840,-518.144159,2068.457845
1103.667620,-9696.697840,-666.185348,2068.457845
1103.667941,-9548.656652,-740.205942,2145.067394
1103.668261,-9992.780217,-962.267725,1915.238745
1103.668582,-9770.718434,-888.247130,2374.896044
1103.668903,-9548.656652,-962.267725,2068.457845
1103.669223,-9474.636058,-962.267725,1991.848295
1103.669544,-9474.636058,-888.247130,995.924147
1103.669865,-9548.656652,-1036.288319,1762.019645
1103.670186,-9474.636058,-1036.288319,2068.457845
1103.670506,-9548.656652,-962.267725,1532.190996
1103.670827,-9474.636058,-962.267725,1838.629195
1103.671148,-9474.636058,-592.164754,1455.581446
1103.671468,-9622.677246,-444.123565,1455.581446
1103.671789,-9844.739029,-518.144159,1149.143247
1103.672110,-9770.718434,-444.123565,1149.143247
1103.672431,-9474.636058,-1110.308913,1608.800546
1103.672751,-9252.574275,-740.205942,919.314598
