#time,accel_x,accel_y,accel_z
914.972856,-9178.553681,-370.102971,1378.971896
914.973177,-9548.656652,-370.102971,1225.752797
914.973498,-9548.656652,-370.102971,1149.143247
914.973819,-9474.636058,-592.164754,1225.752797
914.974140,-9474.636058,-518.144159,1149.143247
914.974462,-9326.594869,-370.102971,766.095498
914.974783,-9622.677246,-296.082377,1149.143247
914.975104,-9474.636058,-592.164754,1072.533697
914.975425,-9622.677246,-296.082377,1072.533697
914.975746,-9474.636058,-740.205942,842.705048
914.976067,-9474.636058,-296.082377,995.924147
914.976388,-9474.636058,-444.123565,1149.143247
914.976709,-9622.677246,-444.123565,1149.143247
914.977030,-9548.656652,-370.102971,1072.533697
914.977351,-9844.739029,-296.082377,995.924147
914.977672,-9474.636058,-222.061783,1149.143247
914.977993,-9770.718434,-592.164754,766.095498
914.978314,-9622.677246,-222.061783,919.314598
914.978635,-9770.718434,-444.123565,995.924147
914.978956,-9622.677246,-222.061783,612.876398
914.979277,-9548.656652,-740.205942,689.485948
914.979598,-9104.533087,-296.082377,842.705048
914.979919,-9622.677246,-740.205942,689.485948
914.980241,-9252.574275,-518.144159,1378.971896
914.980562,-9770.718434,-296.082377,1072.533697
914.980883,-9770.718434,-148.041188,1149.143247
914.981204,-9696.697840,-592.164754,1302.362347
914.981525,-10214.842000,0.000000,842.705048
914.981846,-9992.780217,-518.144159,1225.752797
914.982167,-9622.677246,-370.102971,766.095498
914.982488,-9474.636058,0.000000,1378.971896
914.982809,-9474.636058,-370.102971,-459.657299
914.983130,-9474.636058,-666.185348,536.266849
914.983451,-9252.574275,-1258.350101,689.485948
914.983772,-9474.636058,-1036.288319,459.657299
914.984093,-9696.697840,-888.247130,689.485948
914.984414,-9770.718434,-888.247130,536.266849
914.984735,-9474.636058,-1036.288319,306.438199
914.985056,-9474.636058,-1036.288319,0.000000
914.985377,-9992.780217,-666.185348,76.609550
914.985698,-9474.636058,0.000000,229.828649
914.986020,-9844.739029,-962.267725,0.000000
914.986341,-9622.677246,-1332.370696,-383.047749
914.986662,-9474.636058,-1554.432478,-536.266849
914.986983,-9474.636058,-1406.391290,-1915.238745
914.987304,-9474.636058,-2368.659014,-612.876398
914.987625,-9252.574275,-2368.659014,-1225.752797
914.987946,-9178.553681,-2516.700203,-1532.190996
914.988267,-9252.574275,-2664.741391,-2145.067394
914.988588,-9252.574275,-2812.782580,-2221.676944
914.988909,-9326.594869,-3034.844362,-3064.381992
914.989230,-9400.615463,-3256.906145,-3064.381992
914.989551,-9474.636058,-3552.988522,-3600.648841
914.989872,-8956.491898,-3997.112087,-3217.601092
914.990193,-9770.718434,-3701.029710,-3907.087040
914.990514,-9548.656652,-3775.050304,-3677.258390
914.990835,-9844.739029,-3775.050304,-3600.648841
914.991156,-9770.718434,-3849.070898,-3830.477490
914.991477,-9548.656652,-4515.256246,-3064.381992
914.991798,-9696.697840,-4811.338623,-2757.943793
914.992120,-9474.636058,-4885.359217,-2604.724693
914.992441,-9474.636058,-4663.297435,-2451.505594
914.992762,-9030.512492,-4663.297435,-2145.067394
914.993083,-9474.636058,-4145.153275,-2528.115143
914.993404,-9400.615463,-3701.029710,-2451.505594
914.993725,-9252.574275,-3330.926739,-1991.848295
914.994046,-9548.656652,-3182.885551,-2681.334243
914.994367,-9696.697840,-2664.741391,-2451.505594
914.994688,-9992.780217,-3478.967927,-2145.067394
914.995009,-10214.842000,-2664.741391,-1225.752797
914.995330,-10066.800811,-3108.864956,-612.876398
914.995651,-10362.883188,-3182.885551,0.000000
914.995972,-10362.883188,-3256.906145,612.876398
914.996293,-9918.759623,-3478.967927,1149.143247
914.996614,-10288.862594,-3034.844362,1685.410096
914.996935,-9548.656652,-3108.864956,995.924147
914.997256,-9474.636058,-2442.679609,919.314598
914.997577,-9252.574275,-2442.679609,383.047749
914.997899,-8734.430116,-2738.761985,-536.266849
914.998220,-9548.656652,-2368.659014,-1225.752797
914.998541,-9474.636058,-2146.597232,-842.705048
914.998862,-9548.656652,-2146.597232,-842.705048
914.999183,-10140.821405,-2220.617826,-229.828649
914.999504,-10362.883188,-2368.659014,-76.609550
914.999825,-10584.944971,-2738.761985,-229.828649
915.000146,-10362.883188,-2812.782580,0.000000
915.000467,-9770.718434,-3108.864956,-459.657299
915.000788,-9252.574275,-2960.823768,-536.266849
915.001109,-9030.512492,-2368.659014,-383.047749
915.001430,-8956.491898,-1184.329507,0.000000
915.001751,-9030.512492,-592.164754,383.047749
915.002072,-9030.512492,-296.082377,612.876398
915.002393,-8660.409521,-370.102971,1149.143247
915.002714,-8660.409521,-814.226536,-766.095498
915.003035,-8956.491898,-1924.535449,-1378.971896
915.003356,-8290.306550,-2368.659014,-2068.457845
915.003677,-8734.430116,-2442.679609,-1915.238745
915.003999,-8882.471304,-2368.659014,-3447.429741
915.004320,-9400.615463,-2368.659014,-3524.039291
915.004641,-9622.677246,-1924.535449,-3753.867940
915.004962,-10288.862594,-1628.453072,-3677.258390
915.005283,-10510.924376,-1184.329507,-2451.505594
915.005604,-10881.027347,-1554.432478,-995.924147
915.005925,-10955.047942,-1554.432478,-153.219100
915.006246,-11029.068536,-1850.514855,612.876398
915.006567,-9992.780217,-2146.597232,1072.533697
915.006888,-9622.677246,-1702.473667,-536.266849
915.007209,-8660.409521,-666.185348,-1532.190996
915.007530,-8068.244768,0.000000,-2451.505594
915.007851,-7772.162391,370.102971,-2068.457845
915.008172,-7994.224174,-370.102971,-2911.162892
915.008493,-8734.430116,-1776.494261,-2911.162892
915.008814,-9474.636058,-2368.659014,-2451.505594
915.009135,-10510.924376,-2738.761985,-1991.848295
915.009456,-10658.965565,-1702.473667,0.000000
915.009778,-11843.295072,-1702.473667,842.705048
915.010099,-11547.212695,-1776.494261,1378.971896
915.010420,-11177.109724,-2516.700203,536.266849
915.010741,-10955.047942,-3923.091493,0.000000
915.011062,-9252.574275,-3330.926739,-1455.581446
915.011383,-9252.574275,-3034.844362,-1685.410096
915.011704,-8660.409521,-2220.617826,-1149.143247
915.012025,-8216.285956,-2664.741391,-1455.581446
915.012346,-8586.388927,-3330.926739,-1915.238745
915.012667,-8364.327145,-3034.844362,-2298.286494
915.012988,-8882.471304,-3330.926739,-842.705048
915.013309,-10510.924376,-3404.947333,1072.533697
915.013630,-10881.027347,-3775.050304,612.876398
915.013951,-10362.883188,-3701.029710,76.609550
915.014272,-10214.842000,-3404.947333,0.000000
915.014593,-9992.780217,-3552.988522,153.219100
915.014914,-9252.574275,-4885.359217,-306.438199
915.015235,-8808.450710,-3923.091493,-1838.629195
915.015556,-8068.244768,-2664.741391,-2221.676944
915.015878,-8660.409521,-1184.329507,-536.266849
915.016199,-9252.574275,-1702.473667,2528.115143
915.016520,-9548.656652,-1702.473667,1455.581446
915.016841,-8660.409521,-2812.782580,-536.266849
915.017162,-8586.388927,-3330.926739,-689.485948
915.017483,-9030.512492,-3108.864956,-459.657299
915.017804,-9992.780217,-3034.844362,995.924147
915.018125,-10214.842000,-3627.009116,-536.266849
915.018446,-9696.697840,-2072.576638,-1838.629195
915.018767,-10288.862594,-962.267725,-2451.505594
915.019088,-11251.130318,-1036.288319,-1072.533697
915.019409,-11177.109724,-1332.370696,-612.876398
915.019730,-9992.780217,-2072.576638,-2451.505594
915.020051,-8734.430116,-2516.700203,-3753.867940
915.020372,-8808.450710,-2442.679609,-2681.334243
915.020693,-9030.512492,-1998.556043,-1455.581446
915.021014,-9474.636058,-888.247130,-383.047749
915.021335,-9622.677246,888.247130,459.657299
915.021657,-10362.883188,1036.288319,1302.362347
915.021978,-10510.924376,148.041188,1378.971896
915.022299,-10214.842000,-222.061783,1378.971896
915.022620,-9622.677246,-962.267725,459.657299
915.022941,-9178.553681,-740.205942,0.000000
915.023262,-8216.285956,-1332.370696,-306.438199
915.023583,-8808.450710,-1332.370696,-1225.752797
915.023904,-8956.491898,-370.102971,-1225.752797
915.024225,-9622.677246,296.082377,-153.219100
915.024546,-10732.986159,518.144159,536.266849
915.024867,-11103.089130,666.185348,1149.143247
915.025188,-10732.986159,296.082377,1838.629195
915.025509,-10140.821405,-1184.329507,1455.581446
915.025830,-9992.780217,-814.226536,2604.724693
915.026151,-9770.718434,148.041188,3064.381992
915.026472,-9030.512492,1628.453072,3830.477490
915.026793,-9326.594869,1184.329507,3907.087040
915.027114,-8956.491898,444.123565,2834.553343
915.027435,-8512.368333,1702.473667,919.314598
915.027757,-9252.574275,1406.391290,1378.971896
915.028078,-8808.450710,666.185348,1838.629195
915.028399,-8586.388927,-444.123565,995.924147
915.028720,-9474.636058,-592.164754,689.485948
915.029040,-9918.759623,-296.082377,1685.410096
915.029361,-10955.047942,-740.205942,2604.724693
915.029682,-10658.965565,-888.247130,2068.457845
915.030003,-10584.944971,0.000000,1072.533697
915.030323,-10436.903782,1036.288319,1302.362347
915.030644,-9474.636058,1036.288319,1762.019645
915.030965,-8956.491898,-444.123565,1685.410096
915.031286,-8660.409521,-370.102971,1915.238745
915.031606,-8882.471304,444.123565,2298.286494
915.031927,-9548.656652,-518.144159,3064.381992
915.032248,-9622.677246,0.000000,2145.067394
915.032568,-9548.656652,1258.350101,1608.800546
915.032889,-9104.533087,1406.391290,1455.581446
915.033210,-8808.450710,-222.061783,536.266849
915.033531,-8882.471304,-1924.535449,-612.876398
915.033851,-9252.574275,-2072.576638,-1608.800546
915.034172,-9474.636058,-1406.391290,-995.924147
915.034493,-10288.862594,-740.205942,0.000000
915.034814,-10510.924376,592.164754,76.609550
915.035134,-11251.130318,1332.370696,0.000000
915.035455,-9992.780217,1110.308913,612.876398
915.035776,-9844.739029,-962.267725,536.266849
915.036096,-9104.533087,-1776.494261,919.314598
915.036417,-9474.636058,-1406.391290,2068.457845
915.036738,-8734.430116,-1554.432478,2298.286494
915.037059,-8216.285956,-1628.453072,1072.533697
915.037379,-7105.977043,-1480.411884,1225.752797
915.037700,-8660.409521,0.000000,-689.485948
915.038021,-8956.491898,74.020594,76.609550
915.038342,-9400.615463,-518.144159,-229.828649
915.038662,-9252.574275,-962.267725,-1072.533697
915.038983,-10955.047942,-1258.350101,-383.047749
915.039304,-10510.924376,-1110.308913,1685.410096
915.039624,-11103.089130,-2220.617826,1685.410096
915.039945,-10436.903782,-1258.350101,459.657299
915.040266,-10658.965565,-1850.514855,-76.609550
915.040587,-8808.450710,-1036.288319,0.000000
915.040907,-9030.512492,-1480.411884,689.485948
915.041228,-8956.491898,-222.061783,1838.629195
915.041549,-8290.306550,0.000000,4290.134789
915.041870,-10288.862594,-962.267725,3753.867940
915.042190,-9770.718434,-1554.432478,3524.039291
915.042511,-10140.821405,-1036.288319,3217.601092
915.042832,-10510.924376,-148.041188,3370.820191
915.043152,-8956.491898,-1036.288319,1838.629195
915.043473,-8956.491898,-1036.288319,-306.438199
915.043794,-8586.388927,0.000000,-612.876398
915.044115,-8956.491898,-666.185348,-459.657299
915.044435,-9844.739029,-1850.514855,536.266849
915.044756,-9474.636058,-1628.453072,766.095498
915.045077,-10510.924376,-1258.350101,995.924147
915.045398,-9770.718434,-296.082377,1455.581446
915.045718,-10881.027347,1258.350101,2528.115143
915.046039,-10362.883188,1480.411884,3907.087040
915.046360,-10214.842000,1110.308913,4213.525239
915.046680,-9474.636058,592.164754,3753.867940
915.047001,-8364.327145,-888.247130,2298.286494
915.047322,-8364.327145,-962.267725,229.828649
915.047643,-8438.347739,1406.391290,766.095498
915.047963,-8216.285956,888.247130,-76.609550
915.048284,-8364.327145,148.041188,0.000000
915.048605,-9178.553681,0.000000,-306.438199
915.048926,-9770.718434,-74.020594,-229.828649
915.049246,-10881.027347,-518.144159,1072.533697
915.049567,-11251.130318,296.082377,1685.410096
915.049888,-10658.965565,148.041188,-459.657299
915.050208,-10510.924376,666.185348,153.219100
915.050529,-9104.533087,740.205942,0.000000
915.050850,-9030.512492,740.205942,0.000000
915.051171,-9326.594869,1332.370696,612.876398
915.051491,-9548.656652,1924.535449,1991.848295
915.051812,-10140.821405,1036.288319,2298.286494
915.052133,-9474.636058,1850.514855,1455.581446
915.052454,-10066.800811,2072.576638,1532.190996
915.052774,-9178.553681,592.164754,919.314598
915.053095,-9030.512492,-962.267725,153.219100
915.053416,-8956.491898,-1998.556043,-995.924147
915.053736,-9104.533087,-814.226536,-1225.752797
915.054057,-10140.821405,0.000000,-229.828649
915.054378,-10955.047942,296.082377,1532.190996
915.054699,-11029.068536,0.000000,536.266849
915.055019,-10584.944971,222.061783,536.266849
915.055340,-10066.800811,-444.123565,1072.533697
915.055661,-9622.677246,-1776.494261,1225.752797
915.055982,-9696.697840,-1406.391290,1991.848295
915.056302,-9474.636058,0.000000,2834.553343
915.056623,-9030.512492,-518.144159,2911.162892
915.056944,-8142.265362,-888.247130,1455.581446
915.057265,-8734.430116,-1110.308913,1072.533697
915.057585,-8364.327145,74.020594,459.657299
915.057906,-8956.491898,-222.061783,1072.533697
915.058227,-8734.430116,-518.144159,1532.190996
915.058547,-9030.512492,-1406.391290,153.219100
915.058868,-10140.821405,-1184.329507,383.047749
915.059189,-10807.006753,-1036.288319,2374.896044
915.059510,-10510.924376,-1258.350101,2068.457845
915.059830,-10288.862594,148.041188,1302.362347
915.060151,-9770.718434,444.123565,766.095498
915.060472,-9326.594869,-444.123565,995.924147
915.060793,-8882.471304,-1110.308913,1302.362347
915.061113,-8882.471304,-1332.370696,1915.238745
915.061434,-8734.430116,-1924.535449,1302.362347
915.061755,-8660.409521,-1924.535449,1072.533697
915.062075,-8882.471304,-1850.514855,612.876398
915.062396,-9178.553681,0.000000,766.095498
915.062717,-8956.491898,222.061783,306.438199
915.063038,-9104.533087,-666.185348,229.828649
915.063358,-9548.656652,-1332.370696,-459.657299
915.063679,-10807.006753,-740.205942,536.266849
915.064000,-11399.171507,-1554.432478,2298.286494
915.064321,-11103.089130,-1850.514855,2604.724693
915.064641,-11399.171507,-1998.556043,1378.971896
915.064962,-10288.862594,-592.164754,536.266849
915.065283,-9622.677246,-370.102971,612.876398
915.065603,-9326.594869,-370.102971,995.924147
915.065924,-9252.574275,-222.061783,919.314598
915.066245,-9770.718434,-444.123565,2145.067394
915.066566,-9992.780217,-222.061783,1838.629195
915.066886,-9104.533087,-1554.432478,1608.800546
915.067207,-9252.574275,-148.041188,919.314598
915.067528,-9548.656652,518.144159,536.266849
915.067849,-8882.471304,666.185348,153.219100
915.068169,-9400.615463,-370.102971,-612.876398
915.068490,-8956.491898,148.041188,-995.924147
915.068811,-10214.842000,296.082377,-306.438199
915.069131,-10214.842000,74.020594,842.705048
915.069452,-9844.739029,740.205942,2374.896044
915.069773,-9770.718434,0.000000,383.047749
915.070094,-9770.718434,-518.144159,459.657299
915.070414,-8734.430116,-666.185348,459.657299
915.070735,-9252.574275,-1110.308913,612.876398
915.071056,-9474.636058,0.000000,1991.848295
915.071377,-9326.594869,1332.370696,2757.943793
915.071697,-10140.821405,-888.247130,2145.067394
915.072018,-8956.491898,814.226536,2298.286494
915.072339,-10214.842000,-296.082377,1378.971896
915.072659,-8660.409521,370.102971,689.485948
915.072980,-9474.636058,-370.102971,76.609550
915.073301,-8956.491898,444.123565,-306.438199
915.073622,-8882.471304,888.247130,-383.047749
915.073942,-10584.944971,1036.288319,1455.581446
915.074263,-10732.986159,222.061783,2374.896044
915.074584,-9770.718434,-296.082377,995.924147
915.074905,-10214.842000,74.020594,1302.362347
915.075225,-9622.677246,0.000000,689.485948
915.075546,-9622.677246,-592.164754,1685.410096
915.075867,-8882.471304,592.164754,2451.505594
915.076187,-9844.739029,814.226536,2681.334243
915.076508,-9770.718434,-148.041188,3294.210641
915.076829,-9696.697840,-1258.350101,2451.505594
915.077150,-9474.636058,-518.144159,1455.581446
915.077470,-9770.718434,74.020594,153.219100
915.077791,-8882.471304,222.061783,1072.533697
915.078112,-9178.553681,0.000000,153.219100
915.078433,-9326.594869,-370.102971,-459.657299
915.078753,-9844.739029,-222.061783,689.485948
915.079074,-9844.739029,-296.082377,1838.629195
915.079395,-10214.842000,-888.247130,2068.457845
915.079715,-10955.047942,962.267725,1608.800546
915.080036,-10140.821405,740.205942,2145.067394
915.080357,-9474.636058,148.041188,2298.286494
915.080678,-9844.739029,-1036.288319,2528.115143
915.080998,-9400.615463,-1184.329507,2145.067394
915.081319,-10214.842000,-888.247130,2757.943793
915.081640,-9992.780217,-962.267725,2681.334243
915.081961,-9400.615463,-1184.329507,1225.752797
915.082281,-8734.430116,-222.061783,-306.438199
915.082602,-9104.533087,-666.185348,-459.657299
915.082923,-8364.327145,-1332.370696,-1378.971896
915.083243,-9178.553681,-2072.576638,-1225.752797
915.083564,-8882.471304,-1554.432478,-766.095498
915.083885,-9696.697840,-1258.350101,0.000000
915.084206,-11177.109724,-740.205942,1302.362347
915.084526,-10436.903782,0.000000,1302.362347
915.084847,-10214.842000,666.185348,995.924147
915.085168,-9326.594869,370.102971,995.924147
915.085489,-8512.368333,-666.185348,229.828649
915.085809,-8882.471304,-1480.411884,459.657299
915.086130,-8586.388927,-222.061783,1378.971896
915.086451,-9474.636058,-1776.494261,2068.457845
915.086771,-8512.368333,-1332.370696,1072.533697
915.087092,-10362.883188,-666.185348,0.000000
915.087413,-9474.636058,1332.370696,536.266849
915.087734,-9844.739029,0.000000,-919.314598
915.088054,-9178.553681,148.041188,459.657299
915.088375,-9844.739029,-1110.308913,0.000000
915.088696,-10140.821405,-814.226536,-306.438199
915.089017,-10140.821405,0.000000,1532.190996
915.089337,-10881.027347,-1184.329507,689.485948
915.089658,-9178.553681,1258.350101,1455.581446
915.089979,-10140.821405,518.144159,1072.533697
915.090299,-9030.512492,0.000000,842.705048
915.090620,-9844.739029,-1036.288319,842.705048
915.090941,-9770.718434,-962.267725,1991.848295
915.091262,-9622.677246,-1924.535449,2374.896044
915.091582,-10214.842000,-2368.659014,2451.505594
915.091903,-9918.759623,-1110.308913,995.924147
915.092224,-9696.697840,-814.226536,842.705048
915.092545,-9548.656652,-296.082377,1072.533697
915.092865,-9104.533087,-1332.370696,766.095498
915.093186,-9548.656652,-1554.432478,0.000000
915.093507,-10066.800811,-666.185348,153.219100
915.093828,-10584.944971,-518.144159,2068.457845
915.094148,-11103.089130,-962.267725,2911.162892
915.094469,-10288.862594,-444.123565,1991.848295
915.094790,-10066.800811,-222.061783,766.095498
915.095110,-9104.533087,666.185348,919.314598
915.095431,-8216.285956,518.144159,919.314598
915.095752,-8808.450710,1258.350101,1608.800546
915.096073,-9474.636058,1480.411884,1838.629195
915.096393,-9622.677246,0.000000,3370.820191
915.096714,-10436.903782,-592.164754,3140.991542
915.097035,-10066.800811,-518.144159,1302.362347
915.097356,-10288.862594,740.205942,1378.971896
915.097676,-9770.718434,1332.370696,1455.581446
915.097997,-9474.636058,222.061783,153.219100
915.098318,-8438.347739,-296.082377,-1532.190996
915.098638,-8142.265362,0.000000,-2068.457845
915.098959,-9696.697840,1480.411884,-1072.533697
915.099280,-9770.718434,740.205942,383.047749
915.099601,-9548.656652,1554.432478,612.876398
915.099921,-10436.903782,814.226536,1225.752797
915.100242,-8216.285956,-962.267725,2068.457845
915.100563,-9992.780217,-1628.453072,2604.724693
915.100884,-9770.718434,-666.185348,2911.162892
915.101204,-10066.800811,-592.164754,2528.115143
915.101525,-9474.636058,-814.226536,2298.286494
915.101846,-8734.430116,-518.144159,0.000000
915.102166,-8512.368333,0.000000,-995.924147
915.102487,-9104.533087,0.000000,-689.485948
915.102808,-8586.388927,-740.205942,-842.705048
915.103129,-9548.656652,-740.205942,-383.047749
915.103449,-10436.903782,-1036.288319,153.219100
915.103770,-11103.089130,-296.082377,2221.676944
915.104091,-11917.315666,-740.205942,3600.648841
915.104412,-10732.986159,-222.061783,2681.334243
915.104732,-10066.800811,888.247130,1378.971896
915.105053,-9474.636058,518.144159,1532.190996
915.105374,-8438.347739,222.061783,612.876398
915.105694,-8660.409521,666.185348,1455.581446
915.106015,-8290.306550,592.164754,2068.457845
915.106336,-8512.368333,296.082377,2681.334243
915.106657,-9474.636058,-2146.597232,1838.629195
915.106977,-9104.533087,-1554.432478,1072.533697
915.107298,-9548.656652,-518.144159,0.000000
915.107619,-9548.656652,-962.267725,1225.752797
915.107940,-9622.677246,-1628.453072,842.705048
915.108260,-9696.697840,-592.164754,0.000000
915.108581,-10658.965565,-444.123565,383.047749
915.108902,-10510.924376,-148.041188,2068.457845
915.109222,-10288.862594,-666.185348,1532.190996
915.109543,-10214.842000,-296.082377,1072.533697
915.109864,-9178.553681,0.000000,229.828649
915.110185,-8512.368333,-666.185348,1685.410096
915.110505,-8438.347739,-1036.288319,1302.362347
915.110826,-9104.533087,-1480.411884,1838.629195
915.111147,-9030.512492,-1036.288319,2145.067394
915.111468,-9548.656652,-2368.659014,2068.457845
915.111788,-9474.636058,-2146.597232,689.485948
915.112109,-9326.594869,-962.267725,0.000000
915.112430,-9326.594869,-222.061783,-306.438199
915.112750,-9104.533087,-814.226536,-612.876398
915.113071,-9918.759623,-1184.329507,-919.314598
915.113392,-10140.821405,-666.185348,-459.657299
915.113713,-11177.109724,-740.205942,842.705048
915.114033,-11251.130318,-962.267725,1378.971896
915.114354,-10658.965565,-888.247130,536.266849
915.114675,-10140.821405,518.144159,459.657299
915.114996,-9252.574275,296.082377,229.828649
915.115316,-8734.430116,-370.102971,612.876398
915.115637,-8882.471304,-518.144159,1685.410096
915.115958,-8956.491898,0.000000,1915.238745
915.116278,-9992.780217,-370.102971,2528.115143
915.116599,-9474.636058,-1184.329507,1838.629195
915.116920,-9178.553681,-148.041188,536.266849
915.117241,-9474.636058,1036.288319,612.876398
915.117561,-9548.656652,518.144159,612.876398
915.117882,-9696.697840,-592.164754,76.609550
915.118203,-10066.800811,-592.164754,-383.047749
915.118524,-10436.903782,0.000000,-459.657299
915.118844,-11103.089130,0.000000,1378.971896
915.119165,-10436.903782,-518.144159,1915.238745
915.119486,-9622.677246,0.000000,995.924147
915.119806,-8956.491898,666.185348,229.828649
915.120127,-8660.409521,222.061783,2068.457845
915.120448,-9326.594869,296.082377,3600.648841
915.120769,-10436.903782,740.205942,4749.792088
915.121089,-9770.718434,222.061783,4826.401637
915.121410,-9622.677246,-296.082377,3524.039291
915.121731,-8956.491898,-370.102971,1302.362347
915.122052,-8734.430116,666.185348,383.047749
915.122372,-7920.203579,888.247130,-536.266849
915.122693,-7105.977043,-888.247130,-1685.410096
915.123014,-8216.285956,-1036.288319,-2528.115143
915.123334,-9178.553681,-518.144159,-2145.067394
915.123655,-10584.944971,296.082377,919.314598
915.123976,-11325.150913,0.000000,2604.724693
915.124297,-11695.253884,-148.041188,3370.820191
915.124617,-11103.089130,-444.123565,2451.505594
915.124938,-10436.903782,-1184.329507,1838.629195
915.125259,-9548.656652,-1036.288319,1915.238745
915.125580,-9252.574275,0.000000,2681.334243
915.125900,-9178.553681,444.123565,2911.162892
915.126221,-8808.450710,222.061783,1991.848295
915.126542,-8438.347739,-444.123565,919.314598
915.126862,-8068.244768,-592.164754,919.314598
915.127183,-9178.553681,296.082377,76.609550
915.127504,-9400.615463,370.102971,229.828649
915.127825,-9844.739029,-148.041188,-229.828649
915.128145,-10288.862594,-518.144159,1378.971896
915.128466,-10362.883188,-740.205942,229.828649
915.128787,-11325.150913,-1924.535449,1302.362347
915.129107,-10436.903782,-1628.453072,1072.533697
915.129428,-10140.821405,-296.082377,229.828649
915.129749,-9400.615463,222.061783,459.657299
915.130070,-8956.491898,148.041188,1149.143247
915.130390,-9474.636058,-444.123565,2451.505594
915.130711,-9770.718434,-370.102971,2757.943793
915.131032,-8956.491898,-814.226536,2451.505594
915.131352,-9474.636058,-1776.494261,2298.286494
915.131673,-9104.533087,-1258.350101,919.314598
915.131994,-8956.491898,592.164754,536.266849
915.132314,-9474.636058,1258.350101,2145.067394
915.132635,-9400.615463,0.000000,0.000000
915.132956,-9326.594869,-1258.350101,-1225.752797
915.133276,-9918.759623,-2220.617826,-612.876398
915.133597,-9622.677246,-888.247130,1532.190996
915.133918,-12509.480420,-3849.070898,919.314598
915.134239,-8808.450710,1628.453072,1072.533697
915.134559,-11251.130318,0.000000,0.000000
915.134880,-9326.594869,1776.494261,1455.581446
915.135201,-7698.141797,-222.061783,1838.629195
915.135521,-10288.862594,-1184.329507,3217.601092
915.135842,-8438.347739,-1036.288319,2987.772442
915.136163,-8364.327145,-2442.679609,2298.286494
915.136483,-10140.821405,-962.267725,3370.820191
915.136804,-8216.285956,-888.247130,1302.362347
915.137125,-9548.656652,1480.411884,1072.533697
915.137445,-8808.450710,592.164754,1532.190996
915.137766,-7994.224174,-1258.350101,-1838.629195
915.138087,-9474.636058,-666.185348,-766.095498
915.138408,-11251.130318,-962.267725,0.000000
915.138728,-9622.677246,-1036.288319,536.266849
915.139049,-11251.130318,-1776.494261,689.485948
915.139370,-10510.924376,222.061783,612.876398
915.139690,-9104.533087,592.164754,459.657299
915.140011,-10658.965565,296.082377,2604.724693
915.140332,-10066.800811,740.205942,3907.087040
915.140652,-10658.965565,74.020594,3983.696590
915.140973,-10214.842000,-518.144159,3447.429741
915.141294,-9252.574275,-888.247130,2068.457845
915.141614,-8734.430116,0.000000,459.657299
915.141935,-8660.409521,518.144159,306.438199
915.142256,-8660.409521,1110.308913,-612.876398
915.142576,-8290.306550,0.000000,-1762.019645
915.142897,-9252.574275,-296.082377,-1762.019645
915.143218,-10436.903782,0.000000,-766.095498
915.143539,-11621.233289,-666.185348,-306.438199
915.143859,-11843.295072,-592.164754,1838.629195
915.144180,-10436.903782,148.041188,995.924147
915.144501,-10288.862594,1110.308913,536.266849
915.144821,-9474.636058,2072.576638,995.924147
915.145142,-9400.615463,1776.494261,1915.238745
915.145463,-9548.656652,1554.432478,2145.067394
915.145783,-9252.574275,444.123565,2604.724693
915.146104,-8882.471304,-1110.308913,2374.896044
915.146425,-8586.388927,-1406.391290,2145.067394
915.146745,-9104.533087,592.164754,1685.410096
915.147066,-8808.450710,1554.432478,1685.410096
915.147387,-9104.533087,296.082377,1072.533697
915.147708,-9326.594869,-296.082377,-1072.533697
915.148028,-9252.574275,-1554.432478,-766.095498
915.148349,-10140.821405,-2146.597232,229.828649
915.148670,-10362.883188,-1554.432478,1072.533697
915.148990,-10288.862594,-1406.391290,536.266849
915.149311,-9696.697840,-444.123565,229.828649
915.149632,-9326.594869,0.000000,919.314598
915.149952,-9252.574275,-962.267725,1838.629195
915.150273,-9030.512492,-1702.473667,2374.896044
915.150594,-9400.615463,-888.247130,3370.820191
915.150914,-9474.636058,-1184.329507,3370.820191
915.151235,-9400.615463,-740.205942,3140.991542
915.151556,-8882.471304,-148.041188,2451.505594
915.151877,-8142.265362,-148.041188,153.219100
915.152197,-8512.368333,-592.164754,766.095498
915.152518,-8808.450710,-1184.329507,0.000000
915.152839,-9696.697840,-1184.329507,-383.047749
915.153159,-10955.047942,-444.123565,229.828649
915.153480,-10955.047942,0.000000,1685.410096
915.153801,-11399.171507,-962.267725,1225.752797
915.154121,-10362.883188,444.123565,689.485948
915.154442,-10955.047942,-592.164754,995.924147
915.154763,-9400.615463,-222.061783,383.047749
915.155083,-9474.636058,-666.185348,1302.362347
915.155404,-9326.594869,-592.164754,1608.800546
915.155725,-9918.759623,0.000000,2068.457845
915.156045,-8438.347739,148.041188,2681.334243
915.156366,-9992.780217,-1628.453072,2451.505594
915.156687,-9474.636058,-148.041188,1225.752797
915.157008,-9844.739029,370.102971,1762.019645
915.157328,-9844.739029,-296.082377,1225.752797
915.157649,-8808.450710,-962.267725,0.000000
915.157970,-9548.656652,-1480.411884,-1378.971896
915.158290,-9474.636058,-888.247130,-229.828649
915.158611,-10436.903782,-1332.370696,-306.438199
915.158932,-10214.842000,-1110.308913,229.828649
915.159252,-9770.718434,-888.247130,-153.219100
915.159573,-9178.553681,-962.267725,-766.095498
915.159894,-8438.347739,-814.226536,0.000000
915.160214,-8660.409521,1184.329507,1302.362347
915.160535,-9326.594869,1110.308913,2374.896044
915.160856,-9622.677246,296.082377,3294.210641
915.161177,-9400.615463,-1258.350101,2298.286494
915.161497,-8512.368333,-962.267725,919.314598
915.161818,-9400.615463,-814.226536,612.876398
915.162139,-7994.224174,444.123565,1072.533697
915.162459,-9030.512492,-814.226536,-153.219100
915.162780,-8586.388927,-592.164754,-766.095498
915.163101,-9548.656652,-296.082377,-995.924147
915.163421,-9992.780217,-444.123565,383.047749
915.163742,-10881.027347,-888.247130,612.876398
915.164063,-10658.965565,0.000000,612.876398
915.164383,-10362.883188,370.102971,1225.752797
915.164704,-9474.636058,-222.061783,689.485948
915.165025,-9474.636058,-518.144159,1378.971896
915.165346,-9770.718434,-222.061783,2757.943793
915.165666,-10658.965565,-518.144159,3370.820191
915.165987,-9252.574275,-222.061783,2987.772442
915.166308,-9400.615463,-222.061783,1915.238745
915.166628,-9030.512492,888.247130,995.924147
915.166949,-9474.636058,1480.411884,1302.362347
915.167270,-9326.594869,962.267725,1991.848295
915.167590,-9548.656652,-1332.370696,76.609550
915.167911,-9844.739029,-962.267725,0.000000
915.168232,-10732.986159,-962.267725,919.314598
915.168552,-11325.150913,-518.144159,1915.238745
915.168873,-10732.986159,296.082377,1455.581446
915.169194,-10066.800811,888.247130,536.266849
915.169514,-9326.594869,888.247130,842.705048
915.169835,-9474.636058,-370.102971,459.657299
915.170156,-9252.574275,444.123565,2145.067394
915.170477,-9474.636058,444.123565,2911.162892
915.170797,-9696.697840,370.102971,3907.087040
915.171118,-9104.533087,-370.102971,3370.820191
915.171439,-9400.615463,-740.205942,2528.115143
915.171759,-8512.368333,222.061783,1149.143247
915.172080,-8734.430116,0.000000,1532.190996
915.172401,-8438.347739,-518.144159,536.266849
915.172721,-9030.512492,-740.205942,0.000000
915.173042,-9696.697840,-518.144159,459.657299
915.173363,-9992.780217,-444.123565,1072.533697
915.173683,-10955.047942,-666.185348,1608.800546
915.174004,-9844.739029,148.041188,612.876398
915.174325,-9844.739029,0.000000,612.876398
915.174646,-9030.512492,-666.185348,766.095498
915.174966,-9030.512492,-1184.329507,612.876398
915.175287,-9178.553681,-296.082377,1838.629195
915.175608,-9622.677246,-296.082377,2145.067394
915.175928,-9400.615463,-370.102971,2528.115143
915.176249,-9400.615463,-1184.329507,1608.800546
915.176570,-8734.430116,-592.164754,-153.219100
915.176890,-8808.450710,-222.061783,-459.657299
915.177211,-8882.471304,-740.205942,-536.266849
915.177532,-8438.347739,-962.267725,-1762.019645
915.177852,-9252.574275,-666.185348,-1225.752797
915.178173,-10584.944971,-370.102971,0.000000
915.178494,-11325.150913,-148.041188,1455.581446
915.178815,-11991.336260,148.041188,1915.238745
915.179135,-11473.192101,444.123565,1991.848295
915.179456,-11029.068536,222.061783,1608.800546
915.179777,-10584.944971,-592.164754,2451.505594
915.180097,-9474.636058,-444.123565,1838.629195
915.180418,-9918.759623,0.000000,2374.896044
915.180739,-8956.491898,-888.247130,1915.238745
915.181059,-8734.430116,-962.267725,2145.067394
915.181380,-8660.409521,-296.082377,153.219100
915.181701,-8734.430116,592.164754,0.000000
915.182021,-9548.656652,296.082377,1225.752797
915.182342,-9548.656652,-962.267725,1455.581446
915.182663,-9992.780217,-1702.473667,1072.533697
915.182983,-10288.862594,-1332.370696,2068.457845
915.183304,-11029.068536,-1258.350101,2834.553343
915.183625,-10807.006753,-740.205942,2451.505594
915.183946,-9622.677246,444.123565,1838.629195
915.184266,-8956.491898,296.082377,153.219100
915.184587,-8290.306550,-666.185348,-229.828649
915.184908,-8216.285956,-1628.453072,-383.047749
915.185228,-7994.224174,74.020594,0.000000
915.185549,-9992.780217,-888.247130,2145.067394
915.185870,-9622.677246,-1036.288319,2987.772442
915.186190,-10362.883188,-1924.535449,2298.286494
915.186511,-9770.718434,-1036.288319,1225.752797
915.186832,-9622.677246,666.185348,1685.410096
915.187152,-9696.697840,74.020594,1455.581446
915.187473,-8142.265362,0.000000,-459.657299
915.187794,-8734.430116,148.041188,-1532.190996
915.188115,-9400.615463,-296.082377,0.000000
915.188435,-9030.512492,-1628.453072,0.000000
915.188756,-9252.574275,-592.164754,-229.828649
915.189077,-9918.759623,296.082377,612.876398
915.189397,-9696.697840,592.164754,842.705048
915.189718,-10288.862594,1036.288319,1838.629195
915.190039,-10732.986159,518.144159,2528.115143
915.190359,-10436.903782,222.061783,2834.553343
915.190680,-10214.842000,-1332.370696,2757.943793
915.191001,-9548.656652,-1998.556043,1991.848295
915.191321,-9474.636058,-888.247130,-383.047749
915.191642,-9548.656652,888.247130,383.047749
915.191963,-8956.491898,1480.411884,153.219100
915.192284,-9474.636058,0.000000,536.266849
915.192604,-9622.677246,592.164754,383.047749
915.192925,-10584.944971,-592.164754,1072.533697
915.193246,-10881.027347,-1628.453072,2221.676944
915.193566,-11029.068536,-1480.411884,1378.971896
915.193887,-9696.697840,296.082377,1225.752797
915.194208,-9844.739029,888.247130,842.705048
915.194528,-8364.327145,1184.329507,842.705048
915.194849,-9474.636058,888.247130,1072.533697
915.195170,-9252.574275,1332.370696,1455.581446
915.195490,-9400.615463,666.185348,2298.286494
915.195811,-9548.656652,-740.205942,2757.943793
915.196132,-9252.574275,-1924.535449,1072.533697
915.196452,-8290.306550,-148.041188,919.314598
915.196773,-9252.574275,296.082377,919.314598
915.197094,-9178.553681,74.020594,1302.362347
915.197415,-9474.636058,-222.061783,1455.581446
915.197735,-9844.739029,-962.267725,2757.943793
915.198056,-10436.903782,-1184.329507,2681.334243
915.198377,-11029.068536,-1258.350101,2987.772442
915.198697,-9992.780217,-814.226536,2068.457845
915.199018,-9474.636058,0.000000,1149.143247
915.199339,-8734.430116,444.123565,383.047749
915.199659,-8068.244768,-740.205942,-383.047749
915.199980,-8068.244768,-666.185348,0.000000
915.200301,-8734.430116,-666.185348,766.095498
915.200621,-8956.491898,-518.144159,1532.190996
915.200942,-9992.780217,-962.267725,1608.800546
915.201263,-9770.718434,-888.247130,766.095498
915.201584,-9548.656652,0.000000,1149.143247
915.201904,-8956.491898,-666.185348,459.657299
915.202225,-9252.574275,-1258.350101,689.485948
915.202546,-9474.636058,-814.226536,-76.609550
915.202866,-9992.780217,-592.164754,306.438199
915.203187,-10214.842000,222.061783,1455.581446
915.203508,-10214.842000,-148.041188,919.314598
915.203828,-10066.800811,0.000000,689.485948
915.204149,-9474.636058,296.082377,306.438199
915.204470,-9326.594869,-296.082377,536.266849
915.204790,-9696.697840,-888.247130,536.266849
915.205111,-9992.780217,-148.041188,1685.410096
915.205432,-10066.800811,-370.102971,1762.019645
915.205753,-10510.924376,-814.226536,1991.848295
915.206073,-9548.656652,-666.185348,1378.971896
915.206394,-9844.739029,666.185348,0.000000
915.206715,-9918.759623,1110.308913,536.266849
915.207035,-9400.615463,296.082377,383.047749
915.207356,-9474.636058,-1110.308913,153.219100
915.207677,-9622.677246,-2368.659014,0.000000
915.207997,-9474.636058,-2516.700203,766.095498
915.208318,-10288.862594,-2294.638420,1532.190996
915.208639,-10140.821405,-666.185348,1838.629195
915.208959,-9474.636058,888.247130,1455.581446
915.209280,-9178.553681,1184.329507,1532.190996
915.209601,-8734.430116,370.102971,1685.410096
915.209921,-8808.450710,-592.164754,2221.676944
915.210242,-9844.739029,-1480.411884,3294.210641
915.210563,-9252.574275,-666.185348,2987.772442
915.210884,-9918.759623,-1332.370696,2221.676944
915.211204,-8734.430116,0.000000,536.266849
915.211525,-9326.594869,814.226536,842.705048
915.211846,-7772.162391,0.000000,-306.438199
915.212166,-8438.347739,-148.041188,-1072.533697
915.212487,-8882.471304,0.000000,-612.876398
915.212808,-9696.697840,-370.102971,459.657299
915.213128,-10066.800811,-1036.288319,2068.457845
915.213449,-9696.697840,-592.164754,1915.238745
915.213770,-10362.883188,-666.185348,1838.629195
915.214090,-9622.677246,-814.226536,1378.971896
915.214411,-9326.594869,-592.164754,1762.019645
915.214732,-9474.636058,-740.205942,995.924147
915.215053,-9474.636058,222.061783,1302.362347
915.215373,-9770.718434,296.082377,1149.143247
915.215694,-9474.636058,-370.102971,919.314598
915.216015,-9178.553681,-962.267725,0.000000
915.216335,-9474.636058,0.000000,-536.266849
915.216656,-10140.821405,0.000000,-612.876398
915.216977,-9400.615463,148.041188,76.609550
915.217297,-9696.697840,592.164754,0.000000
915.217618,-10732.986159,592.164754,153.219100
915.217939,-11029.068536,666.185348,2298.286494
915.218259,-11325.150913,0.000000,2374.896044
915.218580,-11473.192101,74.020594,1608.800546
915.218901,-10362.883188,74.020594,842.705048
915.219222,-8956.491898,0.000000,689.485948
915.219542,-9252.574275,0.000000,842.705048
915.219863,-9030.512492,962.267725,1608.800546
915.220184,-9326.594869,1332.370696,2604.724693
915.220504,-10510.924376,-370.102971,2374.896044
915.220825,-9622.677246,-592.164754,1685.410096
915.221146,-9622.677246,-1036.288319,383.047749
915.221466,-9474.636058,444.123565,689.485948
915.221787,-9252.574275,-222.061783,1149.143247
915.222108,-9030.512492,-814.226536,0.000000
915.222428,-9252.574275,-518.144159,76.609550
915.222749,-10288.862594,-740.205942,229.828649
915.223070,-10214.842000,-1554.432478,2374.896044
915.223390,-9622.677246,-1258.350101,2298.286494
915.223711,-9474.636058,-296.082377,1302.362347
915.224032,-9696.697840,-296.082377,1532.190996
915.224353,-8586.388927,-296.082377,1915.238745
915.224673,-9030.512492,-1480.411884,1915.238745
915.224994,-8438.347739,-518.144159,2068.457845
915.225315,-9474.636058,-1258.350101,2298.286494
915.225635,-9474.636058,-1110.308913,2298.286494
915.225956,-8956.491898,-888.247130,536.266849
915.226277,-9252.574275,444.123565,153.219100
915.226597,-9030.512492,0.000000,459.657299
915.226918,-9178.553681,-1110.308913,766.095498
915.227239,-9548.656652,-1036.288319,0.000000
915.227559,-10140.821405,-1110.308913,76.609550
915.227880,-10658.965565,-888.247130,1762.019645
915.228201,-10881.027347,-1332.370696,1915.238745
915.228522,-10584.944971,74.020594,1762.019645
915.228842,-10362.883188,518.144159,842.705048
915.229163,-9474.636058,1110.308913,995.924147
915.229484,-9104.533087,222.061783,689.485948
915.229804,-9252.574275,518.144159,1149.143247
915.230125,-10140.821405,296.082377,1532.190996
915.230446,-9918.759623,74.020594,1455.581446
915.230766,-10066.800811,-444.123565,306.438199
915.231087,-9918.759623,296.082377,-689.485948
915.231408,-9622.677246,1036.288319,0.000000
915.231728,-9992.780217,0.000000,229.828649
915.232049,-9548.656652,-1184.329507,-383.047749
915.232370,-9844.739029,-814.226536,-842.705048
915.232690,-10214.842000,-1776.494261,76.609550
915.233011,-9548.656652,-1776.494261,842.705048
915.233332,-9548.656652,-814.226536,689.485948
915.233652,-8956.491898,0.000000,229.828649
915.233973,-8586.388927,592.164754,0.000000
915.234294,-8808.450710,-444.123565,612.876398
915.234614,-8586.388927,-222.061783,2068.457845
915.234935,-10066.800811,-1110.308913,3140.991542
915.235256,-9474.636058,-1480.411884,3677.258390
915.235576,-9770.718434,-2368.659014,3064.381992
915.235897,-9252.574275,-1184.329507,1378.971896
915.236218,-9104.533087,-518.144159,0.000000
915.236538,-8512.368333,666.185348,-229.828649
915.236859,-7846.182985,518.144159,0.000000
915.237180,-8586.388927,-962.267725,-1762.019645
915.237501,-8586.388927,74.020594,-306.438199
915.237821,-10436.903782,-592.164754,1455.581446
915.238142,-10881.027347,296.082377,1762.019645
915.238463,-10807.006753,0.000000,3294.210641
915.238783,-10510.924376,0.000000,2604.724693
915.239104,-9770.718434,-148.041188,2374.896044
915.239425,-9844.739029,0.000000,1608.800546
915.239745,-9474.636058,962.267725,2528.115143
915.240066,-10066.800811,814.226536,2528.115143
915.240387,-9844.739029,444.123565,2221.676944
915.240707,-10140.821405,0.000000,1685.410096
915.241028,-10140.821405,-370.102971,919.314598
915.241349,-9992.780217,0.000000,1149.143247
915.241669,-10436.903782,-592.164754,919.314598
915.241990,-10214.842000,-518.144159,76.609550
915.242311,-9252.574275,-1332.370696,-536.266849
915.242631,-9548.656652,-444.123565,0.000000
915.242952,-10140.821405,814.226536,766.095498
915.243273,-10658.965565,-666.185348,766.095498
915.243593,-9400.615463,148.041188,229.828649
915.243914,-9918.759623,296.082377,1378.971896
915.244235,-9326.594869,-222.061783,1685.410096
915.244555,-9992.780217,0.000000,3294.210641
915.244876,-9474.636058,592.164754,4213.525239
915.245197,-9770.718434,592.164754,3830.477490
915.245517,-9400.615463,-592.164754,2604.724693
915.245838,-8216.285956,-222.061783,766.095498
915.246159,-8438.347739,-148.041188,-459.657299
915.246479,-8586.388927,518.144159,-612.876398
915.246800,-7920.203579,-444.123565,-766.095498
915.247121,-8142.265362,-814.226536,-1378.971896
915.247441,-9474.636058,-592.164754,-306.438199
915.247762,-10140.821405,74.020594,1838.629195
915.248083,-11399.171507,-444.123565,2374.896044
915.248403,-10584.944971,-148.041188,2451.505594
915.248724,-9622.677246,-370.102971,1685.410096
915.249045,-8882.471304,-1184.329507,1378.971896
915.249365,-8882.471304,-1036.288319,1608.800546
915.249686,-8808.450710,-444.123565,1838.629195
915.250007,-8734.430116,0.000000,1915.238745
915.250327,-8364.327145,-296.082377,1838.629195
915.250648,-8364.327145,-1628.453072,919.314598
915.250969,-9474.636058,-518.144159,459.657299
915.251289,-9474.636058,0.000000,459.657299
915.251610,-8882.471304,0.000000,383.047749
915.251931,-9474.636058,-1406.391290,0.000000
915.252251,-9178.553681,-444.123565,-536.266849
915.252572,-11991.336260,-222.061783,2374.896044
915.252893,-11547.212695,-2220.617826,842.705048
915.253214,-8956.491898,-962.267725,1225.752797
915.253534,-12583.501014,-592.164754,536.266849
915.253855,-10140.821405,1332.370696,2374.896044
915.254176,-10288.862594,-296.082377,1455.581446
915.254496,-11547.212695,1850.514855,4749.792088
915.254817,-9400.615463,296.082377,1608.800546
915.255138,-10807.006753,-518.144159,2911.162892
915.255458,-9770.718434,-666.185348,2451.505594
915.255779,-8364.327145,-962.267725,-766.095498
915.256100,-9030.512492,-666.185348,153.219100
915.256420,-7846.182985,-1258.350101,-1072.533697
915.256741,-8068.244768,-1554.432478,-1915.238745
915.257062,-11029.068536,-1628.453072,-1072.533697
915.257382,-9622.677246,-370.102971,0.000000
915.257703,-11103.089130,-444.123565,1149.143247
915.258024,-12287.418637,-74.020594,1838.629195
915.258344,-10066.800811,222.061783,1149.143247
915.258665,-9770.718434,-592.164754,766.095498
915.258986,-8068.244768,-1998.556043,306.438199
915.259306,-7328.038826,-2220.617826,306.438199
915.259627,-8068.244768,-1850.514855,1532.190996
915.259948,-8586.388927,-962.267725,2221.676944
915.260268,-7772.162391,148.041188,3830.477490
915.260589,-8512.368333,-1702.473667,842.705048
915.260910,-8586.388927,74.020594,383.047749
915.261230,-9178.553681,148.041188,689.485948
915.261551,-9178.553681,-148.041188,459.657299
915.261872,-9622.677246,-1184.329507,459.657299
915.262192,-9474.636058,-1184.329507,-995.924147
915.262513,-10510.924376,-592.164754,0.000000
915.262834,-10510.924376,-296.082377,612.876398
915.263154,-10510.924376,222.061783,536.266849
915.263475,-10881.027347,222.061783,0.000000
915.263796,-9622.677246,148.041188,153.219100
915.264116,-9178.553681,0.000000,1302.362347
915.264437,-11251.130318,-148.041188,1991.848295
915.264758,-9696.697840,296.082377,3600.648841
915.265078,-10362.883188,-518.144159,3830.477490
915.265399,-9474.636058,-1110.308913,3140.991542
915.265720,-9400.615463,0.000000,1838.629195
915.266040,-10140.821405,370.102971,1991.848295
915.266361,-9622.677246,148.041188,1455.581446
915.266682,-9696.697840,-148.041188,842.705048
915.267002,-9770.718434,-444.123565,-766.095498
915.267323,-9992.780217,0.000000,0.000000
915.267644,-10955.047942,518.144159,766.095498
915.267964,-10955.047942,74.020594,612.876398
915.268285,-10140.821405,444.123565,-383.047749
915.268606,-8586.388927,518.144159,0.000000
915.268927,-8956.491898,-74.020594,229.828649
915.269247,-8882.471304,444.123565,2145.067394
915.269568,-9696.697840,740.205942,3600.648841
915.269889,-9918.759623,518.144159,4136.915689
915.270209,-9326.594869,0.000000,3753.867940
915.270530,-9474.636058,-888.247130,2451.505594
915.270851,-8660.409521,666.185348,1455.581446
915.271171,-8734.430116,740.205942,689.485948
915.271492,-8290.306550,0.000000,0.000000
915.271813,-7846.182985,-666.185348,-1378.971896
915.272133,-8882.471304,-1036.288319,-1915.238745
915.272454,-9696.697840,148.041188,-306.438199
915.272775,-10955.047942,-444.123565,1378.971896
915.273095,-10436.903782,-518.144159,766.095498
915.273416,-10066.800811,-592.164754,536.266849
915.273737,-9326.594869,-1036.288319,536.266849
915.274057,-9178.553681,-1406.391290,459.657299
915.274378,-9474.636058,-370.102971,2528.115143
915.274699,-9770.718434,0.000000,3600.648841
915.275019,-9400.615463,-592.164754,2987.772442
915.275340,-9178.553681,-962.267725,2221.676944
915.275661,-9178.553681,-1332.370696,1149.143247
915.275981,-9104.533087,370.102971,612.876398
915.276302,-8956.491898,370.102971,383.047749
915.276623,-9178.553681,-222.061783,-536.266849
915.276943,-9104.533087,592.164754,-766.095498
915.277264,-10807.006753,-370.102971,0.000000
915.277585,-11177.109724,-1036.288319,1532.190996
915.277905,-11103.089130,-1850.514855,1302.362347
915.278226,-10881.027347,-962.267725,536.266849
915.278547,-10140.821405,0.000000,612.876398
915.278867,-9548.656652,222.061783,1072.533697
915.279188,-10066.800811,-296.082377,1915.238745
915.279509,-9474.636058,-222.061783,2528.115143
915.279829,-9252.574275,-1406.391290,2911.162892
915.280150,-9474.636058,-2146.597232,2834.553343
915.280471,-8808.450710,-1332.370696,1762.019645
915.280791,-9696.697840,0.000000,1762.019645
915.281112,-9992.780217,1332.370696,536.266849
915.281433,-8808.450710,518.144159,229.828649
915.281753,-9326.594869,-592.164754,-766.095498
915.282074,-10066.800811,-148.041188,-306.438199
915.282395,-10881.027347,-296.082377,459.657299
915.282715,-10214.842000,-518.144159,1072.533697
915.283036,-10066.800811,-814.226536,-689.485948
915.283357,-9474.636058,666.185348,-383.047749
915.283677,-9770.718434,-296.082377,536.266849
915.283998,-8734.430116,-592.164754,1302.362347
915.284319,-9474.636058,-814.226536,2834.553343
915.284640,-9474.636058,-1110.308913,2757.943793
915.284960,-9400.615463,-1554.432478,3217.601092
915.285281,-8438.347739,-962.267725,1838.629195
915.285602,-8142.265362,-370.102971,1455.581446
915.285922,-8438.347739,518.144159,1072.533697
915.286243,-8364.327145,-148.041188,919.314598
915.286564,-8586.388927,-1480.411884,1378.971896
915.286884,-9326.594869,-962.267725,-153.219100
915.287205,-10214.842000,-222.061783,229.828649
915.287526,-11029.068536,-1036.288319,842.705048
915.287846,-10288.862594,-444.123565,76.609550
915.288167,-9400.615463,814.226536,-1608.800546
915.288488,-9474.636058,962.267725,-1915.238745
915.288808,-8438.347739,740.205942,-995.924147
915.289129,-8956.491898,814.226536,536.266849
915.289450,-9326.594869,-592.164754,1608.800546
915.289770,-9696.697840,148.041188,2451.505594
915.290091,-10436.903782,0.000000,3753.867940
915.290412,-10955.047942,-1406.391290,3524.039291
915.290732,-10140.821405,-444.123565,2604.724693
915.291053,-10362.883188,-518.144159,2911.162892
915.291374,-9844.739029,-1184.329507,1532.190996
915.291694,-10066.800811,-1110.308913,0.000000
915.292015,-9548.656652,518.144159,-306.438199
915.292336,-9474.636058,0.000000,0.000000
915.292656,-9548.656652,888.247130,-229.828649
915.292977,-11399.171507,296.082377,306.438199
915.293298,-9474.636058,-222.061783,-766.095498
915.293618,-8734.430116,-148.041188,153.219100
915.293939,-10362.883188,-592.164754,2068.457845
915.294260,-9622.677246,296.082377,2987.772442
915.294580,-11399.171507,74.020594,3830.477490
915.294901,-10140.821405,296.082377,4290.134789
915.295222,-9252.574275,-740.205942,2145.067394
915.295542,-9178.553681,-296.082377,1455.581446
915.295863,-8512.368333,592.164754,766.095498
915.296184,-8068.244768,518.144159,306.438199
915.296504,-8290.306550,-1110.308913,0.000000
915.296825,-8808.450710,-1110.308913,-766.095498
915.297146,-9622.677246,-962.267725,0.000000
915.297466,-11251.130318,-740.205942,1455.581446
915.297787,-10214.842000,0.000000,2757.943793
915.298108,-10510.924376,148.041188,995.924147
915.298428,-9992.780217,-296.082377,0.000000
915.298749,-8882.471304,-444.123565,995.924147
915.299070,-9326.594869,-1480.411884,2298.286494
915.299390,-9474.636058,-444.123565,2834.553343
915.299711,-9178.553681,-222.061783,2911.162892
915.300032,-9178.553681,-814.226536,2451.505594
915.300353,-9104.533087,-592.164754,1532.190996
915.300673,-8586.388927,518.144159,842.705048
915.300994,-9104.533087,-296.082377,1455.581446
915.301315,-8882.471304,-1184.329507,689.485948
915.301635,-9030.512492,-2220.617826,-766.095498
915.301956,-10214.842000,-962.267725,0.000000
915.302277,-10658.965565,-518.144159,1378.971896
915.302597,-10436.903782,-592.164754,1762.019645
915.302918,-10955.047942,-370.102971,919.314598
915.303239,-9622.677246,888.247130,0.000000
915.303559,-9844.739029,296.082377,536.266849
915.303880,-9326.594869,-370.102971,1225.752797
915.304201,-9400.615463,-1184.329507,1915.238745
915.304521,-9622.677246,-1702.473667,1685.410096
915.304842,-9548.656652,-1850.514855,1762.019645
915.305163,-9178.553681,-1184.329507,1072.533697
915.305483,-9326.594869,-148.041188,919.314598
915.305804,-9622.677246,962.267725,1915.238745
915.306125,-9400.615463,74.020594,1072.533697
915.306445,-9326.594869,-1258.350101,306.438199
915.306766,-9548.656652,-1110.308913,-383.047749
915.307087,-10288.862594,-740.205942,76.609550
915.307407,-9696.697840,592.164754,459.657299
915.307728,-9178.553681,666.185348,-536.266849
915.308049,-8586.388927,1110.308913,-1225.752797
915.308369,-8808.450710,592.164754,-1302.362347
915.308690,-9474.636058,-592.164754,0.000000
915.309011,-10066.800811,-370.102971,1302.362347
915.309331,-10807.006753,-888.247130,3370.820191
915.309652,-11251.130318,-962.267725,4749.792088
915.309973,-10436.903782,-1184.329507,4749.792088
915.310293,-9474.636058,0.000000,3677.258390
915.310614,-9622.677246,814.226536,2221.676944
915.310935,-8882.471304,0.000000,1225.752797
915.311255,-7846.182985,-962.267725,-919.314598
915.311576,-8216.285956,-1406.391290,-2145.067394
915.311897,-8068.244768,-666.185348,-1915.238745
915.312217,-9548.656652,-444.123565,76.609550
915.312538,-11029.068536,0.000000,1838.629195
915.312859,-10732.986159,148.041188,1608.800546
915.313179,-10584.944971,222.061783,1455.581446
915.313500,-9844.739029,-148.041188,1302.362347
915.313821,-9474.636058,-740.205942,1532.190996
915.314141,-9474.636058,74.020594,1838.629195
915.314462,-9696.697840,-148.041188,1991.848295
915.314783,-8808.450710,-814.226536,1149.143247
915.315103,-8290.306550,-1406.391290,536.266849
915.315424,-9030.512492,-296.082377,0.000000
915.315745,-9622.677246,1480.411884,842.705048
915.316066,-10214.842000,888.247130,1685.410096
915.316386,-9548.656652,74.020594,1149.143247
915.316707,-10140.821405,-888.247130,536.266849
915.317028,-10881.027347,-592.164754,1455.581446
915.317348,-11029.068536,-296.082377,2298.286494
915.317669,-9474.636058,74.020594,1149.143247
915.317990,-9252.574275,518.144159,76.609550
915.318310,-8660.409521,962.267725,-766.095498
915.318631,-7846.182985,518.144159,-612.876398
915.318952,-9326.594869,444.123565,995.924147
915.319272,-9474.636058,74.020594,2374.896044
915.319593,-10214.842000,-1702.473667,2834.553343
915.319914,-10066.800811,-2442.679609,2451.505594
915.320234,-9696.697840,-1628.453072,1685.410096
915.320555,-9622.677246,-370.102971,1915.238745
915.320876,-8956.491898,370.102971,1915.238745
915.321196,-8734.430116,-222.061783,689.485948
915.321517,-9622.677246,-1036.288319,-1532.190996
915.321838,-9326.594869,370.102971,229.828649
915.322158,-10436.903782,-74.020594,1762.019645
915.322479,-10807.006753,-962.267725,1838.629195
915.322800,-9992.780217,-1110.308913,919.314598
915.323120,-9992.780217,-444.123565,0.000000
915.323441,-8808.450710,148.041188,1072.533697
915.323762,-9326.594869,74.020594,1225.752797
915.324082,-9030.512492,296.082377,2451.505594
915.324403,-9844.739029,-296.082377,1608.800546
915.324724,-9474.636058,0.000000,2145.067394
915.325044,-9252.574275,-962.267725,1455.581446
915.325365,-9622.677246,-296.082377,1378.971896
915.325686,-9474.636058,0.000000,1302.362347
915.326006,-9696.697840,-666.185348,306.438199
915.326327,-9326.594869,-1110.308913,229.828649
915.326648,-9622.677246,-370.102971,612.876398
915.326968,-10658.965565,-74.020594,1838.629195
915.327289,-10510.924376,-666.185348,2374.896044
915.327610,-10066.800811,-740.205942,995.924147
915.327930,-9252.574275,0.000000,-153.219100
915.328251,-8956.491898,-222.061783,-306.438199
915.328572,-8882.471304,0.000000,995.924147
915.328892,-8956.491898,-888.247130,995.924147
915.329213,-9104.533087,-444.123565,1532.190996
915.329534,-9622.677246,-1036.288319,2451.505594
915.329854,-10140.821405,-1998.556043,2604.724693
915.330175,-9474.636058,-962.267725,1991.848295
915.330496,-10362.883188,0.000000,1838.629195
915.330816,-9400.615463,518.144159,2298.286494
915.331137,-9474.636058,-592.164754,919.314598
915.331458,-8882.471304,-444.123565,-306.438199
915.331778,-9474.636058,-962.267725,-689.485948
915.332099,-9918.759623,-1480.411884,459.657299
915.332420,-10066.800811,-1554.432478,459.657299
915.332740,-8882.471304,-592.164754,-612.876398
915.333061,-9992.780217,444.123565,-383.047749
915.333382,-8956.491898,1628.453072,383.047749
915.333702,-10066.800811,740.205942,1608.800546
915.334023,-9770.718434,592.164754,2221.676944
915.334344,-10066.800811,-444.123565,2145.067394
915.334664,-10510.924376,-1998.556043,2451.505594
915.334985,-9622.677246,-1554.432478,1302.362347
915.335306,-10288.862594,370.102971,0.000000
915.335626,-9622.677246,1998.556043,536.266849
915.335947,-9030.512492,1628.453072,76.609550
915.336267,-9178.553681,592.164754,-383.047749
915.336588,-10140.821405,-1110.308913,-612.876398
915.336909,-10658.965565,-1036.288319,153.219100
915.337229,-10955.047942,-1924.535449,995.924147
915.337550,-9770.718434,-1184.329507,995.924147
915.337871,-9918.759623,-296.082377,1072.533697
915.338191,-9104.533087,444.123565,689.485948
915.338512,-9252.574275,518.144159,1378.971896
915.338833,-8364.327145,-74.020594,1378.971896
915.339153,-9326.594869,-222.061783,2374.896044
915.339474,-10214.842000,-1110.308913,3064.381992
915.339795,-9474.636058,-740.205942,2528.115143
915.340115,-9548.656652,-1554.432478,1455.581446
915.340436,-9178.553681,-370.102971,536.266849
915.340757,-8734.430116,-666.185348,919.314598
915.341077,-9030.512492,-2220.617826,0.000000
915.341398,-8068.244768,-518.144159,766.095498
915.341719,-10066.800811,-518.144159,689.485948
915.342039,-9844.739029,370.102971,1532.190996
915.342360,-11029.068536,296.082377,2451.505594
915.342681,-9992.780217,1110.308913,2145.067394
915.343001,-9770.718434,1184.329507,2374.896044
915.343322,-9918.759623,518.144159,2451.505594
915.343642,-8956.491898,148.041188,2374.896044
915.343963,-9104.533087,518.144159,1915.238745
915.344284,-9326.594869,444.123565,1915.238745
915.344604,-8808.450710,370.102971,1915.238745
915.344925,-8956.491898,-592.164754,-536.266849
915.345246,-7698.141797,518.144159,-842.705048
915.345566,-9030.512492,1258.350101,-612.876398
915.345887,-9474.636058,444.123565,383.047749
915.346208,-9992.780217,-370.102971,-153.219100
915.346528,-11547.212695,0.000000,919.314598
915.346849,-11695.253884,-814.226536,3294.210641
915.347170,-11621.233289,-1702.473667,3217.601092
915.347490,-11399.171507,-1850.514855,2145.067394
915.347811,-10140.821405,-1480.411884,459.657299
915.348132,-9104.533087,-592.164754,0.000000
915.348452,-8660.409521,148.041188,536.266849
915.348773,-8290.306550,148.041188,0.000000
915.349094,-9400.615463,814.226536,1608.800546
915.349414,-9474.636058,0.000000,1915.238745
915.349735,-10066.800811,-666.185348,1149.143247
915.350056,-9474.636058,-1110.308913,536.266849
915.350376,-9770.718434,-296.082377,766.095498
915.350697,-9326.594869,0.000000,459.657299
915.351018,-10140.821405,-518.144159,0.000000
915.351338,-9474.636058,-370.102971,-689.485948
915.351659,-9770.718434,148.041188,0.000000
915.351979,-10807.006753,370.102971,1915.238745
915.352300,-10288.862594,-888.247130,1608.800546
915.352621,-9844.739029,-1332.370696,1072.533697
915.352941,-9104.533087,-444.123565,919.314598
915.353262,-8216.285956,-666.185348,1302.362347
915.353583,-8882.471304,0.000000,2757.943793
915.353903,-9548.656652,962.267725,4290.134789
915.354224,-9474.636058,148.041188,3447.429741
915.354545,-9326.594869,-962.267725,2834.553343
915.354865,-9400.615463,-1776.494261,1302.362347
915.355186,-8882.471304,-1110.308913,-153.219100
915.355507,-9178.553681,-518.144159,-306.438199
915.355827,-8364.327145,-666.185348,0.000000
915.356148,-8068.244768,-1998.556043,-689.485948
915.356469,-9696.697840,-1924.535449,-689.485948
915.356789,-10955.047942,-1924.535449,842.705048
915.357110,-10658.965565,-962.267725,1838.629195
915.357431,-11325.150913,-592.164754,1915.238745
915.357751,-10362.883188,518.144159,1915.238745
915.358072,-9770.718434,444.123565,2145.067394
915.358393,-9252.574275,-518.144159,2221.676944
915.358713,-9104.533087,-74.020594,2145.067394
915.359034,-9622.677246,-444.123565,2451.505594
915.359354,-9770.718434,-666.185348,2834.553343
915.359675,-9178.553681,-1554.432478,919.314598
915.359996,-8660.409521,-370.102971,-689.485948
915.360316,-9548.656652,1184.329507,-919.314598
915.360637,-9400.615463,1850.514855,0.000000
915.360958,-10658.965565,740.205942,-153.219100
915.361278,-10807.006753,148.041188,-153.219100
915.361599,-11103.089130,-962.267725,383.047749
915.361920,-11769.274478,-1332.370696,1685.410096
915.362240,-11843.295072,-814.226536,1378.971896
915.362561,-9918.759623,-296.082377,76.609550
915.362882,-9326.594869,740.205942,0.000000
915.363202,-7846.182985,444.123565,-536.266849
915.363523,-7254.018232,0.000000,0.000000
915.363844,-8068.244768,0.000000,1532.190996
915.364164,-8956.491898,-666.185348,2604.724693
915.364485,-9104.533087,-592.164754,2451.505594
915.364806,-10807.006753,0.000000,2681.334243
915.365126,-10732.986159,1036.288319,2834.553343
915.365447,-10881.027347,1110.308913,2834.553343
915.365768,-9548.656652,0.000000,1378.971896
915.366088,-9030.512492,-666.185348,-842.705048
915.366409,-9400.615463,-148.041188,-766.095498
915.366730,-9548.656652,-1184.329507,-1225.752797
915.367050,-8808.450710,-1036.288319,-459.657299
915.367371,-9178.553681,-222.061783,-306.438199
915.367691,-9400.615463,-370.102971,-1072.533697
915.368012,-9252.574275,222.061783,1915.238745
915.368333,-9844.739029,-962.267725,2834.553343
915.368653,-9474.636058,-1036.288319,3370.820191
915.368974,-9770.718434,-740.205942,3830.477490
915.369295,-9918.759623,-1332.370696,3600.648841
915.369615,-8438.347739,-666.185348,2528.115143
915.369936,-8068.244768,74.020594,76.609550
915.370257,-7920.203579,1850.514855,-612.876398
915.370577,-8956.491898,1628.453072,-306.438199
915.370898,-9252.574275,518.144159,-689.485948
915.371219,-9918.759623,-888.247130,-1378.971896
915.371539,-10658.965565,-666.185348,229.828649
915.371860,-11695.253884,-1554.432478,1838.629195
915.372181,-11769.274478,-1924.535449,2451.505594
915.372501,-11029.068536,-222.061783,2374.896044
915.372822,-10658.965565,0.000000,1991.848295
915.373143,-9104.533087,296.082377,2145.067394
915.373463,-9622.677246,296.082377,2374.896044
915.373784,-9030.512492,370.102971,2757.943793
915.374105,-9474.636058,0.000000,2834.553343
915.374425,-9400.615463,-1184.329507,2528.115143
915.374746,-8956.491898,-1480.411884,1302.362347
915.375067,-9030.512492,-370.102971,383.047749
915.375387,-9696.697840,0.000000,229.828649
915.375708,-8882.471304,-148.041188,-153.219100
915.376028,-9622.677246,-1332.370696,-842.705048
915.376349,-10214.842000,-1036.288319,-1225.752797
915.376670,-11251.130318,-814.226536,536.266849
915.376990,-10955.047942,-1702.473667,1225.752797
915.377311,-10436.903782,-1406.391290,1072.533697
915.377632,-9622.677246,-444.123565,459.657299
915.377952,-8956.491898,-148.041188,1225.752797
915.378273,-8586.388927,-1036.288319,1838.629195
915.378594,-8882.471304,-518.144159,1838.629195
915.378914,-9104.533087,-222.061783,2911.162892
915.379235,-9474.636058,-1628.453072,2911.162892
915.379556,-8512.368333,-1702.473667,2145.067394
915.379876,-8734.430116,-1184.329507,306.438199
915.380197,-8808.450710,814.226536,459.657299
915.380518,-9326.594869,0.000000,-383.047749
915.380838,-9030.512492,-1998.556043,-306.438199
915.381159,-8808.450710,-1924.535449,-2221.676944
915.381480,-10510.924376,-1776.494261,-919.314598
915.381800,-10881.027347,-1036.288319,919.314598
915.382121,-11473.192101,-222.061783,1685.410096
915.382442,-10436.903782,888.247130,612.876398
915.382762,-9696.697840,1480.411884,459.657299
915.383083,-9326.594869,370.102971,1149.143247
915.383403,-9474.636058,0.000000,1762.019645
915.383724,-9474.636058,-148.041188,3140.991542
915.384045,-10214.842000,-1258.350101,3217.601092
915.384365,-9326.594869,0.000000,2911.162892
915.384686,-9474.636058,-666.185348,1532.190996
915.385007,-8808.450710,2294.638420,383.047749
915.385327,-10288.862594,2294.638420,1225.752797
915.385648,-9474.636058,444.123565,153.219100
915.385969,-9992.780217,-1258.350101,-1149.143247
915.386289,-10214.842000,-1258.350101,-306.438199
915.386610,-11621.233289,-2220.617826,459.657299
915.386931,-11251.130318,-1332.370696,1072.533697
915.387251,-10955.047942,-74.020594,689.485948
915.387572,-9474.636058,814.226536,-76.609550
915.387893,-8586.388927,740.205942,0.000000
915.388213,-8808.450710,-814.226536,229.828649
915.388534,-8438.347739,222.061783,919.314598
915.388855,-8734.430116,0.000000,2451.505594
915.389175,-9918.759623,-888.247130,3140.991542
915.389496,-8586.388927,-740.205942,2604.724693
915.389817,-9474.636058,-1628.453072,1532.190996
915.390137,-8660.409521,888.247130,2221.676944
915.390458,-9770.718434,-592.164754,1302.362347
915.390779,-8956.491898,0.000000,-766.095498
915.391099,-9030.512492,1184.329507,-1225.752797
915.391420,-9622.677246,666.185348,-153.219100
915.391740,-9844.739029,1036.288319,1532.190996
915.392061,-10732.986159,-592.164754,766.095498
915.392382,-9252.574275,-666.185348,-612.876398
915.392702,-9252.574275,148.041188,0.000000
915.393023,-9474.636058,888.247130,2451.505594
915.393344,-9918.759623,1258.350101,3600.648841
915.393664,-9622.677246,1776.494261,4136.915689
915.393985,-9178.553681,0.000000,3983.696590
915.394306,-9252.574275,-1184.329507,2987.772442
915.394626,-9326.594869,-1480.411884,2374.896044
915.394947,-9252.574275,0.000000,1915.238745
915.395268,-8956.491898,1036.288319,1378.971896
915.395588,-8734.430116,-148.041188,0.000000
915.395909,-8660.409521,-222.061783,-1762.019645
915.396230,-10436.903782,-222.061783,-842.705048
915.396550,-11621.233289,-444.123565,1149.143247
915.396871,-11251.130318,-1406.391290,1149.143247
915.397192,-11103.089130,-1924.535449,383.047749
915.397512,-10288.862594,-1776.494261,0.000000
915.397833,-9548.656652,-1110.308913,995.924147
915.398154,-9696.697840,-814.226536,2451.505594
915.398474,-9696.697840,-222.061783,3064.381992
915.398795,-9474.636058,0.000000,2834.553343
915.399115,-9696.697840,-1110.308913,2528.115143
915.399436,-8882.471304,-1332.370696,1838.629195
915.399757,-8660.409521,222.061783,919.314598
915.400077,-8882.471304,518.144159,459.657299
915.400398,-7920.203579,-370.102971,-306.438199
915.400719,-8216.285956,-1406.391290,-1762.019645
915.401039,-9474.636058,-962.267725,-1149.143247
915.401360,-9770.718434,592.164754,0.000000
915.401681,-11621.233289,0.000000,2834.553343
915.402001,-11917.315666,-592.164754,2451.505594
915.402322,-10807.006753,-592.164754,1762.019645
915.402643,-10140.821405,-1258.350101,0.000000
915.402963,-9400.615463,-1924.535449,1455.581446
915.403284,-8808.450710,-1110.308913,1991.848295
915.403605,-8808.450710,-370.102971,1915.238745
915.403925,-7846.182985,444.123565,2451.505594
915.404246,-8808.450710,-1184.329507,1455.581446
915.404567,-7920.203579,-444.123565,1378.971896
915.404887,-9474.636058,0.000000,766.095498
915.405208,-8808.450710,1036.288319,2145.067394
915.405529,-9178.553681,-814.226536,1072.533697
915.405849,-9548.656652,-888.247130,459.657299
915.406170,-10807.006753,-1628.453072,0.000000
915.406491,-10732.986159,-814.226536,536.266849
915.406811,-10436.903782,-1036.288319,689.485948
915.407132,-9696.697840,0.000000,-536.266849
915.407452,-9992.780217,74.020594,-1149.143247
915.407773,-8734.430116,740.205942,0.000000
915.408094,-9770.718434,-370.102971,995.924147
915.408414,-9400.615463,-740.205942,2681.334243
915.408735,-10214.842000,-1258.350101,3140.991542
915.409056,-10510.924376,-1850.514855,3447.429741
915.409376,-9770.718434,-888.247130,2604.724693
915.409697,-10214.842000,1628.453072,2298.286494
915.410018,-9622.677246,2146.597232,2221.676944
915.410338,-9326.594869,1554.432478,995.924147
915.410659,-9326.594869,-148.041188,-612.876398
915.410980,-9178.553681,-1406.391290,-1685.410096
915.411300,-9770.718434,-962.267725,-766.095498
915.411621,-10732.986159,-2368.659014,229.828649
915.411942,-10066.800811,-1332.370696,-306.438199
915.412262,-10436.903782,74.020594,153.219100
915.412583,-9474.636058,592.164754,0.000000
915.412904,-9992.780217,444.123565,1302.362347
915.413224,-9844.739029,222.061783,1915.238745
915.413545,-9696.697840,888.247130,3064.381992
915.413866,-9474.636058,-1258.350101,2221.676944
915.414186,-9104.533087,-518.144159,2604.724693
915.414507,-9104.533087,-296.082377,1838.629195
915.414827,-8586.388927,444.123565,1149.143247
915.415148,-8364.327145,740.205942,842.705048
915.415469,-8512.368333,-666.185348,0.000000
915.415789,-8734.430116,-370.102971,-1378.971896
915.416110,-10362.883188,0.000000,-153.219100
915.416431,-10510.924376,148.041188,1302.362347
915.416751,-9992.780217,-518.144159,1072.533697
915.417072,-10436.903782,-518.144159,612.876398
915.417393,-9770.718434,74.020594,536.266849
915.417713,-9918.759623,-296.082377,1225.752797
915.418034,-7846.182985,-888.247130,1685.410096
915.418355,-8882.471304,-296.082377,2068.457845
915.418675,-8882.471304,296.082377,2374.896044
915.418996,-8512.368333,0.000000,2451.505594
915.419317,-9178.553681,-740.205942,2911.162892
915.419637,-9178.553681,518.144159,2374.896044
915.419958,-10214.842000,0.000000,2681.334243
915.420279,-10214.842000,0.000000,2911.162892
915.420599,-10140.821405,-592.164754,1991.848295
915.420920,-11029.068536,-1184.329507,995.924147
915.421241,-10288.862594,-222.061783,842.705048
915.421561,-10584.944971,-370.102971,383.047749
915.421882,-9548.656652,0.000000,-689.485948
915.422203,-9474.636058,740.205942,-1532.190996
915.422523,-9104.533087,148.041188,-1072.533697
915.422844,-9030.512492,-518.144159,0.000000
915.423164,-9770.718434,-1258.350101,1072.533697
915.423485,-10140.821405,-74.020594,2987.772442
915.423806,-10436.903782,-1480.411884,3753.867940
915.424126,-10436.903782,-1554.432478,3140.991542
915.424447,-9474.636058,-814.226536,2298.286494
915.424768,-9030.512492,0.000000,1225.752797
915.425088,-8364.327145,0.000000,383.047749
915.425409,-7994.224174,-814.226536,-995.924147
915.425730,-8364.327145,-740.205942,-1762.019645
915.426050,-9622.677246,-518.144159,-1072.533697
915.426371,-10288.862594,0.000000,153.219100
915.426692,-10807.006753,-666.185348,689.485948
915.427012,-10510.924376,-148.041188,229.828649
915.427333,-10658.965565,-444.123565,153.219100
915.427654,-10066.800811,0.000000,2374.896044
915.427974,-9622.677246,-1480.411884,1149.143247
915.428295,-8660.409521,-592.164754,1149.143247
915.428616,-9696.697840,-740.205942,2068.457845
915.428936,-9400.615463,-1110.308913,2451.505594
915.429257,-8586.388927,-814.226536,919.314598
915.429578,-9326.594869,0.000000,919.314598
915.429898,-9474.636058,222.061783,1149.143247
915.430219,-8956.491898,-592.164754,1225.752797
915.430539,-9474.636058,-1850.514855,383.047749
915.430860,-9326.594869,-1702.473667,0.000000
915.431181,-10510.924376,-1332.370696,995.924147
915.431501,-10510.924376,-1110.308913,1378.971896
915.431822,-10881.027347,0.000000,1225.752797
915.432143,-10436.903782,1110.308913,612.876398
915.432463,-9400.615463,1702.473667,612.876398
915.432784,-9844.739029,592.164754,842.705048
915.433105,-9474.636058,222.061783,1838.629195
915.433426,-9844.739029,0.000000,2451.505594
915.433747,-10436.903782,-222.061783,3064.381992
915.434067,-9622.677246,-518.144159,2221.676944
915.434388,-9400.615463,-296.082377,1532.190996
915.434709,-9400.615463,814.226536,1455.581446
915.435030,-9252.574275,1406.391290,1378.971896
915.435351,-9548.656652,74.020594,766.095498
915.435672,-9400.615463,74.020594,612.876398
915.435992,-10584.944971,666.185348,1685.410096
915.436313,-10584.944971,-296.082377,2221.676944
915.436634,-10510.924376,-1258.350101,1532.190996
915.436955,-9548.656652,0.000000,1225.752797
915.437276,-10140.821405,-296.082377,689.485948
915.437596,-8216.285956,592.164754,229.828649
915.437917,-8956.491898,148.041188,766.095498
915.438238,-8808.450710,814.226536,1378.971896
915.438559,-9696.697840,814.226536,1838.629195
915.438880,-9030.512492,-148.041188,2451.505594
915.439201,-9622.677246,-2146.597232,1072.533697
915.439521,-7772.162391,-222.061783,459.657299
915.439842,-9474.636058,-444.123565,995.924147
915.440163,-8438.347739,370.102971,1302.362347
915.440484,-9918.759623,-296.082377,1302.362347
915.440805,-9622.677246,-296.082377,383.047749
915.441126,-10140.821405,-148.041188,1608.800546
915.441446,-11251.130318,-1184.329507,1532.190996
915.441767,-9548.656652,-518.144159,-306.438199
915.442088,-10140.821405,-296.082377,-612.876398
915.442409,-8068.244768,518.144159,-842.705048
915.442730,-8808.450710,740.205942,229.828649
915.443051,-9548.656652,1184.329507,919.314598
915.443371,-9326.594869,518.144159,1532.190996
915.443692,-10436.903782,-518.144159,2298.286494
915.444013,-9918.759623,-1480.411884,1762.019645
915.444334,-9326.594869,-814.226536,766.095498
915.444655,-10288.862594,0.000000,1915.238745
915.444976,-8956.491898,-222.061783,919.314598
915.445296,-9326.594869,-1110.308913,0.000000
915.445617,-9474.636058,-1184.329507,-306.438199
915.445938,-10066.800811,-148.041188,-689.485948
915.446259,-11029.068536,0.000000,2068.457845
915.446580,-10807.006753,-296.082377,2145.067394
915.446901,-10140.821405,-370.102971,1532.190996
915.447221,-9844.739029,-814.226536,919.314598
915.447542,-9252.574275,-1850.514855,459.657299
915.447863,-9400.615463,-1776.494261,1072.533697
915.448184,-9474.636058,-888.247130,1685.410096
915.448505,-9844.739029,-444.123565,2221.676944
915.448825,-9104.533087,-148.041188,1685.410096
915.449146,-9104.533087,-444.123565,1225.752797
915.449467,-9548.656652,0.000000,842.705048
915.449788,-9474.636058,74.020594,1302.362347
915.450109,-9548.656652,-1332.370696,919.314598
915.450430,-8882.471304,-2146.597232,459.657299
915.450750,-9474.636058,-2072.576638,383.047749
915.451071,-10436.903782,-1258.350101,2221.676944
915.451392,-10214.842000,-888.247130,2068.457845
915.451713,-9696.697840,-518.144159,995.924147
915.452034,-9474.636058,-148.041188,459.657299
915.452355,-8660.409521,-370.102971,383.047749
915.452675,-8882.471304,-370.102971,995.924147
915.452996,-9622.677246,0.000000,2604.724693
915.453317,-9400.615463,-592.164754,2068.457845
915.453638,-9326.594869,-1110.308913,1762.019645
915.453959,-9252.574275,-888.247130,1762.019645
915.454280,-8734.430116,-1036.288319,0.000000
915.454600,-8808.450710,666.185348,0.000000
915.454921,-9178.553681,592.164754,459.657299
915.455242,-8068.244768,0.000000,-612.876398
915.455563,-8586.388927,-592.164754,-1072.533697
915.455884,-9992.780217,740.205942,229.828649
915.456205,-10510.924376,1110.308913,1838.629195
915.456525,-11029.068536,962.267725,2451.505594
915.456846,-10881.027347,1184.329507,2451.505594
915.457167,-10584.944971,518.144159,1608.800546
915.457488,-10288.862594,0.000000,1685.410096
915.457809,-9622.677246,370.102971,995.924147
915.458129,-9474.636058,1036.288319,842.705048
915.458450,-9474.636058,1184.329507,689.485948
915.458771,-9696.697840,0.000000,919.314598
915.459092,-8956.491898,-222.061783,0.000000
915.459413,-9770.718434,-444.123565,-919.314598
915.459734,-9622.677246,814.226536,536.266849
915.460054,-9918.759623,814.226536,766.095498
915.460375,-10288.862594,222.061783,766.095498
915.460696,-10140.821405,0.000000,1072.533697
915.461017,-10732.986159,-1332.370696,1378.971896
915.461338,-10066.800811,-2220.617826,1149.143247
915.461659,-10066.800811,-2072.576638,842.705048
915.461979,-9400.615463,-666.185348,306.438199
915.462300,-9400.615463,-370.102971,842.705048
915.462621,-8290.306550,370.102971,1072.533697
915.462942,-8364.327145,814.226536,1532.190996
915.463263,-9844.739029,74.020594,2068.457845
915.463584,-9474.636058,370.102971,2757.943793
915.463904,-9844.739029,-666.185348,2221.676944
915.464225,-8882.471304,-518.144159,919.314598
915.464546,-8734.430116,296.082377,689.485948
915.464867,-9178.553681,0.000000,1072.533697
915.465188,-9252.574275,-296.082377,919.314598
915.465509,-9474.636058,-666.185348,1225.752797
915.465829,-9696.697840,-1110.308913,1685.410096
915.466150,-9918.759623,-1554.432478,1762.019645
915.466471,-9844.739029,-1480.411884,1915.238745
915.466792,-9474.636058,-814.226536,1838.629195
915.467113,-9326.594869,-148.041188,1532.190996
915.467433,-9030.512492,-1406.391290,995.924147
915.467754,-8364.327145,-1332.370696,1072.533697
915.468075,-9326.594869,-222.061783,1378.971896
915.468396,-10214.842000,-740.205942,3294.210641
915.468717,-10066.800811,-1332.370696,2604.724693
915.469038,-9548.656652,-1776.494261,1149.143247
915.469358,-9178.553681,-1184.329507,0.000000
915.469679,-8956.491898,-962.267725,153.219100
915.470000,-9252.574275,-1110.308913,0.000000
915.470321,-8808.450710,-1628.453072,-766.095498
915.470642,-9992.780217,-2072.576638,-689.485948
915.470963,-10658.965565,-370.102971,76.609550
915.471283,-11473.192101,-1332.370696,1072.533697
915.471604,-10436.903782,74.020594,1455.581446
915.471925,-11029.068536,148.041188,1762.019645
915.472246,-10140.821405,0.000000,2451.505594
915.472567,-10584.944971,-592.164754,2451.505594
915.472888,-9918.759623,-444.123565,2451.505594
915.473208,-9326.594869,0.000000,1378.971896
915.473529,-8734.430116,0.000000,919.314598
915.473850,-8512.368333,0.000000,-612.876398
915.474171,-7105.977043,74.020594,-1608.800546
915.474492,-8660.409521,592.164754,-995.924147
915.474813,-9400.615463,-222.061783,459.657299
915.475133,-10066.800811,-1480.411884,0.000000
915.475454,-11177.109724,-2072.576638,1072.533697
915.475775,-11917.315666,-1480.411884,2604.724693
915.476096,-12139.377449,-1258.350101,3677.258390
915.476417,-11473.192101,-370.102971,3753.867940
915.476738,-9844.739029,-222.061783,1608.800546
915.477058,-9030.512492,1036.288319,612.876398
915.477379,-8586.388927,0.000000,612.876398
915.477700,-7105.977043,-444.123565,612.876398
915.478021,-8290.306550,-222.061783,536.266849
915.478342,-8734.430116,-518.144159,1378.971896
915.478662,-8586.388927,-444.123565,1991.848295
915.478983,-9474.636058,-962.267725,1455.581446
915.479304,-9474.636058,0.000000,2374.896044
915.479625,-9474.636058,2146.597232,2451.505594
915.479946,-11547.212695,-2812.782580,1225.752797
915.480267,-7698.141797,-740.205942,-995.924147
915.480587,-9844.739029,-296.082377,-1072.533697
915.480908,-10732.986159,814.226536,306.438199
915.481229,-8586.388927,1036.288319,1915.238745
915.481550,-10732.986159,148.041188,1378.971896
915.481871,-10436.903782,814.226536,1455.581446
915.482192,-9400.615463,-222.061783,766.095498
915.482512,-11325.150913,370.102971,3370.820191
915.482833,-9178.553681,444.123565,2528.115143
915.483154,-10436.903782,1628.453072,2145.067394
915.483475,-9918.759623,1554.432478,2451.505594
915.483796,-8882.471304,370.102971,0.000000
915.484117,-9474.636058,1036.288319,-536.266849
915.484437,-10436.903782,1702.473667,76.609550
915.484758,-8512.368333,1850.514855,-459.657299
915.485079,-9696.697840,814.226536,-1378.971896
915.485400,-10510.924376,1184.329507,-689.485948
915.485721,-10510.924376,1184.329507,689.485948
915.486042,-12139.377449,-888.247130,2528.115143
915.486362,-10807.006753,-1776.494261,1685.410096
915.486683,-9622.677246,-1702.473667,1225.752797
915.487004,-9400.615463,-1554.432478,842.705048
915.487325,-8734.430116,0.000000,2145.067394
915.487646,-8734.430116,-148.041188,2834.553343
915.487966,-8586.388927,148.041188,2911.162892
915.488287,-8586.388927,-296.082377,2528.115143
915.488608,-8882.471304,-1850.514855,1149.143247
915.488929,-9104.533087,-740.205942,459.657299
915.489250,-8216.285956,888.247130,919.314598
915.489571,-9030.512492,-666.185348,0.000000
915.489891,-7476.080014,-370.102971,-306.438199
915.490212,-8586.388927,-1332.370696,-1302.362347
915.490533,-9474.636058,-592.164754,-919.314598
915.490854,-11029.068536,-962.267725,1838.629195
915.491175,-10214.842000,-740.205942,2068.457845
915.491496,-9770.718434,-592.164754,1915.238745
915.491816,-10066.800811,-518.144159,1608.800546
915.492137,-8586.388927,296.082377,2145.067394
915.492458,-9622.677246,-888.247130,2298.286494
915.492779,-8956.491898,444.123565,2681.334243
915.493100,-9548.656652,888.247130,2451.505594
915.493421,-10140.821405,-814.226536,3140.991542
915.493741,-8956.491898,-518.144159,1762.019645
915.494062,-9252.574275,0.000000,1149.143247
915.494383,-9548.656652,0.000000,76.609550
915.494704,-9178.553681,148.041188,306.438199
915.495025,-9770.718434,-666.185348,-536.266849
915.495346,-10140.821405,-1036.288319,-612.876398
915.495666,-11547.212695,-962.267725,1072.533697
915.495987,-11399.171507,-2516.700203,2451.505594
915.496308,-11103.089130,-2294.638420,689.485948
915.496629,-10288.862594,-370.102971,766.095498
915.496950,-9696.697840,-740.205942,612.876398
915.497271,-9474.636058,296.082377,1685.410096
915.497591,-9178.553681,-1480.411884,1225.752797
915.497912,-9104.533087,-1110.308913,1532.190996
915.498233,-9844.739029,-1554.432478,1915.238745
915.498554,-9178.553681,-1036.288319,2451.505594
915.498875,-9326.594869,-888.247130,1378.971896
915.499195,-9030.512492,-148.041188,153.219100
915.499516,-8882.471304,-222.061783,306.438199
915.499837,-9326.594869,-1554.432478,-306.438199
915.500158,-9474.636058,-1776.494261,-1762.019645
915.500479,-10214.842000,-1184.329507,-766.095498
915.500800,-10140.821405,-962.267725,229.828649
915.501120,-10214.842000,-740.205942,612.876398
915.501441,-9326.594869,370.102971,842.705048
915.501762,-9844.739029,-148.041188,689.485948
915.502083,-8956.491898,0.000000,1455.581446
915.502404,-9104.533087,-296.082377,2681.334243
915.502725,-9252.574275,-518.144159,2987.772442
915.503045,-9548.656652,296.082377,3983.696590
915.503366,-9104.533087,-740.205942,3064.381992
915.503687,-8734.430116,-444.123565,1915.238745
915.504008,-8068.244768,1332.370696,1225.752797
915.504329,-8956.491898,1406.391290,1762.019645
915.504650,-8660.409521,1036.288319,612.876398
915.504970,-9474.636058,-444.123565,-766.095498
915.505291,-9622.677246,-444.123565,-153.219100
915.505612,-10807.006753,74.020594,229.828649
915.505933,-11547.212695,-296.082377,1838.629195
915.506254,-11029.068536,0.000000,1455.581446
915.506575,-10214.842000,148.041188,306.438199
915.506895,-9326.594869,1184.329507,459.657299
915.507216,-9696.697840,814.226536,1685.410096
915.507537,-9548.656652,1258.350101,2911.162892
915.507858,-10214.842000,148.041188,3524.039291
915.508179,-9474.636058,-444.123565,3370.820191
915.508499,-8882.471304,-1776.494261,2145.067394
915.508820,-9474.636058,-592.164754,1455.581446
915.509141,-9770.718434,814.226536,612.876398
915.509462,-8734.430116,1628.453072,-306.438199
915.509783,-8956.491898,518.144159,-1915.238745
915.510104,-8586.388927,148.041188,-2604.724693
915.510424,-9918.759623,0.000000,-1991.848295
915.510745,-10881.027347,-592.164754,0.000000
915.511066,-10807.006753,-666.185348,383.047749
915.511387,-10584.944971,-1258.350101,229.828649
915.511708,-10732.986159,-740.205942,1532.190996
915.512029,-10140.821405,-518.144159,2374.896044
915.512349,-9844.739029,-296.082377,3677.258390
915.512670,-10510.924376,-1110.308913,4596.572988
915.512991,-8956.491898,-1110.308913,4136.915689
915.513312,-9326.594869,-2220.617826,3064.381992
915.513633,-7772.162391,-962.267725,1149.143247
915.513954,-8660.409521,0.000000,689.485948
915.514274,-7698.141797,888.247130,0.000000
915.514595,-8142.265362,666.185348,0.000000
915.514916,-9252.574275,0.000000,-1762.019645
915.515237,-9474.636058,-296.082377,-995.924147
915.515558,-11103.089130,-1110.308913,536.266849
915.515879,-10807.006753,-888.247130,1455.581446
915.516199,-11621.233289,-1776.494261,1455.581446
915.516520,-10658.965565,-666.185348,1225.752797
915.516841,-9844.739029,-148.041188,2374.896044
915.517162,-9770.718434,-1110.308913,1302.362347
915.517483,-8512.368333,-518.144159,1685.410096
915.517804,-9474.636058,-370.102971,2681.334243
915.518124,-10214.842000,-666.185348,3600.648841
915.518445,-8216.285956,-2072.576638,2221.676944
915.518766,-9474.636058,-1184.329507,1302.362347
915.519087,-9474.636058,-148.041188,1302.362347
915.519408,-9474.636058,-74.020594,383.047749
915.519728,-9844.739029,-222.061783,612.876398
915.520049,-9474.636058,-666.185348,-1915.238745
915.520370,-10362.883188,0.000000,-919.314598
915.520691,-11991.336260,-592.164754,612.876398
915.521012,-9696.697840,-962.267725,383.047749
915.521333,-10658.965565,-740.205942,-229.828649
915.521653,-9770.718434,-222.061783,383.047749
915.521974,-9030.512492,148.041188,1149.143247
915.522295,-9992.780217,74.020594,2298.286494
915.522616,-9474.636058,444.123565,2911.162892
915.522937,-9474.636058,74.020594,3294.210641
915.523258,-9770.718434,-518.144159,2987.772442
915.523578,-9252.574275,-148.041188,2681.334243
915.523899,-9030.512492,-222.061783,2374.896044
915.524220,-8290.306550,518.144159,1455.581446
915.524541,-9104.533087,-962.267725,766.095498
915.524862,-8882.471304,-1184.329507,-766.095498
915.525183,-9918.759623,-444.123565,0.000000
915.525503,-9992.780217,0.000000,229.828649
915.525824,-10288.862594,-370.102971,612.876398
915.526145,-10436.903782,444.123565,1149.143247
915.526466,-9918.759623,74.020594,0.000000
915.526787,-9770.718434,222.061783,1072.533697
915.527108,-9178.553681,-740.205942,1378.971896
915.527428,-8660.409521,-888.247130,2451.505594
915.527749,-9474.636058,-592.164754,2604.724693
915.528070,-9252.574275,-1110.308913,3447.429741
915.528391,-8956.491898,-962.267725,2374.896044
915.528712,-8586.388927,-74.020594,689.485948
915.529032,-8660.409521,1406.391290,766.095498
915.529353,-9030.512492,518.144159,383.047749
915.529674,-8660.409521,-296.082377,-306.438199
915.529995,-8956.491898,-444.123565,-1149.143247
915.530316,-10807.006753,-444.123565,153.219100
915.530637,-10955.047942,-1628.453072,1378.971896
915.530957,-11769.274478,-2220.617826,1762.019645
915.531278,-10955.047942,-1258.350101,153.219100
915.531599,-10214.842000,-74.020594,0.000000
915.531920,-10732.986159,296.082377,1762.019645
915.532241,-10436.903782,814.226536,2221.676944
915.532562,-10436.903782,740.205942,2451.505594
915.532882,-9918.759623,666.185348,2451.505594
915.533203,-9622.677246,-814.226536,1762.019645
915.533524,-8882.471304,-814.226536,229.828649
915.533844,-8882.471304,296.082377,842.705048
915.534165,-8364.327145,444.123565,153.219100
915.534486,-7698.141797,0.000000,-1378.971896
915.534807,-8882.471304,148.041188,-2604.724693
915.535127,-9622.677246,222.061783,-1838.629195
915.535448,-10066.800811,222.061783,-383.047749
915.535769,-11177.109724,-444.123565,536.266849
915.536090,-10436.903782,-592.164754,-536.266849
915.536410,-9844.739029,-592.164754,0.000000
915.536731,-9844.739029,0.000000,1532.190996
915.537052,-9548.656652,-1776.494261,2145.067394
915.537372,-8956.491898,-2072.576638,2757.943793
915.537693,-9178.553681,-740.205942,3370.820191
915.538014,-8586.388927,-2368.659014,2528.115143
915.538335,-8660.409521,-1554.432478,1991.848295
915.538655,-8142.265362,-518.144159,1532.190996
915.538976,-8290.306550,1184.329507,1378.971896
915.539297,-8142.265362,2294.638420,2145.067394
915.539618,-9474.636058,-1258.350101,536.266849
915.539938,-7772.162391,-1110.308913,-459.657299
915.540259,-10066.800811,-1628.453072,0.000000
915.540580,-10288.862594,-370.102971,459.657299
915.540901,-10807.006753,296.082377,1149.143247
915.541221,-10066.800811,962.267725,0.000000
915.541542,-9252.574275,1480.411884,0.000000
915.541863,-9918.759623,296.082377,459.657299
915.542183,-9770.718434,-444.123565,2528.115143
915.542504,-10955.047942,-962.267725,3447.429741
915.542825,-10436.903782,-2072.576638,3600.648841
915.543146,-9326.594869,-666.185348,4060.306139
915.543466,-9844.739029,0.000000,3217.601092
915.543787,-9474.636058,1850.514855,3140.991542
915.544108,-9548.656652,1184.329507,2528.115143
915.544429,-8808.450710,-444.123565,766.095498
915.544749,-8882.471304,-1850.514855,-2068.457845
915.545070,-10214.842000,-888.247130,-842.705048
915.545391,-10436.903782,-148.041188,536.266849
915.545711,-11325.150913,-148.041188,1302.362347
915.546032,-10881.027347,1110.308913,1225.752797
915.546353,-10288.862594,-1036.288319,-459.657299
915.546674,-9770.718434,-666.185348,383.047749
915.546994,-10436.903782,-1258.350101,919.314598
915.547315,-9770.718434,-444.123565,2145.067394
915.547636,-10214.842000,-814.226536,2221.676944
915.547957,-9104.533087,-1554.432478,2451.505594
915.548277,-9622.677246,-2294.638420,1378.971896
915.548598,-8660.409521,-888.247130,842.705048
915.548919,-8734.430116,74.020594,1149.143247
915.549240,-8882.471304,370.102971,383.047749
915.549560,-8882.471304,-444.123565,-766.095498
915.549881,-9178.553681,-370.102971,-919.314598
915.550202,-9992.780217,-740.205942,-383.047749
915.550522,-10214.842000,-888.247130,612.876398
915.550843,-10066.800811,-814.226536,76.609550
915.551164,-9696.697840,-518.144159,-995.924147
915.551485,-9326.594869,1036.288319,-383.047749
915.551805,-8882.471304,148.041188,-229.828649
915.552126,-8882.471304,444.123565,1608.800546
915.552447,-9770.718434,-222.061783,2451.505594
915.552768,-9992.780217,-1110.308913,2604.724693
915.553088,-9400.615463,-1776.494261,2987.772442
915.553409,-9030.512492,-1184.329507,1991.848295
915.553730,-9178.553681,444.123565,1838.629195
915.554050,-8808.450710,814.226536,1532.190996
915.554371,-8586.388927,74.020594,1455.581446
915.554692,-9326.594869,-296.082377,0.000000
915.555013,-9770.718434,-222.061783,306.438199
915.555333,-11251.130318,-222.061783,1762.019645
915.555654,-11177.109724,-740.205942,2145.067394
915.555975,-9844.739029,-740.205942,612.876398
915.556296,-10066.800811,518.144159,229.828649
915.556616,-9696.697840,370.102971,612.876398
915.556937,-9622.677246,444.123565,995.924147
915.557258,-10140.821405,518.144159,1762.019645
915.557579,-9844.739029,-296.082377,2374.896044
915.557899,-10140.821405,-1258.350101,2681.334243
915.558220,-10066.800811,-1850.514855,2298.286494
915.558541,-10214.842000,-1554.432478,1915.238745
915.558861,-9104.533087,1332.370696,1608.800546
915.559182,-9696.697840,0.000000,919.314598
915.559503,-8882.471304,0.000000,-306.438199
915.559824,-9844.739029,-296.082377,-383.047749
915.560144,-10288.862594,0.000000,0.000000
915.560465,-10807.006753,0.000000,1302.362347
915.560786,-10584.944971,370.102971,766.095498
915.561107,-10066.800811,1110.308913,612.876398
915.561427,-9400.615463,0.000000,689.485948
915.561748,-8364.327145,-666.185348,459.657299
915.562069,-9474.636058,-1480.411884,2681.334243
915.562389,-9474.636058,-3034.844362,689.485948
915.562710,-7698.141797,-3034.844362,3447.429741
915.563031,-10362.883188,-1332.370696,1378.971896
915.563352,-8216.285956,-740.205942,1991.848295
915.563672,-9030.512492,0.000000,536.266849
915.563993,-10510.924376,1332.370696,3064.381992
915.564314,-8068.244768,-1480.411884,-842.705048
915.564635,-9992.780217,-666.185348,383.047749
915.564955,-9400.615463,-518.144159,306.438199
915.565276,-10658.965565,74.020594,459.657299
915.565597,-10510.924376,-814.226536,2451.505594
915.565918,-8808.450710,-222.061783,0.000000
915.566238,-8956.491898,518.144159,76.609550
915.566559,-10732.986159,-222.061783,1225.752797
915.566880,-7994.224174,-962.267725,2451.505594
915.567200,-9474.636058,-888.247130,689.485948
915.567521,-9104.533087,0.000000,612.876398
915.567842,-8364.327145,-148.041188,842.705048
915.568163,-8586.388927,-296.082377,919.314598
915.568483,-9400.615463,74.020594,1378.971896
915.568804,-9474.636058,1036.288319,1378.971896
915.569125,-9918.759623,0.000000,1762.019645
915.569446,-10881.027347,-1480.411884,1838.629195
915.569766,-11177.109724,-222.061783,2451.505594
915.570087,-11991.336260,-148.041188,3370.820191
915.570408,-10955.047942,444.123565,3753.867940
915.570728,-10510.924376,-518.144159,1532.190996
915.571049,-9474.636058,-222.061783,0.000000
915.571370,-8512.368333,444.123565,76.609550
915.571691,-8142.265362,-740.205942,-536.266849
915.572011,-8290.306550,222.061783,383.047749
915.572332,-9474.636058,370.102971,1072.533697
915.572653,-9622.677246,962.267725,2911.162892
915.572974,-11251.130318,-592.164754,3524.039291
915.573294,-10288.862594,-1406.391290,2834.553343
915.573615,-9696.697840,-592.164754,1838.629195
915.573936,-10807.006753,-1184.329507,1762.019645
915.574257,-8808.450710,0.000000,766.095498
915.574577,-9030.512492,-1036.288319,-459.657299
915.574898,-9178.553681,0.000000,-306.438199
915.575219,-9252.574275,592.164754,229.828649
915.575539,-9548.656652,-1258.350101,-459.657299
915.575860,-8586.388927,-518.144159,-229.828649
915.576181,-10140.821405,148.041188,153.219100
915.576502,-9474.636058,0.000000,689.485948
915.576822,-9474.636058,-296.082377,1378.971896
915.577143,-9918.759623,0.000000,1455.581446
915.577464,-9844.739029,-888.247130,2374.896044
915.577785,-9992.780217,-1258.350101,2528.115143
915.578105,-9400.615463,-740.205942,1149.143247
915.578426,-9474.636058,148.041188,-766.095498
915.578747,-9104.533087,1406.391290,-153.219100
915.579067,-8364.327145,370.102971,0.000000
915.579388,-8808.450710,-370.102971,-1225.752797
915.579709,-9622.677246,-962.267725,-459.657299
915.580030,-9992.780217,-1036.288319,536.266849
915.580350,-11029.068536,-1480.411884,1915.238745
915.580671,-10732.986159,-962.267725,1685.410096
915.580992,-10658.965565,-222.061783,1455.581446
915.581313,-9770.718434,148.041188,766.095498
915.581633,-8956.491898,-444.123565,1072.533697
915.581954,-9548.656652,0.000000,1838.629195
915.582275,-9844.739029,-222.061783,2911.162892
915.582596,-10955.047942,-1554.432478,2911.162892
915.582916,-9918.759623,-1998.556043,1991.848295
915.583237,-9030.512492,-1554.432478,0.000000
915.583558,-9474.636058,592.164754,536.266849
915.583878,-9474.636058,888.247130,536.266849
915.584199,-8068.244768,1480.411884,-536.266849
915.584520,-9326.594869,592.164754,-1378.971896
915.584841,-9104.533087,222.061783,-689.485948
915.585161,-10066.800811,-1258.350101,0.000000
915.585482,-9844.739029,-2220.617826,2451.505594
915.585803,-9474.636058,-962.267725,1378.971896
915.586124,-9992.780217,-296.082377,1762.019645
915.586444,-10288.862594,518.144159,3753.867940
915.586765,-10658.965565,-148.041188,2528.115143
915.587086,-10288.862594,592.164754,3753.867940
915.587406,-10436.903782,-740.205942,3064.381992
915.587727,-8586.388927,-1332.370696,1915.238745
915.588048,-9030.512492,-1332.370696,76.609550
915.588369,-8216.285956,-814.226536,153.219100
915.588689,-8216.285956,0.000000,-612.876398
915.589010,-7920.203579,222.061783,-689.485948
915.589331,-9474.636058,-1036.288319,-919.314598
915.589652,-9252.574275,666.185348,536.266849
915.589972,-11769.274478,444.123565,1915.238745
915.590293,-11177.109724,-592.164754,2298.286494
915.590614,-9844.739029,888.247130,1455.581446
915.590935,-10510.924376,0.000000,1455.581446
915.591255,-8734.430116,-592.164754,383.047749
915.591576,-8512.368333,-962.267725,842.705048
915.591897,-8512.368333,-888.247130,919.314598
915.592217,-8364.327145,740.205942,2068.457845
915.592538,-10214.842000,148.041188,2451.505594
915.592859,-9474.636058,0.000000,2451.505594
915.593180,-9474.636058,148.041188,1072.533697
915.593500,-10140.821405,1184.329507,995.924147
915.593821,-9178.553681,148.041188,995.924147
915.594142,-9326.594869,-666.185348,0.000000
915.594463,-9252.574275,-1332.370696,-689.485948
915.594783,-9992.780217,-962.267725,-612.876398
915.595104,-10066.800811,0.000000,1915.238745
915.595425,-10288.862594,-518.144159,766.095498
915.595745,-10436.903782,888.247130,842.705048
915.596066,-10140.821405,888.247130,1225.752797
915.596387,-10066.800811,0.000000,1838.629195
915.596708,-9400.615463,-888.247130,2374.896044
915.597028,-9474.636058,-1036.288319,2145.067394
915.597349,-10214.842000,-1702.473667,2604.724693
915.597670,-8808.450710,-1036.288319,2451.505594
915.597991,-9400.615463,-1554.432478,1302.362347
915.598311,-9178.553681,0.000000,536.266849
915.598632,-9474.636058,592.164754,536.266849
915.598953,-9622.677246,0.000000,306.438199
915.599274,-9474.636058,-444.123565,-1915.238745
915.599594,-9622.677246,-592.164754,-689.485948
915.599915,-10584.944971,-888.247130,919.314598
915.600236,-10955.047942,-1406.391290,1838.629195
915.600556,-9844.739029,-814.226536,1378.971896
915.600877,-9474.636058,-592.164754,1302.362347
915.601198,-9030.512492,-592.164754,1378.971896
915.601519,-8734.430116,-222.061783,1455.581446
915.601839,-9252.574275,0.000000,2221.676944
915.602160,-8660.409521,370.102971,2757.943793
915.602481,-9548.656652,-962.267725,2528.115143
915.602802,-9474.636058,-1924.535449,2451.505594
915.603122,-9252.574275,-1776.494261,612.876398
915.603443,-9104.533087,-666.185348,-306.438199
915.603764,-8956.491898,-222.061783,229.828649
915.604084,-8882.471304,-518.144159,-306.438199
915.604405,-9474.636058,-296.082377,-919.314598
915.604726,-10658.965565,-592.164754,-229.828649
915.605047,-10362.883188,-592.164754,1225.752797
915.605367,-10436.903782,-1258.350101,842.705048
915.605688,-9844.739029,-444.123565,383.047749
915.606009,-9622.677246,148.041188,1149.143247
915.606330,-9622.677246,-518.144159,1762.019645
915.606650,-9400.615463,-296.082377,2068.457845
915.606971,-8882.471304,-74.020594,2451.505594
915.607292,-9770.718434,-888.247130,2681.334243
915.607613,-9918.759623,-370.102971,2298.286494
915.607933,-9252.574275,-518.144159,919.314598
915.608254,-8512.368333,0.000000,-766.095498
915.608575,-9104.533087,740.205942,-306.438199
915.608895,-9474.636058,-1036.288319,-536.266849
915.609216,-9400.615463,-1184.329507,-2145.067394
915.609537,-9918.759623,-296.082377,-612.876398
915.609858,-10732.986159,518.144159,0.000000
915.610178,-11695.253884,888.247130,1991.848295
915.610499,-11177.109724,1110.308913,842.705048
915.610820,-9918.759623,592.164754,1225.752797
915.611141,-8956.491898,-518.144159,612.876398
915.611461,-8808.450710,-1554.432478,1149.143247
915.611782,-9178.553681,-1554.432478,1762.019645
915.612103,-9992.780217,-740.205942,2757.943793
915.612423,-10288.862594,-962.267725,3064.381992
915.612744,-9474.636058,-592.164754,2374.896044
915.613065,-9326.594869,-740.205942,536.266849
915.613386,-9178.553681,444.123565,459.657299
915.613706,-9400.615463,888.247130,1149.143247
915.614027,-9918.759623,-592.164754,229.828649
915.614348,-9474.636058,370.102971,-383.047749
915.614669,-10362.883188,-370.102971,0.000000
915.614989,-9400.615463,-814.226536,842.705048
915.615310,-10955.047942,-444.123565,919.314598
915.615631,-8660.409521,666.185348,306.438199
915.615952,-8956.491898,-74.020594,0.000000
915.616272,-8512.368333,666.185348,2374.896044
915.616593,-8808.450710,-518.144159,2145.067394
915.616914,-10140.821405,222.061783,4213.525239
915.617234,-9622.677246,-592.164754,4213.525239
915.617555,-9474.636058,-666.185348,3600.648841
915.617876,-9400.615463,0.000000,2298.286494
915.618197,-8586.388927,814.226536,1302.362347
915.618517,-9252.574275,1332.370696,1225.752797
915.618838,-8586.388927,666.185348,1378.971896
915.619159,-8586.388927,-370.102971,-1608.800546
915.619480,-10066.800811,0.000000,-766.095498
915.619800,-11029.068536,518.144159,1608.800546
915.620121,-11695.253884,0.000000,2298.286494
915.620442,-10362.883188,222.061783,1762.019645
915.620762,-10436.903782,-518.144159,689.485948
915.621083,-9030.512492,-518.144159,689.485948
915.621404,-9844.739029,-1332.370696,1532.190996
915.621725,-8956.491898,518.144159,1762.019645
915.622045,-9548.656652,296.082377,2681.334243
915.622366,-9104.533087,-592.164754,2374.896044
915.622687,-9104.533087,-1110.308913,1072.533697
915.623008,-9992.780217,-222.061783,306.438199
915.623328,-9918.759623,0.000000,689.485948
915.623649,-9326.594869,-370.102971,383.047749
915.623970,-9326.594869,-1776.494261,-1378.971896
915.624291,-9252.574275,-1184.329507,-2298.286494
915.624611,-9992.780217,-888.247130,-1532.190996
915.624932,-9770.718434,-1184.329507,-1072.533697
915.625253,-9622.677246,-1036.288319,-842.705048
915.625573,-9252.574275,0.000000,-1225.752797
915.625894,-10658.965565,296.082377,689.485948
915.626215,-10288.862594,-148.041188,2604.724693
915.626536,-10066.800811,-592.164754,3907.087040
915.626856,-10807.006753,-814.226536,4290.134789
915.627177,-10214.842000,-740.205942,5669.106685
915.627498,-9770.718434,-1702.473667,3753.867940
915.627819,-8290.306550,-518.144159,1685.410096
915.628139,-8364.327145,0.000000,306.438199
915.628460,-7550.100608,888.247130,-76.609550
915.628781,-8660.409521,-1332.370696,-1532.190996
915.629101,-7994.224174,-1036.288319,-2374.896044
915.629422,-9400.615463,0.000000,-1149.143247
915.629743,-11177.109724,-1258.350101,1225.752797
915.630064,-10288.862594,-962.267725,2451.505594
915.630384,-11769.274478,-1776.494261,1838.629195
915.630705,-10807.006753,-1702.473667,1762.019645
915.631026,-9548.656652,-962.267725,1685.410096
915.631347,-11029.068536,-888.247130,1915.238745
915.631667,-9104.533087,296.082377,2451.505594
915.631988,-9474.636058,74.020594,2834.553343
915.632309,-9252.574275,-370.102971,3140.991542
915.632630,-8808.450710,-1628.453072,1762.019645
915.632950,-8586.388927,-1258.350101,689.485948
915.633271,-9548.656652,0.000000,1225.752797
915.633592,-9474.636058,666.185348,919.314598
915.633912,-9770.718434,444.123565,459.657299
915.634233,-9918.759623,148.041188,0.000000
915.634554,-10584.944971,-444.123565,0.000000
915.634875,-11177.109724,-1850.514855,153.219100
915.635195,-10140.821405,-1258.350101,0.000000
915.635516,-9918.759623,0.000000,153.219100
915.635837,-9770.718434,592.164754,689.485948
915.636158,-9548.656652,592.164754,2068.457845
915.636478,-9474.636058,296.082377,2681.334243
915.636799,-9326.594869,0.000000,3983.696590
915.637120,-10362.883188,-1628.453072,4366.744339
915.637441,-9474.636058,-2812.782580,3600.648841
915.637761,-8734.430116,-2072.576638,1455.581446
915.638082,-8216.285956,222.061783,76.609550
915.638403,-8142.265362,2664.741391,-842.705048
915.638724,-7476.080014,2368.659014,-612.876398
915.639044,-8956.491898,0.000000,-2374.896044
915.639365,-8290.306550,1332.370696,-2451.505594
915.639686,-10584.944971,148.041188,-842.705048
915.640007,-10436.903782,-740.205942,-229.828649
915.640327,-10288.862594,222.061783,689.485948
915.640648,-10955.047942,148.041188,1225.752797
915.640969,-8586.388927,888.247130,995.924147
915.641290,-10288.862594,-148.041188,3064.381992
915.641610,-9696.697840,-296.082377,3753.867940
915.641931,-10584.944971,592.164754,4749.792088
915.642252,-10732.986159,-296.082377,4290.134789
915.642572,-8068.244768,666.185348,3217.601092
915.642893,-9622.677246,0.000000,842.705048
915.643214,-8734.430116,1776.494261,1149.143247
915.643535,-8808.450710,592.164754,0.000000
915.643855,-8734.430116,-518.144159,-1532.190996
915.644176,-8438.347739,-370.102971,-1915.238745
915.644497,-10510.924376,-296.082377,-1072.533697
915.644818,-11251.130318,-370.102971,306.438199
915.645138,-11103.089130,0.000000,459.657299
915.645459,-11029.068536,-222.061783,0.000000
915.645780,-9844.739029,518.144159,383.047749
915.646101,-10140.821405,0.000000,1532.190996
915.646421,-9622.677246,222.061783,3830.477490
915.646742,-9992.780217,-666.185348,3830.477490
915.647063,-9474.636058,-1406.391290,3907.087040
915.647384,-9178.553681,-2294.638420,3140.991542
915.647704,-8734.430116,-962.267725,1608.800546
915.648025,-9178.553681,444.123565,1762.019645
915.648346,-9400.615463,666.185348,1838.629195
915.648667,-8882.471304,-148.041188,-153.219100
915.648987,-8956.491898,-1184.329507,-1608.800546
915.649308,-9770.718434,-888.247130,-612.876398
915.649629,-10955.047942,-814.226536,0.000000
915.649949,-11029.068536,-518.144159,1225.752797
915.650270,-10436.903782,0.000000,229.828649
915.650591,-9474.636058,-370.102971,-383.047749
915.650912,-9104.533087,-1480.411884,306.438199
915.651232,-9326.594869,-1628.453072,1532.190996
915.651553,-9178.553681,-1554.432478,2298.286494
915.651874,-9474.636058,-1036.288319,3370.820191
915.652195,-9622.677246,-1554.432478,4136.915689
915.652515,-8882.471304,-2220.617826,2451.505594
915.652836,-8956.491898,-592.164754,1838.629195
915.653157,-9474.636058,-370.102971,1838.629195
915.653478,-8512.368333,-962.267725,689.485948
915.653798,-8660.409521,-1776.494261,-995.924147
915.654119,-8882.471304,-1480.411884,-2374.896044
915.654440,-9548.656652,-518.144159,-1608.800546
915.654761,-11251.130318,-370.102971,0.000000
915.655081,-9918.759623,-518.144159,-229.828649
915.655402,-9400.615463,0.000000,-689.485948
915.655723,-9992.780217,-888.247130,0.000000
915.656044,-9770.718434,-1184.329507,995.924147
915.656364,-9844.739029,-962.267725,2145.067394
915.656685,-9770.718434,-296.082377,3217.601092
915.657006,-10214.842000,-740.205942,3677.258390
915.657326,-9548.656652,-1480.411884,2451.505594
915.657647,-8882.471304,74.020594,1838.629195
915.657968,-9918.759623,888.247130,1532.190996
915.658289,-7920.203579,444.123565,1378.971896
915.658609,-9622.677246,-370.102971,153.219100
915.658930,-9030.512492,-370.102971,-1608.800546
915.659251,-10140.821405,-222.061783,-1149.143247
915.659572,-11473.192101,1480.411884,2221.676944
915.659892,-10807.006753,444.123565,383.047749
915.660213,-10658.965565,592.164754,-306.438199
915.660534,-10066.800811,888.247130,-306.438199
915.660855,-9326.594869,0.000000,153.219100
915.661175,-9548.656652,-1480.411884,766.095498
915.661496,-9326.594869,-1110.308913,2451.505594
915.661817,-9622.677246,-1628.453072,2528.115143
915.662138,-9474.636058,-1998.556043,3140.991542
915.662458,-8956.491898,-1702.473667,2221.676944
915.662779,-9030.512492,370.102971,2451.505594
915.663100,-9104.533087,740.205942,1608.800546
915.663421,-8660.409521,592.164754,1455.581446
915.663741,-9474.636058,740.205942,-1455.581446
915.664062,-9474.636058,-148.041188,-383.047749
915.664383,-9622.677246,74.020594,459.657299
915.664703,-10214.842000,-888.247130,76.609550
915.665024,-9400.615463,-296.082377,-612.876398
915.665345,-9474.636058,666.185348,-612.876398
915.665666,-9104.533087,1184.329507,0.000000
915.665986,-9474.636058,814.226536,1455.581446
915.666307,-9400.615463,666.185348,2451.505594
915.666628,-9548.656652,296.082377,3294.210641
915.666949,-9918.759623,-888.247130,3753.867940
915.667269,-9178.553681,-1480.411884,2987.772442
915.667590,-8882.471304,-740.205942,1762.019645
915.667911,-8660.409521,1554.432478,1838.629195
915.668232,-9474.636058,1406.391290,2221.676944
915.668552,-9696.697840,888.247130,1455.581446
915.668873,-9844.739029,0.000000,612.876398
915.669194,-10955.047942,370.102971,383.047749
915.669515,-11251.130318,74.020594,1225.752797
915.669835,-10584.944971,74.020594,153.219100
915.670156,-9474.636058,518.144159,-1072.533697
915.670477,-8512.368333,222.061783,-1149.143247
915.670798,-8734.430116,-222.061783,-612.876398
915.671118,-9474.636058,148.041188,689.485948
915.671439,-9992.780217,-370.102971,2681.334243
915.671760,-10436.903782,-740.205942,3294.210641
915.672080,-10807.006753,-2220.617826,3983.696590
915.672401,-10214.842000,-2590.720797,3140.991542
915.672722,-9252.574275,-444.123565,2374.896044
915.673043,-9400.615463,-740.205942,2374.896044
915.673363,-8068.244768,-962.267725,1455.581446
915.673684,-8290.306550,-1850.514855,-229.828649
915.674005,-8734.430116,-1480.411884,-842.705048
915.674326,-9622.677246,-592.164754,459.657299
915.674646,-10436.903782,-444.123565,1302.362347
915.674967,-9696.697840,-592.164754,1455.581446
915.675288,-9844.739029,0.000000,229.828649
915.675609,-9474.636058,0.000000,612.876398
915.675929,-9770.718434,-518.144159,1302.362347
915.676250,-9770.718434,-296.082377,1991.848295
915.676571,-9400.615463,-740.205942,2451.505594
915.676892,-9178.553681,-962.267725,2604.724693
915.677212,-9030.512492,-666.185348,2145.067394
915.677533,-8808.450710,-518.144159,1149.143247
915.677854,-8660.409521,-296.082377,919.314598
915.678175,-8290.306550,-740.205942,536.266849
915.678495,-8882.471304,-1110.308913,0.000000
915.678816,-10140.821405,-1406.391290,-229.828649
915.679137,-9696.697840,-1110.308913,153.219100
915.679457,-10732.986159,-1258.350101,459.657299
915.679778,-10362.883188,-1184.329507,-153.219100
915.680099,-9918.759623,0.000000,-766.095498
915.680420,-10288.862594,592.164754,-766.095498
915.680740,-8290.306550,0.000000,-766.095498
915.681061,-9252.574275,-518.144159,-306.438199
915.681382,-9400.615463,-148.041188,1378.971896
915.681703,-10807.006753,-1036.288319,3294.210641
915.682023,-11177.109724,-1110.308913,3600.648841
915.682344,-10436.903782,-1554.432478,2681.334243
915.682665,-9770.718434,-518.144159,1302.362347
915.682986,-9918.759623,370.102971,1455.581446
915.683306,-9548.656652,222.061783,1149.143247
915.683627,-9252.574275,-296.082377,-612.876398
915.683948,-8734.430116,0.000000,-1608.800546
915.684269,-9992.780217,296.082377,-383.047749
915.684589,-10510.924376,740.205942,536.266849
915.684910,-10510.924376,0.000000,1225.752797
915.685231,-9992.780217,592.164754,689.485948
915.685552,-9548.656652,296.082377,229.828649
915.685872,-9178.553681,148.041188,919.314598
915.686193,-9992.780217,740.205942,2221.676944
915.686514,-9918.759623,0.000000,2757.943793
915.686834,-9400.615463,-740.205942,2451.505594
915.687155,-8512.368333,-2294.638420,1532.190996
915.687476,-8364.327145,-1332.370696,536.266849
915.687797,-9474.636058,0.000000,1149.143247
915.688117,-8660.409521,888.247130,1915.238745
915.688438,-8438.347739,0.000000,1455.581446
915.688759,-9178.553681,-1184.329507,0.000000
915.689080,-9844.739029,-518.144159,1762.019645
915.689400,-11399.171507,-2368.659014,2298.286494
915.689721,-9844.739029,-148.041188,2145.067394
915.690042,-10584.944971,-222.061783,1608.800546
915.690363,-8364.327145,814.226536,-153.219100
915.690683,-8290.306550,1258.350101,919.314598
915.691004,-8956.491898,666.185348,1149.143247
915.691325,-8364.327145,1036.288319,1838.629195
915.691646,-10288.862594,-814.226536,2068.457845
915.691966,-9844.739029,-888.247130,3140.991542
915.692287,-10362.883188,-1332.370696,2681.334243
915.692608,-10436.903782,-518.144159,2757.943793
915.692929,-9770.718434,0.000000,1838.629195
915.693249,-9548.656652,0.000000,1608.800546
915.693570,-9326.594869,-518.144159,229.828649
915.693891,-10066.800811,666.185348,0.000000
915.694211,-10436.903782,1036.288319,229.828649
915.694532,-9918.759623,1554.432478,-153.219100
915.694853,-9326.594869,1998.556043,-612.876398
915.695174,-8734.430116,1554.432478,-1225.752797
915.695494,-8956.491898,518.144159,-842.705048
915.695815,-10140.821405,-666.185348,306.438199
915.696136,-9622.677246,-962.267725,919.314598
915.696457,-11177.109724,-1110.308913,2451.505594
915.696777,-11621.233289,-1480.411884,3217.601092
915.697098,-10881.027347,-814.226536,4749.792088
915.697419,-10510.924376,-518.144159,2145.067394
915.697740,-9696.697840,666.185348,842.705048
915.698060,-9178.553681,-148.041188,0.000000
915.698381,-8586.388927,-1332.370696,-76.609550
915.698702,-8660.409521,-1480.411884,-1455.581446
915.699023,-9474.636058,-1628.453072,-919.314598
915.699343,-9770.718434,-1184.329507,1072.533697
915.699664,-9992.780217,-740.205942,1072.533697
915.699985,-10436.903782,0.000000,2451.505594
915.700306,-10066.800811,444.123565,1762.019645
915.700626,-9622.677246,-1036.288319,1455.581446
915.700947,-8586.388927,-1332.370696,919.314598
915.701268,-8882.471304,-1776.494261,1685.410096
915.701588,-8586.388927,-1406.391290,1302.362347
915.701909,-9030.512492,-1406.391290,1685.410096
915.702230,-8660.409521,-888.247130,689.485948
915.702551,-8586.388927,-592.164754,689.485948
915.702871,-9696.697840,0.000000,766.095498
915.703192,-9030.512492,-888.247130,1225.752797
915.703513,-9474.636058,-1924.535449,536.266849
915.703834,-9992.780217,-1554.432478,1608.800546
915.704154,-9918.759623,-2146.597232,1608.800546
915.704475,-10140.821405,-1332.370696,2145.067394
915.704796,-9696.697840,-740.205942,1685.410096
915.705117,-9252.574275,222.061783,919.314598
915.705437,-9252.574275,148.041188,76.609550
915.705758,-8882.471304,666.185348,76.609550
915.706079,-9400.615463,1110.308913,1149.143247
915.706400,-10510.924376,888.247130,2681.334243
915.706720,-10881.027347,-666.185348,2911.162892
915.707041,-11029.068536,-1036.288319,2451.505594
915.707362,-9918.759623,-1628.453072,842.705048
915.707683,-10288.862594,-666.185348,766.095498
915.708003,-9696.697840,0.000000,1072.533697
915.708324,-9474.636058,-74.020594,-306.438199
915.708645,-9178.553681,222.061783,-766.095498
915.708965,-9992.780217,518.144159,459.657299
915.709286,-10807.006753,-296.082377,842.705048
915.709607,-10732.986159,1036.288319,1685.410096
915.709928,-11029.068536,888.247130,1915.238745
915.710248,-10066.800811,148.041188,1225.752797
915.710569,-9326.594869,-592.164754,995.924147
915.710890,-9252.574275,-1480.411884,459.657299
915.711211,-8586.388927,0.000000,229.828649
915.711531,-9696.697840,-1036.288319,1608.800546
915.711852,-8882.471304,-1184.329507,1685.410096
915.712173,-8956.491898,-666.185348,-306.438199
915.712494,-8734.430116,0.000000,-459.657299
915.712814,-8808.450710,0.000000,383.047749
915.713135,-9326.594869,-592.164754,536.266849
915.713456,-9030.512492,-1110.308913,-459.657299
915.713777,-9918.759623,-444.123565,229.828649
915.714097,-9770.718434,-518.144159,2451.505594
915.714418,-10362.883188,-592.164754,1991.848295
915.714739,-9474.636058,0.000000,1838.629195
915.715060,-9252.574275,518.144159,919.314598
915.715380,-8586.388927,1184.329507,689.485948
915.715701,-8808.450710,888.247130,1302.362347
915.716022,-8512.368333,1258.350101,1991.848295
915.716343,-9400.615463,962.267725,2757.943793
915.716663,-9770.718434,0.000000,2987.772442
915.716984,-9474.636058,-962.267725,1378.971896
915.717305,-9178.553681,-74.020594,306.438199
915.717625,-9696.697840,888.247130,1149.143247
915.717946,-9696.697840,370.102971,1149.143247
915.718267,-9770.718434,444.123565,-306.438199
915.718588,-9992.780217,-148.041188,0.000000
915.718908,-10658.965565,-518.144159,766.095498
915.719229,-10732.986159,-740.205942,2068.457845
915.719550,-11177.109724,-296.082377,2681.334243
915.719871,-10362.883188,518.144159,1915.238745
915.720191,-9474.636058,222.061783,1225.752797
915.720512,-8808.450710,-370.102971,1302.362347
915.720833,-9030.512492,-370.102971,1302.362347
915.721154,-10214.842000,74.020594,2987.772442
915.721474,-10436.903782,-296.082377,3064.381992
915.721795,-9474.636058,-962.267725,2451.505594
915.722116,-9696.697840,-1184.329507,536.266849
915.722437,-9918.759623,-296.082377,229.828649
915.722757,-9474.636058,444.123565,612.876398
915.723078,-9844.739029,-1332.370696,0.000000
915.723399,-9696.697840,-1702.473667,-536.266849
915.723720,-10140.821405,-1332.370696,-612.876398
915.724040,-11695.253884,-592.164754,919.314598
915.724361,-10807.006753,444.123565,2221.676944
915.724682,-10362.883188,-222.061783,1685.410096
915.725002,-8512.368333,-370.102971,0.000000
915.725323,-7476.080014,-1628.453072,-2145.067394
915.725644,-8290.306550,-1036.288319,0.000000
915.725965,-8364.327145,74.020594,1762.019645
915.726285,-9474.636058,0.000000,3140.991542
915.726606,-9326.594869,-888.247130,2834.553343
915.726927,-9474.636058,-1554.432478,1455.581446
915.727248,-9474.636058,-222.061783,919.314598
915.727568,-10510.924376,-1110.308913,1608.800546
915.727889,-9178.553681,-1184.329507,-459.657299
915.728210,-7624.121203,-1184.329507,-1302.362347
915.728531,-9696.697840,-1036.288319,-1838.629195
915.728851,-9548.656652,-592.164754,0.000000
915.729172,-10214.842000,-962.267725,1532.190996
915.729493,-11325.150913,-962.267725,3447.429741
915.729814,-9326.594869,-1036.288319,536.266849
915.730134,-11473.192101,-444.123565,2681.334243
915.730455,-9400.615463,-814.226536,2681.334243
915.730776,-9252.574275,0.000000,1915.238745
915.731097,-10436.903782,0.000000,3140.991542
915.731417,-8586.388927,-740.205942,1915.238745
915.731738,-9252.574275,-1036.288319,919.314598
915.732059,-10288.862594,-518.144159,612.876398
915.732379,-7179.997637,370.102971,-1149.143247
915.732700,-10066.800811,1332.370696,0.000000
915.733021,-9844.739029,888.247130,0.000000
915.733342,-9474.636058,666.185348,-383.047749
915.733662,-11547.212695,370.102971,2068.457845
915.733983,-11621.233289,-666.185348,1685.410096
915.734304,-11029.068536,-814.226536,1915.238745
915.734625,-10288.862594,-666.185348,1149.143247
915.734945,-9622.677246,740.205942,1378.971896
915.735266,-9844.739029,444.123565,383.047749
915.735587,-8586.388927,-518.144159,1225.752797
915.735908,-8512.368333,148.041188,1608.800546
915.736228,-9178.553681,-1036.288319,1455.581446
915.736549,-8142.265362,-1036.288319,1532.190996
915.736870,-8290.306550,-222.061783,995.924147
915.737191,-8586.388927,148.041188,0.000000
915.737511,-8808.450710,1258.350101,689.485948
915.737832,-9326.594869,0.000000,995.924147
915.738153,-9104.533087,-1258.350101,0.000000
915.738474,-10658.965565,-2368.659014,-383.047749
915.738794,-10140.821405,-814.226536,766.095498
915.739115,-10955.047942,-1036.288319,1608.800546
915.739436,-9178.553681,222.061783,1915.238745
915.739756,-8734.430116,1406.391290,1378.971896
915.740077,-9104.533087,444.123565,76.609550
915.740398,-7624.121203,296.082377,1149.143247
915.740719,-7994.224174,370.102971,2911.162892
915.741039,-9030.512492,962.267725,2834.553343
915.741360,-10510.924376,-370.102971,3983.696590
915.741681,-9474.636058,-222.061783,2681.334243
915.742002,-9326.594869,296.082377,1991.848295
915.742322,-9918.759623,0.000000,2298.286494
915.742643,-9178.553681,222.061783,612.876398
915.742964,-10066.800811,-518.144159,-229.828649
915.743285,-9030.512492,370.102971,-1302.362347
915.743605,-11029.068536,1036.288319,-766.095498
915.743926,-11251.130318,814.226536,1225.752797
915.744247,-11177.109724,0.000000,1455.581446
915.744568,-9696.697840,370.102971,1915.238745
915.744888,-10955.047942,-1184.329507,1302.362347
915.745209,-10140.821405,-666.185348,2374.896044
915.745530,-10214.842000,-666.185348,3064.381992
915.745851,-9474.636058,1184.329507,3140.991542
915.746171,-10214.842000,888.247130,3600.648841
915.746492,-9696.697840,222.061783,3064.381992
915.746813,-9400.615463,-740.205942,1915.238745
915.747133,-8956.491898,-1184.329507,612.876398
915.747454,-9178.553681,-592.164754,153.219100
915.747775,-9918.759623,-962.267725,0.000000
915.748096,-9252.574275,-1184.329507,-766.095498
915.748416,-9474.636058,-1036.288319,-995.924147
915.748737,-10140.821405,-1036.288319,-306.438199
915.749058,-10436.903782,-592.164754,0.000000
915.749379,-10288.862594,-592.164754,153.219100
915.749699,-9252.574275,-370.102971,0.000000
915.750020,-8364.327145,-888.247130,-612.876398
915.750341,-7920.203579,-1258.350101,229.828649
915.750662,-8142.265362,-962.267725,1838.629195
915.750982,-8956.491898,-518.144159,3217.601092
915.751303,-9918.759623,-1184.329507,4136.915689
915.751624,-9918.759623,-1924.535449,3140.991542
915.751945,-9548.656652,-1554.432478,1149.143247
915.752265,-9696.697840,-814.226536,1149.143247
915.752586,-9326.594869,148.041188,842.705048
915.752907,-9400.615463,-518.144159,-459.657299
915.753228,-8364.327145,74.020594,-1378.971896
915.753548,-9178.553681,-296.082377,-2221.676944
915.753869,-10140.821405,-1258.350101,-919.314598
915.754190,-10066.800811,-962.267725,0.000000
915.754510,-9918.759623,-592.164754,-383.047749
915.754831,-9474.636058,-518.144159,459.657299
915.755152,-9992.780217,-370.102971,689.485948
915.755473,-10288.862594,518.144159,3140.991542
915.755793,-11103.089130,-370.102971,4213.525239
915.756114,-9992.780217,-666.185348,2757.943793
915.756435,-10288.862594,-814.226536,3064.381992
915.756756,-9400.615463,-814.226536,1149.143247
915.757076,-9252.574275,518.144159,1072.533697
915.757397,-9252.574275,1776.494261,2451.505594
915.757718,-8586.388927,0.000000,-689.485948
915.758039,-9030.512492,-666.185348,-1838.629195
915.758359,-9622.677246,-444.123565,-1455.581446
915.758680,-11325.150913,-518.144159,229.828649
915.759001,-11769.274478,-296.082377,2068.457845
915.759322,-11029.068536,-296.082377,1378.971896
915.759642,-10362.883188,370.102971,689.485948
915.759963,-9992.780217,0.000000,1302.362347
915.760284,-9474.636058,-518.144159,3983.696590
915.760605,-9104.533087,296.082377,2681.334243
915.760925,-9696.697840,296.082377,3447.429741
915.761246,-9178.553681,0.000000,3370.820191
915.761567,-8512.368333,-1184.329507,2451.505594
915.761887,-8068.244768,-1406.391290,1685.410096
915.762208,-8734.430116,-740.205942,1072.533697
915.762529,-9030.512492,-814.226536,766.095498
915.762850,-8808.450710,-1332.370696,229.828649
915.763170,-9104.533087,-370.102971,-229.828649
915.763491,-9992.780217,-148.041188,689.485948
915.763812,-10658.965565,0.000000,1838.629195
915.764133,-10436.903782,0.000000,1149.143247
915.764453,-8956.491898,1628.453072,0.000000
915.764774,-9622.677246,1258.350101,76.609550
915.765095,-8956.491898,814.226536,919.314598
915.765416,-9400.615463,222.061783,2068.457845
915.765736,-9252.574275,370.102971,3294.210641
915.766057,-9252.574275,-666.185348,2757.943793
915.766378,-9770.718434,-1554.432478,2757.943793
915.766699,-9474.636058,-592.164754,2451.505594
915.767019,-9030.512492,222.061783,1532.190996
915.767340,-8734.430116,1110.308913,1149.143247
915.767661,-9474.636058,592.164754,536.266849
915.767981,-9030.512492,-518.144159,-1225.752797
915.768302,-10066.800811,-666.185348,-842.705048
915.768623,-10658.965565,-666.185348,-306.438199
915.768944,-10658.965565,-444.123565,153.219100
915.769264,-11029.068536,222.061783,229.828649
915.769585,-10214.842000,814.226536,383.047749
915.769906,-9844.739029,666.185348,1225.752797
915.770227,-9918.759623,-814.226536,1991.848295
915.770547,-9400.615463,370.102971,2604.724693
915.770868,-10510.924376,-1110.308913,2911.162892
915.771189,-9326.594869,-1036.288319,3217.601092
915.771510,-9548.656652,-1332.370696,2681.334243
915.771830,-8586.388927,-1628.453072,1149.143247
915.772151,-8734.430116,-296.082377,536.266849
915.772472,-9252.574275,-518.144159,536.266849
915.772793,-8586.388927,-888.247130,-689.485948
915.773113,-9474.636058,-814.226536,-1225.752797
915.773434,-10288.862594,0.000000,-229.828649
915.773755,-11103.089130,-296.082377,1072.533697
915.774076,-10732.986159,-1036.288319,995.924147
915.774396,-9696.697840,-592.164754,0.000000
915.774717,-9770.718434,-592.164754,153.219100
915.775038,-9178.553681,-1036.288319,153.219100
915.775358,-8808.450710,0.000000,2068.457845
915.775679,-9696.697840,0.000000,3064.381992
915.776000,-9030.512492,-814.226536,2911.162892
915.776321,-9474.636058,-1036.288319,3140.991542
915.776641,-8808.450710,-1924.535449,1302.362347
915.776962,-8216.285956,-666.185348,536.266849
915.777283,-9770.718434,148.041188,1991.848295
915.777604,-8734.430116,-296.082377,842.705048
915.777924,-9252.574275,-1110.308913,-536.266849
915.778245,-9622.677246,-740.205942,-536.266849
915.778566,-10510.924376,-444.123565,76.609550
915.778887,-11177.109724,-888.247130,612.876398
915.779207,-10066.800811,-814.226536,-153.219100
915.779528,-9696.697840,-222.061783,-842.705048
915.779849,-9918.759623,-666.185348,0.000000
915.780170,-9696.697840,-888.247130,995.924147
915.780490,-10066.800811,-592.164754,2528.115143
