#time,accel_x,accel_y,accel_z
1356.017609,-9474.636058,-148.041188,1225.752797
1356.017930,-9548.656652,-444.123565,1072.533697
1356.018251,-9622.677246,74.020594,1302.362347
1356.018572,-9474.636058,-222.061783,1149.143247
1356.018893,-9622.677246,-74.020594,995.924147
1356.019214,-9770.718434,-222.061783,1072.533697
1356.019535,-9548.656652,0.000000,1149.143247
1356.019856,-9548.656652,-592.164754,1225.752797
1356.020177,-9622.677246,-296.082377,1072.533697
1356.020498,-9474.636058,-296.082377,919.314598
1356.020819,-9474.636058,-296.082377,995.924147
1356.021140,-9400.615463,-444.123565,995.924147
1356.021461,-9474.636058,-518.144159,1149.143247
1356.021782,-9548.656652,-518.144159,919.314598
1356.022103,-9548.656652,0.000000,1072.533697
1356.022424,-9992.780217,0.000000,1072.533697
1356.022745,-9622.677246,0.000000,1532.190996
1356.023065,-9622.677246,-148.041188,1455.581446
1356.023386,-9992.780217,-370.102971,1302.362347
1356.023707,-9918.759623,0.000000,536.266849
1356.024028,-9252.574275,-666.185348,612.876398
1356.024349,-9696.697840,-592.164754,1149.143247
1356.024670,-9548.656652,-592.164754,1149.143247
1356.024991,-9474.636058,-814.226536,995.924147
1356.025312,-9326.594869,-1036.288319,766.095498
1356.025633,-9622.677246,-814.226536,919.314598
1356.025954,-9622.677246,-592.164754,1378.971896
1356.026275,-9844.739029,-814.226536,1149.143247
1356.026596,-9992.780217,0.000000,1915.238745
1356.026917,-9844.739029,-814.226536,306.438199
1356.027238,-9400.615463,-222.061783,842.705048
1356.027559,-9770.718434,-592.164754,919.314598
1356.027880,-9474.636058,-1406.391290,842.705048
1356.028201,-9696.697840,-1258.350101,1378.971896
1356.028522,-9474.636058,-1406.391290,1302.362347
1356.028843,-9770.718434,-1406.391290,1455.581446
1356.029164,-9622.677246,-1554.432478,2298.286494
1356.029485,-9400.615463,-1480.411884,2298.286494
1356.029806,-9696.697840,-1554.432478,1915.238745
1356.030127,-9474.636058,-1258.350101,1838.629195
1356.030448,-9770.718434,-962.267725,1991.848295
1356.030769,-9844.739029,-1110.308913,2145.067394
1356.031090,-9770.718434,-888.247130,2451.505594
1356.031411,-9474.636058,-888.247130,2451.505594
1356.031732,-9696.697840,-814.226536,2528.115143
1356.032053,-9548.656652,-1110.308913,3677.258390
1356.032374,-9844.739029,-1258.350101,3140.991542
1356.032695,-9696.697840,-1406.391290,3753.867940
1356.033016,-9696.697840,-1702.473667,4136.915689
1356.033337,-9770.718434,-1702.473667,4903.011187
1356.033658,-9548.656652,-1702.473667,5286.058936
1356.033979,-9474.636058,-2072.576638,5362.668486
1356.034300,-9400.615463,-2146.597232,5439.278036
1356.034621,-9474.636058,-2368.659014,5439.278036
1356.034942,-9326.594869,-2294.638420,5592.497135
1356.035263,-9400.615463,-1998.556043,5515.887586
1356.035584,-9474.636058,-2146.597232,5362.668486
1356.035905,-9326.594869,-2146.597232,5209.449386
1356.036226,-7846.182985,-1924.535449,7124.688131
1356.036547,-9252.574275,-2368.659014,5362.668486
1356.036868,-9474.636058,-3627.009116,4903.011187
1356.037189,-9104.533087,-3923.091493,4519.963438
1356.037510,-9474.636058,-4589.276840,4290.134789
1356.037831,-9400.615463,-4219.173869,4366.744339
1356.038152,-9622.677246,-3849.070898,4443.353888
1356.038473,-9548.656652,-3849.070898,4443.353888
1356.038794,-9030.512492,-4071.132681,4136.915689
1356.039115,-9178.553681,-4811.338623,3140.991542
1356.039436,-9400.615463,-5329.482782,4213.525239
1356.039757,-9252.574275,-6069.688724,3830.477490
1356.040078,-9104.533087,-7031.956449,3370.820191
1356.040399,-8882.471304,-7550.100608,2451.505594
1356.040720,-8660.409521,-7402.059420,2451.505594
1356.041041,-8956.491898,-6365.771101,1608.800546
1356.041362,-8882.471304,-4959.379811,766.095498
1356.041683,-8512.368333,-3849.070898,383.047749
1356.042004,-9178.553681,-2960.823768,306.438199
1356.042325,-9622.677246,-2220.617826,0.000000
1356.042646,-9992.780217,-1776.494261,612.876398
1356.042967,-10436.903782,-2072.576638,1685.410096
1356.043288,-10140.821405,-2516.700203,3294.210641
1356.043609,-10510.924376,-4441.235652,3064.381992
1356.043930,-9992.780217,-5477.523971,2911.162892
1356.044251,-9622.677246,-5921.647536,2834.553343
1356.044572,-9474.636058,-5625.565159,2374.896044
1356.044893,-9400.615463,-5551.544565,3600.648841
1356.045214,-8956.491898,-4811.338623,3524.039291
1356.045535,-9326.594869,-4145.153275,3064.381992
1356.045856,-9474.636058,-3775.050304,2298.286494
1356.046177,-9400.615463,-3627.009116,2068.457845
1356.046498,-9622.677246,-2442.679609,1149.143247
1356.046819,-10066.800811,-1258.350101,919.314598
1356.047140,-9992.780217,592.164754,612.876398
1356.047461,-9770.718434,2590.720797,383.047749
1356.047782,-10362.883188,2590.720797,1225.752797
1356.048103,-11029.068536,2220.617826,2298.286494
1356.048424,-11621.233289,444.123565,3753.867940
1356.048745,-10510.924376,-1702.473667,3907.087040
1356.049066,-9844.739029,-3997.112087,4979.620737
1356.049387,-9696.697840,-5107.421000,5592.497135
1356.049708,-9178.553681,-6069.688724,6741.640382
1356.050029,-8808.450710,-6069.688724,6818.249932
1356.050350,-8438.347739,-5773.606348,5669.106685
1356.050671,-7328.038826,-5107.421000,4290.134789
1356.050992,-7402.059420,-3034.844362,3294.210641
1356.051313,-8068.244768,-296.082377,3140.991542
1356.051634,-8290.306550,962.267725,4903.011187
1356.051955,-9326.594869,2368.659014,3907.087040
1356.052276,-10288.862594,1924.535449,3907.087040
1356.052597,-10362.883188,1110.308913,3677.258390
1356.052918,-10658.965565,0.000000,4213.525239
1356.053239,-10510.924376,0.000000,4979.620737
1356.053560,-9326.594869,-592.164754,5362.668486
1356.053881,-8808.450710,-3034.844362,5132.839837
1356.054202,-8068.244768,-4959.379811,4519.963438
1356.054523,-7402.059420,-5995.668130,3064.381992
1356.054844,-7624.121203,-6069.688724,2451.505594
1356.055165,-7920.203579,-3182.885551,3524.039291
1356.055486,-8734.430116,-1850.514855,3907.087040
1356.055807,-9178.553681,-2146.597232,1762.019645
1356.056128,-9326.594869,-370.102971,2604.724693
1356.056449,-10140.821405,518.144159,2298.286494
1356.056770,-11547.212695,1110.308913,2987.772442
1356.057091,-11621.233289,518.144159,2911.162892
1356.057412,-10510.924376,-814.226536,1072.533697
1356.057733,-9770.718434,-1554.432478,-536.266849
1356.058054,-9696.697840,-740.205942,-536.266849
1356.058375,-10066.800811,0.000000,536.266849
1356.058696,-11325.150913,740.205942,1685.410096
1356.059017,-10584.944971,-1332.370696,2068.457845
1356.059338,-9474.636058,-2738.761985,1762.019645
1356.059659,-10066.800811,-3108.864956,2911.162892
1356.059980,-11103.089130,-2886.803174,6358.592633
1356.060301,-10436.903782,-4737.318029,4826.401637
1356.060622,-9474.636058,-6365.771101,3064.381992
1356.060943,-7994.224174,-4885.359217,459.657299
1356.061264,-9252.574275,-2812.782580,1455.581446
1356.061585,-10288.862594,-962.267725,3907.087040
1356.061906,-9770.718434,-1554.432478,3140.991542
1356.062227,-9474.636058,-2146.597232,1838.629195
1356.062548,-9918.759623,-2368.659014,2145.067394
1356.062869,-10066.800811,-3034.844362,4979.620737
1356.063190,-10658.965565,-5329.482782,4213.525239
1356.063511,-9178.553681,-5403.503377,3217.601092
1356.063832,-8734.430116,-4293.194464,2145.067394
1356.064152,-8364.327145,-3034.844362,3524.039291
1356.064473,-9030.512492,-3478.967927,4979.620737
1356.064794,-8512.368333,-4737.318029,4443.353888
1356.065115,-8068.244768,-5403.503377,3524.039291
1356.065436,-8438.347739,-5625.565159,3370.820191
1356.065757,-8290.306550,-6661.853478,3140.991542
1356.066078,-7994.224174,-5033.400406,3753.867940
1356.066399,-9474.636058,-3108.864956,4060.306139
1356.066720,-8734.430116,-1480.411884,3370.820191
1356.067041,-8734.430116,-1480.411884,3677.258390
1356.067362,-9474.636058,-222.061783,4366.744339
1356.067683,-10658.965565,-1184.329507,4519.963438
1356.068004,-11103.089130,-2960.823768,4596.572988
1356.068325,-9104.533087,-4219.173869,3064.381992
1356.068646,-8882.471304,-3478.967927,2604.724693
1356.068967,-10214.842000,-2294.638420,4443.353888
1356.069288,-10214.842000,-2442.679609,6281.983084
1356.069609,-9252.574275,-3849.070898,5439.278036
1356.069930,-9104.533087,-4737.318029,3830.477490
1356.070251,-9030.512492,-3923.091493,2528.115143
1356.070572,-9104.533087,-3478.967927,3064.381992
1356.070893,-9992.780217,-2442.679609,3677.258390
1356.071213,-10066.800811,-222.061783,5209.449386
1356.071534,-8660.409521,-1258.350101,1608.800546
1356.071855,-10288.862594,-814.226536,2451.505594
1356.072176,-11695.253884,-1702.473667,3064.381992
1356.072496,-11177.109724,-1776.494261,3217.601092
1356.072817,-10066.800811,0.000000,1838.629195
1356.073138,-10362.883188,888.247130,2068.457845
1356.073459,-10510.924376,148.041188,3600.648841
1356.073779,-9992.780217,-1184.329507,3370.820191
1356.074100,-9326.594869,-3627.009116,2911.162892
1356.074421,-8882.471304,-4219.173869,1225.752797
1356.074742,-8586.388927,-3552.988522,1991.848295
1356.075062,-9474.636058,-2664.741391,3294.210641
1356.075383,-9400.615463,-2590.720797,2757.943793
1356.075704,-7624.121203,-1776.494261,2298.286494
1356.076025,-8660.409521,-2516.700203,1762.019645
1356.076345,-8290.306550,-2442.679609,0.000000
1356.076666,-9770.718434,-962.267725,689.485948
1356.076987,-9622.677246,962.267725,1838.629195
1356.077308,-9770.718434,2294.638420,919.314598
1356.077628,-10584.944971,3256.906145,2298.286494
1356.077949,-9474.636058,814.226536,1302.362347
1356.078270,-9252.574275,-888.247130,2145.067394
1356.078591,-9622.677246,-1998.556043,1455.581446
1356.078911,-9696.697840,-2738.761985,2757.943793
1356.079232,-9474.636058,-2960.823768,3600.648841
1356.079553,-9770.718434,-2368.659014,4596.572988
1356.079874,-10288.862594,-3478.967927,4903.011187
1356.080195,-8142.265362,-4515.256246,2221.676944
1356.080515,-8068.244768,-3182.885551,919.314598
1356.080836,-8512.368333,74.020594,1685.410096
1356.081157,-8216.285956,518.144159,2757.943793
1356.081478,-9252.574275,296.082377,2987.772442
1356.081798,-9252.574275,-1110.308913,1532.190996
1356.082119,-8364.327145,-1480.411884,689.485948
1356.082440,-10066.800811,-666.185348,2145.067394
1356.082761,-12361.439231,296.082377,4979.620737
1356.083081,-10807.006753,-592.164754,4443.353888
1356.083402,-9992.780217,-1258.350101,3524.039291
1356.083723,-10584.944971,-1554.432478,1915.238745
1356.084044,-9252.574275,-2738.761985,1762.019645
1356.084364,-10658.965565,-1924.535449,2374.896044
1356.084685,-9992.780217,-814.226536,2681.334243
1356.085006,-7994.224174,-888.247130,1149.143247
1356.085327,-9918.759623,-1776.494261,1072.533697
1356.085647,-9474.636058,-1184.329507,766.095498
1356.085968,-9770.718434,370.102971,919.314598
1356.086289,-11769.274478,814.226536,3524.039291
1356.086610,-9622.677246,1258.350101,2374.896044
1356.086930,-10510.924376,-518.144159,153.219100
1356.087251,-11029.068536,-592.164754,76.609550
1356.087572,-8290.306550,1036.288319,-689.485948
1356.087893,-8290.306550,3034.844362,-995.924147
1356.088213,-11547.212695,1332.370696,1915.238745
1356.088534,-8290.306550,666.185348,383.047749
1356.088855,-9844.739029,-2664.741391,0.000000
1356.089176,-8660.409521,-3701.029710,766.095498
1356.089496,-10288.862594,-2516.700203,1608.800546
1356.089817,-11991.336260,-3404.947333,3064.381992
1356.090138,-9844.739029,-2442.679609,1149.143247
1356.090459,-8956.491898,-3034.844362,2145.067394
1356.090779,-9252.574275,-3182.885551,-766.095498
1356.091100,-8364.327145,0.000000,-842.705048
1356.091421,-8882.471304,1110.308913,-3830.477490
1356.091742,-7772.162391,4737.318029,-919.314598
1356.092062,-8512.368333,2072.576638,-2757.943793
1356.092383,-7846.182985,370.102971,-536.266849
1356.092704,-9400.615463,-666.185348,-2145.067394
1356.093025,-11473.192101,0.000000,1225.752797
1356.093345,-9770.718434,-1406.391290,766.095498
1356.093666,-11695.253884,0.000000,3907.087040
1356.093987,-10658.965565,-1998.556043,2451.505594
1356.094308,-9474.636058,-2072.576638,689.485948
1356.094628,-7624.121203,-222.061783,0.000000
1356.094949,-9178.553681,592.164754,0.000000
1356.095270,-8290.306550,370.102971,995.924147
1356.095591,-9696.697840,-518.144159,2145.067394
1356.095912,-8734.430116,-666.185348,612.876398
1356.096232,-10066.800811,74.020594,1455.581446
1356.096553,-10288.862594,962.267725,2374.896044
1356.096874,-11621.233289,1406.391290,3830.477490
1356.097195,-11473.192101,1332.370696,4826.401637
1356.097515,-11177.109724,-592.164754,2221.676944
1356.097836,-9252.574275,-296.082377,1072.533697
1356.098157,-9696.697840,-148.041188,0.000000
1356.098478,-10436.903782,1406.391290,2374.896044
1356.098798,-9770.718434,2220.617826,2987.772442
1356.099119,-9104.533087,0.000000,2451.505594
1356.099440,-9474.636058,-1110.308913,1455.581446
1356.099761,-9400.615463,-1480.411884,1302.362347
1356.100081,-10658.965565,-1924.535449,2451.505594
1356.100402,-10881.027347,-1184.329507,2987.772442
1356.100723,-8808.450710,-1258.350101,2604.724693
1356.101044,-9030.512492,-2368.659014,153.219100
1356.101364,-8660.409521,-814.226536,-383.047749
1356.101685,-9770.718434,1554.432478,153.219100
1356.102006,-10732.986159,2516.700203,2604.724693
1356.102327,-9548.656652,1036.288319,2451.505594
1356.102647,-9178.553681,-148.041188,1302.362347
1356.102968,-10807.006753,-2960.823768,0.000000
1356.103289,-7994.224174,-370.102971,-229.828649
1356.103610,-10140.821405,-740.205942,1072.533697
1356.103930,-9252.574275,666.185348,2068.457845
1356.104251,-8808.450710,-666.185348,229.828649
1356.104572,-7920.203579,-1850.514855,-919.314598
1356.104893,-7476.080014,-1850.514855,-1762.019645
1356.105213,-9030.512492,0.000000,229.828649
1356.105534,-10955.047942,0.000000,1455.581446
1356.105855,-7031.956449,1480.411884,1608.800546
1356.106176,-10658.965565,-592.164754,766.095498
1356.106496,-8808.450710,-1258.350101,-612.876398
1356.106817,-9326.594869,0.000000,383.047749
1356.107138,-11547.212695,-1036.288319,0.000000
1356.107459,-9844.739029,1332.370696,76.609550
1356.107779,-10140.821405,1110.308913,0.000000
1356.108100,-9400.615463,-296.082377,-995.924147
1356.108421,-9178.553681,-666.185348,-1685.410096
1356.108742,-9548.656652,0.000000,-612.876398
1356.109062,-11103.089130,0.000000,1149.143247
1356.109383,-9622.677246,444.123565,995.924147
1356.109704,-10510.924376,-518.144159,1149.143247
1356.110025,-9030.512492,-1628.453072,1225.752797
1356.110345,-9326.594869,-296.082377,1149.143247
1356.110666,-11325.150913,-962.267725,2145.067394
1356.110987,-9622.677246,74.020594,2757.943793
1356.111308,-9548.656652,-1332.370696,1838.629195
1356.111629,-10214.842000,-2294.638420,612.876398
1356.111949,-8808.450710,-1184.329507,153.219100
1356.112270,-9178.553681,-222.061783,459.657299
1356.112591,-10066.800811,3404.947333,2451.505594
1356.112912,-11103.089130,2442.679609,2604.724693
1356.113232,-9622.677246,518.144159,1532.190996
1356.113553,-9548.656652,148.041188,1149.143247
1356.113874,-9178.553681,0.000000,1608.800546
1356.114195,-9622.677246,-1702.473667,3600.648841
1356.114515,-9474.636058,-2072.576638,4060.306139
1356.114836,-8734.430116,-3404.947333,2604.724693
1356.115157,-9474.636058,-3775.050304,995.924147
1356.115478,-7994.224174,-740.205942,1762.019645
1356.115798,-10066.800811,-740.205942,1991.848295
1356.116119,-9474.636058,74.020594,2604.724693
1356.116440,-8808.450710,-296.082377,1915.238745
1356.116761,-8808.450710,-740.205942,536.266849
1356.117081,-8808.450710,-1258.350101,-766.095498
1356.117402,-8586.388927,-518.144159,-612.876398
1356.117723,-9844.739029,222.061783,842.705048
1356.118044,-8364.327145,0.000000,229.828649
1356.118364,-8956.491898,0.000000,0.000000
1356.118685,-10362.883188,-1480.411884,995.924147
1356.119006,-9844.739029,-814.226536,842.705048
1356.119327,-11547.212695,-222.061783,2911.162892
1356.119647,-11325.150913,-1184.329507,2528.115143
1356.119968,-9252.574275,1628.453072,2145.067394
1356.120289,-10881.027347,-888.247130,1072.533697
1356.120610,-7476.080014,-370.102971,0.000000
1356.120930,-8808.450710,0.000000,-306.438199
1356.121251,-10584.944971,-1406.391290,536.266849
1356.121572,-7476.080014,888.247130,-689.485948
1356.121893,-10140.821405,-592.164754,536.266849
1356.122213,-10732.986159,-962.267725,459.657299
1356.122534,-8956.491898,1628.453072,995.924147
1356.122855,-12213.398043,0.000000,2298.286494
1356.123176,-10807.006753,1406.391290,2451.505594
1356.123496,-9918.759623,1110.308913,766.095498
1356.123817,-10732.986159,222.061783,536.266849
1356.124138,-7624.121203,1776.494261,-536.266849
1356.124459,-10140.821405,740.205942,1302.362347
1356.124779,-10584.944971,-222.061783,3294.210641
1356.125100,-9474.636058,-1184.329507,2451.505594
1356.125421,-9770.718434,-4515.256246,842.705048
1356.125742,-8660.409521,-3775.050304,-1072.533697
1356.126062,-7179.997637,-444.123565,-1225.752797
1356.126383,-9400.615463,1258.350101,306.438199
1356.126704,-8956.491898,3478.967927,306.438199
1356.127025,-9178.553681,2146.597232,919.314598
1356.127346,-9918.759623,-666.185348,-612.876398
1356.127666,-9474.636058,444.123565,153.219100
1356.127987,-10955.047942,-592.164754,3677.258390
1356.128308,-11029.068536,148.041188,3294.210641
1356.128629,-10436.903782,296.082377,3524.039291
1356.128949,-8956.491898,-2294.638420,689.485948
1356.129270,-8216.285956,-2664.741391,-842.705048
1356.129591,-9178.553681,-444.123565,-612.876398
1356.129912,-9918.759623,1036.288319,612.876398
1356.130232,-9326.594869,2220.617826,2374.896044
1356.130553,-8734.430116,148.041188,995.924147
1356.130874,-9178.553681,-2368.659014,-536.266849
1356.131195,-9696.697840,-1554.432478,536.266849
1356.131515,-10288.862594,-1258.350101,2298.286494
1356.131836,-10807.006753,296.082377,3370.820191
1356.132157,-10140.821405,592.164754,1838.629195
1356.132478,-10436.903782,-740.205942,1302.362347
1356.132798,-9918.759623,148.041188,306.438199
1356.133119,-9622.677246,1258.350101,842.705048
1356.133440,-9992.780217,0.000000,1225.752797
1356.133761,-8734.430116,74.020594,1532.190996
1356.134081,-9252.574275,-3108.864956,842.705048
1356.134402,-8882.471304,-1776.494261,-1608.800546
1356.134723,-9992.780217,74.020594,842.705048
1356.135044,-10510.924376,1184.329507,689.485948
1356.135364,-11029.068536,1332.370696,3907.087040
1356.135685,-11029.068536,-962.267725,3600.648841
1356.136006,-10658.965565,-2294.638420,2911.162892
1356.136327,-10214.842000,-2960.823768,1762.019645
1356.136647,-10066.800811,-2960.823768,536.266849
1356.136968,-9030.512492,-740.205942,766.095498
1356.137289,-8512.368333,74.020594,612.876398
1356.137610,-7105.977043,74.020594,0.000000
1356.137930,-8216.285956,-1258.350101,-612.876398
1356.138251,-7550.100608,-962.267725,-536.266849
1356.138572,-11103.089130,-962.267725,1302.362347
1356.138893,-10881.027347,222.061783,3753.867940
1356.139213,-10066.800811,-1406.391290,3830.477490
1356.139534,-10214.842000,-2516.700203,2757.943793
1356.139855,-8364.327145,-2590.720797,1302.362347
1356.140176,-8660.409521,-1998.556043,689.485948
1356.140496,-9622.677246,296.082377,2145.067394
1356.140817,-9400.615463,1184.329507,2374.896044
1356.141138,-10140.821405,-296.082377,1072.533697
1356.141459,-7994.224174,0.000000,-229.828649
1356.141779,-9326.594869,296.082377,-306.438199
1356.142100,-10140.821405,1184.329507,2528.115143
1356.142421,-10436.903782,518.144159,2834.553343
1356.142742,-9918.759623,-2072.576638,1685.410096
1356.143063,-10658.965565,-3034.844362,0.000000
1356.143383,-8882.471304,-592.164754,1225.752797
1356.143704,-10362.883188,1036.288319,1072.533697
1356.144025,-11029.068536,2886.803174,2451.505594
1356.144346,-9770.718434,2590.720797,2221.676944
1356.144666,-9474.636058,-740.205942,-306.438199
1356.144987,-9178.553681,-1258.350101,-1532.190996
1356.145308,-9252.574275,-592.164754,-689.485948
1356.145629,-11251.130318,-518.144159,2068.457845
1356.145949,-10288.862594,518.144159,3294.210641
1356.146270,-7994.224174,-1110.308913,229.828649
1356.146591,-10436.903782,-3182.885551,0.000000
1356.146912,-8290.306550,-888.247130,-1149.143247
1356.147232,-10436.903782,444.123565,153.219100
1356.147553,-10732.986159,2442.679609,1378.971896
1356.147874,-9030.512492,2146.597232,995.924147
1356.148195,-9696.697840,-148.041188,-689.485948
1356.148515,-9030.512492,0.000000,76.609550
1356.148836,-9326.594869,-370.102971,229.828649
1356.149157,-11103.089130,296.082377,2528.115143
1356.149478,-9548.656652,592.164754,2451.505594
1356.149798,-8956.491898,-1184.329507,995.924147
1356.150119,-9474.636058,-2368.659014,-306.438199
1356.150440,-7624.121203,592.164754,-383.047749
1356.150761,-8882.471304,592.164754,689.485948
1356.151081,-9178.553681,1850.514855,1915.238745
1356.151402,-9178.553681,666.185348,1838.629195
1356.151723,-9548.656652,-1258.350101,995.924147
1356.152044,-9474.636058,-1036.288319,995.924147
1356.152364,-9474.636058,740.205942,2451.505594
1356.152685,-10807.006753,-444.123565,2681.334243
1356.153006,-8586.388927,888.247130,2221.676944
1356.153327,-9770.718434,-1258.350101,1149.143247
1356.153647,-8142.265362,-1702.473667,153.219100
1356.153968,-9474.636058,-740.205942,612.876398
1356.154289,-9918.759623,74.020594,1302.362347
1356.154610,-10362.883188,1480.411884,3370.820191
1356.154930,-10362.883188,0.000000,2681.334243
1356.155251,-9622.677246,-1776.494261,1149.143247
1356.155572,-9030.512492,0.000000,0.000000
1356.155893,-10140.821405,888.247130,1532.190996
1356.156213,-10140.821405,814.226536,2298.286494
1356.156534,-9696.697840,1036.288319,2451.505594
1356.156855,-10214.842000,-2442.679609,612.876398
1356.157176,-8068.244768,-1776.494261,-689.485948
1356.157496,-9104.533087,-1184.329507,842.705048
1356.157817,-10881.027347,592.164754,1915.238745
1356.158138,-11251.130318,2294.638420,2911.162892
1356.158459,-9622.677246,592.164754,2834.553343
1356.158780,-11325.150913,-1258.350101,612.876398
1356.159100,-9178.553681,-666.185348,612.876398
1356.159421,-9844.739029,-1776.494261,459.657299
1356.159742,-9696.697840,-888.247130,919.314598
1356.160063,-7550.100608,-962.267725,-306.438199
1356.160383,-8364.327145,-1554.432478,-995.924147
1356.160704,-8882.471304,-1258.350101,-1225.752797
1356.161025,-8734.430116,-222.061783,-612.876398
1356.161346,-11325.150913,-222.061783,1149.143247
1356.161666,-10510.924376,888.247130,1762.019645
1356.161987,-10066.800811,-1110.308913,919.314598
1356.162308,-10214.842000,-1110.308913,229.828649
1356.162629,-8660.409521,222.061783,0.000000
1356.162949,-8438.347739,1258.350101,1991.848295
1356.163270,-10807.006753,1702.473667,3140.991542
1356.163591,-9252.574275,-370.102971,3370.820191
1356.163912,-10955.047942,-3997.112087,1455.581446
1356.164232,-8512.368333,-4737.318029,-2451.505594
1356.164553,-7772.162391,-2072.576638,-842.705048
1356.164874,-9622.677246,0.000000,1149.143247
1356.165195,-8438.347739,3034.844362,1532.190996
1356.165515,-8734.430116,1406.391290,383.047749
1356.165836,-8216.285956,74.020594,-1225.752797
1356.166157,-9178.553681,0.000000,0.000000
1356.166478,-11473.192101,-740.205942,1915.238745
1356.166798,-11621.233289,-444.123565,3370.820191
1356.167119,-9696.697840,-740.205942,2221.676944
1356.167440,-10436.903782,-2664.741391,1225.752797
1356.167761,-9474.636058,-2072.576638,842.705048
1356.168081,-10214.842000,-1480.411884,1378.971896
1356.168402,-10732.986159,-666.185348,2757.943793
1356.168723,-9622.677246,1332.370696,2145.067394
1356.169044,-9326.594869,-74.020594,459.657299
1356.169364,-9030.512492,592.164754,459.657299
1356.169685,-9474.636058,518.144159,1225.752797
1356.170006,-10214.842000,-370.102971,3217.601092
1356.170327,-10066.800811,-1258.350101,2604.724693
1356.170647,-9104.533087,-1998.556043,2221.676944
1356.170968,-10066.800811,-1998.556043,536.266849
1356.171289,-9178.553681,1110.308913,1915.238745
1356.171610,-9474.636058,2738.761985,1838.629195
1356.171930,-9918.759623,2886.803174,2068.457845
1356.172251,-8512.368333,2146.597232,1762.019645
1356.172572,-10066.800811,-1480.411884,766.095498
1356.172893,-8290.306550,-2294.638420,-536.266849
1356.173213,-7920.203579,-1628.453072,-536.266849
1356.173534,-9918.759623,-1184.329507,766.095498
1356.173855,-8512.368333,2294.638420,2451.505594
1356.174176,-11399.171507,222.061783,3217.601092
1356.174496,-9918.759623,-888.247130,2068.457845
1356.174817,-9252.574275,-1554.432478,1685.410096
1356.175138,-10584.944971,-2368.659014,1302.362347
1356.175458,-9474.636058,148.041188,995.924147
1356.175779,-8142.265362,888.247130,459.657299
1356.176100,-7846.182985,0.000000,0.000000
1356.176421,-6587.832884,0.000000,-1608.800546
1356.176741,-8216.285956,0.000000,-1532.190996
1356.177062,-10584.944971,296.082377,229.828649
1356.177383,-10436.903782,1850.514855,2145.067394
1356.177703,-11251.130318,-370.102971,2221.676944
1356.178024,-10658.965565,-1924.535449,536.266849
1356.178345,-8512.368333,0.000000,-153.219100
1356.178666,-10955.047942,-296.082377,306.438199
1356.178986,-9178.553681,1406.391290,919.314598
1356.179307,-9326.594869,0.000000,995.924147
1356.179628,-9474.636058,-2294.638420,-689.485948
1356.179948,-9104.533087,-518.144159,-919.314598
1356.180269,-9918.759623,-592.164754,919.314598
1356.180590,-10881.027347,-222.061783,1915.238745
1356.180910,-9252.574275,0.000000,1991.848295
1356.181231,-9918.759623,-1924.535449,842.705048
1356.181552,-10214.842000,-2072.576638,689.485948
1356.181873,-9474.636058,-888.247130,383.047749
1356.182193,-10584.944971,0.000000,766.095498
1356.182514,-9548.656652,2738.761985,2374.896044
1356.182835,-9474.636058,2368.659014,1378.971896
1356.183155,-10140.821405,444.123565,919.314598
1356.183476,-9104.533087,0.000000,995.924147
1356.183797,-9474.636058,-1998.556043,1302.362347
1356.184118,-10584.944971,-2590.720797,2221.676944
1356.184438,-10140.821405,-1184.329507,2834.553343
1356.184759,-10362.883188,-2738.761985,1608.800546
1356.185080,-8364.327145,-666.185348,612.876398
1356.185400,-8290.306550,1332.370696,76.609550
1356.185721,-10066.800811,1702.473667,2068.457845
1356.186042,-10362.883188,1554.432478,3370.820191
1356.186363,-9474.636058,-1036.288319,2068.457845
1356.186683,-8956.491898,-2960.823768,1608.800546
1356.187004,-8068.244768,-2442.679609,-229.828649
1356.187325,-8586.388927,148.041188,995.924147
1356.187645,-10732.986159,148.041188,2298.286494
1356.187966,-7105.977043,2294.638420,2374.896044
1356.188287,-9696.697840,-962.267725,1149.143247
1356.188608,-8512.368333,-296.082377,306.438199
1356.188928,-9622.677246,-740.205942,1991.848295
1356.189249,-10288.862594,-814.226536,1915.238745
1356.189570,-8734.430116,-222.061783,2757.943793
1356.189890,-9918.759623,-1480.411884,1838.629195
1356.190211,-7846.182985,-1184.329507,842.705048
1356.190532,-9474.636058,-1850.514855,766.095498
1356.190853,-9696.697840,-1554.432478,-306.438199
1356.191173,-8882.471304,592.164754,1838.629195
1356.191494,-9548.656652,962.267725,1225.752797
1356.191815,-10214.842000,0.000000,1455.581446
1356.192135,-9622.677246,-1036.288319,-306.438199
1356.192456,-8956.491898,-518.144159,-383.047749
1356.192777,-9918.759623,-444.123565,76.609550
1356.193098,-10214.842000,444.123565,2068.457845
1356.193418,-10288.862594,-1406.391290,1225.752797
1356.193739,-10288.862594,-962.267725,-1149.143247
1356.194060,-8660.409521,1628.453072,-306.438199
1356.194380,-10584.944971,74.020594,612.876398
1356.194701,-9326.594869,814.226536,1838.629195
1356.195022,-9548.656652,-1036.288319,459.657299
1356.195343,-9400.615463,-1332.370696,-536.266849
1356.195663,-8956.491898,-370.102971,-1608.800546
1356.195984,-9104.533087,296.082377,-76.609550
1356.196305,-11251.130318,1554.432478,1685.410096
1356.196625,-10658.965565,2294.638420,2834.553343
1356.196946,-10807.006753,-666.185348,2528.115143
1356.197267,-9548.656652,-1850.514855,229.828649
1356.197588,-9252.574275,-518.144159,-153.219100
1356.197908,-10510.924376,-296.082377,76.609550
1356.198229,-9622.677246,1258.350101,1838.629195
1356.198550,-8364.327145,0.000000,306.438199
1356.198870,-8660.409521,-2516.700203,-766.095498
1356.199191,-6735.874072,0.000000,-536.266849
1356.199512,-11251.130318,-1258.350101,1608.800546
1356.199832,-10955.047942,666.185348,3907.087040
1356.200153,-9548.656652,222.061783,3064.381992
1356.200474,-9400.615463,-1998.556043,1532.190996
1356.200795,-9030.512492,-1924.535449,153.219100
1356.201115,-9030.512492,-1332.370696,153.219100
1356.201436,-9104.533087,0.000000,995.924147
1356.201757,-8734.430116,4145.153275,2681.334243
1356.202077,-11029.068536,0.000000,2528.115143
1356.202398,-9548.656652,-1628.453072,3447.429741
1356.202719,-10732.986159,-3849.070898,1608.800546
1356.203040,-9918.759623,-2886.803174,1608.800546
1356.203360,-8438.347739,-814.226536,-153.219100
1356.203681,-9474.636058,1406.391290,2145.067394
1356.204002,-7846.182985,888.247130,0.000000
1356.204322,-8364.327145,518.144159,-1838.629195
1356.204643,-8142.265362,1110.308913,0.000000
1356.204964,-10066.800811,740.205942,229.828649
1356.205285,-12139.377449,1628.453072,3370.820191
1356.205605,-11991.336260,-814.226536,3983.696590
1356.205926,-9548.656652,-2368.659014,1685.410096
1356.206247,-9474.636058,-2146.597232,1685.410096
1356.206567,-9474.636058,-1258.350101,1225.752797
1356.206888,-9992.780217,888.247130,2681.334243
1356.207209,-10066.800811,148.041188,1302.362347
1356.207530,-8586.388927,-888.247130,-842.705048
1356.207850,-7698.141797,370.102971,-1991.848295
1356.208171,-9326.594869,0.000000,-229.828649
1356.208492,-11177.109724,518.144159,2604.724693
1356.208812,-9844.739029,444.123565,3370.820191
1356.209133,-9474.636058,-3330.926739,1762.019645
1356.209454,-9992.780217,-3923.091493,229.828649
1356.209775,-9326.594869,-962.267725,-153.219100
1356.210095,-10881.027347,444.123565,1378.971896
1356.210416,-9400.615463,3182.885551,1685.410096
1356.210737,-8882.471304,1628.453072,0.000000
1356.211057,-9178.553681,-592.164754,-1302.362347
1356.211378,-7920.203579,0.000000,-1378.971896
1356.211699,-9992.780217,-1702.473667,-459.657299
1356.212020,-9844.739029,-592.164754,1072.533697
1356.212340,-8808.450710,666.185348,229.828649
1356.212661,-10658.965565,-222.061783,0.000000
1356.212982,-9400.615463,814.226536,919.314598
1356.213302,-9770.718434,666.185348,1225.752797
1356.213623,-10807.006753,0.000000,1762.019645
1356.213944,-9844.739029,0.000000,1378.971896
1356.214265,-9326.594869,-888.247130,766.095498
1356.214585,-8882.471304,-1924.535449,-459.657299
1356.214906,-8142.265362,518.144159,-306.438199
1356.215227,-8660.409521,444.123565,536.266849
1356.215547,-10362.883188,74.020594,1455.581446
1356.215868,-9030.512492,222.061783,1608.800546
1356.216189,-10955.047942,-2664.741391,1225.752797
1356.216510,-9844.739029,-2294.638420,1149.143247
1356.216830,-9770.718434,-740.205942,1762.019645
1356.217151,-10066.800811,-222.061783,1838.629195
1356.217472,-9326.594869,1406.391290,1838.629195
1356.217792,-9030.512492,-518.144159,1378.971896
1356.218113,-9622.677246,-1924.535449,612.876398
1356.218434,-9474.636058,0.000000,1225.752797
1356.218754,-10362.883188,0.000000,2451.505594
1356.219075,-11177.109724,962.267725,2987.772442
1356.219396,-9548.656652,0.000000,2987.772442
1356.219717,-9622.677246,-3034.844362,1302.362347
1356.220037,-8734.430116,-2960.823768,0.000000
1356.220358,-8586.388927,-814.226536,-229.828649
1356.220679,-10436.903782,666.185348,2298.286494
1356.220999,-9844.739029,2294.638420,2681.334243
1356.221320,-9696.697840,444.123565,2068.457845
1356.221641,-9548.656652,-1628.453072,459.657299
1356.221962,-8512.368333,-222.061783,306.438199
1356.222282,-10584.944971,-1332.370696,1225.752797
1356.222603,-9844.739029,518.144159,3524.039291
1356.222924,-10881.027347,-2146.597232,3140.991542
1356.223244,-9400.615463,-2590.720797,1072.533697
1356.223565,-8956.491898,-1702.473667,-306.438199
1356.223886,-7994.224174,1628.453072,229.828649
1356.224207,-10807.006753,740.205942,2528.115143
1356.224527,-8586.388927,2220.617826,3447.429741
1356.224848,-9178.553681,-296.082377,1072.533697
1356.225169,-8882.471304,-1628.453072,-459.657299
1356.225489,-9178.553681,-370.102971,153.219100
1356.225810,-10807.006753,-1998.556043,1149.143247
1356.226131,-9104.533087,666.185348,1302.362347
1356.226452,-9844.739029,1036.288319,1608.800546
1356.226772,-10066.800811,-1184.329507,612.876398
1356.227093,-8882.471304,-518.144159,76.609550
1356.227414,-10584.944971,-666.185348,153.219100
1356.227734,-10436.903782,0.000000,1455.581446
1356.228055,-10140.821405,370.102971,2681.334243
1356.228376,-9622.677246,-2368.659014,919.314598
1356.228697,-8438.347739,-2516.700203,-2145.067394
1356.229017,-8734.430116,0.000000,-1378.971896
1356.229338,-10362.883188,1850.514855,919.314598
1356.229659,-10362.883188,2738.761985,1762.019645
1356.229979,-9252.574275,1258.350101,995.924147
1356.230300,-9696.697840,-962.267725,-1225.752797
1356.230621,-9030.512492,-740.205942,-1302.362347
1356.230942,-9918.759623,-592.164754,459.657299
1356.231262,-10214.842000,888.247130,1149.143247
1356.231583,-9400.615463,2368.659014,1838.629195
1356.231904,-10362.883188,-444.123565,459.657299
1356.232224,-8808.450710,814.226536,-229.828649
1356.232545,-9400.615463,1036.288319,612.876398
1356.232866,-11547.212695,370.102971,1762.019645
1356.233187,-9548.656652,1184.329507,3294.210641
1356.233507,-9474.636058,-1924.535449,1762.019645
1356.233828,-8734.430116,-3775.050304,-153.219100
1356.234149,-7624.121203,-2146.597232,-612.876398
1356.234469,-10066.800811,-740.205942,1072.533697
1356.234790,-10658.965565,2368.659014,2681.334243
1356.235111,-9622.677246,2294.638420,2834.553343
1356.235432,-9548.656652,-1258.350101,1838.629195
1356.235752,-9030.512492,-1480.411884,1685.410096
1356.236073,-9770.718434,-1406.391290,536.266849
1356.236394,-10955.047942,-2146.597232,2834.553343
1356.236714,-8660.409521,0.000000,2604.724693
1356.237035,-9030.512492,-1850.514855,2834.553343
1356.237356,-9104.533087,-1554.432478,0.000000
1356.237676,-8512.368333,0.000000,-306.438199
1356.237997,-9622.677246,888.247130,153.219100
1356.238318,-10288.862594,2072.576638,3217.601092
1356.238639,-10584.944971,-814.226536,2604.724693
1356.238959,-10140.821405,-2886.803174,2374.896044
1356.239280,-10140.821405,-2590.720797,919.314598
1356.239601,-9474.636058,518.144159,2145.067394
1356.239921,-10881.027347,-296.082377,2221.676944
1356.240242,-9326.594869,3034.844362,2451.505594
1356.240563,-8142.265362,2368.659014,766.095498
1356.240884,-10807.006753,-740.205942,1532.190996
1356.241204,-7772.162391,-1110.308913,2834.553343
1356.241525,-9548.656652,-3552.988522,1149.143247
1356.241846,-10955.047942,-1628.453072,2145.067394
1356.242166,-8734.430116,-296.082377,2451.505594
1356.242487,-8882.471304,-2146.597232,153.219100
1356.242808,-7772.162391,148.041188,766.095498
1356.243129,-8068.244768,-222.061783,-1762.019645
1356.243449,-10140.821405,74.020594,0.000000
1356.243770,-8512.368333,888.247130,995.924147
1356.244091,-8956.491898,-2072.576638,1225.752797
1356.244411,-9844.739029,-2146.597232,1762.019645
1356.244732,-10066.800811,-1924.535449,1378.971896
1356.245053,-9770.718434,-1702.473667,2221.676944
1356.245374,-10807.006753,-962.267725,3524.039291
1356.245694,-9252.574275,-148.041188,2068.457845
1356.246015,-10881.027347,-1554.432478,229.828649
1356.246336,-8068.244768,666.185348,-1762.019645
1356.246656,-9178.553681,1184.329507,-1378.971896
1356.246977,-9178.553681,1850.514855,229.828649
1356.247298,-9474.636058,222.061783,766.095498
1356.247619,-10436.903782,-2368.659014,689.485948
1356.247939,-9400.615463,-2442.679609,-306.438199
1356.248260,-10066.800811,-1110.308913,-459.657299
1356.248581,-11325.150913,222.061783,1455.581446
1356.248901,-11029.068536,2072.576638,2068.457845
1356.249222,-9992.780217,2220.617826,1762.019645
1356.249543,-8216.285956,74.020594,689.485948
1356.249864,-8290.306550,-148.041188,-1072.533697
1356.250184,-9770.718434,-888.247130,-153.219100
1356.250505,-11103.089130,-592.164754,1838.629195
1356.250826,-9474.636058,518.144159,2604.724693
1356.251146,-10584.944971,-2220.617826,1685.410096
1356.251467,-9918.759623,-962.267725,689.485948
1356.251788,-9178.553681,296.082377,1532.190996
1356.252109,-10140.821405,-592.164754,1685.410096
1356.252429,-8882.471304,1850.514855,2221.676944
1356.252750,-8142.265362,148.041188,-1072.533697
1356.253071,-6661.853478,-592.164754,-3524.039291
1356.253391,-6883.915261,2220.617826,-2528.115143
1356.253712,-7994.224174,1998.556043,536.266849
1356.254033,-10658.965565,1998.556043,4213.525239
1356.254354,-11769.274478,148.041188,5056.230287
1356.254674,-11473.192101,-3997.112087,4366.744339
1356.254995,-10584.944971,-4145.153275,2911.162892
1356.255316,-10955.047942,-1998.556043,2221.676944
1356.255636,-9918.759623,1702.473667,2298.286494
1356.255957,-9178.553681,3330.926739,1455.581446
1356.256278,-6217.729913,1184.329507,-689.485948
1356.256598,-7328.038826,-1850.514855,-2757.943793
1356.256919,-7920.203579,-888.247130,-1302.362347
1356.257240,-10510.924376,-1184.329507,919.314598
1356.257561,-9696.697840,740.205942,3600.648841
1356.257881,-10510.924376,-1258.350101,5286.058936
1356.258202,-9474.636058,-814.226536,3140.991542
1356.258523,-10288.862594,-518.144159,2681.334243
1356.258843,-10362.883188,-962.267725,2374.896044
1356.259164,-9178.553681,518.144159,1302.362347
1356.259485,-9326.594869,814.226536,1072.533697
1356.259806,-8956.491898,74.020594,229.828649
1356.260126,-9178.553681,0.000000,-689.485948
1356.260447,-8142.265362,592.164754,459.657299
1356.260768,-10362.883188,-592.164754,536.266849
1356.261088,-9770.718434,518.144159,2374.896044
1356.261409,-11251.130318,-1406.391290,3217.601092
1356.261730,-11769.274478,-2072.576638,2374.896044
1356.262051,-10732.986159,0.000000,1225.752797
1356.262371,-9918.759623,0.000000,612.876398
1356.262692,-10214.842000,1332.370696,1225.752797
1356.263013,-9030.512492,1776.494261,1225.752797
1356.263333,-9622.677246,-1702.473667,459.657299
1356.263654,-8068.244768,-2738.761985,-2374.896044
1356.263975,-7846.182985,-666.185348,-2145.067394
1356.264296,-11473.192101,0.000000,612.876398
1356.264616,-9770.718434,2368.659014,2451.505594
1356.264937,-10807.006753,962.267725,2834.553343
1356.265258,-10807.006753,-1554.432478,229.828649
1356.265578,-8734.430116,-814.226536,-1608.800546
1356.265899,-10807.006753,-1628.453072,-306.438199
1356.266220,-9918.759623,-296.082377,995.924147
1356.266541,-8808.450710,0.000000,1532.190996
1356.266861,-9622.677246,-1554.432478,1302.362347
1356.267182,-8438.347739,-2294.638420,-612.876398
1356.267503,-7846.182985,-592.164754,-766.095498
1356.267823,-11029.068536,148.041188,1838.629195
1356.268144,-8882.471304,2516.700203,2987.772442
1356.268465,-9548.656652,-814.226536,1838.629195
1356.268786,-9252.574275,-3182.885551,229.828649
1356.269106,-7105.977043,-2072.576638,-689.485948
1356.269427,-9918.759623,-1480.411884,536.266849
1356.269748,-9992.780217,518.144159,3294.210641
1356.270068,-9400.615463,888.247130,2757.943793
1356.270389,-9770.718434,-1776.494261,1915.238745
1356.270710,-8142.265362,0.000000,0.000000
1356.271031,-9696.697840,-148.041188,1608.800546
1356.271351,-10955.047942,148.041188,4136.915689
1356.271672,-9844.739029,-296.082377,2987.772442
1356.271993,-9104.533087,-2516.700203,1685.410096
1356.272313,-9326.594869,-3034.844362,-459.657299
1356.272634,-9252.574275,-814.226536,842.705048
1356.272955,-10066.800811,0.000000,1915.238745
1356.273275,-10066.800811,1702.473667,3140.991542
1356.273596,-9918.759623,148.041188,2221.676944
1356.273917,-9326.594869,-1702.473667,459.657299
1356.274237,-9918.759623,-1628.453072,919.314598
1356.274558,-11251.130318,0.000000,1149.143247
1356.274879,-10436.903782,1258.350101,2757.943793
1356.275199,-9992.780217,962.267725,2298.286494
1356.275520,-8586.388927,74.020594,612.876398
1356.275841,-9696.697840,-962.267725,0.000000
1356.276161,-8956.491898,592.164754,383.047749
1356.276482,-10288.862594,444.123565,1455.581446
1356.276803,-10436.903782,1258.350101,3217.601092
1356.277123,-10955.047942,-1036.288319,3830.477490
1356.277444,-10732.986159,-3849.070898,2145.067394
1356.277765,-8808.450710,-1850.514855,2298.286494
1356.278085,-11251.130318,-1036.288319,1762.019645
1356.278406,-9104.533087,1036.288319,2604.724693
1356.278726,-7920.203579,0.000000,1685.410096
1356.279047,-8734.430116,0.000000,-766.095498
1356.279368,-7179.997637,-296.082377,-2757.943793
1356.279688,-9178.553681,444.123565,-383.047749
1356.280009,-9252.574275,1184.329507,1762.019645
1356.280330,-10510.924376,0.000000,2757.943793
1356.280650,-11103.089130,-1258.350101,3064.381992
1356.280971,-10288.862594,-3108.864956,1532.190996
1356.281292,-9696.697840,-1554.432478,-612.876398
1356.281612,-9474.636058,1036.288319,153.219100
1356.281933,-8216.285956,1924.535449,-995.924147
1356.282254,-7254.018232,2960.823768,-1072.533697
1356.282574,-8660.409521,-740.205942,-2451.505594
1356.282895,-6883.915261,-1628.453072,-3524.039291
1356.283216,-9104.533087,-1258.350101,-1838.629195
1356.283536,-12139.377449,-444.123565,919.314598
1356.283857,-10955.047942,2442.679609,3677.258390
1356.284178,-11621.233289,1036.288319,3370.820191
1356.284498,-9918.759623,0.000000,1608.800546
1356.284819,-10288.862594,444.123565,689.485948
1356.285140,-10584.944971,-296.082377,689.485948
1356.285460,-9474.636058,888.247130,1072.533697
1356.285781,-7698.141797,-666.185348,-842.705048
1356.286102,-8586.388927,-1924.535449,-1915.238745
1356.286422,-8956.491898,-814.226536,-1302.362347
1356.286743,-9474.636058,814.226536,919.314598
1356.287064,-11991.336260,1998.556043,3447.429741
1356.287384,-11251.130318,1998.556043,4519.963438
1356.287705,-10807.006753,-1258.350101,3064.381992
1356.288026,-11399.171507,-1850.514855,1225.752797
1356.288346,-8660.409521,1258.350101,2681.334243
1356.288667,-10732.986159,296.082377,2987.772442
1356.288988,-9622.677246,962.267725,3217.601092
1356.289308,-8734.430116,-1110.308913,1685.410096
1356.289629,-9326.594869,-2664.741391,-306.438199
1356.289950,-8882.471304,-1258.350101,76.609550
1356.290270,-9622.677246,-962.267725,1532.190996
1356.290591,-10362.883188,-222.061783,2757.943793
1356.290911,-8956.491898,370.102971,1378.971896
1356.291232,-8882.471304,-148.041188,612.876398
1356.291553,-7698.141797,-1184.329507,-1378.971896
1356.291873,-7550.100608,-740.205942,-766.095498
1356.292194,-9252.574275,-814.226536,842.705048
1356.292515,-9548.656652,1036.288319,3064.381992
1356.292835,-11325.150913,-1406.391290,3830.477490
1356.293156,-10658.965565,-2812.782580,3600.648841
1356.293477,-10584.944971,-3849.070898,3064.381992
1356.293797,-9474.636058,-1554.432478,2374.896044
1356.294118,-10658.965565,-296.082377,3217.601092
1356.294439,-8216.285956,1110.308913,1072.533697
1356.294759,-8290.306550,444.123565,612.876398
1356.295080,-7772.162391,0.000000,-1072.533697
1356.295401,-8364.327145,1036.288319,-766.095498
1356.295721,-10658.965565,-592.164754,1608.800546
1356.296042,-10214.842000,-888.247130,2911.162892
1356.296363,-9474.636058,-2738.761985,2145.067394
1356.296683,-11029.068536,-3627.009116,2451.505594
1356.297004,-9326.594869,-296.082377,766.095498
1356.297325,-10881.027347,814.226536,919.314598
1356.297645,-11325.150913,2516.700203,2604.724693
1356.297966,-9474.636058,1554.432478,842.705048
1356.298287,-9918.759623,-1776.494261,-536.266849
1356.298607,-8586.388927,-1776.494261,-1915.238745
1356.298928,-9474.636058,-740.205942,-383.047749
1356.299249,-10658.965565,-1850.514855,1225.752797
1356.299569,-9474.636058,0.000000,612.876398
1356.299890,-9844.739029,0.000000,-229.828649
1356.300211,-10658.965565,-444.123565,-612.876398
1356.300531,-9326.594869,1258.350101,-612.876398
1356.300852,-11399.171507,1258.350101,-306.438199
1356.301173,-10066.800811,2590.720797,383.047749
1356.301493,-9548.656652,1258.350101,0.000000
1356.301814,-9252.574275,-814.226536,0.000000
1356.302135,-8512.368333,-740.205942,-1149.143247
1356.302455,-9992.780217,370.102971,536.266849
1356.302776,-10510.924376,370.102971,2298.286494
1356.303096,-9400.615463,1036.288319,2298.286494
1356.303417,-10066.800811,-1036.288319,1072.533697
1356.303738,-9474.636058,-1332.370696,383.047749
1356.304058,-8808.450710,0.000000,766.095498
1356.304379,-9474.636058,-370.102971,1225.752797
1356.304700,-9474.636058,1110.308913,2681.334243
1356.305020,-9992.780217,-962.267725,5975.544884
1356.305341,-8660.409521,-3552.988522,1378.971896
1356.305662,-7920.203579,-2220.617826,766.095498
1356.305982,-9844.739029,-1110.308913,1685.410096
1356.306303,-9696.697840,296.082377,3830.477490
1356.306624,-9474.636058,888.247130,3447.429741
1356.306944,-9770.718434,-1924.535449,1608.800546
1356.307265,-8364.327145,-2294.638420,229.828649
1356.307586,-9474.636058,-1480.411884,459.657299
1356.307906,-9326.594869,-962.267725,1838.629195
1356.308227,-10140.821405,592.164754,3064.381992
1356.308548,-9030.512492,-740.205942,2757.943793
1356.308868,-9622.677246,-2664.741391,229.828649
1356.309189,-8586.388927,-296.082377,0.000000
1356.309510,-10955.047942,592.164754,1532.190996
1356.309830,-10362.883188,2146.597232,3140.991542
1356.310151,-10066.800811,1924.535449,2987.772442
1356.310472,-10288.862594,-1554.432478,536.266849
1356.310792,-8364.327145,-1406.391290,-842.705048
1356.311113,-9326.594869,-518.144159,-306.438199
1356.311434,-10510.924376,1110.308913,1072.533697
1356.311754,-9474.636058,2368.659014,2221.676944
1356.312075,-9844.739029,518.144159,1532.190996
1356.312396,-9918.759623,-1554.432478,76.609550
1356.312716,-8216.285956,-814.226536,-689.485948
1356.313037,-10288.862594,-962.267725,1532.190996
1356.313358,-10955.047942,-888.247130,2298.286494
1356.313678,-8734.430116,-222.061783,1838.629195
1356.313999,-10140.821405,-1924.535449,0.000000
1356.314320,-8438.347739,-1184.329507,76.609550
1356.314640,-9326.594869,-1628.453072,-689.485948
1356.314961,-10140.821405,296.082377,1838.629195
1356.315281,-10288.862594,1702.473667,1225.752797
1356.315602,-10436.903782,74.020594,1149.143247
1356.315923,-9844.739029,-2590.720797,842.705048
1356.316243,-9252.574275,-1184.329507,-1302.362347
1356.316564,-10658.965565,666.185348,459.657299
1356.316885,-10881.027347,1480.411884,1991.848295
1356.317205,-7920.203579,296.082377,1685.410096
1356.317526,-9178.553681,-4441.235652,-1608.800546
1356.317847,-8068.244768,-1998.556043,-2068.457845
1356.318167,-8068.244768,-148.041188,-1378.971896
1356.318488,-10658.965565,1406.391290,842.705048
1356.318809,-9918.759623,2072.576638,2451.505594
1356.319129,-9178.553681,1702.473667,1225.752797
1356.319450,-10807.006753,-444.123565,2145.067394
1356.319771,-9104.533087,-740.205942,2145.067394
1356.320091,-11547.212695,-1332.370696,2757.943793
1356.320412,-10658.965565,-592.164754,1072.533697
1356.320733,-7179.997637,518.144159,0.000000
1356.321053,-7846.182985,-592.164754,-1838.629195
1356.321374,-7328.038826,888.247130,459.657299
1356.321695,-7254.018232,-1480.411884,-306.438199
1356.322015,-10066.800811,-370.102971,612.876398
1356.322336,-10510.924376,444.123565,2451.505594
1356.322657,-11177.109724,518.144159,2911.162892
1356.322977,-12139.377449,814.226536,2604.724693
1356.323298,-10732.986159,592.164754,4136.915689
1356.323619,-9770.718434,-740.205942,2451.505594
1356.323939,-9622.677246,222.061783,1378.971896
1356.324260,-10140.821405,-740.205942,1455.581446
1356.324581,-8216.285956,-1998.556043,0.000000
1356.324901,-8290.306550,-1924.535449,-995.924147
1356.325222,-8216.285956,-370.102971,-459.657299
1356.325543,-9770.718434,1628.453072,1149.143247
1356.325863,-11177.109724,1628.453072,2604.724693
1356.326184,-10288.862594,-962.267725,3140.991542
1356.326505,-9696.697840,-2368.659014,1455.581446
1356.326825,-9992.780217,-1628.453072,1225.752797
1356.327146,-10066.800811,-1258.350101,4519.963438
1356.327466,-10066.800811,296.082377,2911.162892
1356.327787,-8216.285956,1332.370696,2681.334243
1356.328108,-10140.821405,-2368.659014,-383.047749
1356.328428,-6809.894666,1258.350101,-689.485948
1356.328749,-9992.780217,222.061783,1532.190996
1356.329070,-9992.780217,-1036.288319,1762.019645
1356.329390,-9178.553681,0.000000,2528.115143
1356.329711,-10436.903782,-2812.782580,0.000000
1356.330032,-6217.729913,814.226536,-995.924147
1356.330352,-10066.800811,740.205942,612.876398
1356.330673,-10658.965565,1406.391290,3140.991542
1356.330994,-9178.553681,1332.370696,2681.334243
1356.331314,-9844.739029,-444.123565,1685.410096
1356.331635,-9474.636058,-2072.576638,383.047749
1356.331956,-9696.697840,-740.205942,0.000000
1356.332276,-10140.821405,-518.144159,1072.533697
1356.332597,-8364.327145,1258.350101,-995.924147
1356.332918,-8438.347739,2072.576638,0.000000
1356.333238,-9474.636058,-518.144159,153.219100
1356.333559,-10066.800811,-370.102971,1149.143247
1356.333880,-11177.109724,-1850.514855,2451.505594
1356.334200,-11769.274478,-2368.659014,2681.334243
1356.334521,-9992.780217,962.267725,2681.334243
1356.334842,-10955.047942,-2072.576638,919.314598
1356.335162,-8586.388927,-296.082377,-229.828649
1356.335483,-7254.018232,740.205942,-919.314598
1356.335804,-9104.533087,740.205942,-1915.238745
1356.336124,-10140.821405,2072.576638,-306.438199
1356.336445,-9474.636058,1110.308913,536.266849
1356.336766,-10436.903782,-1850.514855,229.828649
1356.337086,-9326.594869,-962.267725,0.000000
1356.337407,-9548.656652,-592.164754,612.876398
1356.337728,-11103.089130,222.061783,2681.334243
1356.338048,-10288.862594,1628.453072,3753.867940
1356.338369,-10732.986159,-2220.617826,2298.286494
1356.338690,-8734.430116,-2442.679609,306.438199
1356.339010,-7994.224174,-666.185348,-995.924147
1356.339331,-10066.800811,1110.308913,995.924147
1356.339651,-8586.388927,2738.761985,2451.505594
1356.339972,-8438.347739,592.164754,1838.629195
1356.340293,-9474.636058,-1850.514855,459.657299
1356.340613,-8734.430116,-1480.411884,0.000000
1356.340934,-10436.903782,-1554.432478,2298.286494
1356.341255,-10288.862594,-1628.453072,2757.943793
1356.341575,-9252.574275,592.164754,2681.334243
1356.341896,-10066.800811,-962.267725,1302.362347
1356.342217,-7994.224174,-592.164754,229.828649
1356.342537,-9400.615463,0.000000,153.219100
1356.342858,-10066.800811,518.144159,1608.800546
1356.343179,-10214.842000,222.061783,2604.724693
1356.343499,-10066.800811,-740.205942,1532.190996
1356.343820,-9400.615463,-2664.741391,995.924147
1356.344141,-8660.409521,-1628.453072,306.438199
1356.344461,-10955.047942,-1110.308913,1608.800546
1356.344782,-9252.574275,814.226536,2068.457845
1356.345103,-10140.821405,-370.102971,2834.553343
1356.345423,-9474.636058,-1702.473667,229.828649
1356.345744,-9178.553681,-962.267725,-612.876398
1356.346065,-9400.615463,74.020594,842.705048
1356.346385,-10807.006753,1036.288319,1991.848295
1356.346706,-10140.821405,2220.617826,2374.896044
1356.347027,-9918.759623,-962.267725,2145.067394
1356.347347,-8882.471304,-1850.514855,689.485948
1356.347668,-9548.656652,-1258.350101,919.314598
1356.347989,-10955.047942,-1480.411884,1838.629195
1356.348309,-8734.430116,888.247130,2145.067394
1356.348630,-9400.615463,-222.061783,1991.848295
1356.348951,-9696.697840,-2072.576638,1378.971896
1356.349271,-8290.306550,-1184.329507,0.000000
1356.349592,-9474.636058,0.000000,842.705048
1356.349913,-10732.986159,148.041188,1455.581446
1356.350233,-8734.430116,2368.659014,2987.772442
1356.350554,-10362.883188,-962.267725,1838.629195
1356.350875,-8882.471304,-1924.535449,0.000000
1356.351195,-8512.368333,-814.226536,-536.266849
1356.351516,-10066.800811,-1110.308913,-306.438199
1356.351836,-9400.615463,740.205942,306.438199
1356.352157,-9696.697840,296.082377,766.095498
1356.352478,-9918.759623,-962.267725,306.438199
1356.352798,-8438.347739,-1036.288319,-1302.362347
1356.353119,-9474.636058,0.000000,-153.219100
1356.353440,-10066.800811,-148.041188,0.000000
1356.353760,-9918.759623,1628.453072,1762.019645
1356.354081,-10658.965565,-888.247130,1302.362347
1356.354402,-7846.182985,-1258.350101,-995.924147
1356.354722,-7920.203579,0.000000,-766.095498
1356.355043,-10584.944971,-444.123565,536.266849
1356.355364,-9696.697840,518.144159,1532.190996
1356.355684,-8512.368333,222.061783,1455.581446
1356.356005,-10288.862594,-2960.823768,459.657299
1356.356326,-8068.244768,-1036.288319,1455.581446
1356.356646,-11473.192101,-1036.288319,1455.581446
1356.356967,-10584.944971,1184.329507,2757.943793
1356.357288,-10510.924376,1480.411884,3064.381992
1356.357608,-8956.491898,-2220.617826,2451.505594
1356.357929,-8660.409521,-1702.473667,-229.828649
1356.358250,-8882.471304,-148.041188,536.266849
1356.358570,-11029.068536,-148.041188,2681.334243
1356.358891,-10288.862594,296.082377,4903.011187
1356.359212,-10584.944971,-1406.391290,3140.991542
1356.359532,-10362.883188,-3330.926739,229.828649
1356.359853,-8586.388927,-592.164754,229.828649
1356.360174,-8290.306550,148.041188,0.000000
1356.360494,-8808.450710,2368.659014,0.000000
1356.360815,-8808.450710,2516.700203,766.095498
1356.361136,-7846.182985,-370.102971,-766.095498
1356.361456,-8586.388927,-1554.432478,-1455.581446
1356.361777,-10732.986159,-1036.288319,766.095498
1356.362098,-11251.130318,-148.041188,2911.162892
1356.362418,-10955.047942,296.082377,3524.039291
1356.362739,-10955.047942,-148.041188,2451.505594
1356.363060,-9622.677246,-962.267725,1915.238745
1356.363380,-10362.883188,-1258.350101,229.828649
1356.363701,-9400.615463,1406.391290,2374.896044
1356.364022,-10436.903782,-592.164754,995.924147
1356.364342,-6365.771101,2294.638420,76.609550
1356.364663,-10140.821405,-1702.473667,536.266849
1356.364983,-7254.018232,-666.185348,-689.485948
1356.365304,-9400.615463,296.082377,1991.848295
1356.365625,-11029.068536,-1110.308913,2451.505594
1356.365945,-9104.533087,1184.329507,1608.800546
1356.366266,-11917.315666,-2072.576638,1378.971896
1356.366587,-9918.759623,-592.164754,1762.019645
1356.366907,-9474.636058,1480.411884,1302.362347
1356.367228,-12361.439231,518.144159,2528.115143
1356.367549,-8438.347739,1480.411884,842.705048
1356.367869,-8956.491898,-444.123565,-842.705048
1356.368190,-9252.574275,-2368.659014,-1302.362347
1356.368511,-7105.977043,-444.123565,-2374.896044
1356.368831,-10288.862594,0.000000,459.657299
1356.369152,-9326.594869,666.185348,842.705048
1356.369473,-9326.594869,2664.741391,1762.019645
1356.369793,-12139.377449,-1406.391290,2221.676944
1356.370114,-10732.986159,-1998.556043,1685.410096
1356.370435,-9770.718434,-814.226536,689.485948
1356.370755,-9992.780217,-666.185348,-306.438199
1356.371076,-7772.162391,1258.350101,-766.095498
1356.371397,-7994.224174,1332.370696,536.266849
1356.371717,-7476.080014,-518.144159,-1762.019645
1356.372038,-7550.100608,148.041188,-1378.971896
1356.372359,-10584.944971,-518.144159,1532.190996
1356.372679,-11917.315666,-1332.370696,3600.648841
1356.373000,-11473.192101,-1184.329507,4519.963438
1356.373321,-11547.212695,-2960.823768,4136.915689
1356.373642,-9474.636058,-2220.617826,1762.019645
1356.373962,-7994.224174,222.061783,1455.581446
1356.374283,-8142.265362,-592.164754,153.219100
1356.374604,-7031.956449,1850.514855,919.314598
1356.374924,-8438.347739,74.020594,306.438199
1356.375245,-9178.553681,-888.247130,0.000000
1356.375566,-8734.430116,-370.102971,383.047749
1356.375886,-10066.800811,-962.267725,2604.724693
1356.376207,-11029.068536,-1036.288319,3677.258390
1356.376528,-10288.862594,-888.247130,3677.258390
1356.376848,-11103.089130,-2886.803174,2987.772442
1356.377169,-9548.656652,-2294.638420,1225.752797
1356.377490,-10288.862594,-740.205942,1225.752797
1356.377811,-10362.883188,666.185348,1838.629195
1356.378131,-9474.636058,2294.638420,1455.581446
1356.378452,-9030.512492,962.267725,536.266849
1356.378773,-9770.718434,-1258.350101,-229.828649
1356.379093,-9252.574275,-592.164754,689.485948
1356.379414,-11843.295072,-2368.659014,1915.238745
1356.379735,-10584.944971,-1406.391290,2451.505594
1356.380055,-9918.759623,-370.102971,1608.800546
1356.380376,-9918.759623,-740.205942,536.266849
1356.380697,-8734.430116,1702.473667,0.000000
1356.381018,-9474.636058,2368.659014,229.828649
1356.381338,-9474.636058,2072.576638,1685.410096
1356.381659,-9548.656652,370.102971,1762.019645
1356.381980,-9400.615463,-2368.659014,1455.581446
1356.382300,-9622.677246,-3997.112087,536.266849
1356.382621,-8882.471304,-1110.308913,1072.533697
1356.382942,-10658.965565,-296.082377,2451.505594
1356.383262,-8808.450710,1554.432478,2068.457845
1356.383583,-9844.739029,-444.123565,1838.629195
1356.383904,-10066.800811,-2664.741391,-383.047749
1356.384224,-7846.182985,0.000000,-1608.800546
1356.384545,-9326.594869,592.164754,536.266849
1356.384866,-10140.821405,740.205942,766.095498
1356.385187,-8512.368333,2146.597232,2451.505594
1356.385507,-9622.677246,-1332.370696,1302.362347
1356.385828,-7920.203579,-1406.391290,-1225.752797
1356.386149,-9622.677246,-592.164754,459.657299
1356.386469,-10436.903782,0.000000,1378.971896
1356.386790,-8660.409521,2590.720797,1532.190996
1356.387111,-9770.718434,740.205942,1455.581446
1356.387431,-8660.409521,-1998.556043,-612.876398
1356.387752,-7994.224174,-1332.370696,-2374.896044
1356.388073,-9474.636058,0.000000,-1532.190996
1356.388394,-10214.842000,1702.473667,1608.800546
1356.388714,-10288.862594,2442.679609,2604.724693
1356.389035,-10955.047942,-592.164754,1532.190996
1356.389356,-9400.615463,-444.123565,-536.266849
1356.389676,-9844.739029,1036.288319,536.266849
1356.389997,-11399.171507,0.000000,1915.238745
1356.390318,-9622.677246,740.205942,2451.505594
1356.390638,-9326.594869,-1776.494261,383.047749
1356.390959,-9252.574275,-3108.864956,-1072.533697
1356.391280,-8216.285956,-1480.411884,-612.876398
1356.391600,-10288.862594,-1258.350101,689.485948
1356.391921,-9770.718434,1036.288319,2451.505594
1356.392242,-10066.800811,1776.494261,2604.724693
1356.392563,-10214.842000,-1628.453072,2145.067394
1356.392883,-9474.636058,-1628.453072,1532.190996
1356.393204,-9992.780217,-1628.453072,2068.457845
1356.393525,-10510.924376,-1998.556043,1762.019645
1356.393845,-9104.533087,1036.288319,1991.848295
1356.394166,-10288.862594,0.000000,1685.410096
1356.394487,-9474.636058,-74.020594,1838.629195
1356.394807,-10510.924376,-296.082377,2068.457845
1356.395128,-9474.636058,-1998.556043,2834.553343
1356.395449,-9252.574275,-296.082377,1838.629195
1356.395770,-10510.924376,296.082377,3140.991542
1356.396090,-9474.636058,-1850.514855,2068.457845
1356.396411,-7846.182985,-2368.659014,153.219100
1356.396732,-7772.162391,74.020594,-459.657299
1356.397052,-10140.821405,-740.205942,689.485948
1356.397373,-8438.347739,740.205942,1455.581446
1356.397694,-10732.986159,-1258.350101,1532.190996
1356.398014,-8734.430116,-2368.659014,0.000000
1356.398335,-9104.533087,-1776.494261,-842.705048
1356.398656,-8364.327145,814.226536,1991.848295
1356.398977,-10955.047942,1480.411884,2681.334243
1356.399297,-9030.512492,2072.576638,2374.896044
1356.399618,-11103.089130,-1850.514855,2757.943793
1356.399939,-7846.182985,-1184.329507,-229.828649
1356.400259,-10362.883188,-1258.350101,766.095498
1356.400580,-9400.615463,0.000000,3064.381992
1356.400901,-7994.224174,1332.370696,1149.143247
1356.401221,-8956.491898,-666.185348,-459.657299
1356.401542,-8290.306550,-2368.659014,-1685.410096
1356.401863,-7846.182985,-518.144159,-1149.143247
1356.402183,-11325.150913,-1258.350101,1072.533697
1356.402504,-10288.862594,1480.411884,1991.848295
1356.402825,-11473.192101,1406.391290,3217.601092
1356.403146,-10881.027347,-1258.350101,1608.800546
1356.403466,-9252.574275,-814.226536,76.609550
1356.403787,-10510.924376,-444.123565,383.047749
1356.404108,-9474.636058,962.267725,1455.581446
1356.404428,-10436.903782,1036.288319,1225.752797
1356.404749,-9622.677246,-1184.329507,76.609550
1356.405070,-8660.409521,-1332.370696,-2374.896044
1356.405390,-9474.636058,740.205942,-919.314598
1356.405711,-10510.924376,592.164754,612.876398
1356.406032,-10510.924376,1480.411884,1838.629195
1356.406353,-9474.636058,-814.226536,995.924147
1356.406673,-9474.636058,-2664.741391,-766.095498
1356.406994,-9918.759623,0.000000,766.095498
1356.407315,-11843.295072,0.000000,2451.505594
1356.407635,-10436.903782,1110.308913,2834.553343
1356.407956,-8882.471304,1406.391290,1072.533697
1356.408277,-8808.450710,-1332.370696,-1225.752797
1356.408597,-7994.224174,-592.164754,-2451.505594
1356.408918,-7179.997637,1702.473667,229.828649
1356.409239,-8734.430116,888.247130,229.828649
1356.409559,-8586.388927,1406.391290,995.924147
1356.409880,-9030.512492,-740.205942,612.876398
1356.410201,-9474.636058,-2590.720797,0.000000
1356.410522,-8882.471304,148.041188,536.266849
1356.410842,-10658.965565,-296.082377,3217.601092
1356.411163,-10807.006753,148.041188,4903.011187
1356.411484,-10362.883188,-592.164754,4903.011187
1356.411804,-10362.883188,-4293.194464,2911.162892
1356.412125,-8290.306550,-3627.009116,766.095498
1356.412446,-9474.636058,-666.185348,1072.533697
1356.412766,-9992.780217,1702.473667,1991.848295
1356.413087,-7550.100608,3182.885551,2451.505594
1356.413408,-9474.636058,-740.205942,1225.752797
1356.413729,-7994.224174,-2516.700203,-1378.971896
1356.414049,-8734.430116,-1628.453072,-689.485948
1356.414370,-11251.130318,-1924.535449,2145.067394
1356.414691,-10807.006753,222.061783,3983.696590
1356.415011,-10584.944971,-666.185348,3294.210641
1356.415332,-10140.821405,-2220.617826,1149.143247
1356.415653,-8734.430116,-148.041188,306.438199
1356.415973,-10140.821405,1332.370696,1378.971896
1356.416294,-11103.089130,962.267725,2221.676944
1356.416615,-9178.553681,1332.370696,2145.067394
1356.416935,-8660.409521,-1554.432478,229.828649
1356.417256,-9178.553681,-1554.432478,-919.314598
1356.417577,-9474.636058,-1184.329507,536.266849
1356.417898,-10214.842000,-1258.350101,1532.190996
1356.418218,-9622.677246,444.123565,2604.724693
1356.418539,-10140.821405,-592.164754,2068.457845
1356.418860,-10584.944971,-1480.411884,1608.800546
1356.419180,-9474.636058,-370.102971,306.438199
1356.419501,-9474.636058,888.247130,536.266849
1356.419822,-10955.047942,1036.288319,612.876398
1356.420142,-7920.203579,2072.576638,766.095498
1356.420463,-9474.636058,-1628.453072,-383.047749
1356.420784,-9030.512492,-1110.308913,-995.924147
1356.421105,-9400.615463,-518.144159,-612.876398
1356.421425,-10510.924376,148.041188,229.828649
1356.421746,-9326.594869,1332.370696,1608.800546
1356.422067,-10584.944971,-888.247130,1532.190996
1356.422387,-9474.636058,-1924.535449,689.485948
1356.422708,-8364.327145,-2146.597232,-536.266849
1356.423029,-9474.636058,-1406.391290,-995.924147
1356.423349,-10066.800811,888.247130,1149.143247
1356.423670,-9992.780217,888.247130,1225.752797
1356.423991,-9474.636058,-222.061783,306.438199
1356.424312,-8068.244768,-370.102971,-919.314598
1356.424632,-9252.574275,-296.082377,-153.219100
1356.424953,-10584.944971,-296.082377,1072.533697
1356.425274,-10362.883188,444.123565,1532.190996
1356.425594,-9400.615463,-148.041188,1532.190996
1356.425915,-9400.615463,-1480.411884,-383.047749
1356.426236,-7994.224174,1628.453072,612.876398
1356.426556,-11177.109724,-740.205942,2145.067394
1356.426877,-9844.739029,1702.473667,2451.505594
1356.427198,-10362.883188,-888.247130,3140.991542
1356.427518,-9474.636058,-1776.494261,1455.581446
1356.427839,-9844.739029,-1110.308913,1532.190996
1356.428160,-9992.780217,148.041188,2298.286494
1356.428481,-10362.883188,740.205942,2604.724693
1356.428801,-8734.430116,2368.659014,1532.190996
1356.429122,-11103.089130,370.102971,1838.629195
1356.429443,-8660.409521,0.000000,153.219100
1356.429763,-10066.800811,740.205942,919.314598
1356.430084,-9918.759623,-296.082377,1378.971896
1356.430405,-9474.636058,1628.453072,1915.238745
1356.430725,-10140.821405,0.000000,1762.019645
1356.431046,-9474.636058,-666.185348,1149.143247
1356.431367,-8660.409521,-1332.370696,383.047749
1356.431688,-9326.594869,-1554.432478,612.876398
1356.432008,-9400.615463,-1480.411884,919.314598
1356.432329,-9030.512492,0.000000,1838.629195
1356.432650,-9622.677246,-962.267725,-689.485948
1356.432970,-8586.388927,-296.082377,1378.971896
1356.433291,-10066.800811,-148.041188,2374.896044
1356.433612,-11103.089130,-444.123565,2451.505594
1356.433932,-9030.512492,444.123565,3064.381992
1356.434253,-8734.430116,-2220.617826,2451.505594
1356.434574,-9030.512492,-1850.514855,383.047749
1356.434894,-8364.327145,-666.185348,612.876398
1356.435215,-8364.327145,0.000000,383.047749
1356.435536,-8956.491898,1776.494261,1225.752797
1356.435857,-9400.615463,1998.556043,2298.286494
1356.436177,-9326.594869,-1184.329507,842.705048
1356.436498,-9696.697840,-1480.411884,0.000000
1356.436819,-9992.780217,-1554.432478,766.095498
1356.437139,-9252.574275,-1184.329507,3294.210641
1356.437460,-10436.903782,-1332.370696,2451.505594
1356.437781,-9548.656652,444.123565,2221.676944
1356.438101,-9770.718434,-1258.350101,612.876398
1356.438422,-8956.491898,-222.061783,-383.047749
1356.438743,-9918.759623,-888.247130,0.000000
1356.439064,-9252.574275,296.082377,612.876398
1356.439384,-9474.636058,-518.144159,919.314598
1356.439705,-9992.780217,-2368.659014,0.000000
1356.440026,-10436.903782,-296.082377,-612.876398
1356.440346,-9992.780217,-222.061783,1149.143247
1356.440667,-11177.109724,888.247130,2145.067394
1356.440988,-11399.171507,2146.597232,2298.286494
1356.441308,-9770.718434,0.000000,-459.657299
1356.441629,-7476.080014,-370.102971,-3140.991542
1356.441950,-7179.997637,518.144159,-3217.601092
1356.442270,-9104.533087,814.226536,-1378.971896
1356.442591,-9770.718434,1554.432478,919.314598
1356.442912,-9474.636058,814.226536,1302.362347
1356.443233,-10955.047942,-1776.494261,1378.971896
1356.443553,-9622.677246,-1184.329507,1302.362347
1356.443874,-11399.171507,-222.061783,2987.772442
1356.444195,-12065.356855,74.020594,3140.991542
1356.444515,-9030.512492,1258.350101,2451.505594
1356.444836,-9474.636058,-962.267725,1608.800546
1356.445157,-8512.368333,-1554.432478,-459.657299
1356.445477,-8734.430116,-296.082377,229.828649
1356.445798,-10436.903782,-1406.391290,1991.848295
1356.446119,-8290.306550,0.000000,1608.800546
1356.446440,-10510.924376,-1110.308913,2451.505594
1356.446760,-10436.903782,-2960.823768,2068.457845
1356.447081,-8586.388927,-2516.700203,306.438199
1356.447402,-7994.224174,74.020594,-689.485948
1356.447722,-10066.800811,2590.720797,1532.190996
1356.448043,-10362.883188,4589.276840,2757.943793
1356.448364,-9178.553681,-2146.597232,1762.019645
1356.448684,-7846.182985,-4293.194464,-1915.238745
1356.449005,-7698.141797,-2368.659014,-1378.971896
1356.449326,-7994.224174,-3034.844362,-1378.971896
1356.449647,-10288.862594,1702.473667,4366.744339
1356.449967,-10288.862594,962.267725,4519.963438
1356.450288,-11843.295072,-444.123565,3983.696590
1356.450609,-9474.636058,-1036.288319,2911.162892
1356.450929,-10807.006753,-814.226536,1838.629195
1356.451250,-11325.150913,370.102971,3677.258390
1356.451571,-9474.636058,2072.576638,3294.210641
1356.451891,-7698.141797,0.000000,689.485948
1356.452212,-7254.018232,-666.185348,-1302.362347
1356.452533,-7328.038826,296.082377,-1455.581446
1356.452853,-10288.862594,-148.041188,1455.581446
1356.453174,-10066.800811,1406.391290,2528.115143
1356.453495,-9252.574275,296.082377,2221.676944
1356.453816,-10436.903782,-2146.597232,383.047749
1356.454136,-9030.512492,296.082377,-383.047749
1356.454457,-11547.212695,888.247130,2068.457845
1356.454778,-9844.739029,2294.638420,2374.896044
1356.455098,-9770.718434,962.267725,1915.238745
1356.455419,-9844.739029,-1554.432478,689.485948
1356.455740,-8660.409521,-1850.514855,-1608.800546
1356.456060,-10140.821405,-1184.329507,153.219100
1356.456381,-10288.862594,0.000000,1302.362347
1356.456702,-9844.739029,888.247130,1072.533697
1356.457023,-9770.718434,74.020594,1225.752797
1356.457343,-10066.800811,-3182.885551,-306.438199
1356.457664,-8956.491898,-1702.473667,-919.314598
1356.457985,-10214.842000,-888.247130,-306.438199
1356.458305,-9992.780217,1702.473667,0.000000
1356.458626,-9474.636058,2960.823768,536.266849
1356.458947,-10436.903782,-518.144159,0.000000
1356.459267,-8142.265362,0.000000,-1225.752797
1356.459588,-9918.759623,-1332.370696,1455.581446
1356.459909,-10510.924376,-1184.329507,1532.190996
1356.460229,-9844.739029,-518.144159,1532.190996
1356.460550,-10436.903782,-2072.576638,1149.143247
1356.460871,-8438.347739,-1628.453072,-229.828649
1356.461192,-8364.327145,296.082377,0.000000
1356.461512,-10584.944971,222.061783,1149.143247
1356.461833,-9696.697840,740.205942,2528.115143
1356.462154,-10658.965565,-1184.329507,2834.553343
1356.462474,-8808.450710,-3404.947333,995.924147
1356.462795,-8882.471304,-1554.432478,919.314598
1356.463116,-9548.656652,-1036.288319,2221.676944
1356.463436,-9918.759623,0.000000,2911.162892
1356.463757,-9400.615463,518.144159,2757.943793
1356.464078,-9474.636058,-1184.329507,1149.143247
1356.464399,-9178.553681,0.000000,0.000000
1356.464719,-9622.677246,1924.535449,1225.752797
1356.465040,-10436.903782,74.020594,2068.457845
1356.465361,-9548.656652,1406.391290,1608.800546
1356.465681,-9918.759623,-1628.453072,2681.334243
1356.466002,-9548.656652,-3849.070898,536.266849
1356.466323,-9844.739029,-1628.453072,995.924147
1356.466643,-10288.862594,-888.247130,2681.334243
1356.466964,-9992.780217,518.144159,2987.772442
1356.467285,-9696.697840,888.247130,2528.115143
1356.467605,-9844.739029,-2516.700203,842.705048
1356.467926,-8512.368333,-1406.391290,-2221.676944
1356.468247,-7920.203579,814.226536,153.219100
1356.468568,-10214.842000,-444.123565,612.876398
1356.468888,-8068.244768,2738.761985,2221.676944
1356.469209,-9474.636058,1258.350101,1455.581446
1356.469530,-10732.986159,-1110.308913,536.266849
1356.469850,-9548.656652,222.061783,1149.143247
1356.470171,-11103.089130,-1332.370696,2374.896044
1356.470492,-9474.636058,-1258.350101,2145.067394
1356.470812,-10214.842000,370.102971,1685.410096
1356.471133,-10584.944971,-2146.597232,1685.410096
1356.471454,-7550.100608,-888.247130,-842.705048
1356.471775,-8734.430116,1184.329507,-689.485948
1356.472095,-9474.636058,2146.597232,1838.629195
1356.472416,-9770.718434,2442.679609,1072.533697
1356.472737,-9622.677246,-592.164754,1149.143247
1356.473057,-9326.594869,-3034.844362,-1225.752797
1356.473378,-7402.059420,814.226536,-995.924147
1356.473699,-11547.212695,-666.185348,2221.676944
1356.474019,-9918.759623,2738.761985,2451.505594
1356.474340,-9770.718434,1850.514855,1072.533697
1356.474661,-9252.574275,-1406.391290,-1608.800546
1356.474981,-9326.594869,222.061783,-1532.190996
1356.475302,-10214.842000,444.123565,0.000000
1356.475622,-11251.130318,1184.329507,1225.752797
1356.475943,-9400.615463,2294.638420,2068.457845
1356.476264,-9548.656652,-1924.535449,76.609550
1356.476584,-8364.327145,-1406.391290,-1378.971896
1356.476905,-9622.677246,148.041188,536.266849
1356.477226,-10510.924376,74.020594,2374.896044
1356.477546,-9400.615463,1702.473667,2681.334243
1356.477867,-10066.800811,-518.144159,1455.581446
1356.478187,-9696.697840,-2738.761985,153.219100
1356.478508,-9326.594869,-1702.473667,-612.876398
1356.478829,-9474.636058,-888.247130,1685.410096
1356.479149,-10066.800811,-296.082377,3217.601092
1356.479470,-10214.842000,1332.370696,4749.792088
1356.479790,-10436.903782,-2368.659014,3294.210641
1356.480111,-9696.697840,-2590.720797,1915.238745
1356.480432,-9844.739029,-2812.782580,1685.410096
1356.480752,-9474.636058,-2072.576638,2298.286494
1356.481073,-8808.450710,222.061783,1991.848295
1356.481394,-8586.388927,-962.267725,2451.505594
1356.481714,-8290.306550,-3478.967927,0.000000
1356.482035,-8734.430116,-2220.617826,0.000000
1356.482355,-8956.491898,-1998.556043,153.219100
1356.482676,-10658.965565,222.061783,1991.848295
1356.482997,-10288.862594,1480.411884,3753.867940
1356.483317,-10140.821405,-74.020594,383.047749
1356.483638,-8882.471304,888.247130,0.000000
1356.483958,-9400.615463,0.000000,153.219100
1356.484279,-10140.821405,74.020594,2604.724693
1356.484600,-10584.944971,-1406.391290,2604.724693
1356.484920,-10066.800811,-3034.844362,1532.190996
1356.485241,-9326.594869,-2590.720797,-306.438199
1356.485562,-9252.574275,0.000000,459.657299
1356.485882,-11547.212695,1480.411884,2451.505594
1356.486203,-10140.821405,3108.864956,2757.943793
1356.486523,-9030.512492,592.164754,1378.971896
1356.486844,-8882.471304,-1702.473667,0.000000
1356.487165,-8734.430116,-1332.370696,-766.095498
1356.487485,-10658.965565,-1406.391290,919.314598
1356.487806,-10881.027347,0.000000,2298.286494
1356.488126,-9474.636058,1998.556043,2451.505594
1356.488447,-11029.068536,-962.267725,1915.238745
1356.488768,-9178.553681,-1776.494261,0.000000
1356.489088,-9178.553681,-1258.350101,-229.828649
1356.489409,-9030.512492,-962.267725,-1072.533697
1356.489730,-8290.306550,2146.597232,-76.609550
1356.490050,-8068.244768,2368.659014,689.485948
1356.490371,-9844.739029,-1036.288319,153.219100
1356.490691,-8438.347739,-1036.288319,-612.876398
1356.491012,-9844.739029,-1998.556043,919.314598
1356.491333,-11103.089130,-1924.535449,1915.238745
1356.491653,-9918.759623,1110.308913,3294.210641
1356.491974,-12657.521608,-1332.370696,3753.867940
1356.492294,-8734.430116,-888.247130,229.828649
1356.492615,-7698.141797,74.020594,-1072.533697
1356.492936,-9104.533087,666.185348,-229.828649
1356.493256,-8586.388927,2072.576638,383.047749
1356.493577,-9548.656652,148.041188,306.438199
1356.493897,-8512.368333,0.000000,-612.876398
1356.494218,-8586.388927,1036.288319,0.000000
1356.494539,-10362.883188,-296.082377,1302.362347
1356.494859,-10658.965565,888.247130,3294.210641
1356.495180,-10140.821405,814.226536,2834.553343
1356.495501,-9622.677246,-2368.659014,1302.362347
1356.495821,-8734.430116,-2072.576638,-383.047749
1356.496142,-9030.512492,-148.041188,459.657299
1356.496462,-10658.965565,0.000000,2068.457845
1356.496783,-9918.759623,2220.617826,2681.334243
1356.497104,-9104.533087,444.123565,1991.848295
1356.497424,-9474.636058,-1924.535449,153.219100
1356.497745,-9104.533087,-814.226536,153.219100
1356.498065,-9992.780217,-888.247130,2374.896044
1356.498386,-10881.027347,-518.144159,3064.381992
1356.498707,-9918.759623,666.185348,2987.772442
1356.499027,-10140.821405,-2368.659014,1455.581446
1356.499348,-8512.368333,-148.041188,-383.047749
1356.499669,-8290.306550,1110.308913,-1455.581446
1356.499989,-7994.224174,1554.432478,1149.143247
1356.500310,-9104.533087,2886.803174,1378.971896
1356.500630,-9696.697840,-592.164754,1608.800546
1356.500951,-10436.903782,-2442.679609,1685.410096
1356.501272,-10436.903782,-2886.803174,2374.896044
1356.501592,-11473.192101,-2590.720797,2681.334243
1356.501913,-10955.047942,-740.205942,4060.306139
1356.502233,-9918.759623,222.061783,3217.601092
1356.502554,-9548.656652,-2294.638420,842.705048
1356.502875,-7105.977043,-1406.391290,-1532.190996
1356.503195,-7179.997637,-1110.308913,-1532.190996
1356.503516,-8808.450710,-1036.288319,0.000000
1356.503837,-9770.718434,0.000000,1455.581446
1356.504157,-8956.491898,-518.144159,2221.676944
1356.504478,-8586.388927,-2368.659014,536.266849
1356.504798,-8956.491898,-1850.514855,1072.533697
1356.505119,-10732.986159,-1628.453072,2451.505594
1356.505440,-10510.924376,222.061783,2145.067394
1356.505760,-9474.636058,1110.308913,2298.286494
1356.506081,-9548.656652,-962.267725,1991.848295
1356.506401,-7772.162391,-2072.576638,0.000000
1356.506722,-8956.491898,-814.226536,-1149.143247
1356.507043,-11325.150913,148.041188,1149.143247
1356.507363,-8956.491898,1850.514855,2681.334243
1356.507684,-10658.965565,-370.102971,2145.067394
1356.508005,-9622.677246,-1554.432478,1378.971896
1356.508325,-9474.636058,-592.164754,153.219100
1356.508646,-11251.130318,0.000000,1608.800546
1356.508966,-9992.780217,2220.617826,2068.457845
1356.509287,-9622.677246,1702.473667,1532.190996
1356.509608,-10140.821405,0.000000,536.266849
1356.509928,-8808.450710,444.123565,-1455.581446
1356.510249,-9548.656652,444.123565,-229.828649
1356.510569,-10658.965565,296.082377,995.924147
1356.510890,-10066.800811,2368.659014,2221.676944
1356.511211,-10510.924376,-666.185348,1225.752797
1356.511531,-8956.491898,0.000000,-536.266849
1356.511852,-9548.656652,592.164754,536.266849
1356.512172,-10807.006753,-962.267725,1149.143247
1356.512493,-10362.883188,1332.370696,1838.629195
1356.512814,-10436.903782,-2368.659014,1532.190996
1356.513134,-8660.409521,-3478.967927,-1149.143247
1356.513455,-8586.388927,-666.185348,-306.438199
1356.513776,-9918.759623,0.000000,689.485948
1356.514096,-9400.615463,1258.350101,1685.410096
1356.514417,-10066.800811,1554.432478,2451.505594
1356.514737,-9252.574275,-1406.391290,0.000000
1356.515058,-7994.224174,-666.185348,-1225.752797
1356.515379,-9622.677246,0.000000,459.657299
1356.515699,-10214.842000,-666.185348,1378.971896
1356.516020,-8216.285956,1776.494261,1685.410096
1356.516340,-10140.821405,-2146.597232,1072.533697
1356.516661,-8216.285956,-2072.576638,-536.266849
1356.516982,-9178.553681,-962.267725,536.266849
1356.517302,-10658.965565,296.082377,1838.629195
1356.517623,-9696.697840,2886.803174,2451.505594
1356.517944,-10288.862594,2220.617826,2221.676944
1356.518264,-10066.800811,0.000000,1915.238745
1356.518585,-8438.347739,-1036.288319,459.657299
1356.518905,-10658.965565,-814.226536,2374.896044
1356.519226,-10807.006753,-2220.617826,3524.039291
1356.519547,-9696.697840,-1554.432478,2068.457845
1356.519867,-9844.739029,-2516.700203,919.314598
1356.520188,-7920.203579,-370.102971,-612.876398
1356.520508,-8882.471304,2960.823768,229.828649
1356.520829,-10214.842000,2442.679609,2068.457845
1356.521150,-9474.636058,2072.576638,2221.676944
1356.521470,-9770.718434,-444.123565,2221.676944
1356.521791,-8882.471304,-3627.009116,0.000000
1356.522112,-9474.636058,-1554.432478,1455.581446
1356.522432,-10584.944971,-1406.391290,2221.676944
1356.522753,-9326.594869,-444.123565,2604.724693
1356.523073,-10510.924376,222.061783,2221.676944
1356.523394,-10658.965565,-1184.329507,2298.286494
1356.523715,-11177.109724,-2294.638420,2221.676944
1356.524035,-9770.718434,-666.185348,1455.581446
1356.524356,-10436.903782,-592.164754,1225.752797
1356.524676,-9770.718434,740.205942,1378.971896
1356.524997,-8142.265362,592.164754,1225.752797
1356.525318,-8882.471304,-2886.803174,-1302.362347
1356.525638,-5255.462188,0.000000,-766.095498
1356.525959,-12213.398043,-2146.597232,-536.266849
1356.526280,-9400.615463,-1406.391290,766.095498
1356.526600,-9030.512492,888.247130,2068.457845
1356.526921,-10732.986159,-814.226536,842.705048
1356.527241,-8808.450710,74.020594,306.438199
1356.527562,-8956.491898,740.205942,0.000000
1356.527883,-9770.718434,-666.185348,0.000000
1356.528203,-8586.388927,518.144159,-459.657299
1356.528524,-9252.574275,-1332.370696,-612.876398
1356.528844,-7402.059420,74.020594,-1608.800546
1356.529165,-7550.100608,222.061783,-1072.533697
1356.529486,-9992.780217,-222.061783,76.609550
1356.529806,-9992.780217,222.061783,842.705048
1356.530127,-10510.924376,740.205942,2221.676944
1356.530447,-11325.150913,-1702.473667,2145.067394
1356.530768,-9474.636058,-1184.329507,1225.752797
1356.531089,-10881.027347,-1184.329507,1991.848295
1356.531409,-9992.780217,-518.144159,995.924147
1356.531730,-8882.471304,2886.803174,1608.800546
1356.532051,-10214.842000,74.020594,2145.067394
1356.532371,-8882.471304,-666.185348,536.266849
1356.532692,-9178.553681,-666.185348,0.000000
1356.533012,-10362.883188,-1924.535449,1762.019645
1356.533333,-9326.594869,-888.247130,2451.505594
1356.533654,-10732.986159,-1184.329507,3064.381992
1356.533974,-10436.903782,-1554.432478,2145.067394
1356.534295,-9696.697840,740.205942,1378.971896
1356.534615,-9104.533087,2368.659014,3294.210641
1356.534936,-10881.027347,1702.473667,2681.334243
1356.535257,-9918.759623,1554.432478,2757.943793
1356.535577,-9548.656652,-814.226536,1302.362347
1356.535898,-9104.533087,-1924.535449,-229.828649
1356.536219,-8660.409521,-518.144159,-153.219100
1356.536539,-10510.924376,-370.102971,2068.457845
1356.536860,-9992.780217,666.185348,3217.601092
1356.537180,-9844.739029,148.041188,2681.334243
1356.537501,-9844.739029,-1850.514855,2145.067394
1356.537822,-8586.388927,-1184.329507,0.000000
1356.538142,-7994.224174,-370.102971,0.000000
1356.538463,-9030.512492,74.020594,0.000000
1356.538783,-6291.750507,3182.885551,306.438199
1356.539104,-10214.842000,-1110.308913,1378.971896
1356.539425,-9326.594869,-1554.432478,842.705048
1356.539745,-10288.862594,-1480.411884,3217.601092
1356.540066,-12509.480420,-4737.318029,2834.553343
1356.540387,-9548.656652,0.000000,2987.772442
1356.540707,-11251.130318,-370.102971,2451.505594
1356.541028,-8882.471304,-962.267725,-153.219100
1356.541348,-6883.915261,1924.535449,-919.314598
1356.541669,-8808.450710,-148.041188,-536.266849
1356.541990,-8142.265362,1258.350101,-766.095498
1356.542310,-9770.718434,1184.329507,306.438199
1356.542631,-9844.739029,-1036.288319,1455.581446
1356.542951,-9104.533087,-1036.288319,-306.438199
1356.543272,-10658.965565,-962.267725,919.314598
1356.543593,-10436.903782,-1036.288319,995.924147
1356.543913,-9622.677246,1554.432478,1378.971896
1356.544234,-10288.862594,0.000000,229.828649
1356.544555,-8882.471304,-1184.329507,-1302.362347
1356.544875,-9252.574275,0.000000,-2451.505594
1356.545196,-9992.780217,666.185348,-1455.581446
1356.545516,-9770.718434,3108.864956,0.000000
1356.545837,-10214.842000,1554.432478,1072.533697
1356.546158,-10807.006753,-1184.329507,0.000000
1356.546478,-9474.636058,370.102971,-459.657299
1356.546799,-11325.150913,740.205942,1149.143247
1356.547119,-11177.109724,148.041188,3830.477490
1356.547440,-9918.759623,0.000000,3140.991542
1356.547761,-9252.574275,-3182.885551,153.219100
1356.548081,-7920.203579,-2368.659014,-1762.019645
1356.548402,-7476.080014,0.000000,919.314598
1356.548723,-9770.718434,-814.226536,1455.581446
1356.549043,-8956.491898,1480.411884,2145.067394
1356.549364,-9104.533087,444.123565,2221.676944
1356.549684,-9918.759623,-2072.576638,1532.190996
1356.550005,-8660.409521,-1628.453072,1302.362347
1356.550326,-10214.842000,-962.267725,2681.334243
1356.550646,-10955.047942,-444.123565,3217.601092
1356.550967,-8364.327145,1480.411884,2451.505594
1356.551287,-10362.883188,-740.205942,1838.629195
1356.551608,-8290.306550,-2516.700203,0.000000
1356.551929,-8438.347739,-962.267725,-383.047749
1356.552249,-10436.903782,-296.082377,2298.286494
1356.552570,-8882.471304,1258.350101,2374.896044
1356.552890,-10066.800811,888.247130,2987.772442
1356.553211,-10214.842000,-1258.350101,2298.286494
1356.553532,-8734.430116,-1480.411884,1378.971896
1356.553852,-10510.924376,-1850.514855,2145.067394
1356.554173,-10214.842000,-1258.350101,2681.334243
1356.554494,-9178.553681,-296.082377,2298.286494
1356.554814,-10658.965565,-2368.659014,2221.676944
1356.555135,-7698.141797,-962.267725,76.609550
1356.555455,-9770.718434,-1776.494261,-459.657299
1356.555776,-9326.594869,-1110.308913,1302.362347
1356.556097,-10066.800811,1554.432478,2221.676944
1356.556417,-11547.212695,1628.453072,2451.505594
1356.556738,-10066.800811,-592.164754,1302.362347
1356.557058,-9844.739029,-370.102971,536.266849
1356.557379,-9622.677246,0.000000,1915.238745
1356.557700,-10214.842000,-888.247130,1455.581446
1356.558020,-10436.903782,592.164754,4366.744339
1356.558341,-11547.212695,-3552.988522,3140.991542
1356.558662,-8364.327145,-2960.823768,0.000000
1356.558982,-9474.636058,0.000000,153.219100
1356.559303,-8808.450710,296.082377,153.219100
1356.559623,-7254.018232,3552.988522,0.000000
1356.559944,-9400.615463,-222.061783,229.828649
1356.560265,-4737.318029,-148.041188,-3830.477490
1356.560585,-8512.368333,-370.102971,-1608.800546
1356.560906,-10807.006753,-888.247130,229.828649
1356.561226,-10584.944971,888.247130,2528.115143
1356.561547,-11399.171507,-888.247130,2451.505594
1356.561868,-11177.109724,-1850.514855,1225.752797
1356.562188,-10955.047942,-1850.514855,306.438199
1356.562509,-9622.677246,-740.205942,689.485948
1356.562830,-9400.615463,962.267725,-612.876398
1356.563150,-8290.306550,3404.947333,-536.266849
1356.563471,-8364.327145,518.144159,-1302.362347
1356.563791,-7772.162391,666.185348,-919.314598
1356.564112,-8364.327145,-1258.350101,-1915.238745
1356.564433,-9104.533087,-2368.659014,-153.219100
1356.564753,-11177.109724,-740.205942,2451.505594
1356.565074,-11695.253884,-1776.494261,1838.629195
1356.565394,-10807.006753,-814.226536,2374.896044
1356.565715,-10510.924376,444.123565,1225.752797
1356.566036,-9400.615463,1480.411884,1225.752797
1356.566356,-9992.780217,1850.514855,689.485948
1356.566677,-8734.430116,2590.720797,-383.047749
1356.566998,-8068.244768,74.020594,-1455.581446
1356.567318,-8364.327145,-1258.350101,-2298.286494
1356.567639,-7179.997637,-444.123565,-995.924147
1356.567959,-10214.842000,-1702.473667,689.485948
1356.568280,-10436.903782,0.000000,4060.306139
1356.568601,-11029.068536,-814.226536,4903.011187
1356.568921,-11843.295072,-2590.720797,3907.087040
1356.569242,-10362.883188,-888.247130,2987.772442
1356.569562,-10584.944971,1258.350101,3294.210641
1356.569883,-10881.027347,740.205942,3677.258390
1356.570204,-8586.388927,1924.535449,2681.334243
1356.570524,-9548.656652,-2072.576638,1072.533697
1356.570845,-6883.915261,-1702.473667,-1838.629195
1356.571165,-9030.512492,1702.473667,459.657299
1356.571486,-10881.027347,1036.288319,3064.381992
1356.571807,-9548.656652,1480.411884,2987.772442
1356.572127,-10362.883188,-296.082377,1685.410096
1356.572448,-10066.800811,-3034.844362,1455.581446
1356.572769,-8586.388927,-1998.556043,536.266849
1356.573089,-11251.130318,-1776.494261,2374.896044
1356.573410,-9178.553681,1110.308913,2834.553343
1356.573731,-9178.553681,1554.432478,2451.505594
1356.574051,-8216.285956,-814.226536,1762.019645
1356.574372,-7846.182985,-1258.350101,-612.876398
1356.574693,-9474.636058,-888.247130,766.095498
1356.575013,-10066.800811,-1480.411884,1225.752797
1356.575334,-8438.347739,74.020594,1302.362347
1356.575655,-10140.821405,-888.247130,1532.190996
1356.575976,-9326.594869,-2368.659014,612.876398
1356.576296,-7550.100608,-1036.288319,-842.705048
1356.576617,-9178.553681,-1036.288319,-612.876398
1356.576938,-7698.141797,814.226536,-1838.629195
1356.577259,-8660.409521,3256.906145,-306.438199
1356.577579,-10658.965565,222.061783,842.705048
1356.577900,-9326.594869,962.267725,1072.533697
1356.578221,-11843.295072,-888.247130,2911.162892
1356.578541,-11399.171507,-2812.782580,2298.286494
1356.578862,-11029.068536,-1480.411884,1991.848295
1356.579183,-10658.965565,-1628.453072,2451.505594
1356.579504,-8734.430116,-296.082377,-1532.190996
1356.579824,-7328.038826,1554.432478,-2298.286494
1356.580145,-8586.388927,962.267725,-2068.457845
1356.580466,-8734.430116,1332.370696,-1378.971896
1356.580786,-9474.636058,518.144159,153.219100
1356.581107,-10584.944971,-2220.617826,536.266849
1356.581428,-10140.821405,-592.164754,1149.143247
1356.581749,-11029.068536,444.123565,2451.505594
1356.582069,-12139.377449,518.144159,2681.334243
1356.582390,-9770.718434,1776.494261,3370.820191
1356.582711,-10140.821405,-1850.514855,1072.533697
1356.583032,-8808.450710,-2516.700203,-842.705048
1356.583352,-8512.368333,-1110.308913,-766.095498
1356.583673,-9844.739029,518.144159,995.924147
1356.583994,-9770.718434,1554.432478,2451.505594
1356.584314,-9474.636058,1110.308913,2451.505594
1356.584635,-9992.780217,-1924.535449,2298.286494
1356.584956,-9252.574275,-1184.329507,1608.800546
1356.585277,-11547.212695,-1554.432478,3830.477490
1356.585597,-10732.986159,-1332.370696,3907.087040
1356.585918,-9326.594869,-296.082377,3140.991542
1356.586239,-9548.656652,-2368.659014,2145.067394
1356.586560,-7994.224174,-1480.411884,383.047749
1356.586880,-8290.306550,-370.102971,459.657299
1356.587201,-9622.677246,-1110.308913,919.314598
1356.587522,-8364.327145,1036.288319,1838.629195
1356.587842,-10807.006753,0.000000,2604.724693
1356.588163,-9400.615463,-1554.432478,2068.457845
1356.588484,-9252.574275,-592.164754,1991.848295
1356.588805,-10436.903782,-888.247130,2604.724693
1356.589125,-9918.759623,-518.144159,1915.238745
1356.589446,-9918.759623,222.061783,2068.457845
1356.589767,-9770.718434,-1702.473667,1455.581446
1356.590088,-8586.388927,-1258.350101,-766.095498
1356.590408,-8956.491898,-518.144159,612.876398
1356.590729,-9696.697840,-888.247130,766.095498
1356.591050,-9252.574275,1628.453072,1302.362347
1356.591370,-10436.903782,74.020594,1608.800546
1356.591691,-9696.697840,-1184.329507,1072.533697
1356.592012,-8734.430116,0.000000,0.000000
1356.592333,-10288.862594,-666.185348,1149.143247
1356.592653,-10140.821405,-1184.329507,842.705048
1356.592974,-9252.574275,296.082377,766.095498
1356.593295,-10510.924376,-1110.308913,229.828649
1356.593616,-8216.285956,74.020594,-689.485948
1356.593936,-9548.656652,444.123565,76.609550
1356.594257,-10584.944971,222.061783,1608.800546
1356.594578,-8290.306550,962.267725,1072.533697
1356.594898,-11029.068536,-1554.432478,995.924147
1356.595219,-9474.636058,-1850.514855,-229.828649
1356.595540,-9178.553681,148.041188,-612.876398
1356.595861,-10955.047942,-1110.308913,153.219100
1356.596181,-8216.285956,1924.535449,1149.143247
1356.596502,-10140.821405,370.102971,766.095498
1356.596823,-9400.615463,-2072.576638,-536.266849
1356.597144,-8734.430116,-592.164754,-1685.410096
1356.597464,-9844.739029,444.123565,0.000000
1356.597785,-9474.636058,444.123565,76.609550
1356.598106,-9104.533087,3701.029710,1838.629195
1356.598426,-11399.171507,444.123565,2757.943793
1356.598747,-10214.842000,-1036.288319,2681.334243
1356.599068,-10584.944971,-370.102971,2604.724693
1356.599389,-11325.150913,-4219.173869,1762.019645
1356.599709,-9178.553681,-740.205942,1225.752797
1356.600030,-10066.800811,962.267725,3447.429741
1356.600351,-8364.327145,-592.164754,153.219100
1356.600672,-7254.018232,962.267725,-919.314598
1356.600992,-8660.409521,-370.102971,536.266849
1356.601313,-8438.347739,296.082377,-459.657299
1356.601634,-9548.656652,1776.494261,1991.848295
1356.601954,-12139.377449,-3108.864956,1378.971896
1356.602275,-7698.141797,2294.638420,2528.115143
1356.602596,-12509.480420,-3849.070898,1608.800546
1356.602917,-9252.574275,222.061783,5209.449386
1356.603237,-10955.047942,-1998.556043,2221.676944
1356.603558,-9474.636058,-1110.308913,3064.381992
1356.603879,-8882.471304,-2368.659014,-1608.800546
1356.604200,-8882.471304,222.061783,689.485948
1356.604520,-9918.759623,592.164754,1685.410096
1356.604841,-9104.533087,1110.308913,1302.362347
1356.605162,-10732.986159,1332.370696,2528.115143
1356.605482,-8882.471304,-3256.906145,229.828649
1356.605803,-9030.512492,-1110.308913,-383.047749
1356.606124,-10584.944971,518.144159,1608.800546
1356.606445,-9992.780217,2368.659014,2451.505594
1356.606765,-10955.047942,222.061783,3447.429741
1356.607086,-9844.739029,-962.267725,1302.362347
1356.607407,-11177.109724,-3108.864956,766.095498
1356.607728,-7624.121203,-666.185348,-919.314598
1356.608048,-10510.924376,-1776.494261,1225.752797
1356.608369,-9252.574275,2368.659014,689.485948
1356.608690,-9030.512492,1628.453072,1532.190996
1356.609010,-8216.285956,-1110.308913,-459.657299
1356.609331,-9178.553681,0.000000,0.000000
1356.609652,-10362.883188,-2072.576638,2298.286494
1356.609973,-10807.006753,-1184.329507,3064.381992
1356.610293,-9992.780217,-814.226536,2911.162892
1356.610614,-10140.821405,-888.247130,1608.800546
1356.610935,-10362.883188,-666.185348,1608.800546
1356.611255,-9326.594869,1406.391290,1378.971896
1356.611576,-9622.677246,0.000000,1378.971896
1356.611897,-8660.409521,296.082377,919.314598
1356.612218,-9548.656652,-740.205942,1532.190996
1356.612538,-9918.759623,-3330.926739,-612.876398
1356.612859,-8808.450710,-740.205942,0.000000
1356.613180,-9696.697840,-1036.288319,919.314598
1356.613501,-9474.636058,-1110.308913,1608.800546
1356.613821,-9252.574275,-370.102971,766.095498
1356.614142,-9696.697840,-2220.617826,0.000000
1356.614463,-9178.553681,-1332.370696,-536.266849
1356.614783,-9474.636058,592.164754,-306.438199
1356.615104,-9622.677246,1554.432478,306.438199
1356.615425,-9992.780217,2812.782580,459.657299
1356.615746,-9622.677246,1258.350101,612.876398
1356.616066,-8956.491898,-1554.432478,-766.095498
1356.616387,-8956.491898,-740.205942,-995.924147
1356.616708,-8956.491898,-1332.370696,153.219100
1356.617029,-10066.800811,0.000000,1302.362347
1356.617349,-10066.800811,740.205942,2374.896044
1356.617670,-9992.780217,-1332.370696,1225.752797
1356.617991,-8438.347739,-1332.370696,0.000000
1356.618311,-9548.656652,0.000000,0.000000
1356.618632,-10362.883188,2146.597232,2374.896044
1356.618953,-9548.656652,2220.617826,3064.381992
1356.619274,-9474.636058,-740.205942,2528.115143
1356.619594,-8364.327145,-2442.679609,-153.219100
1356.619915,-8586.388927,-1332.370696,-383.047749
1356.620236,-10955.047942,-814.226536,1991.848295
1356.620557,-10066.800811,444.123565,3524.039291
1356.620877,-9918.759623,148.041188,1991.848295
1356.621198,-9696.697840,-2072.576638,536.266849
1356.621519,-9400.615463,-1036.288319,0.000000
1356.621839,-10066.800811,-296.082377,1072.533697
1356.622160,-11325.150913,148.041188,2681.334243
1356.622481,-9474.636058,1554.432478,2528.115143
1356.622802,-10436.903782,0.000000,2528.115143
1356.623122,-9326.594869,-1702.473667,842.705048
1356.623443,-8586.388927,-1258.350101,0.000000
1356.623764,-9770.718434,-666.185348,689.485948
1356.624085,-9548.656652,444.123565,1149.143247
1356.624405,-10066.800811,1036.288319,1915.238745
1356.624726,-9622.677246,-1258.350101,1685.410096
1356.625047,-7994.224174,-1036.288319,1915.238745
1356.625367,-9400.615463,-1332.370696,383.047749
1356.625688,-9992.780217,666.185348,1991.848295
1356.626009,-10584.944971,1184.329507,2451.505594
1356.626330,-9474.636058,222.061783,2221.676944
1356.626650,-9104.533087,-1184.329507,-76.609550
1356.626971,-8882.471304,-814.226536,0.000000
1356.627292,-10658.965565,-666.185348,995.924147
1356.627613,-9474.636058,444.123565,2145.067394
1356.627933,-9770.718434,1332.370696,1838.629195
1356.628254,-10214.842000,-1184.329507,612.876398
1356.628575,-9178.553681,-1184.329507,-766.095498
1356.628895,-9474.636058,-444.123565,153.219100
1356.629216,-9622.677246,740.205942,3140.991542
1356.629537,-9622.677246,888.247130,2987.772442
1356.629858,-10288.862594,-1998.556043,2068.457845
1356.630178,-9030.512492,-1998.556043,-842.705048
1356.630499,-9400.615463,-1110.308913,-1072.533697
1356.630820,-9992.780217,-444.123565,459.657299
1356.631141,-8808.450710,1184.329507,1685.410096
1356.631461,-10066.800811,-592.164754,1455.581446
1356.631782,-8734.430116,-1554.432478,-919.314598
1356.632103,-8438.347739,-1998.556043,-1838.629195
1356.632423,-9474.636058,-370.102971,229.828649
1356.632744,-10214.842000,1406.391290,995.924147
1356.633065,-10288.862594,2590.720797,2604.724693
1356.633386,-9622.677246,296.082377,2221.676944
1356.633706,-8734.430116,-1480.411884,-689.485948
1356.634027,-9400.615463,-1184.329507,153.219100
1356.634348,-10584.944971,-1998.556043,1455.581446
1356.634669,-9474.636058,0.000000,1991.848295
1356.634989,-9548.656652,-370.102971,1991.848295
1356.635310,-9400.615463,-1924.535449,76.609550
1356.635631,-7402.059420,592.164754,-76.609550
1356.635951,-10658.965565,0.000000,1455.581446
1356.636272,-9104.533087,1924.535449,3217.601092
1356.636593,-10066.800811,740.205942,2298.286494
1356.636914,-9104.533087,-592.164754,1302.362347
1356.637234,-8364.327145,-444.123565,0.000000
1356.637555,-10362.883188,-370.102971,3600.648841
1356.637876,-10510.924376,-962.267725,2987.772442
1356.638196,-10066.800811,444.123565,2987.772442
1356.638517,-10658.965565,-666.185348,3140.991542
1356.638838,-10214.842000,-1258.350101,3447.429741
1356.639159,-11177.109724,-1406.391290,3370.820191
1356.639479,-10658.965565,-1924.535449,3753.867940
1356.639800,-10584.944971,-1184.329507,1608.800546
1356.640121,-8142.265362,518.144159,1225.752797
1356.640442,-8068.244768,-2368.659014,-1991.848295
1356.640762,-6661.853478,1332.370696,-2757.943793
1356.641083,-8216.285956,1110.308913,-2221.676944
1356.641404,-8956.491898,444.123565,-1378.971896
1356.641724,-9252.574275,962.267725,-1685.410096
1356.642045,-11029.068536,-2368.659014,-229.828649
1356.642366,-10658.965565,-1036.288319,0.000000
1356.642687,-10658.965565,740.205942,459.657299
1356.643007,-11029.068536,1850.514855,76.609550
1356.643328,-10362.883188,3627.009116,919.314598
1356.643649,-8734.430116,2516.700203,-229.828649
1356.643970,-10140.821405,-592.164754,-612.876398
1356.644290,-9178.553681,0.000000,-1762.019645
1356.644611,-9252.574275,518.144159,0.000000
1356.644932,-9770.718434,1036.288319,0.000000
1356.645252,-9252.574275,2590.720797,612.876398
1356.645573,-9622.677246,1332.370696,1149.143247
1356.645894,-10436.903782,888.247130,919.314598
1356.646215,-9400.615463,1184.329507,-1608.800546
1356.646535,-10955.047942,962.267725,-612.876398
1356.646856,-11029.068536,2442.679609,0.000000
1356.647177,-11103.089130,3552.988522,689.485948
1356.647498,-11029.068536,962.267725,689.485948
1356.647818,-9030.512492,-296.082377,-1685.410096
1356.648139,-8734.430116,222.061783,-3294.210641
1356.648460,-10436.903782,1184.329507,-2451.505594
1356.648780,-9252.574275,2960.823768,-842.705048
1356.649101,-8290.306550,2590.720797,-1532.190996
1356.649422,-8734.430116,814.226536,-2528.115143
1356.649743,-8808.450710,740.205942,-2298.286494
1356.650063,-9474.636058,370.102971,-2221.676944
1356.650384,-10436.903782,2960.823768,-1302.362347
1356.650705,-10436.903782,5551.544565,0.000000
1356.651026,-10436.903782,4219.173869,-383.047749
1356.651346,-9770.718434,3034.844362,-612.876398
1356.651667,-10140.821405,962.267725,-1302.362347
1356.651988,-8956.491898,1258.350101,-2221.676944
1356.652308,-9548.656652,2738.761985,-1072.533697
1356.652629,-9474.636058,2886.803174,-306.438199
1356.652950,-9474.636058,2590.720797,76.609550
1356.653271,-8216.285956,2664.741391,-766.095498
1356.653591,-8290.306550,1332.370696,-1532.190996
1356.653912,-8734.430116,814.226536,-2298.286494
1356.654233,-8512.368333,1332.370696,-2911.162892
1356.654554,-8290.306550,3330.926739,-2145.067394
1356.654874,-9992.780217,4811.338623,-306.438199
1356.655195,-10436.903782,4367.215058,1762.019645
1356.655516,-10881.027347,1924.535449,2221.676944
1356.655836,-11843.295072,0.000000,1838.629195
1356.656157,-11917.315666,-962.267725,1149.143247
1356.656478,-10584.944971,-296.082377,459.657299
1356.656799,-9696.697840,296.082377,-919.314598
1356.657119,-7846.182985,2516.700203,-2451.505594
1356.657440,-8438.347739,2738.761985,-1991.848295
1356.657761,-7698.141797,2516.700203,-2068.457845
1356.658082,-9474.636058,1554.432478,-1991.848295
1356.658402,-10881.027347,444.123565,-1072.533697
1356.658723,-10214.842000,370.102971,-1762.019645
1356.659044,-10066.800811,1776.494261,-1532.190996
1356.659364,-11103.089130,3627.009116,-383.047749
1356.659685,-10955.047942,4367.215058,536.266849
1356.660006,-10732.986159,2516.700203,306.438199
1356.660327,-10066.800811,1480.411884,-1225.752797
1356.660647,-10288.862594,518.144159,-1302.362347
1356.660968,-9622.677246,-222.061783,-1762.019645
1356.661289,-8956.491898,740.205942,-1762.019645
1356.661610,-8438.347739,1480.411884,-1991.848295
1356.661930,-9326.594869,1776.494261,-842.705048
1356.662251,-9178.553681,1036.288319,-612.876398
1356.662572,-9992.780217,518.144159,0.000000
1356.662892,-10288.862594,370.102971,383.047749
1356.663213,-10732.986159,740.205942,383.047749
1356.663534,-9918.759623,1406.391290,536.266849
1356.663855,-9474.636058,296.082377,-1915.238745
1356.664175,-8364.327145,2442.679609,-3983.696590
1356.664496,-9178.553681,3997.112087,-3600.648841
1356.664817,-9474.636058,3997.112087,-2068.457845
1356.665138,-9992.780217,3923.091493,-1685.410096
1356.665458,-9918.759623,2590.720797,-153.219100
1356.665779,-10658.965565,2442.679609,-306.438199
1356.666100,-10510.924376,1554.432478,919.314598
1356.666420,-9992.780217,-888.247130,612.876398
1356.666741,-8512.368333,-740.205942,-383.047749
1356.667062,-8586.388927,888.247130,-2068.457845
1356.667383,-9252.574275,2590.720797,-1225.752797
1356.667703,-9400.615463,3108.864956,-383.047749
1356.668024,-8734.430116,2368.659014,-1225.752797
1356.668345,-9178.553681,1628.453072,-2298.286494
1356.668665,-9252.574275,3182.885551,-1532.190996
1356.668986,-10436.903782,1924.535449,0.000000
1356.669307,-10140.821405,518.144159,306.438199
1356.669628,-9696.697840,-370.102971,-1608.800546
1356.669948,-9474.636058,296.082377,-2681.334243
1356.670269,-9474.636058,2516.700203,-2221.676944
1356.670590,-9770.718434,4145.153275,-1302.362347
1356.670911,-9548.656652,4885.359217,-2451.505594
1356.671231,-9992.780217,3256.906145,-612.876398
1356.671552,-9474.636058,1702.473667,-995.924147
1356.671873,-9474.636058,518.144159,-842.705048
1356.672193,-9918.759623,222.061783,0.000000
1356.672514,-9992.780217,1036.288319,1225.752797
1356.672835,-10214.842000,962.267725,689.485948
1356.673156,-9178.553681,888.247130,-1532.190996
1356.673476,-8586.388927,1628.453072,-2987.772442
1356.673797,-9400.615463,3182.885551,-2681.334243
1356.674118,-9992.780217,4663.297435,-1762.019645
1356.674439,-10288.862594,5033.400406,-842.705048
1356.674759,-9918.759623,4515.256246,-689.485948
1356.675080,-9622.677246,3330.926739,-1991.848295
1356.675401,-11103.089130,1110.308913,-459.657299
1356.675721,-10436.903782,1480.411884,153.219100
1356.676042,-10140.821405,1924.535449,0.000000
1356.676363,-9548.656652,2960.823768,612.876398
1356.676684,-9474.636058,1850.514855,76.609550
1356.677005,-8808.450710,518.144159,-842.705048
1356.677326,-8586.388927,-592.164754,-1762.019645
1356.677646,-8734.430116,-296.082377,-2451.505594
1356.677967,-9178.553681,1036.288319,-1915.238745
1356.678288,-9474.636058,2664.741391,-2528.115143
1356.678609,-9992.780217,4367.215058,-1838.629195
1356.678930,-10362.883188,5551.544565,-1532.190996
1356.679250,-10584.944971,5329.482782,-1072.533697
1356.679571,-10881.027347,3923.091493,-306.438199
1356.679892,-10658.965565,1850.514855,-383.047749
1356.680213,-9770.718434,222.061783,-306.438199
1356.680534,-9326.594869,-296.082377,-306.438199
1356.680855,-8956.491898,-518.144159,-229.828649
1356.681175,-8364.327145,-814.226536,536.266849
1356.681496,-8956.491898,-962.267725,842.705048
1356.681817,-9104.533087,-518.144159,536.266849
1356.682138,-9474.636058,444.123565,-536.266849
1356.682459,-9474.636058,740.205942,-612.876398
1356.682780,-9030.512492,1850.514855,-2221.676944
1356.683100,-9474.636058,3256.906145,-2604.724693
1356.683421,-9548.656652,4367.215058,-3064.381992
1356.683742,-9992.780217,4959.379811,-3677.258390
1356.684063,-11029.068536,4737.318029,-2604.724693
1356.684384,-11103.089130,3997.112087,-1838.629195
1356.684705,-11769.274478,3404.947333,-919.314598
1356.685025,-11399.171507,2664.741391,76.609550
1356.685346,-10807.006753,666.185348,1072.533697
1356.685667,-10288.862594,-666.185348,1991.848295
1356.685988,-9178.553681,-2590.720797,1532.190996
1356.686309,-8216.285956,-3627.009116,689.485948
1356.686630,-7698.141797,-2442.679609,0.000000
1356.686950,-7772.162391,-814.226536,-766.095498
1356.687271,-8068.244768,1184.329507,-1225.752797
1356.687592,-8808.450710,2812.782580,-1455.581446
1356.687913,-9030.512492,3478.967927,-1608.800546
1356.688234,-9918.759623,3627.009116,-1915.238745
1356.688555,-10881.027347,3997.112087,-1608.800546
1356.688875,-11399.171507,4219.173869,-995.924147
1356.689196,-11547.212695,3923.091493,-995.924147
1356.689517,-10881.027347,3182.885551,-766.095498
1356.689838,-10140.821405,1776.494261,-919.314598
1356.690159,-9548.656652,592.164754,-995.924147
1356.690480,-9400.615463,-444.123565,-229.828649
1356.690800,-9178.553681,-1110.308913,-766.095498
1356.691121,-8808.450710,-1480.411884,-1149.143247
1356.691442,-8734.430116,-1036.288319,-766.095498
1356.691763,-8956.491898,0.000000,-995.924147
1356.692084,-9326.594869,1258.350101,-1378.971896
1356.692404,-9400.615463,2886.803174,-1532.190996
1356.692725,-9770.718434,4367.215058,-2451.505594
1356.693046,-9844.739029,5181.441594,-2681.334243
1356.693367,-9844.739029,4811.338623,-2834.553343
1356.693688,-10140.821405,5181.441594,-2834.553343
1356.694009,-10362.883188,4293.194464,-2221.676944
1356.694329,-10436.903782,2886.803174,-1532.190996
1356.694650,-10362.883188,1628.453072,-459.657299
1356.694971,-10732.986159,370.102971,0.000000
1356.695292,-9844.739029,0.000000,766.095498
1356.695613,-9622.677246,-296.082377,1072.533697
1356.695934,-9400.615463,222.061783,1149.143247
1356.696254,-9030.512492,888.247130,842.705048
1356.696575,-8734.430116,666.185348,-153.219100
1356.696896,-8734.430116,1184.329507,-842.705048
1356.697217,-9030.512492,2146.597232,-1225.752797
1356.697538,-9548.656652,2960.823768,0.000000
1356.697859,-9770.718434,3627.009116,76.609550
1356.698179,-10288.862594,3404.947333,919.314598
1356.698500,-10658.965565,1480.411884,842.705048
1356.698821,-9992.780217,444.123565,1378.971896
1356.699142,-10140.821405,-592.164754,1455.581446
1356.699463,-9770.718434,-814.226536,1838.629195
1356.699784,-9326.594869,-1258.350101,1378.971896
1356.700104,-9030.512492,-1258.350101,1762.019645
1356.700425,-8364.327145,-740.205942,1762.019645
1356.700746,-8586.388927,-814.226536,1072.533697
1356.701067,-9030.512492,74.020594,1378.971896
1356.701388,-9474.636058,962.267725,1532.190996
1356.701709,-9178.553681,1628.453072,2987.772442
1356.702029,-9400.615463,2220.617826,842.705048
1356.702350,-9696.697840,2442.679609,459.657299
1356.702671,-10066.800811,3108.864956,383.047749
1356.702992,-10214.842000,3256.906145,-383.047749
1356.703313,-9918.759623,2886.803174,-766.095498
1356.703634,-10214.842000,2516.700203,-536.266849
1356.703954,-10066.800811,1924.535449,-383.047749
1356.704275,-10066.800811,1480.411884,-306.438199
1356.704596,-10362.883188,740.205942,0.000000
1356.704917,-10140.821405,592.164754,-306.438199
1356.705238,-10362.883188,296.082377,-1072.533697
1356.705559,-9844.739029,740.205942,-1762.019645
1356.705879,-9770.718434,814.226536,-3524.039291
1356.706200,-9400.615463,2072.576638,-3677.258390
1356.706521,-9178.553681,2664.741391,-4519.963438
1356.706842,-9400.615463,3330.926739,-5515.887586
1356.707163,-9548.656652,3478.967927,-5669.106685
1356.707483,-10288.862594,3923.091493,-5362.668486
1356.707804,-10510.924376,3552.988522,-4979.620737
1356.708125,-10881.027347,3478.967927,-4903.011187
1356.708446,-10807.006753,3034.844362,-4519.963438
1356.708767,-11177.109724,3256.906145,-4136.915689
1356.709088,-10510.924376,2738.761985,-4136.915689
1356.709408,-10066.800811,2886.803174,-3600.648841
1356.709729,-9770.718434,2516.700203,-3600.648841
1356.710050,-9178.553681,2294.638420,-3677.258390
1356.710371,-8882.471304,1702.473667,-3294.210641
1356.710692,-8586.388927,2072.576638,-3524.039291
1356.711013,-8586.388927,2368.659014,-3524.039291
1356.711333,-8808.450710,2368.659014,-2451.505594
1356.711654,-8808.450710,3182.885551,-536.266849
1356.711975,-9178.553681,3552.988522,-2374.896044
1356.712296,-9178.553681,4071.132681,-1762.019645
1356.712617,-9548.656652,3849.070898,-1149.143247
1356.712938,-9548.656652,4071.132681,-536.266849
1356.713258,-9992.780217,4071.132681,612.876398
1356.713579,-10214.842000,2812.782580,1915.238745
1356.713900,-9918.759623,1554.432478,2681.334243
1356.714221,-9992.780217,0.000000,3064.381992
1356.714542,-9474.636058,-1036.288319,2451.505594
1356.714863,-9178.553681,-740.205942,2221.676944
1356.715183,-8882.471304,0.000000,1915.238745
1356.715504,-8216.285956,888.247130,995.924147
1356.715825,-8586.388927,2664.741391,-842.705048
1356.716146,-8586.388927,3923.091493,153.219100
1356.716467,-9770.718434,4293.194464,459.657299
1356.716788,-10288.862594,3997.112087,153.219100
1356.717108,-10658.965565,3256.906145,229.828649
1356.717429,-11103.089130,3256.906145,306.438199
1356.717750,-10881.027347,3256.906145,995.924147
1356.718071,-11029.068536,3182.885551,1685.410096
1356.718392,-10436.903782,2442.679609,2221.676944
1356.718713,-10140.821405,740.205942,2374.896044
1356.719033,-10066.800811,-740.205942,2145.067394
1356.719354,-9696.697840,-2368.659014,1072.533697
1356.719675,-9030.512492,-2664.741391,229.828649
1356.719996,-8882.471304,-1850.514855,919.314598
1356.720317,-8438.347739,0.000000,-1532.190996
1356.720637,-8438.347739,740.205942,-2451.505594
1356.720958,-9178.553681,2368.659014,-3447.429741
1356.721279,-10066.800811,3552.988522,-4290.134789
1356.721600,-10140.821405,4145.153275,-4979.620737
1356.721921,-10732.986159,5181.441594,-4826.401637
1356.722242,-11325.150913,5477.523971,-4596.572988
1356.722562,-11103.089130,5329.482782,-2757.943793
1356.722883,-10955.047942,2590.720797,-2451.505594
1356.723204,-10362.883188,-222.061783,-1302.362347
1356.723525,-9696.697840,-3478.967927,-1991.848295
1356.723846,-9104.533087,-4219.173869,-2451.505594
1356.724167,-8290.306550,-4145.153275,-2374.896044
1356.724487,-7698.141797,-1924.535449,-1838.629195
1356.724808,-7846.182985,-814.226536,-1532.190996
1356.725129,-7624.121203,-962.267725,-3447.429741
1356.725450,-7846.182985,666.185348,-4136.915689
1356.725771,-9326.594869,1554.432478,-4060.306139
1356.726092,-9622.677246,4293.194464,-3217.601092
1356.726412,-10955.047942,5625.565159,-2374.896044
1356.726733,-10807.006753,5847.626942,-1762.019645
1356.727054,-9770.718434,3849.070898,-2298.286494
1356.727375,-10362.883188,3034.844362,-2604.724693
1356.727696,-10362.883188,3108.864956,-1991.848295
1356.728017,-10955.047942,2220.617826,-612.876398
1356.728337,-9992.780217,1110.308913,0.000000
1356.728658,-8956.491898,296.082377,-306.438199
1356.728979,-8734.430116,222.061783,0.000000
1356.729300,-9252.574275,1258.350101,1685.410096
1356.729621,-9918.759623,1702.473667,3830.477490
1356.729942,-9918.759623,0.000000,3983.696590
1356.730262,-9178.553681,-148.041188,1838.629195
1356.730583,-9104.533087,296.082377,1455.581446
1356.730904,-9252.574275,1776.494261,1302.362347
1356.731225,-9992.780217,3478.967927,1302.362347
1356.731546,-9992.780217,3478.967927,306.438199
1356.731867,-9178.553681,4219.173869,-1838.629195
1356.732187,-9770.718434,5107.421000,-1302.362347
1356.732508,-11251.130318,4737.318029,842.705048
1356.732829,-11695.253884,2886.803174,1762.019645
1356.733150,-10436.903782,740.205942,919.314598
1356.733471,-9474.636058,444.123565,-459.657299
1356.733791,-9992.780217,222.061783,-153.219100
1356.734112,-9400.615463,592.164754,689.485948
1356.734433,-9030.512492,1036.288319,0.000000
1356.734754,-8364.327145,2886.803174,-1149.143247
1356.735075,-8660.409521,3552.988522,-1608.800546
1356.735396,-8512.368333,1776.494261,-612.876398
1356.735716,-9030.512492,518.144159,-1762.019645
1356.736037,-9326.594869,1332.370696,-2681.334243
1356.736358,-9548.656652,2368.659014,-2681.334243
1356.736679,-9844.739029,3182.885551,-1072.533697
1356.737000,-9770.718434,3330.926739,-2451.505594
1356.737321,-9474.636058,3108.864956,-3907.087040
1356.737641,-10140.821405,4071.132681,-3370.820191
1356.737962,-10881.027347,3849.070898,-2451.505594
1356.738283,-9770.718434,1924.535449,-2145.067394
1356.738604,-9770.718434,666.185348,-3064.381992
1356.738925,-9326.594869,444.123565,-3064.381992
1356.739246,-9326.594869,518.144159,-2987.772442
1356.739566,-9252.574275,1554.432478,-1455.581446
1356.739887,-9918.759623,1110.308913,-1455.581446
1356.740208,-9326.594869,1924.535449,-1915.238745
1356.740529,-10140.821405,1628.453072,-1915.238745
1356.740850,-9992.780217,1850.514855,-612.876398
1356.741171,-10658.965565,3404.947333,-1072.533697
1356.741491,-9696.697840,2812.782580,-2221.676944
1356.741812,-8512.368333,3108.864956,-3294.210641
1356.742133,-9918.759623,3552.988522,-3370.820191
1356.742454,-10362.883188,3256.906145,-2145.067394
1356.742775,-9474.636058,2516.700203,-1072.533697
1356.743096,-9918.759623,2146.597232,-383.047749
1356.743416,-10436.903782,2294.638420,76.609550
1356.743737,-10584.944971,3552.988522,1302.362347
1356.744058,-10955.047942,2812.782580,3600.648841
1356.744379,-10214.842000,666.185348,2987.772442
1356.744700,-8438.347739,-740.205942,612.876398
1356.745021,-8808.450710,-1702.473667,1149.143247
1356.745341,-8660.409521,-1258.350101,-689.485948
1356.745662,-8290.306550,1406.391290,229.828649
1356.745983,-9400.615463,2146.597232,306.438199
1356.746304,-9474.636058,4145.153275,306.438199
1356.746625,-10510.924376,3256.906145,459.657299
1356.746946,-9622.677246,1628.453072,0.000000
1356.747266,-10066.800811,444.123565,-459.657299
1356.747587,-9696.697840,0.000000,-229.828649
1356.747908,-8364.327145,-222.061783,536.266849
1356.748229,-10510.924376,444.123565,2757.943793
1356.748550,-9992.780217,-962.267725,2451.505594
1356.748870,-9474.636058,-1332.370696,1991.848295
1356.749191,-9548.656652,-1036.288319,2604.724693
1356.749512,-9030.512492,666.185348,689.485948
1356.749833,-9696.697840,1184.329507,1149.143247
1356.750154,-8660.409521,888.247130,0.000000
1356.750475,-8142.265362,0.000000,-1991.848295
1356.750795,-8364.327145,-222.061783,-2451.505594
1356.751116,-9178.553681,666.185348,-2528.115143
1356.751437,-9030.512492,3182.885551,-1225.752797
1356.751758,-10807.006753,3256.906145,383.047749
1356.752079,-9992.780217,1924.535449,1532.190996
1356.752400,-9770.718434,-148.041188,-1302.362347
1356.752720,-10584.944971,-2294.638420,-1225.752797
1356.753041,-10807.006753,-2146.597232,-1072.533697
1356.753362,-9178.553681,296.082377,1455.581446
1356.753683,-10288.862594,-592.164754,153.219100
1356.754004,-8882.471304,-222.061783,-1838.629195
1356.754325,-8142.265362,1184.329507,-2068.457845
1356.754645,-10288.862594,-296.082377,-2145.067394
1356.754966,-8290.306550,1850.514855,-995.924147
1356.755287,-10658.965565,2146.597232,-459.657299
1356.755608,-10362.883188,1110.308913,306.438199
1356.755929,-9030.512492,-518.144159,-1455.581446
1356.756250,-9178.553681,-1110.308913,-689.485948
1356.756570,-10955.047942,-1258.350101,-306.438199
1356.756891,-9326.594869,3108.864956,1149.143247
1356.757212,-11843.295072,1258.350101,2604.724693
1356.757533,-10214.842000,148.041188,2528.115143
1356.757854,-8290.306550,-1480.411884,383.047749
1356.758175,-9992.780217,-2886.803174,766.095498
1356.758495,-8808.450710,-740.205942,1838.629195
1356.758816,-10214.842000,-296.082377,3830.477490
1356.759137,-10288.862594,-222.061783,3830.477490
1356.759458,-8142.265362,-148.041188,1685.410096
1356.759779,-8512.368333,-666.185348,1225.752797
1356.760100,-9696.697840,-222.061783,1302.362347
1356.760420,-7772.162391,2960.823768,1915.238745
1356.760741,-11029.068536,1332.370696,2987.772442
1356.761062,-8586.388927,1036.288319,1685.410096
1356.761383,-9474.636058,74.020594,1072.533697
1356.761704,-9326.594869,-1184.329507,995.924147
1356.762024,-8068.244768,222.061783,1608.800546
1356.762345,-10066.800811,1406.391290,3907.087040
1356.762666,-10732.986159,-962.267725,4979.620737
1356.762987,-8882.471304,-2368.659014,3294.210641
1356.763308,-9992.780217,-2960.823768,3217.601092
1356.763629,-9474.636058,-2664.741391,3677.258390
1356.763949,-10066.800811,-666.185348,4903.011187
1356.764270,-10881.027347,-1998.556043,4673.182538
1356.764591,-9844.739029,-1628.453072,1532.190996
1356.764912,-8216.285956,-666.185348,-229.828649
1356.765233,-8142.265362,-962.267725,-1838.629195
1356.765554,-7846.182985,2072.576638,-1302.362347
1356.765874,-10214.842000,2220.617826,-229.828649
1356.766195,-9918.759623,1554.432478,-229.828649
1356.766516,-9474.636058,370.102971,0.000000
1356.766837,-10584.944971,-2664.741391,0.000000
1356.767158,-11029.068536,-1924.535449,995.924147
1356.767479,-11917.315666,-370.102971,2528.115143
1356.767799,-11399.171507,-1332.370696,2528.115143
1356.768120,-9252.574275,-518.144159,766.095498
1356.768441,-8068.244768,-1036.288319,-536.266849
1356.768762,-9252.574275,-1110.308913,-2145.067394
1356.769083,-8290.306550,296.082377,-919.314598
1356.769404,-9696.697840,-444.123565,766.095498
1356.769724,-9104.533087,-2220.617826,76.609550
1356.770045,-7772.162391,-2516.700203,-766.095498
1356.770366,-10140.821405,-3256.906145,-1302.362347
1356.770687,-9918.759623,296.082377,-306.438199
1356.771008,-10955.047942,2738.761985,1455.581446
1356.771329,-10658.965565,1258.350101,2068.457845
1356.771649,-9622.677246,444.123565,0.000000
1356.771970,-9992.780217,-888.247130,153.219100
1356.772291,-10807.006753,-2738.761985,766.095498
1356.772612,-7994.224174,-296.082377,919.314598
1356.772933,-10955.047942,-1332.370696,2987.772442
1356.773254,-9474.636058,-2072.576638,1455.581446
1356.773574,-8068.244768,-518.144159,919.314598
1356.773895,-10214.842000,-1776.494261,919.314598
1356.774216,-8290.306550,296.082377,766.095498
1356.774537,-9696.697840,1036.288319,1302.362347
1356.774858,-11029.068536,-222.061783,2528.115143
1356.775179,-8364.327145,148.041188,612.876398
1356.775499,-9770.718434,148.041188,383.047749
1356.775820,-10288.862594,666.185348,1685.410096
1356.776140,-9474.636058,3256.906145,2298.286494
1356.776461,-12139.377449,1258.350101,4060.306139
1356.776782,-10288.862594,-148.041188,3217.601092
1356.777103,-8808.450710,-2294.638420,1378.971896
1356.777423,-9844.739029,-2516.700203,1072.533697
1356.777744,-8808.450710,296.082377,1762.019645
1356.778065,-9400.615463,1036.288319,2987.772442
1356.778386,-9474.636058,148.041188,2681.334243
1356.778707,-7846.182985,370.102971,1225.752797
1356.779027,-9178.553681,-2368.659014,612.876398
1356.779348,-9770.718434,-1258.350101,1302.362347
1356.779669,-9992.780217,1332.370696,3140.991542
1356.779990,-11251.130318,148.041188,3217.601092
1356.780310,-9844.739029,370.102971,2298.286494
1356.780631,-9178.553681,222.061783,995.924147
1356.780952,-9992.780217,-1332.370696,-229.828649
1356.781273,-9252.574275,0.000000,-536.266849
1356.781593,-10881.027347,0.000000,1149.143247
1356.781914,-9104.533087,444.123565,612.876398
1356.782235,-10214.842000,148.041188,76.609550
1356.782556,-9400.615463,518.144159,2068.457845
1356.782877,-10510.924376,-1406.391290,-1762.019645
1356.783197,-4663.297435,814.226536,612.876398
1356.783518,-11399.171507,-1850.514855,153.219100
1356.783839,-7179.997637,0.000000,1608.800546
1356.784160,-7846.182985,-3256.906145,-766.095498
1356.784480,-11399.171507,666.185348,1991.848295
1356.784801,-7550.100608,2072.576638,-2834.553343
1356.785122,-12139.377449,1998.556043,2911.162892
1356.785443,-11177.109724,-296.082377,766.095498
1356.785763,-7476.080014,-666.185348,-1762.019645
1356.786084,-12213.398043,-4441.235652,-1302.362347
1356.786405,-7254.018232,370.102971,-306.438199
1356.786726,-10510.924376,222.061783,-229.828649
1356.787047,-12953.603985,-370.102971,2757.943793
1356.787367,-6439.791695,-296.082377,-2145.067394
1356.787688,-9178.553681,-1110.308913,-1991.848295
1356.788009,-8808.450710,-962.267725,-919.314598
1356.788330,-6809.894666,814.226536,-766.095498
1356.788650,-11843.295072,-370.102971,2681.334243
1356.788971,-9474.636058,-2072.576638,1455.581446
1356.789292,-8882.471304,-1036.288319,1225.752797
1356.789613,-11843.295072,-3404.947333,2834.553343
1356.789933,-10066.800811,-814.226536,2145.067394
1356.790254,-10732.986159,2294.638420,3677.258390
1356.790575,-10807.006753,370.102971,1225.752797
1356.790896,-8882.471304,1628.453072,459.657299
1356.791217,-8438.347739,0.000000,0.000000
1356.791537,-9622.677246,-2146.597232,0.000000
1356.791858,-7994.224174,1628.453072,2298.286494
1356.792179,-11029.068536,-1110.308913,2757.943793
1356.792500,-9252.574275,-592.164754,1149.143247
1356.792820,-9474.636058,-148.041188,2374.896044
1356.793141,-9770.718434,-666.185348,2298.286494
1356.793462,-9474.636058,1924.535449,4060.306139
1356.793783,-9474.636058,1850.514855,3983.696590
1356.794103,-10658.965565,-1924.535449,3217.601092
1356.794424,-8068.244768,-1998.556043,1225.752797
1356.794745,-8882.471304,-2960.823768,0.000000
1356.795066,-8734.430116,-814.226536,689.485948
1356.795387,-8586.388927,2442.679609,2145.067394
1356.795707,-10955.047942,962.267725,3753.867940
1356.796028,-10362.883188,148.041188,3447.429741
1356.796349,-10807.006753,-2368.659014,3140.991542
1356.796670,-11325.150913,-3627.009116,3064.381992
1356.796990,-9918.759623,518.144159,2757.943793
1356.797311,-10807.006753,0.000000,2451.505594
1356.797632,-8364.327145,-370.102971,1149.143247
1356.797953,-6069.688724,-740.205942,-2451.505594
1356.798273,-7772.162391,-2220.617826,-2298.286494
1356.798594,-7624.121203,-222.061783,-1991.848295
1356.798915,-8808.450710,740.205942,0.000000
1356.799236,-10510.924376,0.000000,1762.019645
1356.799557,-9770.718434,0.000000,-995.924147
1356.799877,-10584.944971,-1480.411884,919.314598
1356.800198,-9844.739029,-2516.700203,-459.657299
1356.800519,-9770.718434,740.205942,536.266849
1356.800840,-11399.171507,592.164754,1455.581446
1356.801160,-9178.553681,0.000000,-919.314598
1356.801481,-8734.430116,740.205942,-1532.190996
1356.801802,-9622.677246,-1110.308913,-2451.505594
