#time,accel_x,accel_y,accel_z
1109.445024,-9326.594869,-3256.906145,2911.162892
1109.445344,-9252.574275,-2590.720797,2451.505594
1109.445665,-9326.594869,-1776.494261,1608.800546
1109.445986,-9474.636058,-1184.329507,1149.143247
1109.446307,-9992.780217,518.144159,0.000000
1109.446628,-9622.677246,888.247130,0.000000
1109.446948,-10066.800811,1628.453072,612.876398
1109.447269,-10436.903782,1702.473667,1455.581446
1109.447590,-10955.047942,740.205942,1838.629195
1109.447911,-10140.821405,-444.123565,2451.505594
1109.448231,-10140.821405,-1480.411884,1455.581446
1109.448552,-9770.718434,-2072.576638,1455.581446
1109.448873,-9030.512492,-1702.473667,1532.190996
1109.449194,-8808.450710,-1332.370696,2145.067394
1109.449514,-8438.347739,-1184.329507,1225.752797
1109.449835,-8734.430116,-1036.288319,536.266849
1109.450156,-9030.512492,-592.164754,766.095498
1109.450477,-9252.574275,148.041188,1532.190996
1109.450797,-9622.677246,518.144159,2145.067394
1109.451118,-10066.800811,74.020594,2374.896044
1109.451439,-9992.780217,0.000000,2451.505594
1109.451760,-10140.821405,-518.144159,2068.457845
1109.452080,-9770.718434,-740.205942,3983.696590
1109.452401,-9918.759623,-1110.308913,1762.019645
1109.452722,-9326.594869,-1406.391290,1225.752797
1109.453043,-9178.553681,-1110.308913,995.924147
1109.453363,-9326.594869,-1110.308913,612.876398
1109.453684,-9104.533087,-1184.329507,459.657299
1109.454005,-9326.594869,-814.226536,689.485948
1109.454326,-9474.636058,-814.226536,919.314598
1109.454646,-9918.759623,0.000000,1149.143247
1109.454967,-9992.780217,222.061783,1225.752797
1109.455288,-9622.677246,74.020594,1455.581446
1109.455609,-9844.739029,222.061783,1685.410096
1109.455930,-9992.780217,74.020594,2068.457845
1109.456250,-9548.656652,-296.082377,1149.143247
1109.456571,-9770.718434,-666.185348,2451.505594
1109.456892,-9622.677246,-1702.473667,2681.334243
1109.457213,-9474.636058,-2146.597232,3140.991542
1109.457533,-9474.636058,-2664.741391,3217.601092
1109.457854,-9104.533087,-2664.741391,3524.039291
1109.458175,-9326.594869,-2368.659014,3524.039291
1109.458496,-9252.574275,-2294.638420,3140.991542
1109.458816,-9104.533087,-2072.576638,2604.724693
1109.459137,-8512.368333,-2072.576638,3447.429741
1109.459458,-9104.533087,-1628.453072,2451.505594
1109.459779,-9400.615463,-1628.453072,2221.676944
1109.460099,-9474.636058,-1554.432478,2298.286494
1109.460420,-9992.780217,-1184.329507,2451.505594
1109.460741,-9696.697840,-1480.411884,2068.457845
1109.461062,-9992.780217,-1628.453072,1991.848295
1109.461382,-9844.739029,-1998.556043,2451.505594
1109.461703,-9918.759623,-2072.576638,2298.286494
1109.462024,-10066.800811,-2072.576638,2221.676944
1109.462345,-9548.656652,-2220.617826,1915.238745
1109.462665,-9622.677246,-2442.679609,1608.800546
1109.462986,-9474.636058,-2368.659014,1149.143247
1109.463307,-9622.677246,-1924.535449,536.266849
1109.463628,-9474.636058,-1480.411884,383.047749
1109.463948,-9400.615463,-814.226536,0.000000
1109.464269,-9548.656652,-592.164754,0.000000
1109.464590,-9474.636058,0.000000,2681.334243
1109.464911,-9844.739029,370.102971,-459.657299
1109.465231,-9992.780217,444.123565,-383.047749
1109.465552,-9918.759623,666.185348,-459.657299
1109.465873,-10214.842000,666.185348,0.000000
1109.466194,-10140.821405,222.061783,0.000000
1109.466515,-9918.759623,0.000000,0.000000
1109.466835,-10066.800811,0.000000,229.828649
1109.467156,-9770.718434,-74.020594,153.219100
1109.467477,-9474.636058,370.102971,0.000000
1109.467798,-9326.594869,0.000000,76.609550
1109.468118,-9474.636058,148.041188,153.219100
1109.468439,-9326.594869,296.082377,-229.828649
1109.468760,-9400.615463,1184.329507,919.314598
1109.469081,-9474.636058,444.123565,0.000000
1109.469401,-9400.615463,888.247130,459.657299
1109.469722,-9474.636058,814.226536,612.876398
1109.470043,-9770.718434,1184.329507,1149.143247
1109.470364,-9548.656652,1184.329507,1302.362347
1109.470685,-9696.697840,888.247130,1378.971896
1109.471005,-10066.800811,814.226536,1302.362347
1109.471326,-9696.697840,592.164754,1685.410096
1109.471647,-9400.615463,1406.391290,2757.943793
1109.471968,-9326.594869,148.041188,1991.848295
1109.472289,-9252.574275,0.000000,2374.896044
1109.472609,-9104.533087,-370.102971,2374.896044
1109.472930,-9030.512492,-592.164754,2298.286494
1109.473251,-9326.594869,-666.185348,2451.505594
1109.473572,-9696.697840,-222.061783,2681.334243
1109.473893,-9622.677246,0.000000,2681.334243
1109.474213,-9622.677246,0.000000,2681.334243
1109.474534,-9918.759623,518.144159,2451.505594
1109.474855,-9992.780217,518.144159,2528.115143
1109.475176,-9844.739029,888.247130,2451.505594
1109.475496,-9844.739029,222.061783,2145.067394
1109.475817,-9178.553681,-222.061783,689.485948
1109.476138,-9696.697840,0.000000,1838.629195
1109.476459,-9622.677246,-222.061783,1532.190996
1109.476780,-9770.718434,-444.123565,1915.238745
1109.477100,-9844.739029,-740.205942,1608.800546
1109.477421,-9548.656652,-814.226536,1378.971896
1109.477742,-9474.636058,-592.164754,1149.143247
1109.478063,-9622.677246,-518.144159,1072.533697
1109.478384,-9622.677246,-370.102971,1072.533697
1109.478704,-9474.636058,-296.082377,383.047749
1109.479025,-9548.656652,-222.061783,76.609550
1109.479346,-9696.697840,0.000000,76.609550
1109.479667,-9918.759623,-222.061783,153.219100
1109.479987,-9400.615463,0.000000,0.000000
1109.480308,-9918.759623,-222.061783,229.828649
1109.480629,-9548.656652,-592.164754,0.000000
1109.480950,-9622.677246,-740.205942,153.219100
1109.481271,-9622.677246,-1036.288319,0.000000
1109.481591,-9474.636058,-1332.370696,-153.219100
1109.481912,-9252.574275,-1184.329507,-153.219100
1109.482233,-9326.594869,-1332.370696,0.000000
1109.482554,-9252.574275,-1258.350101,76.609550
1109.482875,-8808.450710,-1480.411884,383.047749
1109.483195,-9104.533087,-1406.391290,459.657299
1109.483516,-9326.594869,-1258.350101,383.047749
1109.483837,-9622.677246,-1036.288319,536.266849
1109.484158,-9474.636058,-1406.391290,995.924147
1109.484479,-9622.677246,-518.144159,919.314598
1109.484799,-9844.739029,-370.102971,1072.533697
1109.485120,-9696.697840,-74.020594,995.924147
1109.485441,-9474.636058,-296.082377,1072.533697
1109.485762,-9696.697840,-74.020594,1915.238745
1109.486082,-9696.697840,-222.061783,1685.410096
1109.486403,-9622.677246,-518.144159,1378.971896
1109.486724,-9474.636058,-592.164754,1225.752797
1109.487045,-9696.697840,-444.123565,1532.190996
1109.487366,-9622.677246,-444.123565,1762.019645
1109.487686,-9622.677246,-444.123565,1685.410096
1109.488007,-9400.615463,-296.082377,1378.971896
1109.488328,-10362.883188,814.226536,2221.676944
1109.488649,-9844.739029,148.041188,1532.190996
1109.488970,-9622.677246,296.082377,1225.752797
1109.489290,-9770.718434,296.082377,1378.971896
1109.489611,-9622.677246,666.185348,1302.362347
1109.489932,-9696.697840,518.144159,1532.190996
1109.490253,-9918.759623,592.164754,1455.581446
1109.490573,-9918.759623,370.102971,1149.143247
1109.490894,-9622.677246,444.123565,1072.533697
1109.491215,-10066.800811,444.123565,995.924147
1109.491536,-9696.697840,0.000000,1608.800546
1109.491857,-9622.677246,-222.061783,995.924147
1109.492177,-9474.636058,-148.041188,995.924147
1109.492498,-8512.368333,-1554.432478,2145.067394
1109.492819,-9400.615463,-296.082377,919.314598
1109.493140,-9326.594869,-222.061783,995.924147
1109.493461,-9104.533087,0.000000,842.705048
1109.493781,-9252.574275,0.000000,1072.533697
1109.494102,-9474.636058,148.041188,995.924147
1109.494423,-9548.656652,0.000000,842.705048
1109.494744,-9696.697840,0.000000,1149.143247
1109.495065,-9696.697840,0.000000,1072.533697
1109.495385,-9400.615463,74.020594,1838.629195
1109.495706,-9326.594869,-296.082377,1455.581446
1109.496027,-9474.636058,-518.144159,1302.362347
1109.496348,-9252.574275,-592.164754,1225.752797
1109.496668,-9474.636058,-444.123565,3064.381992
1109.496989,-9474.636058,-888.247130,1149.143247
1109.497310,-9548.656652,-814.226536,1149.143247
1109.497631,-9548.656652,-814.226536,1455.581446
1109.497952,-9400.615463,-740.205942,1455.581446
1109.498272,-9770.718434,-592.164754,1149.143247
1109.498593,-9770.718434,-444.123565,766.095498
1109.498914,-9696.697840,-222.061783,919.314598
1109.499235,-9918.759623,-222.061783,919.314598
1109.499556,-9770.718434,0.000000,612.876398
1109.499876,-9770.718434,0.000000,766.095498
1109.500197,-9844.739029,-222.061783,536.266849
1109.500518,-9992.780217,-666.185348,689.485948
1109.500839,-10362.883188,518.144159,842.705048
1109.501160,-9696.697840,-518.144159,766.095498
1109.501480,-9844.739029,-444.123565,919.314598
1109.501801,-9770.718434,-592.164754,1072.533697
1109.502122,-9696.697840,-888.247130,842.705048
1109.502443,-9474.636058,-592.164754,995.924147
1109.502763,-9548.656652,-740.205942,842.705048
1109.503084,-9696.697840,-666.185348,766.095498
1109.503405,-9474.636058,-814.226536,1149.143247
1109.503726,-9548.656652,-740.205942,919.314598
1109.504047,-9622.677246,-592.164754,842.705048
1109.504367,-9326.594869,-740.205942,842.705048
1109.504688,-9474.636058,-666.185348,1072.533697
1109.505009,-9326.594869,-148.041188,1685.410096
1109.505330,-9474.636058,-592.164754,1302.362347
1109.505651,-9474.636058,-740.205942,1455.581446
1109.505971,-9770.718434,-666.185348,1455.581446
1109.506292,-9474.636058,-814.226536,1915.238745
1109.506613,-9696.697840,-592.164754,1762.019645
1109.506934,-9474.636058,-666.185348,1302.362347
1109.507254,-9178.553681,-888.247130,1608.800546
1109.507575,-9178.553681,-740.205942,1302.362347
1109.507896,-9104.533087,-888.247130,1225.752797
1109.508217,-9474.636058,-518.144159,995.924147
1109.508538,-9474.636058,-296.082377,995.924147
1109.508858,-9474.636058,0.000000,919.314598
1109.509179,-10214.842000,370.102971,306.438199
1109.509500,-9622.677246,0.000000,1072.533697
1109.509821,-9844.739029,-148.041188,1149.143247
1109.510142,-9844.739029,0.000000,766.095498
1109.510462,-9918.759623,0.000000,919.314598
1109.510783,-9622.677246,0.000000,1072.533697
1109.511104,-9622.677246,0.000000,1072.533697
1109.511425,-9548.656652,-148.041188,612.876398
1109.511746,-9696.697840,0.000000,459.657299
1109.512066,-9622.677246,74.020594,229.828649
1109.512387,-9622.677246,0.000000,306.438199
1109.512708,-9548.656652,222.061783,76.609550
1109.513029,-9696.697840,222.061783,0.000000
1109.513349,-9696.697840,148.041188,689.485948
1109.513670,-10066.800811,444.123565,766.095498
1109.513991,-10066.800811,74.020594,612.876398
1109.514312,-9770.718434,296.082377,842.705048
1109.514633,-9992.780217,0.000000,766.095498
1109.514953,-9770.718434,0.000000,1072.533697
1109.515274,-9622.677246,0.000000,1072.533697
1109.515595,-9548.656652,0.000000,842.705048
1109.515916,-9400.615463,-296.082377,689.485948
1109.516237,-9178.553681,-592.164754,536.266849
1109.516557,-9252.574275,-518.144159,842.705048
1109.516878,-9474.636058,-518.144159,612.876398
1109.517199,-9474.636058,-444.123565,842.705048
1109.517520,-10362.883188,518.144159,1072.533697
1109.517840,-9326.594869,-444.123565,1685.410096
1109.518161,-9696.697840,-148.041188,1762.019645
1109.518482,-9474.636058,-370.102971,1378.971896
1109.518803,-9770.718434,-444.123565,1838.629195
1109.519124,-9400.615463,-518.144159,2221.676944
1109.519444,-9474.636058,-740.205942,1991.848295
1109.519765,-9400.615463,-962.267725,1762.019645
1109.520086,-9400.615463,-1110.308913,1608.800546
1109.520407,-9474.636058,-1258.350101,2604.724693
1109.520728,-9326.594869,-1110.308913,1762.019645
1109.521048,-9770.718434,-1110.308913,1608.800546
1109.521369,-9696.697840,-888.247130,1762.019645
1109.521690,-8808.450710,-888.247130,2757.943793
1109.522011,-9696.697840,-740.205942,1455.581446
1109.522332,-9474.636058,-666.185348,1225.752797
1109.522652,-9770.718434,-592.164754,1455.581446
1109.522973,-9770.718434,-592.164754,1685.410096
1109.523294,-9548.656652,-444.123565,995.924147
1109.523615,-9918.759623,-444.123565,1072.533697
1109.523935,-9622.677246,-592.164754,1072.533697
1109.524256,-9622.677246,-518.144159,766.095498
1109.524577,-9844.739029,-148.041188,229.828649
1109.524898,-9622.677246,-296.082377,536.266849
1109.525219,-9770.718434,-370.102971,766.095498
1109.525539,-9918.759623,-444.123565,766.095498
1109.525860,-9918.759623,-518.144159,-229.828649
1109.526181,-9696.697840,-370.102971,689.485948
1109.526502,-9548.656652,-222.061783,536.266849
1109.526823,-9622.677246,-222.061783,689.485948
1109.527143,-9474.636058,-296.082377,689.485948
1109.527464,-9474.636058,0.000000,229.828649
1109.527785,-9474.636058,-296.082377,306.438199
1109.528106,-9474.636058,0.000000,229.828649
1109.528426,-9252.574275,-296.082377,383.047749
1109.528747,-9178.553681,-222.061783,76.609550
1109.529068,-9474.636058,-74.020594,459.657299
1109.529389,-9474.636058,0.000000,842.705048
1109.529710,-9548.656652,-148.041188,842.705048
1109.530030,-8808.450710,74.020594,1225.752797
1109.530351,-9696.697840,-370.102971,1455.581446
1109.530672,-9474.636058,-296.082377,1302.362347
1109.530993,-9326.594869,-444.123565,766.095498
1109.531314,-9400.615463,-370.102971,1072.533697
1109.531634,-9400.615463,-222.061783,766.095498
1109.531955,-9252.574275,-296.082377,1225.752797
1109.532276,-9326.594869,-74.020594,1378.971896
1109.532597,-9326.594869,0.000000,995.924147
1109.532918,-9622.677246,0.000000,1302.362347
1109.533238,-9474.636058,148.041188,1225.752797
1109.533559,-9770.718434,444.123565,1608.800546
1109.533880,-9696.697840,222.061783,1302.362347
1109.534201,-10214.842000,740.205942,536.266849
1109.534521,-9770.718434,0.000000,1685.410096
1109.534842,-9770.718434,74.020594,1532.190996
1109.535163,-9696.697840,74.020594,1532.190996
1109.535484,-9474.636058,74.020594,1608.800546
1109.535805,-9548.656652,-222.061783,1532.190996
1109.536125,-9622.677246,0.000000,1225.752797
1109.536446,-9548.656652,0.000000,1149.143247
1109.536767,-9770.718434,0.000000,1378.971896
1109.537088,-9474.636058,296.082377,1608.800546
1109.537409,-9770.718434,222.061783,1149.143247
1109.537729,-10066.800811,0.000000,995.924147
1109.538050,-9770.718434,0.000000,1149.143247
1109.538371,-10436.903782,740.205942,1762.019645
1109.538692,-9844.739029,0.000000,1532.190996
1109.539013,-9844.739029,-296.082377,766.095498
1109.539333,-9548.656652,-444.123565,1455.581446
1109.539654,-9548.656652,-370.102971,1302.362347
1109.539975,-9474.636058,-666.185348,995.924147
1109.540296,-9400.615463,-666.185348,1072.533697
1109.540616,-9400.615463,-740.205942,842.705048
1109.540937,-9474.636058,-518.144159,1072.533697
1109.541258,-9548.656652,-518.144159,995.924147
1109.541579,-9474.636058,-592.164754,995.924147
1109.541900,-9400.615463,-814.226536,1072.533697
1109.542220,-9474.636058,-592.164754,1225.752797
1109.542541,-9844.739029,-296.082377,1685.410096
1109.542862,-9918.759623,-222.061783,1762.019645
1109.543183,-9474.636058,-592.164754,1685.410096
1109.543504,-9474.636058,-888.247130,1455.581446
1109.543824,-9474.636058,-962.267725,1685.410096
1109.544145,-9474.636058,-1036.288319,1302.362347
1109.544466,-9400.615463,-1036.288319,1532.190996
1109.544787,-9400.615463,-1332.370696,1149.143247
1109.545107,-9400.615463,-1184.329507,1378.971896
1109.545428,-9474.636058,-1184.329507,1072.533697
1109.545749,-9474.636058,-1258.350101,995.924147
1109.546070,-9622.677246,-888.247130,1225.752797
1109.546391,-9548.656652,-814.226536,1378.971896
1109.546711,-9992.780217,-370.102971,2145.067394
1109.547032,-9918.759623,-592.164754,1455.581446
1109.547353,-9696.697840,-518.144159,919.314598
1109.547674,-9770.718434,-518.144159,995.924147
1109.547995,-9844.739029,-370.102971,766.095498
1109.548315,-9770.718434,-296.082377,536.266849
1109.548636,-9770.718434,0.000000,612.876398
1109.548957,-9622.677246,-148.041188,459.657299
1109.549278,-9622.677246,0.000000,459.657299
1109.549599,-10066.800811,-222.061783,0.000000
1109.549919,-9696.697840,-296.082377,842.705048
1109.550240,-9918.759623,-222.061783,919.314598
1109.550561,-9696.697840,-296.082377,919.314598
1109.550882,-9326.594869,814.226536,1838.629195
1109.551202,-9622.677246,0.000000,1225.752797
1109.551523,-9548.656652,0.000000,995.924147
1109.551844,-9474.636058,-222.061783,766.095498
1109.552165,-9548.656652,-148.041188,919.314598
1109.552486,-9622.677246,0.000000,919.314598
1109.552806,-9400.615463,0.000000,1225.752797
1109.553127,-9474.636058,0.000000,995.924147
1109.553448,-9474.636058,0.000000,842.705048
1109.553769,-8734.430116,74.020594,1608.800546
1109.554090,-9474.636058,-296.082377,1455.581446
1109.554410,-9474.636058,-296.082377,1378.971896
1109.554731,-9326.594869,-592.164754,1532.190996
1109.555052,-9474.636058,-296.082377,1302.362347
1109.555373,-9622.677246,-296.082377,1302.362347
1109.555693,-9622.677246,-74.020594,1302.362347
1109.556014,-9400.615463,-148.041188,1455.581446
1109.556335,-9474.636058,-370.102971,1149.143247
1109.556656,-9474.636058,-444.123565,1455.581446
1109.556977,-9474.636058,0.000000,842.705048
1109.557297,-9474.636058,0.000000,1072.533697
1109.557618,-9400.615463,-222.061783,1072.533697
1109.557939,-9104.533087,962.267725,1991.848295
1109.558260,-9696.697840,444.123565,766.095498
1109.558581,-9696.697840,74.020594,919.314598
1109.558901,-9992.780217,0.000000,1149.143247
1109.559222,-9770.718434,0.000000,919.314598
1109.559543,-9622.677246,0.000000,612.876398
1109.559864,-9474.636058,0.000000,842.705048
1109.560185,-9696.697840,0.000000,536.266849
1109.560505,-9844.739029,296.082377,766.095498
1109.560826,-9400.615463,148.041188,919.314598
1109.561147,-9696.697840,148.041188,383.047749
1109.561468,-9696.697840,74.020594,383.047749
1109.561788,-9918.759623,148.041188,536.266849
1109.562109,-9474.636058,666.185348,995.924147
1109.562430,-9696.697840,0.000000,689.485948
1109.562751,-9918.759623,0.000000,766.095498
1109.563072,-9844.739029,-370.102971,995.924147
1109.563392,-9696.697840,-740.205942,919.314598
1109.563713,-9474.636058,-518.144159,995.924147
1109.564034,-9548.656652,-666.185348,766.095498
1109.564355,-9326.594869,-592.164754,995.924147
1109.564676,-9474.636058,-666.185348,1149.143247
1109.564996,-9474.636058,-444.123565,1225.752797
1109.565317,-9178.553681,-814.226536,1149.143247
1109.565638,-9548.656652,-592.164754,1149.143247
1109.565959,-9474.636058,-814.226536,1685.410096
1109.566279,-9474.636058,-592.164754,3294.210641
1109.566600,-9474.636058,-814.226536,1838.629195
1109.566921,-9548.656652,-962.267725,1838.629195
1109.567242,-9474.636058,-814.226536,1991.848295
1109.567563,-9326.594869,-1184.329507,1915.238745
1109.567883,-9622.677246,-592.164754,1455.581446
1109.568204,-9548.656652,-666.185348,1608.800546
1109.568524,-9474.636058,-740.205942,1532.190996
1109.568845,-9400.615463,-814.226536,1532.190996
1109.569166,-9622.677246,-740.205942,1149.143247
1109.569486,-9474.636058,-666.185348,1378.971896
1109.569807,-9548.656652,-814.226536,1378.971896
1109.570128,-9548.656652,-814.226536,1378.971896
1109.570448,-8734.430116,-592.164754,1455.581446
1109.570769,-9770.718434,-444.123565,1072.533697
1109.571090,-9918.759623,-444.123565,1378.971896
1109.571410,-9696.697840,-814.226536,1149.143247
1109.571731,-9622.677246,-592.164754,766.095498
1109.572051,-9474.636058,-518.144159,612.876398
1109.572372,-9918.759623,-148.041188,919.314598
1109.572693,-9770.718434,0.000000,689.485948
1109.573013,-9844.739029,-370.102971,766.095498
1109.573334,-9992.780217,962.267725,1838.629195
1109.573655,-10066.800811,0.000000,842.705048
1109.573975,-9622.677246,-222.061783,1072.533697
1109.574296,-9696.697840,-666.185348,689.485948
1109.574617,-9548.656652,-740.205942,459.657299
1109.574937,-9622.677246,-370.102971,612.876398
1109.575258,-9548.656652,-444.123565,995.924147
1109.575578,-9474.636058,-518.144159,919.314598
1109.575899,-9548.656652,-370.102971,536.266849
1109.576220,-9770.718434,444.123565,459.657299
1109.576540,-9622.677246,0.000000,689.485948
1109.576861,-9548.656652,74.020594,766.095498
1109.577182,-9474.636058,-222.061783,1149.143247
1109.577502,-9400.615463,592.164754,1225.752797
1109.577823,-9474.636058,-222.061783,919.314598
1109.578144,-9474.636058,0.000000,1072.533697
1109.578464,-9474.636058,-148.041188,995.924147
1109.578785,-9400.615463,-222.061783,1072.533697
1109.579105,-9696.697840,74.020594,689.485948
1109.579426,-9622.677246,0.000000,995.924147
1109.579747,-9474.636058,-74.020594,1072.533697
1109.580067,-9474.636058,0.000000,995.924147
1109.580388,-9992.780217,0.000000,1302.362347
1109.580709,-9622.677246,0.000000,1072.533697
1109.581029,-9770.718434,370.102971,995.924147
1109.581350,-9844.739029,296.082377,919.314598
1109.581671,-9474.636058,296.082377,2987.772442
1109.581991,-9770.718434,370.102971,1072.533697
1109.582312,-9770.718434,148.041188,689.485948
1109.582633,-9622.677246,0.000000,1072.533697
1109.582953,-9844.739029,-296.082377,689.485948
1109.583274,-9400.615463,-370.102971,766.095498
1109.583594,-9474.636058,74.020594,919.314598
1109.583915,-9770.718434,0.000000,842.705048
1109.584236,-9696.697840,444.123565,1072.533697
1109.584556,-9252.574275,74.020594,1149.143247
1109.584877,-9622.677246,0.000000,1302.362347
1109.585198,-9696.697840,0.000000,1149.143247
1109.585518,-9770.718434,0.000000,1149.143247
1109.585839,-9696.697840,-370.102971,306.438199
1109.586160,-9622.677246,0.000000,1149.143247
1109.586480,-9548.656652,-222.061783,1149.143247
1109.586801,-9474.636058,-592.164754,919.314598
1109.587121,-9400.615463,-444.123565,919.314598
1109.587442,-9548.656652,-592.164754,919.314598
1109.587763,-9474.636058,-370.102971,1532.190996
1109.588083,-9252.574275,-740.205942,1378.971896
1109.588404,-9400.615463,-740.205942,1455.581446
1109.588725,-9474.636058,0.000000,1149.143247
1109.589045,-9474.636058,-666.185348,1915.238745
1109.589366,-9474.636058,-740.205942,1762.019645
1109.589687,-9474.636058,-666.185348,1608.800546
1109.590007,-9400.615463,-592.164754,1378.971896
1109.590328,-9474.636058,-592.164754,1378.971896
1109.590648,-9474.636058,-962.267725,1455.581446
1109.590969,-9474.636058,-962.267725,1225.752797
1109.591290,-9474.636058,-962.267725,1455.581446
1109.591610,-8808.450710,-1332.370696,2604.724693
1109.591931,-9696.697840,-962.267725,1608.800546
1109.592252,-9548.656652,-962.267725,1378.971896
1109.592572,-9474.636058,-1184.329507,1455.581446
1109.592893,-9770.718434,-962.267725,1762.019645
1109.593214,-9696.697840,-1036.288319,995.924147
1109.593534,-9474.636058,-740.205942,1072.533697
1109.593855,-9696.697840,-814.226536,919.314598
1109.594175,-9326.594869,-666.185348,995.924147
1109.594496,-9548.656652,-444.123565,536.266849
1109.594817,-9622.677246,-370.102971,689.485948
1109.595137,-9622.677246,-592.164754,689.485948
1109.595458,-9622.677246,-296.082377,689.485948
1109.595779,-9252.574275,518.144159,459.657299
1109.596099,-10066.800811,0.000000,842.705048
1109.596420,-9844.739029,0.000000,689.485948
1109.596741,-9696.697840,0.000000,842.705048
1109.597061,-9844.739029,-222.061783,1149.143247
1109.597382,-9696.697840,0.000000,766.095498
1109.597703,-9696.697840,-296.082377,766.095498
1109.598023,-9548.656652,-296.082377,842.705048
1109.598344,-9622.677246,-444.123565,766.095498
1109.598664,-9474.636058,-592.164754,919.314598
1109.598985,-9474.636058,-444.123565,1072.533697
1109.599306,-9622.677246,-222.061783,689.485948
1109.599626,-9474.636058,-222.061783,919.314598
1109.599947,-9326.594869,-222.061783,1225.752797
1109.600268,-9622.677246,-296.082377,995.924147
1109.600588,-9474.636058,-518.144159,1378.971896
1109.600909,-9548.656652,-296.082377,1072.533697
1109.601230,-9696.697840,-370.102971,1532.190996
1109.601550,-9474.636058,-370.102971,919.314598
1109.601871,-9622.677246,-222.061783,1532.190996
1109.602191,-9474.636058,-222.061783,1225.752797
1109.602512,-9474.636058,-444.123565,1302.362347
1109.602833,-9326.594869,-444.123565,1225.752797
1109.603153,-9326.594869,-148.041188,1302.362347
1109.603474,-9474.636058,0.000000,1532.190996
1109.603795,-9474.636058,74.020594,1302.362347
1109.604115,-9992.780217,370.102971,306.438199
1109.604436,-9548.656652,0.000000,1302.362347
1109.604757,-9622.677246,0.000000,1149.143247
1109.605077,-9770.718434,74.020594,919.314598
1109.605398,-9622.677246,0.000000,1072.533697
1109.605718,-9770.718434,74.020594,842.705048
1109.606039,-10066.800811,148.041188,995.924147
1109.606360,-9622.677246,0.000000,995.924147
1109.606680,-9770.718434,74.020594,612.876398
1109.607001,-9548.656652,148.041188,1225.752797
1109.607322,-9548.656652,0.000000,536.266849
1109.607642,-9622.677246,74.020594,229.828649
1109.607963,-9622.677246,222.061783,383.047749
1109.608284,-9770.718434,0.000000,0.000000
1109.608604,-9548.656652,148.041188,459.657299
1109.608925,-9548.656652,0.000000,0.000000
1109.609245,-9844.739029,0.000000,766.095498
1109.609566,-9696.697840,-296.082377,306.438199
1109.609887,-9622.677246,-148.041188,995.924147
1109.610207,-9548.656652,0.000000,612.876398
1109.610528,-9474.636058,-444.123565,842.705048
1109.610849,-9474.636058,-518.144159,842.705048
1109.611169,-9844.739029,-740.205942,612.876398
1109.611490,-9326.594869,-370.102971,995.924147
1109.611811,-9400.615463,-370.102971,766.095498
1109.612131,-9400.615463,-222.061783,1149.143247
1109.612452,-9252.574275,-814.226536,383.047749
1109.612773,-9400.615463,-518.144159,1302.362347
1109.613093,-9548.656652,-296.082377,1685.410096
1109.613414,-9400.615463,-740.205942,1608.800546
1109.613734,-9622.677246,-814.226536,1838.629195
1109.614055,-9400.615463,-962.267725,1685.410096
1109.614376,-9400.615463,-1184.329507,1608.800546
1109.614696,-9474.636058,-888.247130,1838.629195
1109.615017,-9400.615463,-962.267725,1532.190996
1109.615338,-9548.656652,-814.226536,1838.629195
1109.615658,-9326.594869,-814.226536,1915.238745
1109.615979,-9622.677246,-888.247130,1838.629195
1109.616300,-9548.656652,-962.267725,1608.800546
1109.616620,-8956.491898,-1110.308913,2528.115143
1109.616941,-9474.636058,-814.226536,1378.971896
1109.617261,-9622.677246,-592.164754,1225.752797
1109.617582,-9770.718434,-592.164754,1378.971896
1109.617903,-9844.739029,-740.205942,1378.971896
1109.618223,-10066.800811,-740.205942,1455.581446
1109.618544,-9770.718434,-814.226536,995.924147
1109.618865,-9622.677246,-740.205942,842.705048
1109.619185,-9770.718434,-518.144159,919.314598
1109.619506,-10066.800811,-296.082377,536.266849
1109.619827,-9770.718434,-370.102971,612.876398
1109.620147,-9622.677246,-222.061783,842.705048
1109.620468,-9696.697840,0.000000,459.657299
1109.620788,-9770.718434,0.000000,76.609550
1109.621109,-9918.759623,-296.082377,995.924147
1109.621430,-9548.656652,-518.144159,689.485948
1109.621750,-9696.697840,-592.164754,689.485948
1109.622071,-9474.636058,-740.205942,689.485948
1109.622392,-9622.677246,-740.205942,995.924147
1109.622712,-9548.656652,-592.164754,689.485948
1109.623033,-9474.636058,-370.102971,459.657299
1109.623354,-9400.615463,0.000000,459.657299
1109.623674,-9030.512492,-296.082377,383.047749
1109.623995,-9548.656652,0.000000,689.485948
1109.624315,-9770.718434,-296.082377,1072.533697
1109.624636,-9474.636058,-370.102971,689.485948
1109.624957,-9770.718434,-370.102971,1838.629195
1109.625277,-9474.636058,-296.082377,919.314598
1109.625598,-9474.636058,-296.082377,1302.362347
1109.625919,-9474.636058,-148.041188,842.705048
1109.626239,-9474.636058,-296.082377,1072.533697
1109.626560,-9696.697840,148.041188,842.705048
1109.626881,-9622.677246,0.000000,995.924147
1109.627201,-9622.677246,148.041188,1225.752797
1109.627522,-9474.636058,0.000000,1225.752797
1109.627843,-9400.615463,-222.061783,1915.238745
1109.628163,-9622.677246,370.102971,1378.971896
1109.628484,-9770.718434,0.000000,1532.190996
1109.628804,-9622.677246,0.000000,1302.362347
1109.629125,-8956.491898,1184.329507,1915.238745
1109.629446,-9622.677246,296.082377,1302.362347
1109.629766,-9622.677246,222.061783,1225.752797
1109.630087,-9770.718434,0.000000,1072.533697
1109.630408,-9770.718434,0.000000,459.657299
1109.630728,-9622.677246,222.061783,842.705048
1109.631049,-9918.759623,222.061783,1149.143247
1109.631370,-9770.718434,222.061783,1532.190996
1109.631690,-9696.697840,222.061783,1072.533697
1109.632011,-9696.697840,74.020594,766.095498
1109.632331,-9770.718434,0.000000,995.924147
1109.632652,-9696.697840,0.000000,1455.581446
1109.632973,-9548.656652,-222.061783,1149.143247
1109.633293,-9474.636058,-814.226536,-1149.143247
1109.633614,-9326.594869,-222.061783,1225.752797
1109.633935,-9622.677246,-296.082377,1072.533697
1109.634255,-9622.677246,-444.123565,1149.143247
1109.634576,-9474.636058,-666.185348,1302.362347
1109.634897,-9474.636058,-740.205942,1378.971896
1109.635217,-9474.636058,-370.102971,1225.752797
1109.635538,-9548.656652,-444.123565,1378.971896
1109.635858,-9326.594869,-666.185348,1455.581446
1109.636179,-8142.265362,-1036.288319,919.314598
1109.636500,-9474.636058,-888.247130,1149.143247
1109.636820,-9474.636058,-740.205942,1455.581446
1109.637141,-9622.677246,-740.205942,1378.971896
1109.637462,-9474.636058,-1406.391290,0.000000
1109.637782,-9474.636058,-962.267725,1225.752797
1109.638103,-9474.636058,-1110.308913,919.314598
1109.638424,-9400.615463,-888.247130,1302.362347
1109.638744,-9548.656652,-814.226536,1072.533697
1109.639065,-9252.574275,-1036.288319,1225.752797
1109.639385,-9548.656652,-962.267725,1149.143247
1109.639706,-9474.636058,-1110.308913,1302.362347
1109.640027,-9474.636058,-962.267725,1378.971896
1109.640347,-9844.739029,-740.205942,1302.362347
1109.640668,-9474.636058,-888.247130,1072.533697
1109.640989,-9548.656652,-740.205942,1149.143247
1109.641309,-9474.636058,-666.185348,1149.143247
1109.641630,-9622.677246,0.000000,842.705048
1109.641951,-9770.718434,-518.144159,459.657299
1109.642271,-9918.759623,-296.082377,536.266849
1109.642592,-9696.697840,-296.082377,536.266849
1109.642913,-9844.739029,-296.082377,689.485948
1109.643233,-9992.780217,74.020594,612.876398
1109.643554,-9844.739029,-148.041188,995.924147
1109.643874,-9696.697840,0.000000,766.095498
1109.644195,-9918.759623,-444.123565,919.314598
1109.644516,-8956.491898,-222.061783,536.266849
1109.644836,-9918.759623,0.000000,995.924147
1109.645157,-9770.718434,-222.061783,689.485948
1109.645478,-9400.615463,-370.102971,1072.533697
1109.645798,-9474.636058,74.020594,689.485948
1109.646119,-9474.636058,-444.123565,1302.362347
1109.646440,-9548.656652,-444.123565,612.876398
1109.646760,-9474.636058,-444.123565,995.924147
1109.647081,-9400.615463,-370.102971,1225.752797
1109.647401,-9622.677246,-222.061783,1225.752797
1109.647722,-9474.636058,0.000000,1149.143247
1109.648043,-9474.636058,0.000000,1072.533697
1109.648363,-9548.656652,-148.041188,1378.971896
1109.648684,-9400.615463,0.000000,919.314598
1109.649005,-9548.656652,-148.041188,1762.019645
1109.649325,-9474.636058,-222.061783,1455.581446
1109.649646,-9474.636058,-222.061783,1302.362347
1109.649967,-9400.615463,-222.061783,1378.971896
1109.650287,-9474.636058,-518.144159,919.314598
1109.650608,-9474.636058,-296.082377,1455.581446
1109.650928,-9474.636058,-296.082377,1608.800546
1109.651249,-9474.636058,-222.061783,1225.752797
1109.651570,-9548.656652,-222.061783,612.876398
1109.651890,-9622.677246,-296.082377,919.314598
1109.652211,-9548.656652,0.000000,1072.533697
1109.652532,-9696.697840,0.000000,919.314598
1109.652852,-9104.533087,0.000000,1532.190996
1109.653173,-9696.697840,74.020594,842.705048
1109.653494,-9770.718434,74.020594,766.095498
1109.653814,-9844.739029,148.041188,612.876398
1109.654135,-9548.656652,0.000000,0.000000
1109.654455,-9770.718434,0.000000,229.828649
1109.654776,-9696.697840,74.020594,459.657299
1109.655097,-9918.759623,0.000000,536.266849
1109.655417,-9622.677246,-148.041188,689.485948
1109.655738,-9474.636058,74.020594,306.438199
1109.656059,-9622.677246,0.000000,459.657299
1109.656379,-9622.677246,0.000000,612.876398
1109.656700,-9622.677246,0.000000,1149.143247
1109.657021,-9622.677246,0.000000,1225.752797
1109.657341,-9548.656652,-444.123565,612.876398
1109.657662,-9548.656652,-370.102971,766.095498
1109.657983,-9474.636058,-370.102971,919.314598
1109.658303,-9474.636058,-444.123565,383.047749
1109.658624,-9252.574275,-148.041188,766.095498
1109.658944,-9400.615463,-222.061783,1072.533697
1109.659265,-9400.615463,-296.082377,1149.143247
1109.659586,-9474.636058,-444.123565,919.314598
1109.659906,-9770.718434,-370.102971,1378.971896
1109.660227,-9548.656652,-592.164754,1532.190996
1109.660548,-9474.636058,-888.247130,1608.800546
1109.660868,-9622.677246,-962.267725,1838.629195
1109.661189,-9770.718434,-888.247130,1378.971896
1109.661510,-9474.636058,-740.205942,2145.067394
1109.661830,-9326.594869,-962.267725,1915.238745
1109.662151,-9548.656652,-740.205942,1762.019645
1109.662471,-9548.656652,-1258.350101,2757.943793
1109.662792,-9474.636058,-740.205942,1685.410096
1109.663113,-9474.636058,-888.247130,1532.190996
1109.663433,-9548.656652,-740.205942,1608.800546
1109.663754,-9696.697840,-814.226536,1685.410096
1109.664075,-9696.697840,-518.144159,1608.800546
1109.664395,-9770.718434,-518.144159,1225.752797
1109.664716,-9770.718434,-444.123565,1302.362347
1109.665037,-9622.677246,-370.102971,1608.800546
1109.665357,-10066.800811,-444.123565,1685.410096
1109.665678,-9770.718434,-740.205942,1225.752797
1109.665998,-9696.697840,-370.102971,919.314598
1109.666319,-9548.656652,-222.061783,689.485948
1109.666640,-9622.677246,-296.082377,1072.533697
1109.666960,-9770.718434,0.000000,766.095498
1109.667281,-9918.759623,-296.082377,306.438199
1109.667602,-9622.677246,-222.061783,842.705048
1109.667922,-9844.739029,-296.082377,766.095498
1109.668243,-9622.677246,-444.123565,689.485948
1109.668564,-9548.656652,-518.144159,919.314598
1109.668884,-9770.718434,-296.082377,689.485948
1109.669205,-9622.677246,-518.144159,766.095498
1109.669525,-9622.677246,0.000000,612.876398
1109.669846,-9326.594869,-444.123565,536.266849
1109.670167,-9696.697840,-296.082377,766.095498
1109.670487,-9474.636058,-296.082377,766.095498
1109.670808,-9474.636058,148.041188,1225.752797
1109.671128,-9696.697840,-518.144159,689.485948
1109.671449,-9474.636058,-518.144159,842.705048
1109.671769,-9474.636058,-592.164754,919.314598
1109.672090,-9474.636058,-518.144159,1149.143247
1109.672410,-9548.656652,-444.123565,995.924147
1109.672731,-9474.636058,-444.123565,1072.533697
1109.673052,-9474.636058,-148.041188,1225.752797
1109.673372,-9474.636058,-444.123565,1072.533697
1109.673693,-9030.512492,740.205942,919.314598
1109.674013,-9548.656652,74.020594,1225.752797
1109.674334,-9770.718434,0.000000,1378.971896
1109.674654,-9474.636058,-74.020594,995.924147
1109.674975,-9844.739029,0.000000,995.924147
1109.675295,-9622.677246,0.000000,1608.800546
1109.675616,-9770.718434,0.000000,1149.143247
1109.675936,-9622.677246,74.020594,919.314598
1109.676257,-9918.759623,0.000000,1225.752797
1109.676578,-9548.656652,74.020594,1455.581446
1109.676898,-9844.739029,0.000000,1225.752797
1109.677219,-9622.677246,-296.082377,1225.752797
1109.677539,-9622.677246,-148.041188,842.705048
1109.677860,-9918.759623,0.000000,1378.971896
1109.678180,-9770.718434,148.041188,842.705048
1109.678501,-9622.677246,74.020594,919.314598
1109.678821,-9696.697840,0.000000,919.314598
1109.679142,-9844.739029,222.061783,1149.143247
1109.679462,-9548.656652,0.000000,1302.362347
1109.679783,-10066.800811,-222.061783,1072.533697
1109.680103,-9400.615463,-222.061783,1149.143247
1109.680424,-9696.697840,-148.041188,1149.143247
1109.680745,-9252.574275,-592.164754,1225.752797
1109.681065,-9400.615463,-592.164754,995.924147
1109.681386,-9326.594869,-592.164754,1302.362347
1109.681706,-9474.636058,-444.123565,995.924147
1109.682027,-9474.636058,-370.102971,2911.162892
1109.682347,-9474.636058,-148.041188,1225.752797
1109.682668,-9474.636058,-370.102971,842.705048
1109.682988,-9474.636058,-444.123565,1302.362347
1109.683309,-9622.677246,-518.144159,1225.752797
1109.683629,-9400.615463,-592.164754,919.314598
1109.683950,-9474.636058,-296.082377,1455.581446
1109.684271,-9474.636058,-444.123565,1608.800546
1109.684591,-9474.636058,-518.144159,1532.190996
1109.684912,-9400.615463,-666.185348,1838.629195
1109.685232,-9474.636058,-962.267725,1762.019645
1109.685553,-9326.594869,-1110.308913,1608.800546
1109.685873,-9548.656652,-1258.350101,1608.800546
1109.686194,-9918.759623,0.000000,2068.457845
1109.686514,-9622.677246,-814.226536,1608.800546
1109.686835,-9474.636058,-962.267725,1149.143247
1109.687155,-9622.677246,-666.185348,1302.362347
1109.687476,-9474.636058,-888.247130,1532.190996
1109.687796,-9474.636058,-370.102971,1302.362347
1109.688117,-9474.636058,-518.144159,689.485948
1109.688438,-9770.718434,-148.041188,842.705048
1109.688758,-9622.677246,-296.082377,919.314598
1109.689079,-9622.677246,-370.102971,842.705048
1109.689399,-9622.677246,-444.123565,766.095498
1109.689720,-9844.739029,0.000000,612.876398
1109.690040,-9918.759623,-370.102971,995.924147
1109.690361,-9400.615463,0.000000,842.705048
1109.690681,-9844.739029,-148.041188,919.314598
1109.691002,-9770.718434,-296.082377,689.485948
1109.691322,-9770.718434,-148.041188,383.047749
1109.691643,-9622.677246,-222.061783,459.657299
1109.691963,-9622.677246,-148.041188,612.876398
1109.692284,-9696.697840,-148.041188,842.705048
1109.692605,-9696.697840,-148.041188,842.705048
1109.692925,-9622.677246,0.000000,612.876398
1109.693246,-9474.636058,-592.164754,612.876398
1109.693566,-9770.718434,-296.082377,995.924147
1109.693887,-9622.677246,0.000000,842.705048
1109.694207,-9696.697840,-222.061783,1149.143247
1109.694528,-9548.656652,0.000000,-153.219100
1109.694848,-9548.656652,-444.123565,1225.752797
1109.695169,-9474.636058,-592.164754,1302.362347
1109.695489,-9474.636058,-518.144159,1225.752797
1109.695810,-9474.636058,-518.144159,1455.581446
1109.696131,-9548.656652,-370.102971,1762.019645
1109.696451,-9474.636058,-444.123565,1455.581446
1109.696772,-9548.656652,-518.144159,1302.362347
1109.697092,-9474.636058,-148.041188,1225.752797
1109.697413,-9474.636058,-370.102971,1378.971896
1109.697733,-9474.636058,0.000000,1685.410096
1109.698054,-9474.636058,74.020594,1455.581446
1109.698374,-9770.718434,0.000000,1149.143247
1109.698695,-9696.697840,0.000000,1378.971896
1109.699015,-9252.574275,-370.102971,1378.971896
1109.699336,-9770.718434,0.000000,1302.362347
1109.699656,-9770.718434,0.000000,1149.143247
1109.699977,-9770.718434,0.000000,1225.752797
1109.700298,-9548.656652,-444.123565,2068.457845
1109.700618,-9770.718434,0.000000,766.095498
1109.700939,-9548.656652,-296.082377,536.266849
1109.701259,-9474.636058,0.000000,383.047749
1109.701580,-9548.656652,0.000000,306.438199
1109.701900,-9844.739029,518.144159,536.266849
1109.702221,-9918.759623,222.061783,383.047749
1109.702541,-9622.677246,0.000000,536.266849
1109.702862,-9548.656652,0.000000,536.266849
1109.703182,-10288.862594,296.082377,689.485948
1109.703503,-9918.759623,74.020594,919.314598
1109.703824,-9770.718434,0.000000,383.047749
1109.704144,-9474.636058,-296.082377,536.266849
1109.704465,-9474.636058,-74.020594,229.828649
1109.704785,-9326.594869,-888.247130,459.657299
1109.705106,-9474.636058,-518.144159,689.485948
1109.705426,-9474.636058,-592.164754,842.705048
1109.705747,-9474.636058,-296.082377,842.705048
1109.706067,-9326.594869,-296.082377,842.705048
1109.706388,-9474.636058,-296.082377,1455.581446
1109.706708,-9474.636058,-296.082377,1225.752797
1109.707029,-9548.656652,-296.082377,1455.581446
1109.707349,-9474.636058,-222.061783,1608.800546
1109.707670,-9474.636058,-666.185348,1455.581446
1109.707991,-9548.656652,-666.185348,1455.581446
1109.708311,-9178.553681,-962.267725,1302.362347
1109.708632,-9474.636058,-666.185348,0.000000
1109.708952,-9400.615463,-888.247130,1685.410096
1109.709273,-9474.636058,-888.247130,1608.800546
1109.709593,-9696.697840,-740.205942,1915.238745
1109.709914,-9622.677246,-740.205942,2145.067394
1109.710234,-9770.718434,-592.164754,1762.019645
1109.710555,-9548.656652,-592.164754,1991.848295
1109.710875,-9474.636058,-814.226536,1762.019645
1109.711196,-9622.677246,-740.205942,1838.629195
1109.711517,-9030.512492,-1110.308913,1455.581446
1109.711837,-9548.656652,-814.226536,1532.190996
1109.712158,-9696.697840,-518.144159,1685.410096
1109.712478,-9770.718434,-370.102971,1685.410096
1109.712799,-9992.780217,-296.082377,2374.896044
1109.713119,-9548.656652,-444.123565,1225.752797
1109.713440,-9770.718434,-444.123565,995.924147
1109.713760,-9770.718434,-222.061783,766.095498
1109.714081,-9770.718434,-222.061783,1072.533697
1109.714401,-9918.759623,-370.102971,842.705048
1109.714722,-9770.718434,-148.041188,383.047749
1109.715042,-9622.677246,-222.061783,459.657299
1109.715363,-9770.718434,-296.082377,536.266849
1109.715684,-9696.697840,-740.205942,306.438199
1109.716004,-9622.677246,-518.144159,1455.581446
1109.716325,-9474.636058,-740.205942,1072.533697
1109.716645,-9474.636058,-962.267725,536.266849
1109.716966,-9474.636058,-666.185348,919.314598
1109.717286,-9326.594869,-592.164754,612.876398
1109.717607,-9474.636058,-296.082377,612.876398
1109.717927,-9474.636058,0.000000,842.705048
1109.718248,-9474.636058,-148.041188,153.219100
1109.718568,-9252.574275,-296.082377,919.314598
1109.718889,-9548.656652,-518.144159,689.485948
1109.719210,-9548.656652,-370.102971,766.095498
1109.719530,-9622.677246,0.000000,689.485948
1109.719851,-10510.924376,-518.144159,0.000000
1109.720171,-9474.636058,-296.082377,842.705048
1109.720492,-9474.636058,-296.082377,766.095498
1109.720812,-9622.677246,0.000000,995.924147
1109.721133,-9474.636058,0.000000,995.924147
1109.721453,-9548.656652,0.000000,842.705048
1109.721774,-9548.656652,-74.020594,1072.533697
1109.722094,-9622.677246,0.000000,842.705048
1109.722415,-9622.677246,0.000000,1302.362347
1109.722735,-9178.553681,0.000000,766.095498
1109.723056,-9622.677246,0.000000,919.314598
1109.723377,-9696.697840,148.041188,1072.533697
1109.723697,-9844.739029,222.061783,1072.533697
1109.724018,-9918.759623,962.267725,766.095498
1109.724338,-9770.718434,74.020594,1149.143247
1109.724659,-9622.677246,0.000000,995.924147
1109.724979,-9696.697840,74.020594,995.924147
1109.725300,-9696.697840,296.082377,995.924147
1109.725620,-9770.718434,0.000000,1225.752797
1109.725941,-9548.656652,0.000000,1302.362347
1109.726261,-9548.656652,0.000000,1149.143247
1109.726582,-9474.636058,0.000000,1225.752797
1109.726903,-9622.677246,148.041188,1532.190996
1109.727223,-9548.656652,0.000000,1149.143247
1109.727544,-9474.636058,-148.041188,1302.362347
1109.727864,-9474.636058,-222.061783,1149.143247
1109.728185,-9030.512492,-444.123565,459.657299
1109.728505,-9696.697840,-296.082377,1455.581446
1109.728826,-9474.636058,-592.164754,1302.362347
1109.729146,-9474.636058,-518.144159,1225.752797
1109.729467,-9474.636058,-370.102971,995.924147
1109.729787,-9696.697840,-148.041188,1685.410096
1109.730108,-9400.615463,-592.164754,1608.800546
1109.730428,-9252.574275,-666.185348,1225.752797
1109.730749,-9474.636058,-1036.288319,1225.752797
1109.731070,-9622.677246,-592.164754,1455.581446
1109.731390,-9474.636058,-814.226536,1378.971896
1109.731711,-9474.636058,-962.267725,1225.752797
1109.732031,-9326.594869,-814.226536,1532.190996
1109.732352,-10288.862594,0.000000,612.876398
1109.732672,-9474.636058,-888.247130,1455.581446
1109.732993,-9474.636058,-962.267725,1302.362347
1109.733313,-9548.656652,-888.247130,1378.971896
1109.733634,-9474.636058,-962.267725,1378.971896
1109.733954,-9548.656652,-888.247130,1072.533697
1109.734275,-9548.656652,-888.247130,1072.533697
1109.734596,-9622.677246,-592.164754,1149.143247
1109.734916,-9696.697840,-592.164754,919.314598
1109.735237,-9474.636058,-592.164754,919.314598
1109.735557,-9696.697840,-592.164754,842.705048
1109.735878,-9844.739029,-370.102971,842.705048
1109.736198,-9992.780217,-592.164754,383.047749
1109.736519,-9992.780217,0.000000,1455.581446
1109.736839,-9696.697840,-222.061783,0.000000
1109.737160,-9844.739029,0.000000,383.047749
1109.737480,-9992.780217,0.000000,612.876398
1109.737801,-9548.656652,-222.061783,459.657299
1109.738121,-10066.800811,0.000000,229.828649
1109.738442,-9622.677246,0.000000,689.485948
1109.738763,-10066.800811,0.000000,689.485948
1109.739083,-9770.718434,-148.041188,689.485948
1109.739404,-9844.739029,-296.082377,459.657299
1109.739724,-9622.677246,-148.041188,766.095498
1109.740045,-9696.697840,-444.123565,766.095498
1109.740365,-9474.636058,-370.102971,766.095498
1109.740686,-9104.533087,-222.061783,1378.971896
1109.741006,-9474.636058,-222.061783,919.314598
1109.741327,-9474.636058,-518.144159,1072.533697
1109.741647,-9474.636058,-444.123565,1532.190996
1109.741968,-9400.615463,-666.185348,1762.019645
1109.742289,-9474.636058,-370.102971,1225.752797
1109.742609,-9474.636058,-592.164754,1378.971896
1109.742930,-9252.574275,0.000000,1608.800546
1109.743250,-9474.636058,0.000000,1685.410096
1109.743571,-9548.656652,296.082377,1378.971896
1109.743891,-9400.615463,-148.041188,1532.190996
1109.744212,-9548.656652,-444.123565,1685.410096
1109.744532,-9548.656652,-148.041188,1455.581446
1109.744853,-9992.780217,-222.061783,766.095498
1109.745173,-9548.656652,-222.061783,1378.971896
1109.745494,-9548.656652,-370.102971,1378.971896
1109.745814,-9622.677246,-296.082377,1149.143247
1109.746135,-9622.677246,-222.061783,1072.533697
1109.746456,-9770.718434,0.000000,1149.143247
1109.746776,-9548.656652,0.000000,1149.143247
1109.747097,-9622.677246,148.041188,1149.143247
1109.747417,-9770.718434,74.020594,1149.143247
1109.747738,-9844.739029,296.082377,1072.533697
1109.748058,-9918.759623,-74.020594,766.095498
1109.748379,-9770.718434,0.000000,383.047749
1109.748699,-9918.759623,0.000000,229.828649
1109.749020,-8956.491898,74.020594,1915.238745
1109.749340,-9770.718434,296.082377,536.266849
1109.749661,-9918.759623,74.020594,536.266849
1109.749982,-9622.677246,370.102971,383.047749
1109.750302,-9696.697840,0.000000,689.485948
1109.750623,-9844.739029,74.020594,1302.362347
1109.750943,-9474.636058,-296.082377,766.095498
1109.751264,-9622.677246,-296.082377,766.095498
1109.751584,-9696.697840,0.000000,766.095498
1109.751905,-9326.594869,-592.164754,919.314598
1109.752225,-9400.615463,-518.144159,1149.143247
1109.752546,-9474.636058,-296.082377,536.266849
1109.752866,-9474.636058,-222.061783,995.924147
1109.753187,-10214.842000,-370.102971,1685.410096
1109.753507,-9474.636058,-148.041188,1149.143247
1109.753828,-9474.636058,-592.164754,1072.533697
1109.754149,-9252.574275,-296.082377,919.314598
1109.754469,-9474.636058,-518.144159,2528.115143
1109.754790,-9474.636058,-370.102971,2068.457845
1109.755110,-9474.636058,-666.185348,2145.067394
1109.755431,-9474.636058,-814.226536,1762.019645
1109.755751,-9326.594869,-962.267725,1455.581446
1109.756072,-9104.533087,-740.205942,1455.581446
1109.756392,-9474.636058,-740.205942,1762.019645
1109.756713,-9622.677246,-962.267725,1685.410096
1109.757033,-9548.656652,-814.226536,1685.410096
1109.757354,-9474.636058,-1184.329507,3064.381992
1109.757675,-9622.677246,-740.205942,1762.019645
1109.757995,-9474.636058,-740.205942,1455.581446
1109.758316,-9622.677246,-666.185348,1532.190996
1109.758636,-9770.718434,-740.205942,1302.362347
1109.758957,-9622.677246,-518.144159,1225.752797
1109.759277,-9622.677246,-592.164754,1455.581446
1109.759598,-9770.718434,-592.164754,1072.533697
1109.759918,-9844.739029,-740.205942,842.705048
1109.760239,-9474.636058,-592.164754,689.485948
1109.760559,-9992.780217,-148.041188,919.314598
1109.760880,-9918.759623,-370.102971,1149.143247
1109.761200,-9844.739029,-444.123565,919.314598
1109.761521,-9770.718434,-1036.288319,919.314598
1109.761842,-9622.677246,-370.102971,536.266849
1109.762162,-9844.739029,-592.164754,689.485948
1109.762483,-9844.739029,-370.102971,689.485948
1109.762803,-9622.677246,-740.205942,766.095498
1109.763124,-9548.656652,-666.185348,536.266849
1109.763444,-9474.636058,-888.247130,383.047749
1109.763765,-9622.677246,-444.123565,689.485948
1109.764085,-9770.718434,-444.123565,842.705048
1109.764406,-9548.656652,0.000000,766.095498
1109.764726,-9622.677246,-296.082377,766.095498
1109.765047,-9548.656652,-296.082377,766.095498
1109.765368,-9474.636058,-370.102971,459.657299
1109.765688,-9400.615463,-740.205942,0.000000
1109.766009,-9474.636058,-370.102971,612.876398
1109.766329,-9474.636058,-518.144159,842.705048
1109.766650,-9474.636058,-444.123565,459.657299
1109.766970,-9474.636058,-518.144159,919.314598
1109.767291,-9474.636058,-296.082377,1225.752797
1109.767611,-9474.636058,-444.123565,842.705048
1109.767932,-9474.636058,0.000000,1532.190996
1109.768252,-9622.677246,0.000000,1149.143247
1109.768573,-10066.800811,0.000000,1762.019645
1109.768893,-9622.677246,222.061783,1302.362347
1109.769214,-9474.636058,-296.082377,919.314598
1109.769535,-9622.677246,0.000000,1149.143247
1109.769855,-10214.842000,148.041188,1532.190996
1109.770176,-9696.697840,0.000000,1532.190996
1109.770496,-9622.677246,0.000000,1225.752797
1109.770817,-9622.677246,222.061783,919.314598
1109.771137,-9844.739029,148.041188,842.705048
1109.771458,-9770.718434,74.020594,1302.362347
1109.771779,-9622.677246,222.061783,842.705048
1109.772099,-9770.718434,148.041188,995.924147
1109.772420,-9474.636058,222.061783,995.924147
1109.772740,-9326.594869,592.164754,1225.752797
1109.773061,-9770.718434,444.123565,1149.143247
1109.773382,-9992.780217,296.082377,1149.143247
1109.773702,-9622.677246,0.000000,1149.143247
1109.774023,-9622.677246,-148.041188,76.609550
1109.774343,-9474.636058,0.000000,1378.971896
1109.774664,-9770.718434,0.000000,919.314598
1109.774984,-9622.677246,0.000000,1225.752797
1109.775305,-9622.677246,0.000000,1149.143247
1109.775626,-9474.636058,0.000000,1072.533697
1109.775946,-9474.636058,0.000000,1302.362347
1109.776267,-9548.656652,0.000000,1225.752797
1109.776587,-9474.636058,-222.061783,1225.752797
1109.776908,-9918.759623,-740.205942,1455.581446
1109.777229,-9474.636058,-370.102971,1072.533697
1109.777549,-9400.615463,-592.164754,1302.362347
1109.777870,-9548.656652,-592.164754,1225.752797
1109.778190,-9548.656652,-370.102971,1685.410096
1109.778511,-9474.636058,-740.205942,1532.190996
1109.778831,-9474.636058,-592.164754,1532.190996
1109.779152,-9474.636058,-1036.288319,1608.800546
1109.779473,-9326.594869,-1110.308913,1608.800546
1109.779793,-9104.533087,-1036.288319,1532.190996
1109.780114,-9474.636058,-1036.288319,1532.190996
1109.780434,-9548.656652,-888.247130,1532.190996
1109.780755,-9474.636058,-888.247130,1072.533697
1109.781075,-9696.697840,-1184.329507,842.705048
1109.781396,-9474.636058,-1036.288319,1225.752797
1109.781717,-9548.656652,-1036.288319,1149.143247
1109.782037,-9770.718434,-740.205942,842.705048
1109.782358,-9844.739029,-592.164754,1838.629195
1109.782678,-10066.800811,-592.164754,995.924147
1109.782999,-9770.718434,-592.164754,766.095498
1109.783320,-9844.739029,-592.164754,919.314598
1109.783640,-9992.780217,-296.082377,842.705048
1109.783961,-9548.656652,-518.144159,919.314598
1109.784281,-9696.697840,-518.144159,306.438199
1109.784602,-9844.739029,-296.082377,612.876398
1109.784922,-9770.718434,-222.061783,459.657299
1109.785243,-9918.759623,-592.164754,383.047749
1109.785564,-9770.718434,-518.144159,153.219100
1109.785884,-9844.739029,-518.144159,459.657299
1109.786205,-9770.718434,-370.102971,536.266849
1109.786525,-9622.677246,-592.164754,1685.410096
1109.786846,-9474.636058,-740.205942,612.876398
1109.787166,-9474.636058,-518.144159,689.485948
1109.787487,-9622.677246,-444.123565,919.314598
1109.787808,-9474.636058,-592.164754,919.314598
1109.788128,-9548.656652,-592.164754,1378.971896
1109.788449,-9474.636058,-444.123565,1225.752797
1109.788769,-9696.697840,-444.123565,1149.143247
1109.789090,-9474.636058,-444.123565,1455.581446
1109.789411,-9400.615463,-1036.288319,1072.533697
1109.789731,-9474.636058,-518.144159,995.924147
1109.790052,-9474.636058,-518.144159,1149.143247
1109.790372,-9400.615463,-296.082377,1455.581446
1109.790693,-9548.656652,-666.185348,995.924147
1109.791013,-9252.574275,-370.102971,1072.533697
1109.791334,-9622.677246,-222.061783,1685.410096
1109.791655,-9622.677246,0.000000,1455.581446
1109.791975,-9696.697840,-222.061783,1149.143247
1109.792296,-9622.677246,-74.020594,1608.800546
1109.792616,-9622.677246,0.000000,1225.752797
1109.792937,-9400.615463,0.000000,1532.190996
1109.793258,-9622.677246,-148.041188,1378.971896
1109.793578,-9844.739029,74.020594,1915.238745
1109.793899,-9770.718434,74.020594,1532.190996
1109.794219,-9770.718434,0.000000,995.924147
1109.794540,-9622.677246,222.061783,612.876398
1109.794860,-9622.677246,444.123565,2221.676944
1109.795181,-9918.759623,148.041188,766.095498
1109.795502,-9696.697840,74.020594,536.266849
1109.795822,-9844.739029,296.082377,842.705048
1109.796143,-9918.759623,444.123565,612.876398
1109.796463,-9622.677246,370.102971,1149.143247
1109.796784,-9918.759623,148.041188,842.705048
1109.797104,-9770.718434,370.102971,842.705048
1109.797425,-9770.718434,74.020594,842.705048
1109.797746,-9474.636058,-222.061783,383.047749
1109.798066,-9770.718434,0.000000,842.705048
1109.798387,-9548.656652,0.000000,612.876398
1109.798707,-9548.656652,-148.041188,766.095498
1109.799028,-9770.718434,148.041188,536.266849
1109.799349,-9548.656652,-296.082377,919.314598
1109.799669,-9622.677246,-222.061783,995.924147
1109.799990,-9622.677246,-74.020594,1149.143247
1109.800310,-9400.615463,-518.144159,1302.362347
1109.800631,-9622.677246,-370.102971,1072.533697
1109.800951,-9326.594869,-518.144159,1378.971896
1109.801272,-9400.615463,-592.164754,1532.190996
1109.801593,-9474.636058,-740.205942,1455.581446
1109.801913,-9622.677246,-518.144159,1991.848295
1109.802234,-9474.636058,-888.247130,1455.581446
1109.802554,-9400.615463,-814.226536,1608.800546
1109.802875,-9474.636058,-888.247130,1608.800546
1109.803195,-8438.347739,-1554.432478,2681.334243
1109.803516,-9474.636058,-1036.288319,1532.190996
1109.803837,-9548.656652,-740.205942,1762.019645
1109.804157,-9548.656652,-740.205942,1762.019645
1109.804478,-9622.677246,-962.267725,1838.629195
1109.804798,-9474.636058,-1110.308913,1225.752797
1109.805119,-9548.656652,-962.267725,1532.190996
1109.805440,-9696.697840,-888.247130,1378.971896
1109.805760,-9622.677246,-740.205942,1762.019645
1109.806081,-9622.677246,-814.226536,919.314598
1109.806401,-9622.677246,-592.164754,1225.752797
1109.806722,-9548.656652,-814.226536,1072.533697
1109.807042,-9622.677246,-888.247130,1072.533697
1109.807363,-9918.759623,-814.226536,1072.533697
1109.807684,-9770.718434,-518.144159,766.095498
1109.808004,-9844.739029,0.000000,536.266849
1109.808325,-9844.739029,-148.041188,612.876398
1109.808645,-10066.800811,-148.041188,842.705048
1109.808966,-9696.697840,-296.082377,612.876398
1109.809286,-9992.780217,-444.123565,383.047749
1109.809607,-9696.697840,-370.102971,612.876398
1109.809928,-9548.656652,-888.247130,612.876398
1109.810248,-9326.594869,-592.164754,536.266849
1109.810569,-9474.636058,-592.164754,536.266849
1109.810889,-9548.656652,-592.164754,536.266849
1109.811210,-9474.636058,-666.185348,536.266849
1109.811531,-8808.450710,296.082377,689.485948
1109.811851,-9474.636058,-222.061783,842.705048
1109.812172,-9622.677246,0.000000,689.485948
1109.812492,-9474.636058,-222.061783,919.314598
1109.812813,-9622.677246,-444.123565,842.705048
1109.813133,-9252.574275,-518.144159,612.876398
1109.813454,-9548.656652,-296.082377,1072.533697
1109.813775,-9326.594869,-444.123565,995.924147
1109.814095,-9622.677246,-296.082377,1225.752797
1109.814416,-9474.636058,-296.082377,1072.533697
1109.814736,-9474.636058,-296.082377,919.314598
1109.815057,-9622.677246,-148.041188,1072.533697
1109.815378,-9548.656652,0.000000,995.924147
1109.815698,-9400.615463,0.000000,1455.581446
1109.816019,-9696.697840,0.000000,995.924147
1109.816339,-9474.636058,0.000000,1149.143247
1109.816660,-9770.718434,74.020594,1302.362347
1109.816980,-9770.718434,0.000000,1378.971896
1109.817301,-9548.656652,74.020594,1149.143247
1109.817622,-9696.697840,222.061783,1072.533697
1109.817942,-9696.697840,222.061783,1225.752797
1109.818263,-9548.656652,148.041188,1455.581446
1109.818583,-9918.759623,370.102971,1302.362347
1109.818904,-9770.718434,296.082377,919.314598
1109.819224,-9770.718434,296.082377,842.705048
1109.819545,-9844.739029,296.082377,1072.533697
1109.819866,-9548.656652,222.061783,383.047749
1109.820186,-9770.718434,74.020594,1072.533697
1109.820507,-9918.759623,370.102971,766.095498
1109.820827,-9992.780217,296.082377,995.924147
1109.821148,-9770.718434,222.061783,2757.943793
1109.821469,-9696.697840,0.000000,1455.581446
1109.821789,-9622.677246,-148.041188,1072.533697
1109.822110,-9696.697840,-296.082377,919.314598
1109.822430,-9548.656652,-222.061783,1225.752797
1109.822751,-9548.656652,-148.041188,1378.971896
1109.823071,-9622.677246,-296.082377,1072.533697
1109.823392,-9474.636058,-444.123565,1378.971896
1109.823713,-9474.636058,-296.082377,1225.752797
1109.824033,-9178.553681,-888.247130,766.095498
1109.824354,-9548.656652,-666.185348,1455.581446
1109.824674,-9474.636058,-888.247130,1302.362347
1109.824995,-9252.574275,-814.226536,1455.581446
1109.825315,-9400.615463,-148.041188,1149.143247
1109.825636,-9474.636058,-814.226536,1302.362347
1109.825957,-9474.636058,-888.247130,1762.019645
1109.826277,-9400.615463,-1110.308913,1762.019645
1109.826598,-9474.636058,-1110.308913,1302.362347
1109.826918,-9548.656652,-962.267725,1608.800546
1109.827239,-9400.615463,-1036.288319,1685.410096
1109.827560,-9474.636058,-814.226536,1532.190996
1109.827880,-9326.594869,-962.267725,1149.143247
1109.828201,-9474.636058,-888.247130,1225.752797
1109.828521,-9548.656652,-962.267725,1072.533697
1109.828842,-9474.636058,-1036.288319,1149.143247
1109.829162,-9548.656652,-814.226536,1225.752797
1109.829483,-9622.677246,-814.226536,1762.019645
1109.829804,-9696.697840,-592.164754,919.314598
1109.830124,-9918.759623,-740.205942,919.314598
1109.830445,-9992.780217,-592.164754,766.095498
1109.830765,-9622.677246,-444.123565,995.924147
1109.831086,-10066.800811,-222.061783,306.438199
1109.831406,-9770.718434,-148.041188,842.705048
1109.831727,-9622.677246,-518.144159,536.266849
1109.832048,-9844.739029,0.000000,459.657299
1109.832368,-9178.553681,-740.205942,919.314598
1109.832689,-9770.718434,-296.082377,766.095498
1109.833009,-9770.718434,0.000000,306.438199
1109.833330,-9992.780217,-148.041188,536.266849
1109.833651,-10288.862594,296.082377,919.314598
1109.833971,-9622.677246,-296.082377,842.705048
1109.834292,-9696.697840,-444.123565,995.924147
1109.834612,-9770.718434,-444.123565,995.924147
1109.834933,-9474.636058,-518.144159,919.314598
1109.835253,-9474.636058,-370.102971,995.924147
1109.835574,-9474.636058,-222.061783,995.924147
1109.835895,-9474.636058,-370.102971,689.485948
1109.836215,-9252.574275,-370.102971,919.314598
1109.836536,-8734.430116,-814.226536,919.314598
1109.836856,-9474.636058,-444.123565,1455.581446
1109.837177,-9622.677246,0.000000,1302.362347
1109.837498,-9474.636058,-296.082377,1685.410096
1109.837818,-9104.533087,-592.164754,1685.410096
1109.838139,-9696.697840,-296.082377,1608.800546
1109.838459,-9696.697840,-148.041188,1455.581446
1109.838780,-9474.636058,-148.041188,1302.362347
1109.839100,-9474.636058,0.000000,1378.971896
1109.839421,-9400.615463,74.020594,1072.533697
1109.839742,-9548.656652,-148.041188,1302.362347
1109.840062,-9474.636058,0.000000,1455.581446
1109.840383,-9548.656652,0.000000,1072.533697
1109.840703,-9474.636058,370.102971,1685.410096
1109.841024,-9918.759623,148.041188,1302.362347
1109.841344,-9696.697840,0.000000,919.314598
1109.841665,-9992.780217,74.020594,1225.752797
1109.841986,-9770.718434,740.205942,1072.533697
1109.842306,-9696.697840,0.000000,766.095498
1109.842627,-9696.697840,0.000000,766.095498
1109.842947,-9844.739029,296.082377,536.266849
1109.843268,-9770.718434,222.061783,689.485948
1109.843589,-9918.759623,148.041188,153.219100
1109.843909,-9770.718434,296.082377,459.657299
1109.844230,-9844.739029,296.082377,536.266849
1109.844550,-9696.697840,222.061783,383.047749
1109.844871,-9326.594869,592.164754,536.266849
1109.845191,-9622.677246,0.000000,995.924147
1109.845512,-9696.697840,-222.061783,919.314598
1109.845833,-9548.656652,-74.020594,842.705048
1109.846153,-9474.636058,-518.144159,1149.143247
1109.846474,-9474.636058,-666.185348,1225.752797
1109.846794,-9622.677246,-518.144159,1225.752797
1109.847115,-9400.615463,-444.123565,919.314598
1109.847435,-9400.615463,-370.102971,842.705048
1109.847756,-9326.594869,-740.205942,919.314598
1109.848077,-9400.615463,-370.102971,1455.581446
1109.848397,-9326.594869,-592.164754,1455.581446
1109.848718,-9474.636058,-666.185348,1455.581446
1109.849038,-9400.615463,-1480.411884,689.485948
1109.849359,-9400.615463,-888.247130,2068.457845
1109.849680,-9474.636058,-814.226536,2068.457845
1109.850000,-9474.636058,-962.267725,1991.848295
1109.850321,-9474.636058,-962.267725,1838.629195
1109.850641,-9548.656652,-962.267725,1532.190996
1109.850962,-9400.615463,-1036.288319,1838.629195
1109.851282,-9474.636058,-1036.288319,1608.800546
1109.851603,-9474.636058,-962.267725,1685.410096
1109.851924,-9474.636058,-592.164754,1149.143247
1109.852244,-9474.636058,-962.267725,1225.752797
1109.852565,-9474.636058,-962.267725,1378.971896
1109.852885,-9622.677246,-592.164754,1225.752797
1109.853206,-9622.677246,-592.164754,1302.362347
1109.853527,-9992.780217,-370.102971,1685.410096
1109.853847,-9548.656652,-518.144159,1072.533697
1109.854168,-9770.718434,-740.205942,995.924147
1109.854488,-9770.718434,-444.123565,1149.143247
1109.854809,-9770.718434,-222.061783,919.314598
1109.855129,-9770.718434,-222.061783,842.705048
1109.855450,-9770.718434,-222.061783,459.657299
1109.855771,-9918.759623,-370.102971,536.266849
1109.856091,-10066.800811,0.000000,-229.828649
1109.856412,-9918.759623,-296.082377,229.828649
1109.856732,-9770.718434,-296.082377,612.876398
1109.857053,-9696.697840,-518.144159,766.095498
1109.857373,-9696.697840,-592.164754,766.095498
1109.857694,-9548.656652,-370.102971,459.657299
1109.858015,-9548.656652,-296.082377,612.876398
1109.858335,-9474.636058,-592.164754,536.266849
1109.858656,-9622.677246,-74.020594,842.705048
1109.858976,-9178.553681,-370.102971,1072.533697
1109.859297,-9474.636058,-222.061783,842.705048
1109.859618,-9474.636058,-296.082377,689.485948
1109.859938,-9474.636058,-592.164754,842.705048
1109.860259,-9400.615463,-370.102971,689.485948
1109.860579,-9474.636058,-444.123565,842.705048
1109.860900,-9400.615463,-518.144159,919.314598
1109.861220,-9474.636058,-444.123565,919.314598
1109.861541,-9474.636058,-296.082377,1225.752797
1109.861862,-9400.615463,-222.061783,1532.190996
1109.862182,-9548.656652,-370.102971,995.924147
1109.862503,-9548.656652,-148.041188,1225.752797
1109.862823,-9474.636058,222.061783,1378.971896
1109.863144,-9252.574275,-222.061783,919.314598
1109.863464,-9696.697840,0.000000,995.924147
1109.863785,-9770.718434,0.000000,1685.410096
1109.864106,-9474.636058,0.000000,1225.752797
1109.864426,-9770.718434,222.061783,229.828649
1109.864747,-9770.718434,222.061783,1149.143247
1109.865067,-9548.656652,148.041188,919.314598
1109.865388,-9622.677246,222.061783,1072.533697
1109.865709,-9696.697840,0.000000,1302.362347
1109.866029,-9992.780217,222.061783,1302.362347
1109.866350,-9696.697840,74.020594,1072.533697
1109.866670,-9696.697840,222.061783,1072.533697
1109.866991,-9770.718434,370.102971,919.314598
1109.867311,-10658.965565,296.082377,0.000000
1109.867632,-9844.739029,0.000000,842.705048
1109.867953,-9622.677246,222.061783,689.485948
1109.868273,-9844.739029,74.020594,842.705048
1109.868594,-9548.656652,74.020594,1225.752797
1109.868914,-9844.739029,0.000000,1302.362347
1109.869235,-9548.656652,-370.102971,919.314598
1109.869556,-9622.677246,-296.082377,1072.533697
1109.869877,-9474.636058,-444.123565,1149.143247
1109.870197,-9400.615463,0.000000,1915.238745
1109.870518,-9696.697840,-666.185348,1302.362347
1109.870839,-9252.574275,-814.226536,1225.752797
1109.871160,-9474.636058,-592.164754,919.314598
1109.871480,-9918.759623,-148.041188,1991.848295
1109.871801,-9474.636058,-296.082377,1378.971896
1109.872122,-9474.636058,-518.144159,1378.971896
1109.872443,-9400.615463,-740.205942,1378.971896
1109.872763,-9326.594869,-666.185348,1149.143247
1109.873084,-9696.697840,-888.247130,1455.581446
1109.873405,-9474.636058,-814.226536,1838.629195
1109.873726,-9548.656652,-888.247130,1608.800546
1109.874046,-9474.636058,-888.247130,1302.362347
1109.874367,-9252.574275,-1036.288319,1532.190996
1109.874688,-9548.656652,-1110.308913,1455.581446
1109.875009,-9548.656652,-1110.308913,1532.190996
1109.875329,-9474.636058,-1110.308913,1302.362347
1109.875650,-9326.594869,-1036.288319,1685.410096
1109.875971,-9400.615463,-888.247130,1072.533697
1109.876292,-9474.636058,-814.226536,1378.971896
1109.876612,-9548.656652,-592.164754,689.485948
1109.876933,-9548.656652,-518.144159,995.924147
1109.877254,-9696.697840,0.000000,1149.143247
1109.877575,-9770.718434,-370.102971,842.705048
1109.877895,-9696.697840,-444.123565,536.266849
1109.878216,-9992.780217,-370.102971,766.095498
1109.878537,-9770.718434,-518.144159,229.828649
1109.878858,-9770.718434,-370.102971,536.266849
1109.879178,-9770.718434,-222.061783,766.095498
1109.879499,-9770.718434,-370.102971,689.485948
1109.879820,-9622.677246,-296.082377,612.876398
1109.880141,-9844.739029,-296.082377,536.266849
1109.880461,-9622.677246,-296.082377,689.485948
1109.880782,-9548.656652,-444.123565,689.485948
1109.881103,-9548.656652,-444.123565,766.095498
1109.881423,-9474.636058,-296.082377,459.657299
1109.881744,-9622.677246,-518.144159,689.485948
1109.882065,-9696.697840,-592.164754,919.314598
1109.882386,-9548.656652,-296.082377,1302.362347
1109.882706,-9400.615463,-148.041188,1378.971896
1109.883027,-9474.636058,-370.102971,919.314598
1109.883348,-9400.615463,-444.123565,1225.752797
1109.883669,-9474.636058,-296.082377,1149.143247
1109.883989,-9400.615463,-370.102971,1072.533697
1109.884310,-9474.636058,-296.082377,1762.019645
1109.884631,-9178.553681,-518.144159,1149.143247
1109.884952,-9400.615463,-592.164754,1149.143247
1109.885272,-9474.636058,-444.123565,1378.971896
1109.885593,-10288.862594,222.061783,1685.410096
1109.885914,-9474.636058,-222.061783,1225.752797
1109.886235,-9622.677246,0.000000,1378.971896
1109.886555,-9622.677246,0.000000,1838.629195
1109.886876,-9474.636058,-148.041188,1225.752797
1109.887197,-9622.677246,0.000000,1225.752797
1109.887518,-9770.718434,0.000000,995.924147
1109.887838,-9696.697840,-296.082377,842.705048
1109.888159,-9474.636058,0.000000,1072.533697
1109.888480,-9548.656652,148.041188,536.266849
1109.888801,-9844.739029,148.041188,842.705048
1109.889121,-9844.739029,74.020594,1225.752797
1109.889442,-9918.759623,0.000000,612.876398
1109.889763,-9252.574275,592.164754,1072.533697
1109.890084,-9622.677246,0.000000,842.705048
1109.890404,-9844.739029,148.041188,995.924147
1109.890725,-9992.780217,296.082377,842.705048
1109.891046,-9622.677246,370.102971,2681.334243
1109.891367,-9770.718434,222.061783,536.266849
1109.891687,-9844.739029,148.041188,536.266849
1109.892008,-9548.656652,0.000000,689.485948
1109.892329,-9548.656652,0.000000,536.266849
1109.892649,-9770.718434,74.020594,919.314598
1109.892970,-9474.636058,0.000000,919.314598
1109.893291,-9548.656652,-296.082377,919.314598
1109.893612,-9696.697840,-296.082377,842.705048
1109.893932,-8660.409521,-370.102971,995.924147
1109.894253,-9474.636058,-222.061783,1072.533697
1109.894574,-9474.636058,-296.082377,1455.581446
1109.894895,-9474.636058,-518.144159,1302.362347
1109.895215,-9400.615463,-592.164754,842.705048
1109.895536,-9326.594869,-518.144159,1378.971896
1109.895857,-9474.636058,-518.144159,1378.971896
1109.896178,-9178.553681,-814.226536,1608.800546
1109.896498,-9326.594869,-1110.308913,1378.971896
1109.896819,-9400.615463,-666.185348,1762.019645
1109.897140,-9474.636058,-888.247130,1915.238745
1109.897461,-9474.636058,-814.226536,1915.238745
1109.897781,-9400.615463,-888.247130,1991.848295
1109.898102,-9770.718434,-740.205942,1915.238745
1109.898423,-9474.636058,-740.205942,2145.067394
1109.898744,-9474.636058,-740.205942,1608.800546
1109.899064,-9474.636058,-666.185348,1915.238745
1109.899385,-9326.594869,-1554.432478,153.219100
1109.899706,-9474.636058,-962.267725,1532.190996
1109.900027,-9622.677246,-740.205942,1378.971896
1109.900347,-9696.697840,-592.164754,1302.362347
1109.900668,-9622.677246,-666.185348,1302.362347
1109.900989,-9918.759623,-740.205942,1378.971896
1109.901310,-9770.718434,-888.247130,919.314598
1109.901630,-9844.739029,-444.123565,919.314598
1109.901951,-9918.759623,-518.144159,842.705048
1109.902272,-9252.574275,-518.144159,2145.067394
1109.902593,-9770.718434,-222.061783,919.314598
1109.902913,-9844.739029,-296.082377,689.485948
1109.903234,-9622.677246,-222.061783,306.438199
1109.903555,-9844.739029,-592.164754,-612.876398
1109.903876,-9696.697840,-444.123565,459.657299
1109.904196,-9696.697840,-296.082377,842.705048
1109.904517,-9696.697840,-666.185348,766.095498
1109.904838,-9696.697840,-592.164754,536.266849
1109.905158,-9326.594869,-592.164754,689.485948
1109.905479,-9622.677246,-592.164754,766.095498
1109.905800,-9548.656652,-518.144159,919.314598
1109.906121,-9474.636058,-370.102971,842.705048
1109.906441,-9622.677246,-222.061783,459.657299
1109.906762,-9178.553681,-296.082377,612.876398
1109.907083,-9252.574275,-296.082377,766.095498
1109.907404,-9548.656652,-296.082377,919.314598
1109.907724,-9252.574275,-518.144159,536.266849
1109.908045,-9474.636058,-518.144159,536.266849
1109.908366,-9400.615463,-370.102971,459.657299
1109.908687,-9474.636058,-222.061783,689.485948
1109.909007,-9474.636058,-296.082377,842.705048
1109.909328,-9474.636058,0.000000,1302.362347
1109.909649,-9474.636058,0.000000,1149.143247
1109.909970,-9474.636058,0.000000,995.924147
1109.910290,-9622.677246,148.041188,919.314598
1109.910611,-9622.677246,0.000000,689.485948
1109.910932,-9770.718434,74.020594,1225.752797
1109.911253,-9548.656652,74.020594,995.924147
1109.911573,-9696.697840,0.000000,1072.533697
1109.911894,-9696.697840,814.226536,306.438199
1109.912215,-9844.739029,0.000000,689.485948
1109.912536,-9696.697840,296.082377,1072.533697
1109.912856,-9844.739029,0.000000,919.314598
1109.913177,-9770.718434,148.041188,1072.533697
1109.913498,-9770.718434,148.041188,842.705048
1109.913819,-9918.759623,296.082377,919.314598
1109.914139,-9918.759623,518.144159,766.095498
1109.914460,-9622.677246,444.123565,766.095498
1109.914781,-9770.718434,148.041188,842.705048
1109.915102,-9844.739029,74.020594,1225.752797
1109.915422,-9770.718434,-74.020594,1302.362347
1109.915743,-9474.636058,370.102971,919.314598
1109.916064,-10140.821405,-518.144159,-153.219100
1109.916384,-9770.718434,-296.082377,1225.752797
1109.916705,-9474.636058,-444.123565,1225.752797
1109.917026,-9548.656652,-222.061783,995.924147
1109.917347,-9474.636058,-370.102971,1991.848295
1109.917667,-9622.677246,0.000000,1149.143247
1109.917988,-9474.636058,-296.082377,1149.143247
1109.918309,-9548.656652,-370.102971,919.314598
1109.918630,-9474.636058,-222.061783,689.485948
1109.918950,-9548.656652,-370.102971,1072.533697
1109.919271,-9474.636058,-814.226536,1225.752797
1109.919592,-9474.636058,-592.164754,1302.362347
1109.919913,-9622.677246,-740.205942,1302.362347
1109.920233,-8734.430116,-1406.391290,2451.505594
1109.920554,-9474.636058,-1036.288319,1838.629195
1109.920875,-9400.615463,-1332.370696,1455.581446
1109.921196,-9474.636058,-1110.308913,1455.581446
1109.921516,-9474.636058,-1036.288319,1915.238745
1109.921837,-9474.636058,-814.226536,1378.971896
1109.922158,-9474.636058,-1110.308913,1608.800546
1109.922479,-9622.677246,-1036.288319,1532.190996
1109.922799,-9548.656652,-740.205942,1378.971896
1109.923120,-9548.656652,-518.144159,1762.019645
1109.923441,-9548.656652,-740.205942,1532.190996
1109.923762,-9474.636058,-666.185348,1072.533697
1109.924082,-9844.739029,-518.144159,995.924147
1109.924403,-9770.718434,-592.164754,536.266849
1109.924724,-9770.718434,-370.102971,995.924147
1109.925045,-9696.697840,-666.185348,842.705048
1109.925365,-9918.759623,-444.123565,612.876398
1109.925686,-9770.718434,-518.144159,536.266849
1109.926007,-9770.718434,-518.144159,766.095498
1109.926328,-9696.697840,-370.102971,689.485948
1109.926648,-9696.697840,-444.123565,689.485948
1109.926969,-9622.677246,-296.082377,919.314598
1109.927290,-9918.759623,0.000000,306.438199
1109.927611,-9474.636058,-370.102971,689.485948
1109.927931,-9622.677246,-370.102971,536.266849
1109.928252,-9548.656652,-296.082377,995.924147
1109.928573,-9844.739029,222.061783,0.000000
1109.928893,-9548.656652,-444.123565,1072.533697
1109.929214,-9474.636058,-148.041188,1149.143247
1109.929535,-9622.677246,-444.123565,1378.971896
1109.929856,-9622.677246,-444.123565,1838.629195
1109.930176,-9474.636058,-518.144159,1455.581446
1109.930497,-9474.636058,-444.123565,1302.362347
1109.930818,-9474.636058,-518.144159,1302.362347
1109.931139,-9400.615463,-518.144159,1302.362347
1109.931459,-9474.636058,0.000000,995.924147
1109.931780,-9326.594869,-370.102971,1149.143247
1109.932101,-9326.594869,-222.061783,995.924147
1109.932422,-9326.594869,-148.041188,1225.752797
1109.932742,-9326.594869,-444.123565,1378.971896
1109.933063,-9622.677246,0.000000,1378.971896
1109.933384,-9844.739029,0.000000,1685.410096
1109.933705,-9844.739029,0.000000,2145.067394
1109.934025,-9696.697840,-296.082377,1838.629195
1109.934346,-9622.677246,74.020594,1302.362347
1109.934667,-9622.677246,-74.020594,1302.362347
1109.934988,-9474.636058,0.000000,995.924147
1109.935308,-9474.636058,0.000000,1149.143247
1109.935629,-9622.677246,74.020594,919.314598
1109.935950,-9622.677246,74.020594,766.095498
1109.936271,-9474.636058,0.000000,689.485948
1109.936591,-9622.677246,74.020594,689.485948
1109.936912,-9252.574275,370.102971,1149.143247
1109.937233,-9992.780217,370.102971,459.657299
1109.937554,-10066.800811,370.102971,766.095498
1109.937874,-9770.718434,148.041188,689.485948
1109.938195,-9844.739029,222.061783,995.924147
1109.938516,-9696.697840,370.102971,306.438199
1109.938837,-9622.677246,74.020594,536.266849
1109.939157,-9696.697840,0.000000,995.924147
1109.939478,-9622.677246,0.000000,459.657299
1109.939799,-9622.677246,-222.061783,689.485948
1109.940119,-9696.697840,-222.061783,842.705048
1109.940440,-9474.636058,-740.205942,689.485948
1109.940761,-9474.636058,-666.185348,842.705048
1109.941082,-8808.450710,-814.226536,995.924147
1109.941402,-9474.636058,-444.123565,919.314598
1109.941723,-9548.656652,-370.102971,1149.143247
1109.942044,-9474.636058,-370.102971,1455.581446
1109.942365,-9696.697840,-370.102971,1149.143247
1109.942685,-9400.615463,-444.123565,1225.752797
1109.943006,-9474.636058,-444.123565,1302.362347
1109.943327,-9474.636058,-592.164754,1532.190996
1109.943648,-9474.636058,-666.185348,1532.190996
1109.943968,-9030.512492,-1184.329507,1225.752797
1109.944289,-9548.656652,-962.267725,1685.410096
1109.944610,-9474.636058,-1036.288319,1838.629195
1109.944931,-9326.594869,-1036.288319,1455.581446
1109.945251,-9474.636058,-962.267725,2145.067394
1109.945572,-9548.656652,-888.247130,1915.238745
1109.945893,-9474.636058,-888.247130,1608.800546
1109.946214,-9622.677246,-888.247130,1532.190996
1109.946534,-9548.656652,-740.205942,1685.410096
1109.946855,-9918.759623,-888.247130,1378.971896
1109.947176,-9548.656652,-592.164754,1302.362347
1109.947497,-9548.656652,-740.205942,1608.800546
1109.947817,-9474.636058,-592.164754,1149.143247
1109.948138,-9696.697840,-814.226536,1072.533697
1109.948459,-9918.759623,-592.164754,842.705048
1109.948780,-9770.718434,-296.082377,842.705048
1109.949100,-10066.800811,-296.082377,1072.533697
1109.949421,-9918.759623,0.000000,995.924147
1109.949742,-9844.739029,-592.164754,689.485948
1109.950063,-9918.759623,-296.082377,612.876398
1109.950383,-9622.677246,-518.144159,919.314598
1109.950704,-9992.780217,-592.164754,1378.971896
1109.951025,-9548.656652,222.061783,1915.238745
1109.951346,-9474.636058,-592.164754,919.314598
1109.951666,-9548.656652,-592.164754,689.485948
1109.951987,-9474.636058,-666.185348,689.485948
1109.952308,-9474.636058,-444.123565,0.000000
1109.952628,-9400.615463,-444.123565,536.266849
1109.952949,-9548.656652,0.000000,766.095498
1109.953270,-9622.677246,0.000000,766.095498
1109.953591,-9696.697840,0.000000,919.314598
1109.953911,-9474.636058,-296.082377,1149.143247
1109.954232,-9770.718434,-518.144159,1072.533697
1109.954553,-9474.636058,-222.061783,1225.752797
1109.954874,-9474.636058,-444.123565,1149.143247
1109.955194,-9400.615463,-222.061783,612.876398
1109.955515,-9474.636058,-296.082377,1072.533697
1109.955836,-9400.615463,-222.061783,1149.143247
1109.956157,-9474.636058,0.000000,1302.362347
1109.956477,-9400.615463,518.144159,1685.410096
1109.956798,-9474.636058,0.000000,1149.143247
1109.957119,-9548.656652,74.020594,995.924147
1109.957440,-9474.636058,0.000000,919.314598
1109.957760,-9696.697840,0.000000,766.095498
1109.958081,-9770.718434,222.061783,1072.533697
1109.958402,-9622.677246,74.020594,995.924147
1109.958723,-9622.677246,296.082377,842.705048
1109.959043,-9844.739029,148.041188,1302.362347
1109.959364,-8364.327145,-148.041188,1455.581446
1109.959685,-9548.656652,0.000000,1455.581446
1109.960006,-9474.636058,-296.082377,995.924147
1109.960326,-9770.718434,-222.061783,995.924147
1109.960647,-9104.533087,-370.102971,1455.581446
1109.960968,-9696.697840,-148.041188,689.485948
1109.961289,-9548.656652,0.000000,919.314598
1109.961609,-9622.677246,148.041188,919.314598
1109.961930,-9696.697840,296.082377,919.314598
1109.962251,-9696.697840,222.061783,1072.533697
1109.962572,-9844.739029,74.020594,919.314598
1109.962892,-9770.718434,0.000000,995.924147
1109.963213,-9622.677246,-148.041188,842.705048
1109.963534,-9918.759623,-148.041188,689.485948
1109.963854,-9548.656652,-222.061783,995.924147
1109.964175,-9474.636058,-444.123565,1149.143247
1109.964496,-9326.594869,-518.144159,1455.581446
1109.964817,-9474.636058,-1258.350101,1149.143247
1109.965137,-9326.594869,-296.082377,1149.143247
1109.965458,-9400.615463,-518.144159,1302.362347
1109.965779,-9400.615463,-444.123565,1455.581446
1109.966100,-9548.656652,-592.164754,1225.752797
1109.966420,-9326.594869,-888.247130,1302.362347
1109.966741,-9474.636058,-592.164754,1378.971896
1109.967062,-9474.636058,-740.205942,1149.143247
1109.967383,-9622.677246,-814.226536,1532.190996
1109.967703,-9400.615463,-888.247130,612.876398
1109.968024,-9474.636058,-740.205942,1149.143247
1109.968345,-9474.636058,-814.226536,1378.971896
1109.968666,-9548.656652,-888.247130,1608.800546
1109.968986,-9696.697840,-592.164754,1838.629195
1109.969307,-9474.636058,-1036.288319,1608.800546
1109.969628,-9548.656652,-1184.329507,1455.581446
1109.969949,-9696.697840,-962.267725,1455.581446
1109.970269,-9622.677246,-962.267725,1532.190996
1109.970590,-9474.636058,-888.247130,1608.800546
1109.970911,-9474.636058,-518.144159,1072.533697
1109.971232,-9622.677246,-666.185348,1225.752797
1109.971552,-9474.636058,-592.164754,919.314598
1109.971873,-9104.533087,-740.205942,766.095498
1109.972194,-10288.862594,-148.041188,766.095498
1109.972515,-9844.739029,74.020594,612.876398
1109.972836,-9770.718434,-296.082377,612.876398
1109.973156,-9770.718434,222.061783,-153.219100
1109.973477,-9770.718434,-370.102971,1149.143247
1109.973798,-9918.759623,-296.082377,689.485948
1109.974119,-9844.739029,-518.144159,612.876398
1109.974440,-9770.718434,-370.102971,842.705048
1109.974760,-9770.718434,-518.144159,842.705048
1109.975081,-9474.636058,-666.185348,612.876398
1109.975402,-9474.636058,-592.164754,612.876398
1109.975723,-9474.636058,-518.144159,766.095498
1109.976044,-8956.491898,-518.144159,1072.533697
1109.976364,-9474.636058,-444.123565,842.705048
1109.976685,-9770.718434,-222.061783,995.924147
1109.977006,-9548.656652,-370.102971,995.924147
1109.977327,-9474.636058,-592.164754,1762.019645
1109.977648,-9326.594869,-666.185348,1455.581446
1109.977969,-9400.615463,-370.102971,1072.533697
1109.978289,-9696.697840,-148.041188,1225.752797
1109.978610,-9474.636058,0.000000,1455.581446
1109.978931,-9696.697840,74.020594,1149.143247
1109.979252,-9622.677246,-222.061783,1608.800546
1109.979573,-9474.636058,-296.082377,919.314598
1109.979893,-9474.636058,-222.061783,1302.362347
1109.980214,-8512.368333,-222.061783,2987.772442
1109.980535,-9548.656652,0.000000,1608.800546
1109.980856,-9548.656652,0.000000,1762.019645
1109.981177,-9474.636058,0.000000,1149.143247
1109.981497,-9622.677246,0.000000,1302.362347
1109.981818,-9548.656652,-296.082377,1072.533697
1109.982139,-9622.677246,0.000000,1302.362347
1109.982460,-9548.656652,74.020594,1225.752797
1109.982781,-9770.718434,222.061783,842.705048
1109.983101,-9992.780217,148.041188,612.876398
1109.983422,-9696.697840,0.000000,689.485948
1109.983743,-9770.718434,-148.041188,612.876398
1109.984064,-9770.718434,0.000000,306.438199
1109.984385,-9696.697840,370.102971,1378.971896
1109.984705,-9474.636058,148.041188,536.266849
1109.985026,-9696.697840,296.082377,383.047749
1109.985347,-9844.739029,0.000000,612.876398
1109.985668,-9622.677246,296.082377,766.095498
1109.985989,-9696.697840,74.020594,919.314598
1109.986309,-9770.718434,74.020594,536.266849
1109.986630,-9844.739029,0.000000,919.314598
1109.986951,-9770.718434,0.000000,842.705048
1109.987272,-9770.718434,0.000000,459.657299
1109.987593,-9474.636058,-296.082377,842.705048
1109.987914,-9474.636058,-592.164754,689.485948
1109.988234,-9400.615463,-296.082377,919.314598
1109.988555,-8290.306550,-740.205942,1455.581446
1109.988876,-9474.636058,-296.082377,842.705048
1109.989197,-9474.636058,-370.102971,1149.143247
1109.989518,-9474.636058,-518.144159,1225.752797
1109.989838,-9400.615463,-592.164754,1302.362347
1109.990159,-9548.656652,-518.144159,1455.581446
1109.990480,-9548.656652,-740.205942,1608.800546
1109.990801,-9474.636058,-666.185348,1762.019645
1109.991122,-9400.615463,-888.247130,1762.019645
1109.991442,-9992.780217,-888.247130,1685.410096
1109.991763,-9474.636058,-888.247130,1915.238745
1109.992084,-9400.615463,-814.226536,2145.067394
1109.992405,-9770.718434,-1258.350101,2068.457845
1109.992726,-9400.615463,-1332.370696,1532.190996
1109.993046,-9474.636058,-814.226536,1838.629195
1109.993367,-9474.636058,-888.247130,1838.629195
1109.993688,-9622.677246,-888.247130,1455.581446
1109.994009,-9696.697840,-740.205942,1915.238745
1109.994330,-9696.697840,-814.226536,1915.238745
1109.994650,-9844.739029,-518.144159,1915.238745
1109.994971,-9918.759623,-370.102971,1762.019645
1109.995292,-9696.697840,-592.164754,1225.752797
1109.995613,-9696.697840,-740.205942,1378.971896
1109.995934,-9622.677246,-444.123565,1072.533697
1109.996254,-9844.739029,-444.123565,1225.752797
1109.996575,-9622.677246,-296.082377,1149.143247
1109.996896,-9400.615463,296.082377,459.657299
1109.997217,-9696.697840,-296.082377,536.266849
1109.997538,-9622.677246,0.000000,459.657299
1109.997858,-9622.677246,-222.061783,689.485948
1109.998179,-9548.656652,-296.082377,536.266849
1109.998500,-9770.718434,-370.102971,536.266849
1109.998821,-9770.718434,-666.185348,689.485948
1109.999142,-9474.636058,-666.185348,689.485948
1109.999463,-9696.697840,-444.123565,766.095498
1109.999783,-9474.636058,-296.082377,1072.533697
1110.000104,-9474.636058,-296.082377,306.438199
1110.000425,-9474.636058,-222.061783,383.047749
1110.000746,-9178.553681,-296.082377,536.266849
1110.001067,-9326.594869,0.000000,1685.410096
1110.001387,-9400.615463,-148.041188,612.876398
1110.001708,-9474.636058,-370.102971,766.095498
1110.002029,-9474.636058,-370.102971,919.314598
1110.002350,-9548.656652,-296.082377,842.705048
1110.002671,-9548.656652,-296.082377,1072.533697
1110.002991,-9474.636058,-296.082377,842.705048
1110.003312,-9622.677246,0.000000,1072.533697
1110.003633,-9622.677246,74.020594,1302.362347
1110.003954,-9400.615463,0.000000,1225.752797
1110.004275,-9622.677246,0.000000,1072.533697
1110.004595,-9474.636058,0.000000,995.924147
1110.004916,-9474.636058,74.020594,689.485948
1110.005237,-9992.780217,-74.020594,2145.067394
1110.005558,-9474.636058,0.000000,919.314598
1110.005879,-9696.697840,296.082377,1149.143247
1110.006199,-9770.718434,222.061783,1378.971896
1110.006520,-9622.677246,148.041188,1302.362347
1110.006841,-9696.697840,74.020594,1225.752797
1110.007162,-9844.739029,0.000000,1072.533697
1110.007483,-9696.697840,148.041188,1225.752797
1110.007803,-9770.718434,0.000000,1072.533697
1110.008124,-9918.759623,222.061783,919.314598
1110.008445,-9474.636058,148.041188,1072.533697
1110.008766,-9622.677246,222.061783,1225.752797
1110.009087,-9696.697840,74.020594,1149.143247
1110.009408,-10436.903782,1258.350101,689.485948
1110.009728,-9770.718434,148.041188,1378.971896
1110.010049,-9770.718434,-296.082377,1532.190996
1110.010370,-9622.677246,-518.144159,1302.362347
1110.010691,-9622.677246,-148.041188,1302.362347
1110.011012,-9622.677246,0.000000,1455.581446
1110.011332,-9474.636058,-592.164754,1302.362347
1110.011653,-9326.594869,-444.123565,1302.362347
1110.011974,-9474.636058,-518.144159,1302.362347
1110.012295,-8882.471304,-592.164754,1455.581446
1110.012616,-9400.615463,-592.164754,995.924147
1110.012936,-9326.594869,-444.123565,1225.752797
1110.013257,-9474.636058,-666.185348,1225.752797
1110.013578,-9474.636058,-518.144159,1072.533697
1110.013899,-9622.677246,-740.205942,1685.410096
1110.014220,-9400.615463,-1036.288319,1455.581446
1110.014540,-9622.677246,-1184.329507,1762.019645
1110.014861,-9474.636058,-888.247130,1915.238745
1110.015182,-9548.656652,-1110.308913,2145.067394
1110.015503,-9474.636058,-962.267725,1608.800546
1110.015824,-9548.656652,-1036.288319,1455.581446
1110.016144,-9474.636058,-1184.329507,1455.581446
1110.016465,-9252.574275,-1110.308913,1685.410096
1110.016786,-9474.636058,-1036.288319,1149.143247
1110.017107,-9548.656652,-888.247130,1302.362347
1110.017428,-9548.656652,-740.205942,1072.533697
1110.017748,-8956.491898,-1480.411884,995.924147
1110.018069,-9844.739029,-592.164754,1225.752797
1110.018390,-10066.800811,-444.123565,1225.752797
1110.018711,-9770.718434,-518.144159,1302.362347
1110.019032,-9844.739029,-592.164754,919.314598
1110.019352,-9770.718434,-518.144159,306.438199
1110.019673,-9770.718434,-518.144159,229.828649
1110.019994,-9696.697840,-370.102971,612.876398
1110.020315,-9622.677246,-148.041188,612.876398
1110.020636,-9992.780217,-518.144159,689.485948
1110.020957,-9622.677246,-444.123565,536.266849
1110.021277,-9696.697840,-296.082377,153.219100
1110.021598,-9918.759623,0.000000,1378.971896
1110.021919,-9622.677246,-592.164754,919.314598
1110.022240,-9548.656652,-296.082377,995.924147
1110.022561,-9696.697840,-222.061783,459.657299
1110.022881,-9474.636058,-370.102971,689.485948
1110.023202,-9474.636058,-296.082377,689.485948
1110.023523,-9548.656652,-222.061783,1149.143247
1110.023844,-9474.636058,0.000000,1225.752797
1110.024165,-9622.677246,0.000000,1149.143247
1110.024485,-9474.636058,-518.144159,1302.362347
1110.024806,-9400.615463,-296.082377,1302.362347
1110.025127,-9548.656652,-296.082377,1378.971896
1110.025448,-9252.574275,-518.144159,1455.581446
1110.025769,-9474.636058,0.000000,1225.752797
1110.026089,-9844.739029,962.267725,1455.581446
1110.026410,-9474.636058,0.000000,1302.362347
1110.026731,-9548.656652,-222.061783,1072.533697
1110.027052,-9474.636058,-148.041188,1378.971896
1110.027373,-9844.739029,74.020594,1302.362347
1110.027693,-9622.677246,222.061783,1149.143247
1110.028014,-9696.697840,74.020594,1685.410096
1110.028335,-9622.677246,74.020594,1225.752797
1110.028656,-9474.636058,0.000000,1225.752797
1110.028977,-9622.677246,0.000000,995.924147
1110.029297,-9622.677246,0.000000,919.314598
1110.029618,-9622.677246,148.041188,689.485948
1110.029939,-9770.718434,222.061783,919.314598
1110.030260,-9474.636058,0.000000,612.876398
1110.030581,-9770.718434,0.000000,612.876398
1110.030902,-9696.697840,74.020594,842.705048
1110.031222,-9844.739029,0.000000,919.314598
1110.031543,-9770.718434,74.020594,766.095498
1110.031864,-9844.739029,370.102971,612.876398
1110.032185,-9622.677246,0.000000,536.266849
1110.032506,-9622.677246,148.041188,612.876398
1110.032826,-9844.739029,222.061783,229.828649
1110.033147,-9474.636058,148.041188,536.266849
1110.033468,-9622.677246,-222.061783,612.876398
1110.033789,-9696.697840,0.000000,536.266849
1110.034110,-9474.636058,-444.123565,766.095498
1110.034430,-10140.821405,-518.144159,1838.629195
1110.034751,-9474.636058,-444.123565,1149.143247
1110.035072,-9474.636058,-592.164754,919.314598
1110.035393,-9252.574275,-444.123565,689.485948
1110.035714,-9622.677246,-370.102971,1302.362347
1110.036034,-9548.656652,-370.102971,1072.533697
1110.036355,-9474.636058,-592.164754,1378.971896
1110.036676,-9400.615463,-518.144159,1378.971896
1110.036997,-9474.636058,-592.164754,1455.581446
1110.037318,-9104.533087,-740.205942,1838.629195
1110.037638,-9326.594869,-740.205942,1762.019645
1110.037959,-9474.636058,-740.205942,1532.190996
1110.038280,-9326.594869,-740.205942,1608.800546
1110.038601,-9474.636058,-1110.308913,2451.505594
1110.038922,-9548.656652,-740.205942,1838.629195
1110.039242,-9622.677246,-740.205942,1915.238745
1110.039563,-9474.636058,-740.205942,1915.238745
1110.039884,-9474.636058,-1036.288319,1762.019645
1110.040205,-9696.697840,-740.205942,1455.581446
1110.040526,-9622.677246,-1036.288319,1915.238745
1110.040847,-9474.636058,-1036.288319,1838.629195
1110.041167,-9622.677246,-740.205942,1455.581446
1110.041488,-10066.800811,-296.082377,1378.971896
1110.041809,-9696.697840,-518.144159,1378.971896
1110.042130,-9696.697840,-666.185348,1302.362347
1110.042451,-9696.697840,-666.185348,1072.533697
1110.042771,-9622.677246,-1628.453072,1302.362347
1110.043092,-9770.718434,-370.102971,919.314598
1110.043413,-9918.759623,-370.102971,842.705048
1110.043734,-9696.697840,-222.061783,689.485948
1110.044055,-9844.739029,-370.102971,995.924147
1110.044375,-9918.759623,-222.061783,689.485948
1110.044696,-9696.697840,0.000000,612.876398
1110.045017,-9844.739029,-296.082377,842.705048
1110.045338,-9548.656652,-518.144159,842.705048
1110.045659,-10066.800811,-296.082377,1149.143247
1110.045979,-9400.615463,-740.205942,536.266849
1110.046300,-9548.656652,-592.164754,383.047749
1110.046621,-9474.636058,-518.144159,919.314598
1110.046942,-10214.842000,666.185348,76.609550
1110.047263,-9548.656652,-518.144159,842.705048
1110.047583,-9474.636058,-296.082377,995.924147
1110.047904,-9622.677246,-222.061783,919.314598
1110.048225,-9548.656652,-148.041188,842.705048
1110.048546,-9474.636058,-518.144159,842.705048
1110.048867,-9474.636058,-518.144159,1072.533697
1110.049187,-9474.636058,-444.123565,995.924147
1110.049508,-9400.615463,-518.144159,842.705048
1110.049829,-9918.759623,0.000000,766.095498
1110.050150,-9474.636058,-296.082377,919.314598
1110.050471,-9474.636058,0.000000,995.924147
1110.050791,-9548.656652,0.000000,1072.533697
1110.051112,-10140.821405,518.144159,842.705048
1110.051433,-9696.697840,0.000000,1072.533697
1110.051754,-9622.677246,-148.041188,919.314598
1110.052075,-9622.677246,-222.061783,689.485948
1110.052396,-9474.636058,0.000000,612.876398
1110.052716,-9622.677246,0.000000,1455.581446
1110.053037,-9844.739029,0.000000,1225.752797
1110.053358,-9696.697840,0.000000,919.314598
1110.053679,-9622.677246,0.000000,1149.143247
1110.054000,-9844.739029,148.041188,1455.581446
1110.054320,-9770.718434,0.000000,689.485948
1110.054641,-9622.677246,0.000000,1072.533697
1110.054962,-9770.718434,74.020594,1149.143247
1110.055283,-9474.636058,148.041188,766.095498
1110.055604,-9548.656652,444.123565,919.314598
1110.055924,-9696.697840,74.020594,919.314598
1110.056245,-9770.718434,222.061783,919.314598
1110.056566,-9622.677246,74.020594,1072.533697
1110.056887,-9622.677246,0.000000,1455.581446
1110.057208,-9474.636058,-222.061783,1149.143247
1110.057528,-9474.636058,-148.041188,1072.533697
1110.057849,-9474.636058,-444.123565,1149.143247
1110.058170,-9474.636058,-370.102971,1532.190996
1110.058491,-9548.656652,-296.082377,1072.533697
1110.058812,-9474.636058,-370.102971,1225.752797
1110.059132,-9474.636058,-222.061783,1225.752797
1110.059453,-9030.512492,-222.061783,1378.971896
1110.059774,-9326.594869,-370.102971,1225.752797
1110.060095,-9474.636058,-296.082377,1149.143247
1110.060416,-9474.636058,-518.144159,1455.581446
1110.060736,-9474.636058,-518.144159,1225.752797
1110.061057,-9326.594869,-666.185348,1455.581446
1110.061378,-9622.677246,-592.164754,1685.410096
1110.061699,-9400.615463,-814.226536,1378.971896
1110.062020,-9474.636058,-1036.288319,1378.971896
1110.062341,-9326.594869,-1036.288319,1608.800546
1110.062661,-9400.615463,-888.247130,1838.629195
1110.062982,-9400.615463,-666.185348,1455.581446
1110.063303,-9474.636058,-962.267725,1685.410096
1110.063624,-9474.636058,-1406.391290,919.314598
1110.063945,-9474.636058,-888.247130,1302.362347
1110.064265,-9622.677246,-666.185348,1149.143247
1110.064586,-9622.677246,-518.144159,1149.143247
1110.064907,-9770.718434,-592.164754,1149.143247
1110.065228,-9770.718434,-370.102971,1302.362347
1110.065549,-9770.718434,-148.041188,1072.533697
1110.065869,-9696.697840,-518.144159,766.095498
1110.066190,-9770.718434,-296.082377,919.314598
1110.066511,-9696.697840,0.000000,229.828649
1110.066832,-9844.739029,-222.061783,842.705048
1110.067153,-9770.718434,-370.102971,766.095498
1110.067473,-9770.718434,-296.082377,689.485948
1110.067794,-10140.821405,148.041188,919.314598
1110.068115,-9770.718434,-370.102971,536.266849
1110.068436,-9696.697840,-296.082377,459.657299
1110.068757,-9548.656652,-444.123565,842.705048
1110.069077,-9770.718434,-370.102971,919.314598
1110.069398,-9548.656652,-444.123565,766.095498
1110.069719,-9770.718434,-222.061783,689.485948
1110.070040,-9622.677246,-370.102971,842.705048
1110.070361,-9622.677246,-296.082377,995.924147
1110.070681,-9474.636058,-444.123565,842.705048
1110.071002,-9474.636058,-518.144159,842.705048
1110.071323,-9474.636058,-444.123565,1225.752797
1110.071644,-9400.615463,-444.123565,919.314598
1110.071965,-9104.533087,-296.082377,612.876398
1110.072285,-9400.615463,-444.123565,1225.752797
1110.072606,-9400.615463,-888.247130,1532.190996
1110.072927,-9918.759623,-814.226536,1455.581446
1110.073248,-9548.656652,-222.061783,1225.752797
1110.073569,-9622.677246,74.020594,2068.457845
1110.073890,-9548.656652,-296.082377,1455.581446
1110.074210,-9622.677246,-370.102971,1149.143247
1110.074531,-9474.636058,-296.082377,1225.752797
1110.074852,-9400.615463,-370.102971,995.924147
1110.075173,-9770.718434,-148.041188,1302.362347
1110.075494,-9622.677246,-222.061783,1302.362347
1110.075814,-9548.656652,-370.102971,919.314598
1110.076135,-9992.780217,444.123565,689.485948
1110.076456,-9696.697840,0.000000,995.924147
1110.076777,-9622.677246,0.000000,1455.581446
1110.077098,-9696.697840,0.000000,1072.533697
1110.077418,-9548.656652,-148.041188,689.485948
1110.077739,-9770.718434,0.000000,919.314598
1110.078060,-9696.697840,0.000000,612.876398
1110.078381,-9696.697840,0.000000,689.485948
1110.078702,-9770.718434,222.061783,766.095498
1110.079022,-9992.780217,370.102971,1302.362347
1110.079343,-9770.718434,370.102971,612.876398
1110.079664,-9696.697840,0.000000,459.657299
1110.079985,-9696.697840,0.000000,689.485948
1110.080306,-9696.697840,0.000000,306.438199
1110.080626,-9696.697840,0.000000,766.095498
1110.080947,-9548.656652,74.020594,766.095498
1110.081268,-9548.656652,-148.041188,842.705048
1110.081589,-9104.533087,0.000000,766.095498
1110.081910,-9844.739029,-148.041188,995.924147
1110.082230,-9474.636058,-370.102971,995.924147
1110.082551,-9474.636058,-518.144159,1149.143247
1110.082872,-9326.594869,-296.082377,919.314598
1110.083193,-9178.553681,-592.164754,2374.896044
1110.083514,-9548.656652,-518.144159,1378.971896
1110.083834,-9474.636058,-370.102971,1302.362347
1110.084155,-9474.636058,-296.082377,1149.143247
1110.084476,-9400.615463,-296.082377,3217.601092
1110.084797,-9548.656652,-592.164754,1838.629195
1110.085118,-9474.636058,-740.205942,1302.362347
1110.085438,-9474.636058,-962.267725,1685.410096
1110.085759,-9326.594869,-962.267725,1991.848295
1110.086080,-9696.697840,-1110.308913,1455.581446
1110.086401,-9474.636058,-1110.308913,1915.238745
1110.086722,-9326.594869,-1036.288319,1762.019645
1110.087042,-9622.677246,-814.226536,1762.019645
1110.087363,-10214.842000,-1258.350101,1149.143247
1110.087684,-9474.636058,-814.226536,1685.410096
1110.088005,-9844.739029,-666.185348,1685.410096
1110.088326,-9696.697840,-518.144159,1762.019645
1110.088646,-9548.656652,-444.123565,1685.410096
1110.088967,-9696.697840,-296.082377,1378.971896
1110.089288,-9844.739029,-370.102971,1455.581446
1110.089609,-9844.739029,-518.144159,1378.971896
1110.089930,-9696.697840,-296.082377,1149.143247
1110.090251,-10066.800811,-222.061783,689.485948
1110.090571,-9770.718434,-296.082377,995.924147
1110.090892,-9918.759623,-148.041188,919.314598
1110.091213,-9696.697840,-370.102971,612.876398
1110.091534,-9992.780217,-222.061783,842.705048
1110.091855,-9548.656652,-370.102971,689.485948
1110.092175,-9622.677246,-296.082377,995.924147
1110.092496,-9770.718434,0.000000,612.876398
1110.092817,-9548.656652,0.000000,0.000000
1110.093138,-9548.656652,-370.102971,612.876398
1110.093459,-9548.656652,-444.123565,689.485948
1110.093779,-9696.697840,-740.205942,536.266849
1110.094100,-9474.636058,-666.185348,459.657299
1110.094421,-9326.594869,-518.144159,383.047749
1110.094742,-9548.656652,-370.102971,919.314598
1110.095063,-9474.636058,-296.082377,536.266849
1110.095383,-9622.677246,-222.061783,612.876398
1110.095704,-9696.697840,-518.144159,306.438199
1110.096025,-9474.636058,-296.082377,995.924147
1110.096346,-9474.636058,-222.061783,995.924147
1110.096667,-9400.615463,-296.082377,919.314598
1110.096987,-9474.636058,-370.102971,842.705048
1110.097308,-9104.533087,-444.123565,919.314598
1110.097629,-9474.636058,-370.102971,919.314598
1110.097950,-9474.636058,-296.082377,1225.752797
1110.098271,-9622.677246,-444.123565,919.314598
1110.098591,-10140.821405,148.041188,1149.143247
1110.098912,-9770.718434,0.000000,1378.971896
1110.099233,-9622.677246,-222.061783,842.705048
1110.099554,-9770.718434,148.041188,1072.533697
1110.099875,-8882.471304,-148.041188,2298.286494
1110.100195,-9548.656652,0.000000,919.314598
1110.100516,-9548.656652,-148.041188,612.876398
1110.100837,-9622.677246,0.000000,612.876398
1110.101158,-9474.636058,74.020594,2221.676944
1110.101479,-9918.759623,0.000000,1149.143247
1110.101799,-9622.677246,-148.041188,842.705048
1110.102120,-9844.739029,0.000000,842.705048
1110.102441,-9992.780217,0.000000,1072.533697
1110.102762,-10066.800811,148.041188,1455.581446
1110.103083,-10066.800811,444.123565,1072.533697
1110.103403,-9474.636058,74.020594,995.924147
1110.103724,-9696.697840,0.000000,919.314598
1110.104045,-10658.965565,888.247130,1378.971896
1110.104366,-9696.697840,74.020594,1149.143247
1110.104687,-9548.656652,-296.082377,1072.533697
1110.105007,-9474.636058,-518.144159,1072.533697
1110.105328,-9548.656652,-296.082377,995.924147
1110.105649,-9474.636058,-296.082377,1302.362347
1110.105970,-9548.656652,-296.082377,1378.971896
1110.106291,-9770.718434,-444.123565,1762.019645
1110.106612,-9474.636058,-518.144159,1378.971896
1110.106932,-9622.677246,-370.102971,1149.143247
1110.107253,-9474.636058,-592.164754,1455.581446
1110.107574,-9326.594869,-592.164754,1455.581446
1110.107895,-9400.615463,-592.164754,1608.800546
1110.108216,-9622.677246,-814.226536,1149.143247
1110.108536,-9400.615463,-666.185348,1685.410096
1110.108857,-9474.636058,-592.164754,1455.581446
1110.109178,-9400.615463,-962.267725,1532.190996
1110.109499,-9400.615463,-740.205942,1685.410096
1110.109820,-9474.636058,-666.185348,1762.019645
1110.110140,-9548.656652,-592.164754,1608.800546
1110.110461,-9622.677246,-518.144159,1685.410096
1110.110782,-9474.636058,-962.267725,1455.581446
1110.111103,-9770.718434,-370.102971,1532.190996
1110.111424,-9474.636058,-962.267725,1532.190996
1110.111744,-9696.697840,-962.267725,1455.581446
1110.112065,-9548.656652,-592.164754,1225.752797
1110.112386,-8290.306550,-1628.453072,2528.115143
1110.112707,-9548.656652,-592.164754,689.485948
1110.113028,-9622.677246,-370.102971,766.095498
1110.113348,-9696.697840,-370.102971,766.095498
1110.113669,-9548.656652,-370.102971,229.828649
1110.113990,-9844.739029,-296.082377,919.314598
1110.114311,-10066.800811,0.000000,383.047749
1110.114632,-10066.800811,0.000000,612.876398
1110.114952,-9918.759623,0.000000,842.705048
1110.115273,-9844.739029,-444.123565,536.266849
1110.115594,-9844.739029,-444.123565,612.876398
1110.115915,-9770.718434,-444.123565,612.876398
1110.116236,-9770.718434,-444.123565,153.219100
1110.116556,-10214.842000,74.020594,0.000000
1110.116877,-9622.677246,-370.102971,612.876398
1110.117198,-9548.656652,-592.164754,536.266849
1110.117519,-9474.636058,-370.102971,689.485948
1110.117840,-9622.677246,-148.041188,919.314598
1110.118160,-9696.697840,-296.082377,766.095498
1110.118481,-9548.656652,-296.082377,1225.752797
1110.118802,-9474.636058,-296.082377,1149.143247
1110.119123,-9474.636058,-444.123565,1302.362347
1110.119444,-9474.636058,-592.164754,1072.533697
1110.119764,-9474.636058,-370.102971,1685.410096
1110.120085,-9474.636058,-518.144159,1302.362347
1110.120406,-9474.636058,-222.061783,1608.800546
1110.120727,-9844.739029,0.000000,1608.800546
1110.121048,-9474.636058,-148.041188,1225.752797
1110.121368,-9474.636058,-370.102971,1455.581446
1110.121689,-9326.594869,-222.061783,1072.533697
1110.122010,-9474.636058,-370.102971,1302.362347
1110.122331,-9474.636058,-222.061783,1225.752797
1110.122652,-9696.697840,-148.041188,1608.800546
1110.122973,-9844.739029,0.000000,1149.143247
1110.123293,-9844.739029,-74.020594,1608.800546
1110.123614,-9548.656652,74.020594,1149.143247
1110.123935,-9696.697840,0.000000,919.314598
1110.124256,-9696.697840,0.000000,1072.533697
1110.124577,-9696.697840,0.000000,842.705048
1110.124897,-9548.656652,0.000000,229.828649
1110.125218,-9696.697840,-148.041188,383.047749
1110.125539,-9548.656652,0.000000,459.657299
1110.125860,-9844.739029,74.020594,536.266849
1110.126181,-9622.677246,222.061783,766.095498
1110.126501,-9548.656652,0.000000,459.657299
1110.126822,-9844.739029,74.020594,842.705048
1110.127143,-9844.739029,74.020594,689.485948
1110.127464,-9918.759623,0.000000,612.876398
1110.127785,-9770.718434,74.020594,1532.190996
1110.128105,-9548.656652,-222.061783,612.876398
1110.128426,-9548.656652,0.000000,612.876398
1110.128747,-9474.636058,-222.061783,536.266849
1110.129068,-9622.677246,222.061783,-306.438199
1110.129389,-9474.636058,-444.123565,766.095498
1110.129709,-9326.594869,-518.144159,536.266849
1110.130030,-9474.636058,-370.102971,842.705048
1110.130351,-9548.656652,-444.123565,995.924147
1110.130672,-9474.636058,-444.123565,1302.362347
1110.130993,-9474.636058,-444.123565,1378.971896
1110.131313,-9622.677246,-740.205942,1072.533697
1110.131634,-9548.656652,-370.102971,1455.581446
1110.131955,-9400.615463,-1406.391290,1455.581446
1110.132276,-9400.615463,-888.247130,1378.971896
1110.132597,-9474.636058,-666.185348,1455.581446
1110.132917,-9252.574275,-666.185348,1225.752797
1110.133238,-8956.491898,-1850.514855,1685.410096
1110.133559,-9474.636058,-888.247130,1532.190996
1110.133880,-9474.636058,-888.247130,1532.190996
1110.134201,-9548.656652,-518.144159,1685.410096
1110.134521,-9844.739029,-444.123565,2068.457845
1110.134842,-9400.615463,-888.247130,1762.019645
1110.135163,-9696.697840,-592.164754,1762.019645
1110.135484,-9770.718434,-592.164754,2298.286494
1110.135805,-9844.739029,-296.082377,1838.629195
1110.136125,-9844.739029,-148.041188,842.705048
1110.136446,-9474.636058,-592.164754,1455.581446
1110.136767,-9622.677246,-666.185348,919.314598
1110.137088,-9548.656652,-518.144159,1072.533697
1110.137409,-9252.574275,296.082377,1991.848295
1110.137729,-9918.759623,0.000000,1072.533697
1110.138050,-9548.656652,-148.041188,612.876398
1110.138371,-9770.718434,-296.082377,1149.143247
1110.138692,-9770.718434,0.000000,919.314598
1110.139013,-10066.800811,0.000000,995.924147
1110.139334,-9844.739029,0.000000,919.314598
1110.139654,-9622.677246,-740.205942,766.095498
1110.139975,-9548.656652,-444.123565,459.657299
1110.140296,-9474.636058,-814.226536,229.828649
1110.140617,-9474.636058,-592.164754,919.314598
1110.140938,-9474.636058,-814.226536,766.095498
1110.141258,-9252.574275,-518.144159,612.876398
1110.141579,-8808.450710,-814.226536,-689.485948
1110.141900,-9474.636058,-296.082377,995.924147
1110.142221,-9696.697840,-370.102971,536.266849
1110.142542,-9400.615463,-222.061783,919.314598
1110.142862,-9474.636058,-296.082377,766.095498
1110.143183,-9474.636058,-296.082377,766.095498
1110.143504,-9474.636058,-74.020594,1072.533697
1110.143825,-9400.615463,-592.164754,689.485948
1110.144146,-9474.636058,-444.123565,536.266849
1110.144466,-9992.780217,-222.061783,1378.971896
1110.144787,-9474.636058,-296.082377,689.485948
1110.145108,-9400.615463,-296.082377,919.314598
1110.145429,-9548.656652,-222.061783,919.314598
1110.145750,-8956.491898,-666.185348,842.705048
1110.146070,-9770.718434,0.000000,1072.533697
1110.146391,-9622.677246,0.000000,1225.752797
1110.146712,-9548.656652,-148.041188,919.314598
1110.147033,-9696.697840,0.000000,919.314598
1110.147354,-9696.697840,148.041188,995.924147
1110.147674,-9770.718434,0.000000,919.314598
1110.147995,-9770.718434,74.020594,995.924147
1110.148316,-9548.656652,74.020594,919.314598
1110.148637,-9770.718434,-296.082377,536.266849
1110.148958,-9548.656652,0.000000,1072.533697
1110.149278,-9918.759623,370.102971,995.924147
1110.149599,-9696.697840,444.123565,919.314598
1110.149920,-9918.759623,370.102971,1532.190996
1110.150241,-10066.800811,148.041188,1149.143247
1110.150562,-9696.697840,74.020594,842.705048
1110.150882,-9844.739029,148.041188,919.314598
1110.151203,-9696.697840,74.020594,919.314598
1110.151524,-9400.615463,0.000000,995.924147
1110.151845,-9770.718434,0.000000,1225.752797
1110.152166,-9548.656652,-296.082377,1225.752797
1110.152486,-9400.615463,-370.102971,1072.533697
1110.152807,-9770.718434,-148.041188,919.314598
1110.153128,-9770.718434,-148.041188,1149.143247
1110.153449,-9474.636058,-148.041188,1225.752797
1110.153770,-9474.636058,-296.082377,1302.362347
1110.154090,-9474.636058,-592.164754,2374.896044
1110.154411,-9474.636058,-666.185348,1608.800546
1110.154732,-9474.636058,-814.226536,1762.019645
1110.155053,-9104.533087,-888.247130,1302.362347
1110.155374,-9474.636058,-888.247130,1378.971896
1110.155695,-9400.615463,-444.123565,1762.019645
1110.156015,-9400.615463,-814.226536,1532.190996
1110.156336,-9474.636058,-1036.288319,1532.190996
1110.156657,-9326.594869,-888.247130,1378.971896
1110.156978,-8660.409521,-1110.308913,2451.505594
1110.157299,-9474.636058,-814.226536,1455.581446
1110.157619,-9474.636058,-666.185348,1532.190996
1110.157940,-9474.636058,-740.205942,1302.362347
1110.158261,-9622.677246,-444.123565,2987.772442
1110.158582,-9474.636058,-666.185348,1378.971896
1110.158903,-9918.759623,-518.144159,1149.143247
1110.159223,-9548.656652,-518.144159,842.705048
1110.159544,-9844.739029,-444.123565,842.705048
1110.159865,-9548.656652,-518.144159,612.876398
1110.160186,-9770.718434,-740.205942,383.047749
1110.160507,-9770.718434,-444.123565,689.485948
1110.160827,-9622.677246,-444.123565,612.876398
1110.161148,-9474.636058,-222.061783,0.000000
1110.161469,-9770.718434,0.000000,689.485948
1110.161790,-9770.718434,-222.061783,459.657299
1110.162111,-9770.718434,-222.061783,459.657299
1110.162431,-9474.636058,-148.041188,689.485948
1110.162752,-9844.739029,-148.041188,689.485948
1110.163073,-9622.677246,-148.041188,919.314598
1110.163394,-9696.697840,-222.061783,842.705048
1110.163715,-9696.697840,-370.102971,1149.143247
1110.164035,-9548.656652,-592.164754,766.095498
1110.164356,-9474.636058,-962.267725,919.314598
1110.164677,-9400.615463,-592.164754,689.485948
1110.164998,-9474.636058,-814.226536,1072.533697
1110.165319,-9178.553681,148.041188,919.314598
1110.165639,-9400.615463,-592.164754,919.314598
1110.165960,-9326.594869,-592.164754,1225.752797
1110.166281,-9474.636058,-370.102971,1302.362347
1110.166602,-9474.636058,-740.205942,1378.971896
1110.166923,-9548.656652,-222.061783,1608.800546
1110.167243,-9474.636058,0.000000,1378.971896
1110.167564,-9474.636058,-296.082377,1302.362347
1110.167885,-9474.636058,-148.041188,1685.410096
1110.168206,-9622.677246,-666.185348,1455.581446
1110.168527,-9474.636058,-74.020594,1378.971896
1110.168847,-9474.636058,0.000000,1302.362347
1110.169168,-9548.656652,-222.061783,1455.581446
1110.169489,-9178.553681,-222.061783,1532.190996
1110.169810,-9770.718434,0.000000,1455.581446
1110.170131,-9770.718434,0.000000,1302.362347
1110.170451,-9548.656652,-148.041188,1225.752797
1110.170772,-9770.718434,74.020594,1072.533697
1110.171093,-9622.677246,0.000000,1302.362347
1110.171414,-9696.697840,74.020594,1225.752797
1110.171734,-9696.697840,0.000000,766.095498
1110.172055,-9622.677246,74.020594,536.266849
1110.172376,-9770.718434,74.020594,689.485948
1110.172696,-9844.739029,222.061783,306.438199
1110.173017,-9844.739029,74.020594,76.609550
1110.173338,-9770.718434,296.082377,229.828649
1110.173658,-8956.491898,0.000000,1302.362347
1110.173979,-9918.759623,296.082377,766.095498
1110.174300,-9696.697840,0.000000,536.266849
1110.174621,-9770.718434,-148.041188,383.047749
1110.174941,-9548.656652,74.020594,995.924147
1110.175262,-9770.718434,222.061783,612.876398
1110.175583,-9770.718434,0.000000,842.705048
1110.175903,-9474.636058,-444.123565,766.095498
1110.176224,-9474.636058,-518.144159,919.314598
1110.176545,-9770.718434,-222.061783,766.095498
1110.176866,-9474.636058,-444.123565,995.924147
1110.177186,-9622.677246,-296.082377,1225.752797
1110.177507,-9474.636058,-296.082377,1072.533697
1110.177828,-9474.636058,-222.061783,1149.143247
1110.178148,-9474.636058,-296.082377,1838.629195
1110.178469,-9474.636058,-592.164754,1608.800546
1110.178790,-9622.677246,-518.144159,1455.581446
1110.179111,-9326.594869,-518.144159,1378.971896
1110.179431,-9548.656652,-592.164754,1915.238745
1110.179752,-9326.594869,-962.267725,1915.238745
1110.180073,-9548.656652,-814.226536,1838.629195
1110.180393,-9474.636058,-1110.308913,1915.238745
1110.180714,-9400.615463,-1332.370696,1991.848295
1110.181035,-9252.574275,-1110.308913,3447.429741
1110.181356,-9696.697840,-814.226536,1915.238745
1110.181676,-9548.656652,-740.205942,1838.629195
1110.181997,-9548.656652,-962.267725,1532.190996
1110.182318,-9548.656652,-814.226536,1838.629195
1110.182638,-9770.718434,-740.205942,1378.971896
1110.182959,-9844.739029,-592.164754,1532.190996
1110.183280,-9770.718434,-592.164754,1608.800546
1110.183600,-9696.697840,-518.144159,1455.581446
1110.183921,-9548.656652,370.102971,1149.143247
1110.184242,-9844.739029,-370.102971,1455.581446
1110.184563,-9992.780217,-592.164754,919.314598
1110.184883,-9992.780217,-518.144159,1072.533697
1110.185204,-9696.697840,-370.102971,766.095498
1110.185525,-9622.677246,-518.144159,919.314598
1110.185845,-9770.718434,-444.123565,306.438199
1110.186166,-9844.739029,-222.061783,536.266849
1110.186487,-9918.759623,-222.061783,842.705048
1110.186808,-8956.491898,-444.123565,1762.019645
1110.187128,-9696.697840,-592.164754,536.266849
1110.187449,-9844.739029,-148.041188,766.095498
1110.187770,-9622.677246,-518.144159,612.876398
1110.188090,-9770.718434,-222.061783,919.314598
1110.188411,-9474.636058,-518.144159,842.705048
1110.188732,-9474.636058,-370.102971,689.485948
1110.189053,-9400.615463,0.000000,229.828649
1110.189373,-9474.636058,0.000000,383.047749
1110.189694,-9326.594869,-296.082377,229.828649
1110.190015,-9474.636058,-148.041188,612.876398
1110.190335,-9474.636058,-222.061783,612.876398
1110.190656,-9474.636058,0.000000,919.314598
1110.190977,-9030.512492,-370.102971,1608.800546
1110.191298,-9548.656652,-296.082377,1225.752797
1110.191618,-9474.636058,-296.082377,842.705048
1110.191939,-9622.677246,-148.041188,1072.533697
1110.192260,-9400.615463,-74.020594,1608.800546
1110.192580,-9474.636058,0.000000,1072.533697
1110.192901,-9474.636058,0.000000,842.705048
1110.193222,-9474.636058,148.041188,1149.143247
1110.193543,-9696.697840,0.000000,1225.752797
1110.193863,-9326.594869,0.000000,919.314598
1110.194184,-9696.697840,0.000000,1302.362347
1110.194505,-9918.759623,222.061783,1302.362347
1110.194825,-9770.718434,296.082377,995.924147
1110.195146,-9844.739029,518.144159,1991.848295
1110.195467,-9474.636058,148.041188,919.314598
1110.195787,-9770.718434,222.061783,1072.533697
1110.196108,-9770.718434,148.041188,919.314598
1110.196429,-9770.718434,222.061783,1302.362347
1110.196750,-9844.739029,222.061783,1608.800546
1110.197070,-9696.697840,222.061783,919.314598
1110.197391,-9844.739029,222.061783,995.924147
1110.197712,-9844.739029,74.020594,919.314598
1110.198032,-9696.697840,74.020594,766.095498
1110.198353,-10066.800811,148.041188,1072.533697
1110.198674,-9696.697840,74.020594,1149.143247
1110.198995,-9622.677246,-296.082377,1149.143247
1110.199315,-9770.718434,-148.041188,1149.143247
1110.199636,-9696.697840,-222.061783,1225.752797
1110.199957,-9548.656652,-222.061783,1302.362347
1110.200277,-9474.636058,-518.144159,1072.533697
1110.200598,-9474.636058,-370.102971,1072.533697
1110.200919,-9474.636058,-814.226536,-229.828649
1110.201240,-9400.615463,-518.144159,1302.362347
1110.201560,-9400.615463,-592.164754,1149.143247
1110.201881,-9400.615463,-740.205942,1302.362347
1110.202202,-9548.656652,-370.102971,1378.971896
1110.202522,-9548.656652,-666.185348,1685.410096
1110.202843,-9474.636058,-888.247130,1532.190996
1110.203164,-9474.636058,-962.267725,1378.971896
1110.203485,-9474.636058,-1036.288319,1685.410096
1110.203805,-9696.697840,-962.267725,1455.581446
1110.204126,-9474.636058,-962.267725,1225.752797
1110.204447,-9474.636058,-888.247130,1302.362347
1110.204767,-9474.636058,-740.205942,1455.581446
1110.205088,-9400.615463,-1036.288319,459.657299
1110.205409,-9548.656652,-962.267725,1302.362347
1110.205729,-9622.677246,-444.123565,1225.752797
1110.206050,-9548.656652,-592.164754,1149.143247
1110.206371,-9770.718434,-518.144159,1149.143247
1110.206692,-9548.656652,-518.144159,689.485948
1110.207012,-9844.739029,-444.123565,919.314598
1110.207333,-9696.697840,-74.020594,766.095498
1110.207654,-9770.718434,-296.082377,842.705048
1110.207974,-9918.759623,-222.061783,919.314598
1110.208295,-9918.759623,-444.123565,459.657299
1110.208616,-9992.780217,-222.061783,536.266849
1110.208937,-9844.739029,-296.082377,766.095498
1110.209257,-9696.697840,-222.061783,0.000000
1110.209578,-9770.718434,-444.123565,689.485948
1110.209899,-9844.739029,-444.123565,689.485948
1110.210219,-9696.697840,-222.061783,689.485948
1110.210540,-9622.677246,-592.164754,612.876398
1110.210861,-9918.759623,-370.102971,612.876398
1110.211182,-9770.718434,-370.102971,842.705048
1110.211502,-9696.697840,-370.102971,842.705048
1110.211823,-9696.697840,-592.164754,766.095498
1110.212144,-9696.697840,0.000000,1838.629195
1110.212464,-9474.636058,-444.123565,1149.143247
1110.212785,-9474.636058,-518.144159,1072.533697
1110.213106,-9474.636058,-444.123565,1149.143247
1110.213427,-8956.491898,-814.226536,2451.505594
1110.213747,-9400.615463,-444.123565,1225.752797
1110.214068,-9474.636058,-222.061783,1072.533697
1110.214389,-9474.636058,-296.082377,995.924147
1110.214709,-9474.636058,0.000000,1149.143247
1110.215030,-9178.553681,-518.144159,1608.800546
1110.215351,-9474.636058,-518.144159,1455.581446
1110.215671,-9474.636058,-296.082377,1455.581446
1110.215992,-9622.677246,-148.041188,1455.581446
1110.216313,-9252.574275,-222.061783,1532.190996
1110.216634,-9474.636058,-74.020594,1302.362347
1110.216954,-9622.677246,0.000000,1685.410096
1110.217275,-9474.636058,-148.041188,1149.143247
1110.217596,-9622.677246,-74.020594,919.314598
1110.217916,-9474.636058,-296.082377,842.705048
1110.218237,-9474.636058,0.000000,766.095498
1110.218558,-9622.677246,0.000000,1072.533697
1110.218879,-9770.718434,74.020594,995.924147
1110.219199,-9622.677246,0.000000,1149.143247
1110.219520,-9770.718434,0.000000,766.095498
1110.219841,-9918.759623,222.061783,536.266849
1110.220161,-10066.800811,222.061783,842.705048
1110.220482,-9178.553681,1036.288319,612.876398
1110.220803,-9844.739029,592.164754,612.876398
1110.221124,-9770.718434,222.061783,842.705048
1110.221444,-9770.718434,0.000000,689.485948
1110.221765,-9770.718434,1036.288319,1608.800546
1110.222086,-9622.677246,-370.102971,689.485948
1110.222406,-9548.656652,0.000000,536.266849
1110.222727,-9622.677246,-296.082377,766.095498
1110.223048,-9474.636058,-222.061783,842.705048
1110.223369,-9622.677246,148.041188,1072.533697
1110.223689,-9474.636058,-148.041188,995.924147
1110.224010,-9474.636058,-222.061783,842.705048
1110.224331,-9326.594869,-222.061783,919.314598
1110.224651,-9622.677246,-296.082377,1302.362347
1110.224972,-9400.615463,-296.082377,1532.190996
1110.225293,-9474.636058,-444.123565,1149.143247
1110.225613,-9400.615463,-518.144159,1378.971896
1110.225934,-9474.636058,-666.185348,1149.143247
1110.226255,-9252.574275,-740.205942,1685.410096
1110.226576,-9474.636058,-740.205942,1608.800546
1110.226896,-9400.615463,-740.205942,1455.581446
1110.227217,-9326.594869,-1036.288319,1455.581446
1110.227538,-9400.615463,-888.247130,1532.190996
1110.227858,-9474.636058,-888.247130,1532.190996
1110.228179,-9474.636058,-814.226536,2068.457845
1110.228500,-9548.656652,-666.185348,1532.190996
1110.228821,-10510.924376,-962.267725,1685.410096
1110.229141,-9622.677246,-666.185348,1685.410096
1110.229462,-9696.697840,-666.185348,1838.629195
1110.229783,-9548.656652,-814.226536,1455.581446
1110.230103,-9474.636058,-518.144159,459.657299
1110.230424,-9770.718434,-518.144159,1378.971896
1110.230745,-9696.697840,-592.164754,1378.971896
1110.231066,-9770.718434,-740.205942,1072.533697
1110.231386,-9622.677246,-444.123565,1225.752797
1110.231707,-9696.697840,-592.164754,689.485948
1110.232028,-9622.677246,-296.082377,766.095498
1110.232348,-9918.759623,-74.020594,919.314598
1110.232669,-9622.677246,-666.185348,842.705048
1110.232990,-10362.883188,-148.041188,689.485948
1110.233311,-9696.697840,-444.123565,612.876398
1110.233631,-9770.718434,-666.185348,919.314598
1110.233952,-9992.780217,-592.164754,842.705048
1110.234273,-9622.677246,-666.185348,995.924147
1110.234593,-9696.697840,-666.185348,536.266849
1110.234914,-9548.656652,-592.164754,383.047749
1110.235235,-9548.656652,-666.185348,689.485948
1110.235556,-9548.656652,-370.102971,383.047749
1110.235876,-9326.594869,-592.164754,536.266849
1110.236197,-9400.615463,-148.041188,536.266849
1110.236518,-9474.636058,-148.041188,612.876398
1110.236838,-9474.636058,-370.102971,612.876398
1110.237159,-9844.739029,-592.164754,1378.971896
1110.237480,-9622.677246,-592.164754,995.924147
1110.237800,-9548.656652,-666.185348,995.924147
1110.238121,-9474.636058,-518.144159,1149.143247
1110.238442,-9548.656652,0.000000,1072.533697
1110.238763,-9622.677246,-148.041188,1225.752797
1110.239083,-9474.636058,0.000000,1225.752797
1110.239404,-9104.533087,0.000000,919.314598
1110.239725,-9474.636058,0.000000,919.314598
1110.240045,-9474.636058,74.020594,766.095498
1110.240366,-9548.656652,0.000000,919.314598
1110.240687,-9548.656652,148.041188,612.876398
1110.241008,-9622.677246,0.000000,612.876398
1110.241328,-9548.656652,0.000000,0.000000
1110.241649,-9844.739029,74.020594,1302.362347
1110.241970,-9918.759623,0.000000,1302.362347
1110.242290,-9770.718434,0.000000,995.924147
1110.242611,-9696.697840,0.000000,1149.143247
1110.242932,-9844.739029,74.020594,1378.971896
1110.243253,-9770.718434,148.041188,1072.533697
1110.243573,-9770.718434,444.123565,919.314598
1110.243894,-9622.677246,370.102971,766.095498
1110.244215,-9770.718434,444.123565,612.876398
1110.244535,-9548.656652,148.041188,919.314598
1110.244856,-9918.759623,74.020594,842.705048
1110.245177,-9770.718434,148.041188,766.095498
1110.245498,-9474.636058,-296.082377,919.314598
1110.245818,-9844.739029,74.020594,1225.752797
1110.246139,-9770.718434,0.000000,1532.190996
1110.246460,-9622.677246,-148.041188,1455.581446
1110.246780,-9622.677246,-74.020594,2528.115143
1110.247101,-9400.615463,-148.041188,1072.533697
1110.247422,-9548.656652,0.000000,1225.752797
