#time,accel_x,accel_y,accel_z
983.002973,-9474.636058,-370.102971,1072.533697
983.003294,-9548.656652,-296.082377,1149.143247
983.003615,-9548.656652,-370.102971,1072.533697
983.003936,-9770.718434,-370.102971,612.876398
983.004257,-9548.656652,-222.061783,1149.143247
983.004578,-9844.739029,-370.102971,1302.362347
983.004899,-9548.656652,-222.061783,995.924147
983.005220,-9770.718434,-296.082377,1149.143247
983.005541,-9474.636058,-444.123565,919.314598
983.005862,-9474.636058,-370.102971,1072.533697
983.006183,-9622.677246,-222.061783,1149.143247
983.006504,-9770.718434,-296.082377,689.485948
983.006825,-9622.677246,-370.102971,1072.533697
983.007146,-9770.718434,-370.102971,919.314598
983.007467,-9770.718434,-370.102971,842.705048
983.007788,-9622.677246,-370.102971,1072.533697
983.008109,-9474.636058,-148.041188,1072.533697
983.008430,-9622.677246,-666.185348,766.095498
983.008751,-9400.615463,-222.061783,689.485948
983.009072,-9548.656652,-814.226536,612.876398
983.009393,-8882.471304,-370.102971,1455.581446
983.009714,-9548.656652,-592.164754,1149.143247
983.010035,-9770.718434,-296.082377,995.924147
983.010356,-9548.656652,-740.205942,1149.143247
983.010677,-9696.697840,-666.185348,1149.143247
983.010998,-9622.677246,-592.164754,842.705048
983.011319,-9474.636058,-296.082377,612.876398
983.011640,-9548.656652,-148.041188,1072.533697
983.011961,-9474.636058,-518.144159,1072.533697
983.012282,-9400.615463,-888.247130,689.485948
983.012603,-9400.615463,-1554.432478,306.438199
983.012924,-9178.553681,-1480.411884,229.828649
983.013245,-9474.636058,-1258.350101,536.266849
983.013566,-10140.821405,-814.226536,1225.752797
983.013887,-9548.656652,-1332.370696,229.828649
983.014208,-9474.636058,-1184.329507,0.000000
983.014529,-9770.718434,-1036.288319,0.000000
983.014850,-9622.677246,-1110.308913,306.438199
983.015171,-9696.697840,-1332.370696,0.000000
983.015492,-9548.656652,-1776.494261,-383.047749
983.015813,-9474.636058,-1924.535449,-306.438199
983.016134,-9252.574275,-2516.700203,-689.485948
983.016455,-9030.512492,-2960.823768,-842.705048
983.016776,-9030.512492,-3330.926739,-1455.581446
983.017096,-9400.615463,-3256.906145,-1685.410096
983.017417,-9030.512492,-3478.967927,-2221.676944
983.017738,-8512.368333,-3182.885551,-2451.505594
983.018059,-9474.636058,-3701.029710,-2681.334243
983.018380,-9474.636058,-3330.926739,-3064.381992
983.018701,-9474.636058,-3552.988522,-3294.210641
983.019022,-9622.677246,-3627.009116,-3830.477490
983.019343,-9696.697840,-3478.967927,-3907.087040
983.019664,-9770.718434,-3404.947333,-3753.867940
983.019985,-9844.739029,-3627.009116,-3524.039291
983.020306,-9548.656652,-3552.988522,-3447.429741
983.020627,-9548.656652,-3701.029710,-2987.772442
983.020948,-9770.718434,-3775.050304,-3064.381992
983.021269,-9696.697840,-3627.009116,-2757.943793
983.021590,-9770.718434,-3552.988522,-2528.115143
983.021911,-9696.697840,-2738.761985,-4290.134789
983.022232,-9696.697840,-3478.967927,-2451.505594
983.022553,-9770.718434,-3552.988522,-2757.943793
983.022874,-9622.677246,-3108.864956,-2834.553343
983.023195,-9548.656652,-2664.741391,-2604.724693
983.023516,-9622.677246,-2442.679609,-2374.896044
983.023837,-9548.656652,-2220.617826,-2298.286494
983.024158,-9992.780217,-2294.638420,-1532.190996
983.024479,-9992.780217,-2664.741391,-995.924147
983.024800,-9992.780217,-3034.844362,-1072.533697
983.025121,-10140.821405,-2664.741391,689.485948
983.025442,-10214.842000,-2960.823768,1532.190996
983.025763,-9844.739029,-2812.782580,2068.457845
983.026084,-9104.533087,-2146.597232,2604.724693
983.026405,-9252.574275,-2886.803174,1072.533697
983.026726,-8956.491898,-2960.823768,612.876398
983.027047,-8882.471304,-3182.885551,153.219100
983.027368,-8734.430116,-3404.947333,-1302.362347
983.027689,-8734.430116,-3330.926739,-995.924147
983.028010,-8956.491898,-3108.864956,-919.314598
983.028331,-9622.677246,-3034.844362,-383.047749
983.028652,-10140.821405,-2886.803174,0.000000
983.028973,-9918.759623,-3108.864956,-459.657299
983.029294,-10288.862594,-2738.761985,-306.438199
983.029615,-9844.739029,-2590.720797,-383.047749
983.029936,-9770.718434,-2072.576638,153.219100
983.030257,-10066.800811,-888.247130,306.438199
983.030578,-9770.718434,-444.123565,536.266849
983.030899,-9548.656652,74.020594,995.924147
983.031220,-9474.636058,296.082377,919.314598
983.031541,-9400.615463,370.102971,919.314598
983.031862,-9030.512492,148.041188,-383.047749
983.032182,-8808.450710,0.000000,-1378.971896
983.032503,-8586.388927,-666.185348,-2221.676944
983.032824,-8808.450710,-1332.370696,-3064.381992
983.033145,-9252.574275,-1776.494261,-3524.039291
983.033466,-9844.739029,-1998.556043,-3983.696590
983.033787,-10436.903782,-2368.659014,-3447.429741
983.034108,-10584.944971,-1998.556043,-3983.696590
983.034429,-10510.924376,-2368.659014,-3600.648841
983.034750,-10510.924376,-1998.556043,-2834.553343
983.035071,-10436.903782,-2146.597232,-1915.238745
983.035392,-10140.821405,-2146.597232,-689.485948
983.035713,-9844.739029,-2516.700203,-766.095498
983.036034,-9030.512492,-2368.659014,-842.705048
983.036355,-9030.512492,-1850.514855,-1378.971896
983.036676,-8364.327145,-814.226536,-1915.238745
983.036997,-8216.285956,-1110.308913,-2221.676944
983.037318,-8068.244768,-1924.535449,-2528.115143
983.037639,-8438.347739,-2738.761985,-2757.943793
983.037960,-9178.553681,-3775.050304,-3294.210641
983.038281,-9992.780217,-3182.885551,-2145.067394
983.038602,-10362.883188,-2146.597232,-1762.019645
983.038923,-11029.068536,-1406.391290,383.047749
983.039244,-11103.089130,-1036.288319,1378.971896
983.039565,-11399.171507,-2516.700203,842.705048
983.039886,-9992.780217,-3256.906145,1149.143247
983.040207,-9400.615463,-3478.967927,-459.657299
983.040528,-8882.471304,-2368.659014,-536.266849
983.040849,-8290.306550,-2442.679609,-459.657299
983.041170,-7772.162391,-2738.761985,-995.924147
983.041491,-7402.059420,-3552.988522,-1991.848295
983.041812,-8068.244768,-3627.009116,-1838.629195
983.042133,-9104.533087,-3923.091493,-689.485948
983.042454,-10436.903782,-3701.029710,1072.533697
983.042775,-11029.068536,-4145.153275,842.705048
983.043096,-10955.047942,-4367.215058,766.095498
983.043417,-10732.986159,-3849.070898,383.047749
983.043738,-10658.965565,-3775.050304,229.828649
983.044059,-10436.903782,-2886.803174,-689.485948
983.044380,-9400.615463,-2516.700203,-229.828649
983.044701,-9844.739029,-4293.194464,-2911.162892
983.045022,-7105.977043,-370.102971,-1608.800546
983.045343,-10955.047942,-2146.597232,-536.266849
983.045664,-9696.697840,-2294.638420,995.924147
983.045985,-8586.388927,-3775.050304,-1685.410096
983.046306,-9474.636058,-3182.885551,-1072.533697
983.046627,-8216.285956,-3034.844362,-1991.848295
983.046948,-11029.068536,-3256.906145,-1838.629195
983.047269,-10214.842000,-3108.864956,-1915.238745
983.047589,-8808.450710,-3330.926739,-4443.353888
983.047910,-9548.656652,-1776.494261,-3677.258390
983.048231,-9770.718434,-2146.597232,-2221.676944
983.048552,-10140.821405,-2812.782580,-3600.648841
983.048873,-10362.883188,-2442.679609,-3600.648841
983.049194,-8808.450710,-2220.617826,-3983.696590
983.049515,-8512.368333,-1628.453072,-3064.381992
983.049836,-8956.491898,-2146.597232,-689.485948
983.050157,-9474.636058,-1702.473667,-612.876398
983.050478,-9696.697840,-1480.411884,0.000000
983.050799,-10362.883188,-1850.514855,306.438199
983.051120,-9992.780217,-1776.494261,689.485948
983.051441,-9918.759623,-1480.411884,76.609550
983.051762,-9696.697840,-1480.411884,-612.876398
983.052083,-7846.182985,-1998.556043,-2145.067394
983.052404,-6957.935855,-3256.906145,-4443.353888
983.052725,-7920.203579,-2146.597232,-3140.991542
983.053046,-9474.636058,-1702.473667,-3447.429741
983.053367,-9918.759623,-1924.535449,-2451.505594
983.053688,-10362.883188,-1406.391290,-1915.238745
983.054009,-11399.171507,-1628.453072,-1225.752797
983.054330,-11029.068536,-2072.576638,-766.095498
983.054651,-11325.150913,-740.205942,1532.190996
983.054972,-10732.986159,444.123565,3753.867940
983.055293,-12657.521608,-4293.194464,2298.286494
983.055614,-8438.347739,-814.226536,383.047749
983.055935,-9622.677246,-2146.597232,-1149.143247
983.056256,-9030.512492,740.205942,-153.219100
983.056577,-7402.059420,370.102971,229.828649
983.056898,-8734.430116,-814.226536,306.438199
983.057219,-8808.450710,-1702.473667,0.000000
983.057540,-9030.512492,-4219.173869,-1532.190996
983.057861,-11547.212695,-3182.885551,1225.752797
983.058182,-9770.718434,-3627.009116,-229.828649
983.058503,-12213.398043,-1998.556043,-459.657299
983.058824,-9178.553681,-1998.556043,842.705048
983.059145,-9178.553681,-2590.720797,-536.266849
983.059465,-10214.842000,-3256.906145,383.047749
983.059786,-10510.924376,-4367.215058,-153.219100
983.060107,-8808.450710,-3404.947333,0.000000
983.060427,-9622.677246,-3034.844362,306.438199
983.060748,-8808.450710,-2072.576638,-612.876398
983.061069,-7698.141797,-592.164754,689.485948
983.061389,-7994.224174,-2590.720797,-1072.533697
983.061710,-8290.306550,-2516.700203,-1685.410096
983.062031,-8512.368333,-3034.844362,-2451.505594
983.062351,-8586.388927,-2146.597232,-2374.896044
983.062672,-9474.636058,-1776.494261,-1072.533697
983.062993,-10584.944971,-518.144159,383.047749
983.063313,-10732.986159,-1554.432478,689.485948
983.063634,-10288.862594,-1776.494261,-1072.533697
983.063955,-10362.883188,-2146.597232,-1302.362347
983.064275,-9844.739029,-2072.576638,-1302.362347
983.064596,-9178.553681,-1406.391290,-1225.752797
983.064917,-10066.800811,-814.226536,-766.095498
983.065237,-9400.615463,-1258.350101,-1685.410096
983.065558,-8068.244768,-2294.638420,-2374.896044
983.065878,-10362.883188,-3256.906145,-1685.410096
983.066199,-8808.450710,-1702.473667,-1991.848295
983.066520,-9918.759623,-296.082377,-612.876398
983.066840,-10362.883188,0.000000,2451.505594
983.067161,-10214.842000,-222.061783,-383.047749
983.067482,-10140.821405,-1628.453072,-383.047749
983.067802,-9696.697840,-1258.350101,-1378.971896
983.068123,-9622.677246,-2072.576638,-1225.752797
983.068444,-9622.677246,-1110.308913,-383.047749
983.068764,-9696.697840,-1776.494261,76.609550
983.069085,-8882.471304,-1036.288319,-995.924147
983.069406,-9770.718434,-2368.659014,-919.314598
983.069726,-8734.430116,-962.267725,0.000000
983.070047,-9548.656652,-222.061783,2145.067394
983.070368,-10140.821405,-518.144159,3907.087040
983.070688,-9474.636058,-1480.411884,3294.210641
983.071009,-8882.471304,-518.144159,1915.238745
983.071330,-9326.594869,0.000000,2604.724693
983.071650,-8956.491898,518.144159,3217.601092
983.071971,-9326.594869,222.061783,3524.039291
983.072292,-9030.512492,148.041188,3217.601092
983.072612,-8808.450710,-814.226536,536.266849
983.072933,-8438.347739,0.000000,0.000000
983.073254,-9992.780217,-296.082377,1608.800546
983.073574,-9770.718434,962.267725,2374.896044
983.073895,-9622.677246,-592.164754,1762.019645
983.074216,-8660.409521,-1702.473667,383.047749
983.074536,-9104.533087,-2664.741391,-1149.143247
983.074857,-9622.677246,-444.123565,-153.219100
983.075177,-9326.594869,1332.370696,2145.067394
983.075498,-10140.821405,2368.659014,4213.525239
983.075819,-11843.295072,1480.411884,4443.353888
983.076139,-11399.171507,0.000000,3830.477490
983.076460,-10807.006753,-148.041188,2604.724693
983.076781,-10288.862594,-1110.308913,3524.039291
983.077101,-10436.903782,148.041188,3753.867940
983.077422,-9770.718434,814.226536,2681.334243
983.077743,-8364.327145,740.205942,-229.828649
983.078063,-8364.327145,148.041188,-1915.238745
983.078384,-9030.512492,370.102971,-1915.238745
983.078705,-9548.656652,666.185348,-383.047749
983.079025,-10584.944971,666.185348,1149.143247
983.079346,-10807.006753,-1036.288319,1149.143247
983.079667,-10288.862594,-222.061783,1149.143247
983.079987,-12583.501014,-222.061783,2068.457845
983.080308,-10955.047942,-222.061783,1991.848295
983.080629,-8808.450710,1258.350101,2681.334243
983.080949,-9548.656652,-962.267725,1991.848295
983.081270,-7031.956449,-1332.370696,-1685.410096
983.081591,-8068.244768,-740.205942,-1532.190996
983.081911,-8216.285956,518.144159,-1225.752797
983.082232,-8142.265362,1850.514855,0.000000
983.082553,-9918.759623,444.123565,1149.143247
983.082873,-8808.450710,-1406.391290,0.000000
983.083194,-9474.636058,-2368.659014,-1225.752797
983.083515,-10955.047942,-2516.700203,0.000000
983.083835,-10066.800811,-888.247130,919.314598
983.084156,-10362.883188,222.061783,842.705048
983.084476,-10066.800811,74.020594,229.828649
983.084797,-8364.327145,-222.061783,-459.657299
983.085118,-8586.388927,-1110.308913,-1225.752797
983.085438,-9326.594869,-740.205942,229.828649
983.085759,-8586.388927,-444.123565,459.657299
983.086080,-8882.471304,-740.205942,1532.190996
983.086400,-9252.574275,-592.164754,536.266849
983.086721,-9252.574275,-666.185348,1378.971896
983.087042,-10214.842000,-592.164754,2145.067394
983.087362,-10658.965565,148.041188,3064.381992
983.087683,-11399.171507,148.041188,2221.676944
983.088004,-11103.089130,-888.247130,2911.162892
983.088324,-9992.780217,-2368.659014,1378.971896
983.088645,-9474.636058,-2368.659014,-919.314598
983.088966,-9400.615463,-814.226536,-1225.752797
983.089286,-8660.409521,370.102971,-536.266849
983.089607,-9696.697840,740.205942,1378.971896
983.089928,-10066.800811,-1110.308913,766.095498
983.090248,-8808.450710,-1036.288319,-76.609550
983.090569,-10732.986159,-1702.473667,1072.533697
983.090890,-9548.656652,-296.082377,2987.772442
983.091210,-10510.924376,74.020594,4290.134789
983.091531,-10584.944971,-592.164754,4596.572988
983.091852,-8290.306550,-1924.535449,2451.505594
983.092172,-9696.697840,-888.247130,689.485948
983.092493,-9696.697840,-592.164754,842.705048
983.092813,-9400.615463,74.020594,1455.581446
983.093134,-10362.883188,-148.041188,1991.848295
983.093455,-9622.677246,-296.082377,1072.533697
983.093775,-10214.842000,0.000000,1149.143247
983.094096,-11325.150913,814.226536,2911.162892
983.094417,-10066.800811,222.061783,2145.067394
983.094737,-9400.615463,-740.205942,1225.752797
983.095058,-7550.100608,-740.205942,-459.657299
983.095379,-7254.018232,-1850.514855,-1378.971896
983.095699,-8068.244768,-1776.494261,-919.314598
983.096020,-8290.306550,-1258.350101,1608.800546
983.096341,-9548.656652,592.164754,1991.848295
983.096661,-10807.006753,74.020594,2911.162892
983.096982,-10140.821405,0.000000,2451.505594
983.097303,-10732.986159,222.061783,2298.286494
983.097623,-10436.903782,370.102971,2068.457845
983.097944,-8512.368333,518.144159,1608.800546
983.098265,-9696.697840,-1332.370696,1532.190996
983.098585,-8660.409521,-1998.556043,-766.095498
983.098906,-8290.306550,-1702.473667,-1225.752797
983.099227,-8660.409521,-370.102971,-1532.190996
983.099547,-10066.800811,814.226536,153.219100
983.099868,-9474.636058,1998.556043,995.924147
983.100189,-11325.150913,1924.535449,2528.115143
983.100509,-9548.656652,-222.061783,229.828649
983.100830,-10362.883188,0.000000,0.000000
983.101151,-10881.027347,-222.061783,1072.533697
983.101471,-9474.636058,296.082377,1915.238745
983.101792,-9400.615463,1406.391290,2221.676944
983.102112,-9474.636058,-518.144159,766.095498
983.102433,-8512.368333,0.000000,-919.314598
983.102754,-10510.924376,-222.061783,-459.657299
983.103074,-9178.553681,814.226536,0.000000
983.103395,-8956.491898,296.082377,919.314598
983.103716,-10214.842000,-148.041188,2681.334243
983.104036,-9844.739029,-1110.308913,612.876398
983.104357,-9474.636058,-1554.432478,2068.457845
983.104678,-9696.697840,-1184.329507,1455.581446
983.104998,-9326.594869,148.041188,1455.581446
983.105319,-10584.944971,962.267725,2451.505594
983.105640,-10140.821405,666.185348,1532.190996
983.105960,-8512.368333,1406.391290,766.095498
983.106281,-9548.656652,-444.123565,76.609550
983.106602,-9474.636058,0.000000,536.266849
983.106922,-8586.388927,-148.041188,1991.848295
983.107243,-9918.759623,-1776.494261,2298.286494
983.107564,-8512.368333,-148.041188,919.314598
983.107884,-9030.512492,-1332.370696,459.657299
983.108205,-10732.986159,-1258.350101,1838.629195
983.108526,-10066.800811,0.000000,4213.525239
983.108846,-10510.924376,-1850.514855,2451.505594
983.109167,-9252.574275,-2368.659014,1455.581446
983.109488,-9400.615463,-3182.885551,-306.438199
983.109808,-10510.924376,-666.185348,612.876398
983.110129,-9918.759623,888.247130,2528.115143
983.110450,-10658.965565,1184.329507,3217.601092
983.110770,-10066.800811,666.185348,3217.601092
983.111091,-9622.677246,-1406.391290,612.876398
983.111411,-9622.677246,-1924.535449,-689.485948
983.111732,-8660.409521,-814.226536,612.876398
983.112053,-8586.388927,222.061783,459.657299
983.112373,-9474.636058,444.123565,1149.143247
983.112694,-8512.368333,962.267725,229.828649
983.113015,-9252.574275,296.082377,-76.609550
983.113335,-9844.739029,-222.061783,459.657299
983.113656,-9252.574275,296.082377,1762.019645
983.113977,-10658.965565,-888.247130,2604.724693
983.114297,-10807.006753,-1406.391290,1838.629195
983.114618,-9918.759623,-1702.473667,1225.752797
983.114939,-9696.697840,-1258.350101,842.705048
983.115259,-9326.594869,74.020594,919.314598
983.115580,-9474.636058,444.123565,2068.457845
983.115901,-9474.636058,-740.205942,1072.533697
983.116221,-7476.080014,-1850.514855,-1608.800546
983.116542,-8808.450710,-1332.370696,-1378.971896
983.116863,-9178.553681,-518.144159,306.438199
983.117183,-10140.821405,-296.082377,1532.190996
983.117504,-9474.636058,0.000000,2068.457845
983.117825,-9548.656652,-666.185348,229.828649
983.118145,-9400.615463,-296.082377,-229.828649
983.118466,-10510.924376,-1332.370696,766.095498
983.118787,-9104.533087,222.061783,612.876398
983.119107,-9992.780217,814.226536,1149.143247
983.119428,-9474.636058,518.144159,1685.410096
983.119748,-9474.636058,296.082377,842.705048
983.120069,-10066.800811,74.020594,689.485948
983.120390,-11251.130318,-296.082377,1532.190996
983.120710,-9178.553681,222.061783,1225.752797
983.121031,-10288.862594,370.102971,1225.752797
983.121352,-10288.862594,0.000000,1225.752797
983.121672,-9178.553681,-592.164754,536.266849
983.121993,-9400.615463,-148.041188,919.314598
983.122314,-9400.615463,888.247130,2145.067394
983.122634,-10288.862594,814.226536,2528.115143
983.122955,-11029.068536,444.123565,3524.039291
983.123276,-9326.594869,-1110.308913,1762.019645
983.123596,-9252.574275,-740.205942,229.828649
983.123917,-9252.574275,370.102971,1378.971896
983.124238,-8586.388927,666.185348,1302.362347
983.124558,-9770.718434,222.061783,2068.457845
983.124879,-8586.388927,-888.247130,306.438199
983.125200,-8586.388927,-1110.308913,229.828649
983.125520,-9918.759623,-592.164754,919.314598
983.125841,-10140.821405,370.102971,2834.553343
983.126162,-11103.089130,592.164754,4443.353888
983.126482,-11251.130318,-592.164754,3217.601092
983.126803,-9770.718434,-592.164754,1532.190996
983.127124,-10658.965565,296.082377,995.924147
983.127444,-9474.636058,1110.308913,919.314598
983.127765,-8734.430116,1258.350101,1225.752797
983.128086,-8586.388927,370.102971,919.314598
983.128406,-7920.203579,-1554.432478,-1532.190996
983.128727,-9178.553681,-2812.782580,-1225.752797
983.129047,-9770.718434,-2368.659014,459.657299
983.129368,-9918.759623,-1110.308913,1532.190996
983.129689,-10288.862594,370.102971,3677.258390
983.130009,-10436.903782,666.185348,2987.772442
983.130330,-9548.656652,-444.123565,229.828649
983.130651,-10214.842000,-1258.350101,-229.828649
983.130971,-9474.636058,-1480.411884,-459.657299
983.131292,-9030.512492,-1776.494261,229.828649
983.131613,-10362.883188,-2220.617826,383.047749
983.131933,-9252.574275,-2664.741391,-459.657299
983.132254,-9104.533087,-1406.391290,-383.047749
983.132575,-11399.171507,-1258.350101,1072.533697
983.132895,-9030.512492,1850.514855,2298.286494
983.133216,-12065.356855,-4219.173869,995.924147
983.133537,-6143.709319,0.000000,2374.896044
983.133857,-9696.697840,-3552.988522,-2451.505594
983.134178,-8438.347739,740.205942,459.657299
983.134499,-9252.574275,962.267725,153.219100
983.134819,-11177.109724,962.267725,2451.505594
983.135140,-10140.821405,-1036.288319,1838.629195
983.135461,-9104.533087,-2590.720797,-306.438199
983.135781,-10881.027347,-148.041188,689.485948
983.136102,-10214.842000,-222.061783,766.095498
983.136423,-9252.574275,2368.659014,919.314598
983.136743,-10214.842000,1184.329507,2911.162892
983.137064,-8290.306550,-2664.741391,0.000000
983.137385,-8734.430116,-2812.782580,0.000000
983.137705,-10732.986159,-1924.535449,-459.657299
983.138026,-8956.491898,-666.185348,1532.190996
983.138346,-9844.739029,1554.432478,2757.943793
983.138667,-10807.006753,592.164754,2374.896044
983.138988,-9400.615463,-148.041188,536.266849
983.139308,-9992.780217,-1184.329507,306.438199
983.139629,-9104.533087,-962.267725,689.485948
983.139950,-9474.636058,-370.102971,1532.190996
983.140270,-9622.677246,296.082377,2298.286494
983.140591,-9252.574275,-962.267725,689.485948
983.140912,-8142.265362,-296.082377,-766.095498
983.141232,-10066.800811,-148.041188,76.609550
983.141553,-9548.656652,962.267725,1532.190996
983.141874,-10362.883188,888.247130,1991.848295
983.142194,-10658.965565,148.041188,1225.752797
983.142515,-9474.636058,-740.205942,-229.828649
983.142836,-9474.636058,-296.082377,0.000000
983.143156,-10807.006753,1258.350101,2528.115143
983.143477,-9992.780217,2960.823768,2757.943793
983.143798,-10955.047942,1406.391290,2451.505594
983.144118,-9326.594869,888.247130,0.000000
983.144439,-9696.697840,962.267725,612.876398
983.144760,-9474.636058,592.164754,536.266849
983.145080,-9474.636058,1184.329507,1608.800546
983.145401,-9696.697840,666.185348,2451.505594
983.145722,-9104.533087,-1628.453072,383.047749
983.146042,-7846.182985,-2220.617826,76.609550
983.146363,-9918.759623,0.000000,536.266849
983.146683,-9918.759623,148.041188,1762.019645
983.147004,-9252.574275,1924.535449,2681.334243
983.147325,-10288.862594,518.144159,3294.210641
983.147645,-9252.574275,-2072.576638,1608.800546
983.147966,-9992.780217,-3182.885551,1149.143247
983.148287,-9326.594869,-2590.720797,919.314598
983.148607,-9252.574275,-1184.329507,2068.457845
983.148928,-9400.615463,592.164754,2451.505594
983.149249,-9696.697840,0.000000,2221.676944
983.149569,-9400.615463,-666.185348,919.314598
983.149890,-9178.553681,-962.267725,383.047749
983.150211,-9400.615463,-740.205942,0.000000
983.150531,-9104.533087,-888.247130,383.047749
983.150852,-8438.347739,592.164754,612.876398
983.151173,-9622.677246,-1332.370696,842.705048
983.151493,-9770.718434,-518.144159,689.485948
983.151814,-10214.842000,-740.205942,536.266849
983.152135,-9252.574275,-2146.597232,-536.266849
983.152455,-9326.594869,-148.041188,-459.657299
983.152776,-9622.677246,-222.061783,0.000000
983.153097,-8734.430116,0.000000,-919.314598
983.153417,-10362.883188,740.205942,612.876398
983.153738,-9918.759623,296.082377,1762.019645
983.154059,-10881.027347,-222.061783,2145.067394
983.154379,-10955.047942,-1628.453072,1072.533697
983.154700,-9400.615463,-2294.638420,1455.581446
983.155021,-9992.780217,-1406.391290,689.485948
983.155341,-10214.842000,0.000000,612.876398
983.155662,-9030.512492,814.226536,229.828649
983.155982,-9696.697840,1776.494261,1532.190996
983.156303,-9178.553681,-592.164754,0.000000
983.156624,-9400.615463,-1184.329507,-766.095498
983.156944,-9770.718434,-1480.411884,306.438199
983.157265,-9104.533087,-1258.350101,1302.362347
983.157586,-9918.759623,888.247130,2528.115143
983.157906,-10807.006753,-518.144159,3294.210641
983.158227,-9252.574275,-222.061783,1072.533697
983.158548,-9770.718434,962.267725,1838.629195
983.158868,-10288.862594,0.000000,2221.676944
983.159189,-9474.636058,-148.041188,2451.505594
983.159510,-9548.656652,-444.123565,1991.848295
983.159831,-9474.636058,-1184.329507,459.657299
983.160152,-8660.409521,-370.102971,153.219100
983.160472,-9400.615463,-1184.329507,919.314598
983.160793,-8734.430116,-1258.350101,1838.629195
983.161114,-9400.615463,-444.123565,2145.067394
983.161435,-9474.636058,-1332.370696,2221.676944
983.161755,-9030.512492,-740.205942,1072.533697
983.162076,-9696.697840,-148.041188,689.485948
983.162397,-9474.636058,0.000000,842.705048
983.162718,-8956.491898,666.185348,2221.676944
983.163039,-10362.883188,-740.205942,2145.067394
983.163359,-9252.574275,-1332.370696,766.095498
983.163680,-8882.471304,-888.247130,0.000000
983.164001,-9178.553681,0.000000,842.705048
983.164322,-9326.594869,222.061783,2374.896044
983.164642,-10140.821405,1776.494261,3140.991542
983.164963,-10288.862594,0.000000,2068.457845
983.165284,-9770.718434,-148.041188,995.924147
983.165605,-10066.800811,-296.082377,2451.505594
983.165926,-11177.109724,370.102971,2451.505594
983.166246,-10658.965565,1184.329507,2987.772442
983.166567,-10066.800811,-814.226536,1072.533697
983.166888,-7550.100608,-2146.597232,-1378.971896
983.167209,-8734.430116,-2072.576638,-1455.581446
983.167529,-9770.718434,-814.226536,-536.266849
983.167850,-9104.533087,1184.329507,306.438199
983.168171,-10362.883188,1850.514855,1532.190996
983.168492,-9992.780217,666.185348,995.924147
983.168812,-9622.677246,-1110.308913,-153.219100
983.169133,-10510.924376,-962.267725,536.266849
983.169454,-9696.697840,-1554.432478,536.266849
983.169775,-9104.533087,-888.247130,766.095498
983.170096,-10214.842000,-1036.288319,1532.190996
983.170416,-9474.636058,-2072.576638,76.609550
983.170737,-10362.883188,-1702.473667,383.047749
983.171058,-9770.718434,-148.041188,1072.533697
983.171379,-9622.677246,-666.185348,995.924147
983.171699,-9918.759623,-2368.659014,1915.238745
983.172020,-9030.512492,-814.226536,0.000000
983.172341,-8364.327145,-814.226536,-2145.067394
983.172662,-9770.718434,-962.267725,-229.828649
983.172983,-8512.368333,0.000000,689.485948
983.173303,-10436.903782,148.041188,2987.772442
983.173624,-10510.924376,-1702.473667,2987.772442
983.173945,-9252.574275,-1184.329507,2528.115143
983.174266,-11103.089130,-148.041188,2145.067394
983.174586,-9770.718434,888.247130,2374.896044
983.174907,-9918.759623,1406.391290,2374.896044
983.175228,-9622.677246,592.164754,2528.115143
983.175549,-7624.121203,-1628.453072,153.219100
983.175870,-8586.388927,-1924.535449,-842.705048
983.176190,-10066.800811,-1110.308913,153.219100
983.176511,-9770.718434,-296.082377,1225.752797
983.176832,-9252.574275,1184.329507,2451.505594
983.177153,-10510.924376,222.061783,1072.533697
983.177473,-9622.677246,1036.288319,766.095498
983.177794,-10807.006753,0.000000,766.095498
983.178115,-9770.718434,-1406.391290,2145.067394
983.178436,-8956.491898,444.123565,919.314598
983.178756,-9918.759623,-592.164754,459.657299
983.179077,-8882.471304,-740.205942,0.000000
983.179398,-9770.718434,-666.185348,-459.657299
983.179719,-9030.512492,814.226536,995.924147
983.180040,-9252.574275,1184.329507,1608.800546
983.180360,-11103.089130,74.020594,2374.896044
983.180681,-10584.944971,-1036.288319,2068.457845
983.181002,-11103.089130,-1850.514855,1149.143247
983.181323,-9622.677246,-1480.411884,689.485948
983.181643,-9474.636058,222.061783,1455.581446
983.181964,-9622.677246,2220.617826,2374.896044
983.182285,-10881.027347,2368.659014,1455.581446
983.182606,-9178.553681,74.020594,-459.657299
983.182927,-8956.491898,-222.061783,-995.924147
983.183247,-9548.656652,-814.226536,-612.876398
983.183568,-9104.533087,-1036.288319,995.924147
983.183889,-9844.739029,-370.102971,1762.019645
983.184210,-9770.718434,-1480.411884,919.314598
983.184530,-8660.409521,-740.205942,-153.219100
983.184851,-10066.800811,-666.185348,1378.971896
983.185172,-10658.965565,592.164754,1838.629195
983.185493,-9770.718434,296.082377,2681.334243
983.185814,-10066.800811,-2220.617826,2145.067394
983.186134,-7772.162391,-1850.514855,0.000000
983.186455,-8956.491898,-1628.453072,0.000000
983.186776,-10214.842000,-2146.597232,766.095498
983.187097,-7550.100608,1702.473667,1072.533697
983.187417,-9770.718434,296.082377,2145.067394
983.187738,-9178.553681,-740.205942,306.438199
983.188059,-9474.636058,-666.185348,1608.800546
983.188380,-11251.130318,-1258.350101,1608.800546
983.188700,-8438.347739,592.164754,1225.752797
983.189021,-9844.739029,1554.432478,1685.410096
983.189342,-9400.615463,888.247130,1685.410096
983.189663,-8660.409521,-1554.432478,0.000000
983.189984,-9178.553681,0.000000,0.000000
983.190304,-10066.800811,-666.185348,919.314598
983.190625,-9104.533087,296.082377,2451.505594
983.190946,-10658.965565,222.061783,2374.896044
983.191267,-10732.986159,-666.185348,919.314598
983.191587,-9844.739029,-148.041188,689.485948
983.191908,-10214.842000,-518.144159,689.485948
983.192229,-9178.553681,-296.082377,459.657299
983.192550,-8660.409521,814.226536,459.657299
983.192871,-9992.780217,222.061783,766.095498
983.193191,-9474.636058,370.102971,-153.219100
983.193512,-9252.574275,0.000000,536.266849
983.193833,-10140.821405,444.123565,1302.362347
983.194154,-10362.883188,814.226536,2451.505594
983.194474,-11621.233289,-296.082377,3294.210641
983.194795,-10214.842000,0.000000,995.924147
983.195116,-9474.636058,-740.205942,689.485948
983.195437,-9252.574275,-814.226536,612.876398
983.195757,-8882.471304,148.041188,1302.362347
983.196078,-8956.491898,370.102971,1455.581446
983.196399,-8512.368333,-1184.329507,0.000000
983.196720,-7994.224174,-1258.350101,153.219100
983.197041,-9548.656652,-1110.308913,536.266849
983.197361,-9474.636058,370.102971,2221.676944
983.197682,-10658.965565,296.082377,3524.039291
983.198003,-9992.780217,-740.205942,2681.334243
983.198324,-9178.553681,-1702.473667,383.047749
983.198644,-9992.780217,-888.247130,229.828649
983.198965,-9992.780217,518.144159,1455.581446
983.199286,-9252.574275,1332.370696,2145.067394
983.199607,-9474.636058,962.267725,2374.896044
983.199928,-9178.553681,-1554.432478,229.828649
983.200248,-8660.409521,-1998.556043,-995.924147
983.200569,-9992.780217,-888.247130,153.219100
983.200890,-9474.636058,74.020594,1072.533697
983.201211,-9844.739029,592.164754,2528.115143
983.201531,-10658.965565,-592.164754,2145.067394
983.201852,-9104.533087,-1850.514855,459.657299
983.202173,-9622.677246,-1628.453072,0.000000
983.202494,-9252.574275,-1184.329507,1225.752797
983.202815,-9474.636058,-592.164754,1532.190996
983.203135,-9844.739029,-1036.288319,536.266849
983.203456,-9178.553681,-1998.556043,-306.438199
983.203777,-9178.553681,-1628.453072,-1072.533697
983.204098,-10955.047942,148.041188,76.609550
983.204418,-10658.965565,1776.494261,2451.505594
983.204739,-11621.233289,1036.288319,2681.334243
983.205060,-10955.047942,-1184.329507,2145.067394
983.205381,-9622.677246,-3552.988522,306.438199
983.205701,-9326.594869,-3478.967927,-1149.143247
983.206022,-9622.677246,-814.226536,-459.657299
983.206343,-9252.574275,592.164754,1072.533697
983.206664,-8808.450710,1406.391290,1685.410096
983.206985,-8734.430116,-740.205942,-153.219100
983.207305,-7920.203579,370.102971,-536.266849
983.207626,-10140.821405,-592.164754,0.000000
983.207947,-9992.780217,370.102971,1455.581446
983.208268,-10140.821405,444.123565,2068.457845
983.208588,-9770.718434,-222.061783,1685.410096
983.208909,-8808.450710,-592.164754,459.657299
983.209230,-10214.842000,-1184.329507,1225.752797
983.209551,-10510.924376,-370.102971,3064.381992
983.209872,-10214.842000,-814.226536,2834.553343
983.210192,-9474.636058,1702.473667,1225.752797
983.210513,-8808.450710,-1480.411884,-919.314598
983.210834,-5995.668130,1258.350101,-1762.019645
983.211155,-9474.636058,1850.514855,0.000000
983.211475,-8512.368333,1776.494261,1762.019645
983.211796,-8364.327145,148.041188,1915.238745
983.212117,-11251.130318,-1924.535449,1455.581446
983.212438,-10881.027347,-1406.391290,1608.800546
983.212759,-10658.965565,-814.226536,1991.848295
983.213079,-10732.986159,1332.370696,3217.601092
983.213400,-9548.656652,1998.556043,2681.334243
983.213721,-9844.739029,1480.411884,2604.724693
983.214042,-7994.224174,1406.391290,2068.457845
983.214362,-11473.192101,-4589.276840,76.609550
983.214683,-7476.080014,740.205942,-306.438199
983.215004,-10066.800811,-2664.741391,-229.828649
983.215325,-9622.677246,666.185348,3294.210641
983.215645,-8438.347739,0.000000,1915.238745
983.215966,-10510.924376,-1110.308913,2987.772442
983.216287,-9474.636058,-1628.453072,919.314598
983.216608,-9326.594869,-1036.288319,-229.828649
983.216929,-12657.521608,1776.494261,4596.572988
983.217249,-8142.265362,0.000000,1915.238745
983.217570,-9326.594869,1554.432478,-76.609550
983.217891,-10288.862594,2368.659014,1302.362347
983.218212,-7254.018232,888.247130,-919.314598
983.218532,-10362.883188,1110.308913,612.876398
983.218853,-10066.800811,-740.205942,2068.457845
983.219174,-7624.121203,-2960.823768,-919.314598
983.219495,-10288.862594,-2072.576638,229.828649
983.219816,-9548.656652,-1702.473667,459.657299
983.220136,-8216.285956,222.061783,766.095498
983.220457,-10658.965565,148.041188,2221.676944
983.220778,-9918.759623,-1258.350101,1685.410096
983.221099,-8438.347739,-2368.659014,-383.047749
983.221419,-9400.615463,-2886.803174,-536.266849
983.221740,-9622.677246,-1184.329507,0.000000
983.222061,-8956.491898,370.102971,842.705048
983.222382,-10362.883188,74.020594,1302.362347
983.222703,-9178.553681,-740.205942,0.000000
983.223023,-8364.327145,-1258.350101,-1378.971896
983.223344,-9918.759623,-2516.700203,459.657299
983.223665,-8734.430116,-296.082377,1608.800546
983.223986,-11325.150913,-2146.597232,2604.724693
983.224306,-9992.780217,-1184.329507,2068.457845
983.224627,-7920.203579,-666.185348,-153.219100
983.224948,-10066.800811,0.000000,306.438199
983.225269,-10288.862594,222.061783,1838.629195
983.225589,-9548.656652,592.164754,1838.629195
983.225910,-10510.924376,-1036.288319,1532.190996
983.226231,-8438.347739,-1702.473667,-536.266849
983.226552,-10214.842000,-222.061783,689.485948
983.226873,-10955.047942,296.082377,3830.477490
983.227193,-10436.903782,1332.370696,3907.087040
983.227514,-10214.842000,-148.041188,4826.401637
983.227835,-10214.842000,-2368.659014,1608.800546
983.228156,-9548.656652,0.000000,-689.485948
983.228476,-9992.780217,444.123565,306.438199
983.228797,-8586.388927,2072.576638,689.485948
983.229118,-8586.388927,2294.638420,1455.581446
983.229439,-9252.574275,-296.082377,383.047749
983.229760,-8216.285956,-1480.411884,-536.266849
983.230080,-9770.718434,-1036.288319,689.485948
983.230401,-11029.068536,-1036.288319,1915.238745
983.230722,-10881.027347,592.164754,3830.477490
983.231043,-9696.697840,888.247130,2604.724693
983.231363,-9622.677246,0.000000,2298.286494
983.231684,-8660.409521,-1924.535449,-995.924147
983.232005,-7920.203579,-518.144159,-919.314598
983.232326,-8586.388927,296.082377,-76.609550
983.232647,-6883.915261,2664.741391,0.000000
983.232967,-11177.109724,-148.041188,2298.286494
983.233288,-8216.285956,-518.144159,689.485948
983.233609,-10807.006753,-814.226536,2451.505594
983.233930,-10732.986159,-1110.308913,2911.162892
983.234250,-10436.903782,518.144159,3983.696590
983.234571,-11399.171507,518.144159,4060.306139
983.234892,-9770.718434,-888.247130,2298.286494
983.235213,-6809.894666,-1702.473667,-2374.896044
983.235533,-8882.471304,-296.082377,-1302.362347
983.235854,-8290.306550,222.061783,-689.485948
983.236175,-9252.574275,1332.370696,842.705048
983.236496,-10436.903782,740.205942,0.000000
983.236817,-9474.636058,-1258.350101,-689.485948
983.237137,-10584.944971,-1258.350101,536.266849
983.237458,-11103.089130,-1258.350101,1455.581446
983.237779,-10584.944971,592.164754,3064.381992
983.238100,-11029.068536,-518.144159,2451.505594
983.238420,-8956.491898,-2072.576638,306.438199
983.238741,-9104.533087,-2442.679609,-1225.752797
983.239062,-9918.759623,-888.247130,-1532.190996
983.239383,-8142.265362,1776.494261,229.828649
983.239704,-9474.636058,2220.617826,1149.143247
983.240024,-9918.759623,888.247130,842.705048
983.240345,-9326.594869,-1184.329507,-1225.752797
983.240666,-9474.636058,-1036.288319,1149.143247
983.240987,-10288.862594,-2664.741391,919.314598
983.241307,-9622.677246,-444.123565,1991.848295
983.241628,-10955.047942,-222.061783,3064.381992
983.241949,-9770.718434,-1258.350101,612.876398
983.242270,-7920.203579,740.205942,-459.657299
983.242590,-9918.759623,-222.061783,842.705048
983.242911,-7994.224174,444.123565,1072.533697
983.243232,-9844.739029,-222.061783,1455.581446
983.243553,-10807.006753,-148.041188,612.876398
983.243874,-7698.141797,-814.226536,-153.219100
983.244194,-11103.089130,-148.041188,2298.286494
983.244515,-10658.965565,0.000000,3064.381992
983.244836,-9770.718434,518.144159,2757.943793
983.245157,-10658.965565,-296.082377,2068.457845
983.245477,-8364.327145,-1184.329507,0.000000
983.245798,-8512.368333,-1036.288319,-919.314598
983.246119,-9622.677246,-370.102971,383.047749
983.246440,-8808.450710,74.020594,459.657299
983.246761,-8512.368333,74.020594,919.314598
983.247081,-10066.800811,-1110.308913,1072.533697
983.247402,-9844.739029,-666.185348,612.876398
983.247723,-10436.903782,-148.041188,2374.896044
983.248044,-10214.842000,0.000000,2834.553343
983.248364,-9104.533087,444.123565,2374.896044
983.248685,-9696.697840,-370.102971,1608.800546
983.249006,-9030.512492,-1480.411884,995.924147
983.249327,-8734.430116,-370.102971,229.828649
983.249648,-9178.553681,-444.123565,766.095498
983.249968,-9326.594869,1036.288319,1762.019645
983.250289,-10362.883188,370.102971,2221.676944
983.250610,-10510.924376,-1184.329507,995.924147
983.250931,-10436.903782,-1554.432478,919.314598
983.251251,-9992.780217,-888.247130,1302.362347
983.251572,-10214.842000,74.020594,3447.429741
983.251893,-11843.295072,888.247130,4290.134789
983.252214,-9326.594869,0.000000,3140.991542
983.252534,-9178.553681,-2220.617826,-1455.581446
983.252855,-7772.162391,1628.453072,-1685.410096
983.253176,-8438.347739,888.247130,-1302.362347
983.253497,-8734.430116,2960.823768,612.876398
983.253818,-9770.718434,1850.514855,2374.896044
983.254138,-9770.718434,-1480.411884,459.657299
983.254459,-9622.677246,-1702.473667,766.095498
983.254780,-10955.047942,-1850.514855,1532.190996
983.255101,-10732.986159,-296.082377,3140.991542
983.255421,-10436.903782,740.205942,2834.553343
983.255742,-8660.409521,-370.102971,1532.190996
983.256063,-7846.182985,-2294.638420,-1378.971896
983.256384,-8882.471304,-814.226536,-995.924147
983.256705,-9178.553681,-1554.432478,0.000000
983.257025,-8586.388927,370.102971,919.314598
983.257346,-9696.697840,-814.226536,1455.581446
983.257667,-7402.059420,-444.123565,-306.438199
983.257988,-11325.150913,-1702.473667,229.828649
983.258308,-9770.718434,222.061783,2068.457845
983.258629,-9548.656652,296.082377,2145.067394
983.258950,-9844.739029,-518.144159,1838.629195
983.259271,-9104.533087,-2294.638420,0.000000
983.259592,-7698.141797,-962.267725,-1072.533697
983.259912,-10214.842000,-370.102971,-383.047749
983.260233,-8660.409521,1184.329507,76.609550
983.260554,-9474.636058,740.205942,1149.143247
983.260875,-9770.718434,-1110.308913,842.705048
983.261195,-8956.491898,-1332.370696,-459.657299
983.261516,-9918.759623,444.123565,1838.629195
983.261837,-12361.439231,-2590.720797,4213.525239
983.262158,-8808.450710,1554.432478,2757.943793
983.262479,-12065.356855,-888.247130,1838.629195
983.262799,-9548.656652,-1258.350101,1072.533697
983.263120,-7402.059420,-740.205942,-1302.362347
983.263441,-11103.089130,296.082377,919.314598
983.263762,-8882.471304,1110.308913,1302.362347
983.264083,-8882.471304,2738.761985,1455.581446
983.264403,-12879.583391,1110.308913,3753.867940
983.264724,-7698.141797,-1258.350101,0.000000
983.265045,-10214.842000,-222.061783,0.000000
983.265366,-11251.130318,-888.247130,1378.971896
983.265686,-7994.224174,888.247130,459.657299
983.266007,-10584.944971,1480.411884,2298.286494
983.266328,-9992.780217,-1036.288319,1608.800546
983.266649,-8216.285956,-666.185348,0.000000
983.266970,-10881.027347,-592.164754,1455.581446
983.267290,-10066.800811,222.061783,2451.505594
983.267611,-9548.656652,1850.514855,3217.601092
983.267932,-10140.821405,-444.123565,2987.772442
983.268253,-8512.368333,-1776.494261,919.314598
983.268573,-9622.677246,-1998.556043,1378.971896
983.268894,-9400.615463,-3404.947333,76.609550
983.269215,-8808.450710,0.000000,2145.067394
983.269536,-9548.656652,370.102971,1685.410096
983.269857,-9474.636058,-592.164754,995.924147
983.270177,-9548.656652,222.061783,995.924147
983.270498,-9178.553681,-1184.329507,0.000000
983.270819,-9326.594869,-2072.576638,689.485948
983.271140,-8882.471304,-1332.370696,306.438199
983.271461,-8956.491898,-1554.432478,-842.705048
983.271781,-9104.533087,370.102971,-383.047749
983.272102,-9400.615463,1850.514855,842.705048
983.272423,-10362.883188,0.000000,1762.019645
983.272744,-10066.800811,148.041188,3217.601092
983.273064,-10732.986159,-1776.494261,2528.115143
983.273385,-9918.759623,-4441.235652,459.657299
983.273706,-9326.594869,-2294.638420,153.219100
983.274027,-9104.533087,-518.144159,689.485948
983.274348,-8586.388927,148.041188,76.609550
983.274668,-8586.388927,1850.514855,689.485948
983.274989,-9252.574275,518.144159,-306.438199
983.275310,-8956.491898,0.000000,-1302.362347
983.275631,-10510.924376,1258.350101,1149.143247
983.275951,-11621.233289,-296.082377,2451.505594
983.276272,-10658.965565,814.226536,3524.039291
983.276593,-12065.356855,-1776.494261,3600.648841
983.276914,-7179.997637,-3256.906145,153.219100
983.277235,-8882.471304,-2442.679609,-1838.629195
983.277555,-9474.636058,-222.061783,-1608.800546
983.277876,-7402.059420,2590.720797,-689.485948
983.278197,-8734.430116,2516.700203,689.485948
983.278518,-9252.574275,74.020594,153.219100
983.278839,-9030.512492,-962.267725,-536.266849
983.279159,-11621.233289,-1702.473667,1685.410096
983.279480,-11325.150913,-1924.535449,3294.210641
983.279801,-10658.965565,222.061783,4519.963438
983.280122,-11177.109724,-592.164754,3600.648841
983.280442,-9622.677246,-222.061783,766.095498
983.280763,-9844.739029,2072.576638,0.000000
983.281084,-9326.594869,1702.473667,-459.657299
983.281405,-7698.141797,2442.679609,229.828649
983.281726,-8734.430116,0.000000,0.000000
983.282046,-7994.224174,-666.185348,-689.485948
983.282367,-10362.883188,-740.205942,76.609550
983.282688,-10140.821405,0.000000,2834.553343
983.283009,-11251.130318,-518.144159,4903.011187
983.283329,-11547.212695,814.226536,5362.668486
983.283650,-11251.130318,-444.123565,3677.258390
983.283971,-10066.800811,-1554.432478,1302.362347
983.284292,-8364.327145,-740.205942,229.828649
983.284613,-9252.574275,-1554.432478,-612.876398
983.284933,-7772.162391,370.102971,0.000000
983.285254,-7846.182985,370.102971,-306.438199
983.285575,-8660.409521,-962.267725,-2451.505594
983.285896,-9030.512492,74.020594,0.000000
983.286217,-11103.089130,-1036.288319,1838.629195
983.286537,-10288.862594,-1776.494261,2911.162892
983.286858,-11251.130318,666.185348,3294.210641
983.287179,-10807.006753,-296.082377,3294.210641
983.287500,-8364.327145,-1628.453072,229.828649
983.287820,-9104.533087,370.102971,153.219100
983.288141,-8216.285956,592.164754,-383.047749
983.288462,-9178.553681,3108.864956,689.485948
983.288783,-9844.739029,2220.617826,1302.362347
983.289104,-9104.533087,-370.102971,-383.047749
983.289424,-9992.780217,-666.185348,-306.438199
983.289745,-9326.594869,-1036.288319,766.095498
983.290066,-9474.636058,-592.164754,2068.457845
983.290387,-11621.233289,-740.205942,3294.210641
983.290707,-9326.594869,-2294.638420,842.705048
983.291028,-9474.636058,-1480.411884,-306.438199
983.291349,-9770.718434,0.000000,0.000000
983.291670,-9030.512492,518.144159,612.876398
983.291991,-9400.615463,888.247130,1455.581446
983.292311,-9696.697840,-740.205942,919.314598
983.292632,-7550.100608,-888.247130,-153.219100
983.292953,-10288.862594,-1258.350101,0.000000
983.293274,-9030.512492,-1184.329507,919.314598
983.293595,-9770.718434,-1184.329507,1991.848295
983.293915,-9696.697840,-1628.453072,1532.190996
983.294236,-9474.636058,-2072.576638,1072.533697
983.294557,-9770.718434,-592.164754,306.438199
983.294878,-10066.800811,0.000000,766.095498
983.295198,-9178.553681,962.267725,1455.581446
983.295519,-9400.615463,222.061783,1838.629195
983.295840,-8512.368333,-444.123565,383.047749
983.296161,-9178.553681,-1628.453072,-689.485948
983.296482,-9326.594869,-518.144159,76.609550
983.296802,-9918.759623,0.000000,842.705048
983.297123,-9844.739029,1628.453072,2604.724693
983.297444,-10881.027347,1258.350101,2681.334243
983.297765,-9918.759623,-814.226536,1378.971896
983.298085,-10288.862594,0.000000,0.000000
983.298406,-9474.636058,0.000000,2145.067394
983.298727,-9548.656652,-666.185348,383.047749
983.299048,-8808.450710,1332.370696,1225.752797
983.299369,-9400.615463,0.000000,-153.219100
983.299689,-7550.100608,0.000000,-1455.581446
983.300010,-8882.471304,666.185348,-536.266849
983.300331,-10140.821405,1258.350101,1225.752797
983.300652,-9474.636058,1036.288319,1685.410096
983.300973,-11621.233289,592.164754,3370.820191
983.301293,-10066.800811,-962.267725,3524.039291
983.301614,-11399.171507,-3404.947333,1072.533697
983.301935,-8734.430116,-1258.350101,1685.410096
983.302256,-9474.636058,-370.102971,1532.190996
983.302576,-9474.636058,1406.391290,3370.820191
983.302897,-8882.471304,-1332.370696,1225.752797
983.303218,-8512.368333,-1702.473667,76.609550
983.303539,-9622.677246,-2368.659014,-1225.752797
983.303860,-8882.471304,-2146.597232,1072.533697
983.304180,-10288.862594,444.123565,3524.039291
983.304501,-10362.883188,-296.082377,3830.477490
983.304822,-9696.697840,-1850.514855,1991.848295
983.305143,-9548.656652,-888.247130,1378.971896
983.305464,-9770.718434,-2294.638420,995.924147
983.305784,-9548.656652,-888.247130,995.924147
983.306105,-9918.759623,888.247130,2298.286494
983.306426,-9104.533087,444.123565,1225.752797
983.306747,-8364.327145,962.267725,-689.485948
983.307067,-9252.574275,74.020594,-689.485948
983.307388,-9252.574275,-296.082377,919.314598
983.307709,-10140.821405,-592.164754,1455.581446
983.308030,-10288.862594,-1554.432478,2068.457845
983.308351,-9548.656652,-3034.844362,229.828649
983.308671,-8734.430116,0.000000,919.314598
983.308992,-11325.150913,-1480.411884,1378.971896
983.309313,-9326.594869,666.185348,1072.533697
983.309634,-9548.656652,814.226536,842.705048
983.309954,-8660.409521,-1480.411884,-2298.286494
983.310275,-7994.224174,-296.082377,-3217.601092
983.310596,-9474.636058,0.000000,-153.219100
983.310917,-8216.285956,296.082377,-842.705048
983.311238,-9400.615463,1406.391290,689.485948
983.311558,-11029.068536,-1184.329507,2145.067394
983.311879,-10066.800811,-2886.803174,995.924147
983.312200,-12361.439231,-2294.638420,1532.190996
983.312521,-10807.006753,-592.164754,3370.820191
983.312842,-10955.047942,444.123565,2681.334243
983.313162,-9104.533087,1332.370696,2528.115143
983.313483,-8512.368333,-1924.535449,0.000000
983.313804,-6661.853478,1332.370696,-2145.067394
983.314125,-10214.842000,-518.144159,-689.485948
983.314445,-8586.388927,222.061783,-153.219100
983.314766,-8734.430116,1184.329507,2221.676944
983.315087,-10584.944971,-888.247130,2681.334243
983.315408,-9770.718434,-444.123565,2298.286494
983.315729,-11325.150913,148.041188,2911.162892
983.316049,-10955.047942,296.082377,3677.258390
983.316370,-9844.739029,1406.391290,4979.620737
983.316691,-10732.986159,1110.308913,5056.230287
983.317012,-9696.697840,-1850.514855,1915.238745
983.317332,-8216.285956,-592.164754,0.000000
983.317653,-7920.203579,74.020594,76.609550
983.317974,-8512.368333,0.000000,536.266849
983.318295,-7846.182985,1480.411884,1072.533697
983.318616,-9696.697840,-1406.391290,995.924147
983.318936,-8734.430116,-1036.288319,766.095498
983.319257,-9770.718434,-518.144159,1149.143247
983.319578,-11991.336260,-1628.453072,3524.039291
983.319899,-9770.718434,296.082377,3447.429741
983.320220,-10066.800811,-592.164754,2451.505594
983.320540,-9400.615463,-888.247130,842.705048
983.320861,-8734.430116,-444.123565,-306.438199
983.321182,-9918.759623,-740.205942,689.485948
983.321503,-8956.491898,740.205942,1762.019645
983.321823,-9622.677246,222.061783,3064.381992
983.322144,-10362.883188,-1258.350101,2528.115143
983.322465,-9622.677246,-2442.679609,383.047749
983.322786,-10510.924376,0.000000,536.266849
983.323107,-10807.006753,1036.288319,689.485948
983.323427,-10140.821405,3182.885551,2451.505594
983.323748,-10066.800811,1628.453072,1762.019645
983.324069,-8808.450710,-666.185348,-1608.800546
983.324390,-9252.574275,-370.102971,-1072.533697
983.324710,-9252.574275,-1924.535449,-995.924147
983.325031,-9178.553681,-1332.370696,0.000000
983.325352,-10140.821405,1036.288319,1302.362347
983.325673,-9844.739029,-296.082377,153.219100
983.325994,-9992.780217,0.000000,306.438199
983.326314,-10288.862594,0.000000,1072.533697
983.326635,-9622.677246,-1924.535449,612.876398
983.326956,-9992.780217,-1776.494261,612.876398
983.327277,-8512.368333,-2738.761985,-383.047749
983.327598,-7476.080014,-592.164754,-1225.752797
983.327918,-10436.903782,-666.185348,-612.876398
983.328239,-9400.615463,-148.041188,766.095498
983.328560,-9992.780217,74.020594,1915.238745
983.328881,-10807.006753,-2664.741391,1072.533697
983.329201,-8660.409521,-2516.700203,0.000000
983.329522,-11029.068536,-1850.514855,306.438199
983.329843,-9400.615463,0.000000,842.705048
983.330164,-9770.718434,592.164754,1532.190996
983.330485,-8956.491898,962.267725,2145.067394
983.330805,-8956.491898,-962.267725,919.314598
983.331126,-8734.430116,-1554.432478,-153.219100
983.331447,-8290.306550,-1776.494261,2145.067394
983.331768,-9622.677246,-148.041188,1455.581446
983.332088,-9918.759623,2220.617826,2987.772442
983.332409,-9844.739029,1480.411884,3370.820191
983.332730,-10140.821405,0.000000,2681.334243
983.333051,-9030.512492,-222.061783,2298.286494
983.333372,-11325.150913,-1554.432478,2681.334243
983.333692,-9104.533087,222.061783,3064.381992
983.334013,-10066.800811,592.164754,2911.162892
983.334334,-9474.636058,1110.308913,2451.505594
983.334655,-9104.533087,1036.288319,766.095498
983.334976,-9548.656652,1184.329507,1455.581446
983.335296,-9548.656652,0.000000,1532.190996
983.335617,-9252.574275,814.226536,2298.286494
983.335938,-11029.068536,74.020594,2987.772442
983.336259,-9622.677246,-2368.659014,1378.971896
983.336579,-9252.574275,-444.123565,536.266849
983.336900,-10807.006753,-592.164754,2068.457845
983.337221,-9548.656652,-1406.391290,1378.971896
983.337542,-10066.800811,-444.123565,2681.334243
983.337863,-10807.006753,-2294.638420,2068.457845
983.338183,-9622.677246,-2368.659014,-459.657299
983.338504,-10066.800811,0.000000,1685.410096
983.338825,-10436.903782,-296.082377,2068.457845
983.339146,-8586.388927,518.144159,2298.286494
983.339466,-9548.656652,0.000000,1072.533697
983.339787,-9104.533087,-1850.514855,-459.657299
983.340108,-6291.750507,518.144159,-2451.505594
983.340429,-9252.574275,-148.041188,-919.314598
983.340750,-8068.244768,1776.494261,689.485948
983.341070,-9548.656652,1036.288319,1915.238745
983.341391,-9844.739029,-1924.535449,76.609550
983.341712,-10066.800811,-1110.308913,229.828649
983.342033,-11177.109724,-1184.329507,1149.143247
983.342354,-10362.883188,0.000000,1991.848295
983.342674,-8512.368333,1036.288319,995.924147
983.342995,-8660.409521,592.164754,919.314598
983.343316,-7328.038826,-1332.370696,-1302.362347
983.343637,-8734.430116,-962.267725,-1838.629195
983.343957,-8808.450710,-2368.659014,-536.266849
983.344278,-9178.553681,-666.185348,459.657299
983.344599,-9844.739029,666.185348,1915.238745
983.344920,-9844.739029,-666.185348,1302.362347
983.345241,-9918.759623,-148.041188,689.485948
983.345561,-10066.800811,0.000000,1072.533697
983.345882,-10288.862594,-666.185348,1455.581446
983.346203,-10362.883188,74.020594,2451.505594
983.346524,-9770.718434,-2146.597232,1072.533697
983.346844,-7994.224174,-1776.494261,-229.828649
983.347165,-8808.450710,-370.102971,-536.266849
983.347486,-9400.615463,-444.123565,306.438199
983.347807,-9252.574275,1110.308913,2604.724693
983.348128,-11029.068536,-296.082377,4060.306139
983.348448,-10066.800811,-1480.411884,919.314598
983.348769,-9770.718434,-1776.494261,-689.485948
983.349090,-9474.636058,370.102971,76.609550
983.349411,-9030.512492,962.267725,1455.581446
983.349732,-8586.388927,2220.617826,1072.533697
983.350052,-10214.842000,444.123565,2451.505594
983.350373,-9622.677246,-1184.329507,-153.219100
983.350694,-11029.068536,-814.226536,1838.629195
983.351015,-11547.212695,-1924.535449,2757.943793
983.351335,-9844.739029,1406.391290,3677.258390
983.351656,-11251.130318,296.082377,3294.210641
983.351977,-8956.491898,74.020594,1378.971896
983.352298,-7254.018232,1184.329507,-1149.143247
983.352619,-9400.615463,-1406.391290,-766.095498
983.352939,-7994.224174,148.041188,919.314598
983.353260,-9992.780217,962.267725,1915.238745
983.353581,-10658.965565,-1776.494261,1762.019645
983.353902,-8660.409521,-296.082377,1302.362347
983.354222,-9992.780217,0.000000,1762.019645
983.354543,-10881.027347,-592.164754,2451.505594
983.354864,-10510.924376,592.164754,4366.744339
983.355185,-10214.842000,0.000000,4596.572988
983.355506,-10288.862594,-2516.700203,1072.533697
983.355826,-9326.594869,-592.164754,383.047749
983.356147,-8660.409521,-370.102971,-459.657299
983.356468,-8660.409521,1258.350101,995.924147
983.356789,-7698.141797,1924.535449,306.438199
983.357110,-8438.347739,-740.205942,-995.924147
983.357430,-8512.368333,-1036.288319,-1762.019645
983.357751,-9918.759623,-962.267725,0.000000
983.358072,-10955.047942,-1184.329507,2145.067394
983.358393,-9178.553681,2886.803174,4979.620737
983.358713,-13249.686362,-2072.576638,2987.772442
983.359034,-8068.244768,1924.535449,153.219100
983.359355,-10288.862594,0.000000,-1455.581446
983.359676,-9474.636058,370.102971,383.047749
983.359997,-6069.688724,814.226536,-536.266849
983.360317,-9918.759623,-444.123565,766.095498
983.360638,-7698.141797,-2220.617826,459.657299
983.360959,-7772.162391,-1924.535449,-3064.381992
983.361280,-12805.562797,444.123565,3677.258390
983.361601,-9474.636058,-1628.453072,1991.848295
983.361921,-11473.192101,962.267725,2911.162892
983.362242,-12065.356855,-1332.370696,3447.429741
983.362563,-8364.327145,-2294.638420,-1225.752797
983.362884,-11547.212695,-1406.391290,76.609550
983.363205,-7846.182985,518.144159,1072.533697
983.363525,-6735.874072,518.144159,0.000000
983.363846,-7624.121203,1554.432478,383.047749
983.364167,-9622.677246,-1628.453072,-383.047749
983.364488,-9178.553681,-370.102971,-153.219100
983.364809,-11251.130318,-1776.494261,1532.190996
983.365129,-11103.089130,-518.144159,2221.676944
983.365450,-9400.615463,2146.597232,2757.943793
983.365771,-11177.109724,-1332.370696,1225.752797
983.366092,-8660.409521,-592.164754,459.657299
983.366413,-9178.553681,-888.247130,-766.095498
983.366733,-9030.512492,-814.226536,0.000000
983.367054,-9178.553681,1850.514855,2068.457845
983.367375,-8956.491898,1702.473667,1532.190996
983.367696,-10362.883188,-296.082377,1455.581446
983.368017,-9178.553681,888.247130,1149.143247
983.368337,-9992.780217,-1628.453072,919.314598
983.368658,-9400.615463,-296.082377,1838.629195
983.368979,-9696.697840,370.102971,2757.943793
983.369300,-9326.594869,-1258.350101,995.924147
983.369621,-9548.656652,0.000000,689.485948
983.369941,-8882.471304,962.267725,919.314598
983.370262,-9622.677246,0.000000,842.705048
983.370583,-9400.615463,1702.473667,2834.553343
983.370904,-10288.862594,592.164754,2681.334243
983.371224,-10288.862594,-1924.535449,1685.410096
983.371545,-9992.780217,-1110.308913,1302.362347
983.371866,-9770.718434,-2220.617826,919.314598
983.372187,-9474.636058,-1998.556043,1455.581446
983.372508,-9844.739029,0.000000,2451.505594
983.372828,-9400.615463,-1258.350101,1455.581446
983.373149,-8882.471304,-1258.350101,612.876398
983.373470,-9400.615463,-1258.350101,1838.629195
983.373791,-8660.409521,-1036.288319,1915.238745
983.374112,-10140.821405,296.082377,2528.115143
983.374432,-10214.842000,-740.205942,2911.162892
983.374753,-8438.347739,-2220.617826,919.314598
983.375074,-9400.615463,0.000000,306.438199
983.375395,-10362.883188,296.082377,1225.752797
983.375716,-9844.739029,1110.308913,1455.581446
983.376036,-9474.636058,740.205942,1762.019645
983.376357,-9844.739029,-592.164754,76.609550
983.376678,-9252.574275,-962.267725,-766.095498
983.376999,-10436.903782,-962.267725,536.266849
983.377320,-9252.574275,74.020594,1149.143247
983.377640,-9844.739029,1776.494261,1838.629195
983.377961,-10732.986159,0.000000,1762.019645
983.378282,-9104.533087,-148.041188,689.485948
983.378603,-9770.718434,-962.267725,0.000000
983.378924,-10140.821405,-1554.432478,1072.533697
983.379244,-8734.430116,-814.226536,842.705048
983.379565,-10288.862594,-1036.288319,766.095498
983.379886,-9992.780217,-1332.370696,0.000000
983.380207,-9104.533087,-296.082377,1532.190996
983.380528,-10362.883188,-1480.411884,459.657299
983.380848,-9104.533087,-888.247130,0.000000
983.381169,-10140.821405,814.226536,1455.581446
983.381490,-10732.986159,-1850.514855,1072.533697
983.381811,-8660.409521,-1332.370696,-383.047749
983.382132,-9696.697840,-740.205942,-612.876398
983.382452,-9474.636058,-296.082377,-229.828649
983.382773,-9178.553681,740.205942,1378.971896
983.383094,-9548.656652,148.041188,1455.581446
983.383415,-9474.636058,-1406.391290,0.000000
983.383736,-8512.368333,148.041188,76.609550
983.384056,-11177.109724,74.020594,2451.505594
983.384377,-9178.553681,74.020594,2911.162892
983.384698,-8586.388927,2960.823768,2068.457845
983.385019,-10658.965565,444.123565,1608.800546
983.385340,-7476.080014,1110.308913,229.828649
983.385660,-10214.842000,0.000000,1685.410096
983.385981,-10066.800811,-1406.391290,536.266849
983.386302,-8364.327145,2516.700203,842.705048
983.386623,-11769.274478,666.185348,1838.629195
983.386944,-8734.430116,1628.453072,766.095498
983.387264,-10214.842000,1110.308913,1149.143247
983.387585,-9474.636058,0.000000,1455.581446
983.387906,-9252.574275,-148.041188,1685.410096
983.388227,-10732.986159,-296.082377,3217.601092
983.388548,-9400.615463,-3182.885551,2298.286494
983.388868,-7994.224174,-1184.329507,-383.047749
983.389189,-8808.450710,-370.102971,0.000000
983.389510,-8438.347739,-592.164754,0.000000
983.389831,-8956.491898,1628.453072,2681.334243
983.390152,-11029.068536,-1406.391290,2681.334243
983.390472,-9474.636058,-2368.659014,842.705048
983.390793,-10881.027347,-2442.679609,2374.896044
983.391114,-11399.171507,-2664.741391,2987.772442
983.391435,-10732.986159,0.000000,4290.134789
983.391756,-10362.883188,-148.041188,4519.963438
983.392076,-9252.574275,-3182.885551,1378.971896
983.392397,-6513.812290,-370.102971,-1225.752797
983.392718,-9474.636058,962.267725,-995.924147
983.393039,-9178.553681,-296.082377,919.314598
983.393360,-8364.327145,1406.391290,1762.019645
983.393680,-10066.800811,-1998.556043,842.705048
983.394001,-8734.430116,-1110.308913,0.000000
983.394322,-10362.883188,0.000000,919.314598
983.394643,-11991.336260,0.000000,3677.258390
983.394964,-10214.842000,1776.494261,3447.429741
983.395284,-11251.130318,-370.102971,2374.896044
983.395605,-9992.780217,-2146.597232,459.657299
983.395926,-9474.636058,-1628.453072,-536.266849
983.396247,-10658.965565,-2516.700203,76.609550
983.396568,-8290.306550,-1406.391290,-919.314598
983.396888,-7179.997637,370.102971,-2451.505594
983.397209,-9178.553681,-1480.411884,-1762.019645
983.397530,-8068.244768,-222.061783,-2298.286494
983.397851,-10140.821405,-1036.288319,76.609550
983.398172,-10436.903782,-1924.535449,459.657299
983.398492,-9622.677246,148.041188,2374.896044
983.398813,-11399.171507,-2294.638420,2451.505594
983.399134,-8808.450710,-1850.514855,842.705048
983.399455,-9918.759623,-888.247130,0.000000
983.399776,-8438.347739,0.000000,76.609550
983.400096,-8808.450710,592.164754,459.657299
983.400417,-9770.718434,1628.453072,2757.943793
983.400738,-10955.047942,-1480.411884,1302.362347
983.401059,-8586.388927,-2146.597232,383.047749
983.401380,-9844.739029,-1258.350101,383.047749
983.401700,-9326.594869,-518.144159,766.095498
983.402021,-9770.718434,1776.494261,2145.067394
983.402342,-9400.615463,740.205942,1991.848295
983.402663,-8734.430116,148.041188,-153.219100
983.402984,-8734.430116,148.041188,-536.266849
983.403304,-10288.862594,-592.164754,383.047749
983.403625,-10066.800811,1924.535449,2221.676944
983.403946,-10214.842000,1628.453072,2604.724693
983.404267,-9400.615463,444.123565,1225.752797
983.404588,-8660.409521,1110.308913,689.485948
983.404908,-10066.800811,518.144159,766.095498
983.405229,-8882.471304,296.082377,3140.991542
983.405550,-9992.780217,1406.391290,2451.505594
983.405871,-9400.615463,-518.144159,1838.629195
983.406192,-9030.512492,-1110.308913,383.047749
983.406512,-9844.739029,222.061783,1378.971896
983.406833,-10066.800811,74.020594,2298.286494
983.407154,-9622.677246,444.123565,2604.724693
983.407475,-9844.739029,222.061783,1685.410096
983.407796,-9548.656652,-888.247130,919.314598
983.408116,-9548.656652,-1184.329507,459.657299
983.408437,-9696.697840,-444.123565,2451.505594
983.408758,-9770.718434,-518.144159,1838.629195
983.409079,-9252.574275,1924.535449,2911.162892
983.409400,-9844.739029,-296.082377,306.438199
983.409720,-8882.471304,-444.123565,842.705048
983.410041,-9622.677246,0.000000,2068.457845
983.410362,-10140.821405,-222.061783,1991.848295
983.410683,-9770.718434,296.082377,2145.067394
983.411004,-10436.903782,0.000000,2145.067394
983.411324,-9696.697840,-1332.370696,0.000000
983.411645,-8808.450710,370.102971,229.828649
983.411966,-9844.739029,222.061783,612.876398
983.412287,-8956.491898,1258.350101,919.314598
983.412608,-10288.862594,1110.308913,2221.676944
983.412928,-10658.965565,-1184.329507,2298.286494
983.413249,-9992.780217,-3330.926739,153.219100
983.413570,-9474.636058,-1924.535449,-383.047749
983.413891,-9030.512492,-1850.514855,-842.705048
983.414211,-8660.409521,-74.020594,229.828649
983.414532,-8586.388927,-222.061783,-229.828649
983.414853,-8956.491898,-888.247130,-1915.238745
983.415174,-8216.285956,-296.082377,-3140.991542
983.415495,-9252.574275,-444.123565,-612.876398
983.415815,-10066.800811,-740.205942,1455.581446
983.416136,-10807.006753,-370.102971,2451.505594
983.416457,-10807.006753,-3256.906145,1991.848295
983.416778,-9696.697840,-3256.906145,-153.219100
983.417099,-9844.739029,-1554.432478,536.266849
983.417419,-10288.862594,-1776.494261,1455.581446
983.417740,-7476.080014,74.020594,2987.772442
983.418061,-9030.512492,-888.247130,0.000000
983.418382,-8290.306550,-2146.597232,-2451.505594
983.418703,-8808.450710,-518.144159,-2068.457845
983.419023,-9622.677246,-740.205942,153.219100
983.419344,-8734.430116,1110.308913,1762.019645
983.419665,-10955.047942,962.267725,2374.896044
983.419986,-10140.821405,0.000000,1838.629195
983.420307,-10140.821405,666.185348,1149.143247
983.420627,-10436.903782,148.041188,1532.190996
983.420948,-10214.842000,-1036.288319,2068.457845
983.421269,-9918.759623,1702.473667,2451.505594
983.421590,-9178.553681,444.123565,919.314598
983.421911,-9474.636058,-1110.308913,459.657299
983.422231,-8808.450710,1258.350101,1072.533697
983.422552,-10214.842000,-370.102971,1991.848295
983.422873,-9844.739029,-888.247130,1225.752797
983.423194,-9400.615463,1702.473667,3217.601092
983.423515,-11473.192101,-2368.659014,2068.457845
983.423835,-9178.553681,0.000000,1532.190996
983.424156,-11177.109724,-370.102971,2757.943793
983.424477,-9474.636058,-666.185348,2145.067394
983.424798,-9400.615463,518.144159,2451.505594
983.425119,-10807.006753,-814.226536,2528.115143
983.425439,-8586.388927,-1406.391290,842.705048
983.425760,-9548.656652,-1332.370696,229.828649
983.426081,-9474.636058,-518.144159,919.314598
983.426402,-9178.553681,-444.123565,2221.676944
983.426723,-10066.800811,-1554.432478,2604.724693
983.427043,-9030.512492,-2294.638420,1532.190996
983.427364,-9178.553681,-1258.350101,689.485948
983.427685,-10066.800811,-1776.494261,1149.143247
983.428006,-8808.450710,0.000000,919.314598
983.428327,-9030.512492,1628.453072,1225.752797
983.428647,-9252.574275,148.041188,-612.876398
983.428968,-8438.347739,1110.308913,-842.705048
983.429289,-8808.450710,2220.617826,-919.314598
983.429610,-10214.842000,666.185348,0.000000
983.429931,-9992.780217,2960.823768,2834.553343
983.430251,-11843.295072,-592.164754,3370.820191
983.430572,-9918.759623,-2886.803174,1072.533697
983.430893,-9844.739029,-2220.617826,76.609550
983.431214,-9992.780217,-1998.556043,153.219100
983.431535,-9178.553681,444.123565,995.924147
983.431855,-9252.574275,1998.556043,1532.190996
983.432176,-8808.450710,0.000000,306.438199
983.432497,-8290.306550,-592.164754,-1455.581446
983.432818,-9474.636058,-1702.473667,-842.705048
983.433139,-11029.068536,-2812.782580,153.219100
983.433459,-9474.636058,1258.350101,2757.943793
983.433780,-12583.501014,-2368.659014,2834.553343
983.434101,-9844.739029,-1480.411884,1685.410096
983.434422,-11917.315666,-1110.308913,4290.134789
983.434743,-10955.047942,-3182.885551,2145.067394
983.435063,-8956.491898,2664.741391,1838.629195
983.435384,-11177.109724,-1924.535449,306.438199
983.435705,-4515.256246,-1554.432478,-1455.581446
983.436026,-9548.656652,888.247130,-2451.505594
983.436347,-10436.903782,518.144159,383.047749
983.436667,-7328.038826,0.000000,383.047749
983.436988,-11251.130318,518.144159,3140.991542
983.437309,-9622.677246,-1480.411884,3217.601092
983.437630,-10066.800811,-1924.535449,2068.457845
983.437951,-13323.706956,1924.535449,4903.011187
983.438271,-9918.759623,-296.082377,2451.505594
983.438592,-8068.244768,1258.350101,3447.429741
983.438913,-9104.533087,518.144159,1378.971896
983.439234,-7550.100608,-1480.411884,-1532.190996
983.439555,-7994.224174,-592.164754,-1762.019645
983.439875,-8364.327145,-296.082377,76.609550
983.440196,-8882.471304,888.247130,459.657299
983.440517,-9992.780217,2072.576638,3524.039291
983.440838,-11621.233289,-814.226536,3600.648841
983.441159,-10955.047942,148.041188,3370.820191
983.441479,-12879.583391,-1332.370696,2451.505594
983.441800,-9622.677246,-2294.638420,1838.629195
983.442121,-9178.553681,148.041188,229.828649
983.442442,-8734.430116,1258.350101,1149.143247
983.442763,-8660.409521,0.000000,-306.438199
983.443083,-6439.791695,592.164754,-1608.800546
983.443404,-8660.409521,-1036.288319,-2221.676944
983.443725,-9474.636058,518.144159,383.047749
983.444046,-10362.883188,1036.288319,2374.896044
983.444367,-11991.336260,-2368.659014,2451.505594
983.444687,-9326.594869,-1924.535449,842.705048
983.445008,-10066.800811,-1258.350101,0.000000
983.445329,-10658.965565,-518.144159,1455.581446
983.445650,-9548.656652,1776.494261,1378.971896
983.445971,-9326.594869,0.000000,459.657299
983.446291,-8808.450710,-814.226536,-1762.019645
983.446612,-8808.450710,666.185348,-1455.581446
983.446933,-10140.821405,-592.164754,306.438199
983.447254,-9548.656652,444.123565,2068.457845
983.447575,-10584.944971,814.226536,2451.505594
983.447895,-9844.739029,-1924.535449,689.485948
983.448216,-9252.574275,-888.247130,0.000000
983.448537,-11029.068536,-518.144159,842.705048
983.448858,-9696.697840,-1258.350101,919.314598
983.449179,-8882.471304,1406.391290,1915.238745
983.449499,-9548.656652,-1110.308913,1072.533697
983.449820,-7846.182985,-2294.638420,-995.924147
983.450141,-9400.615463,-888.247130,153.219100
983.450462,-9326.594869,-666.185348,1685.410096
983.450783,-9992.780217,592.164754,2298.286494
983.451103,-10955.047942,1850.514855,4519.963438
983.451424,-9918.759623,-1998.556043,2911.162892
983.451745,-9992.780217,-1184.329507,2068.457845
983.452066,-9696.697840,-888.247130,2757.943793
983.452387,-10214.842000,-2886.803174,1455.581446
983.452707,-8068.244768,0.000000,1302.362347
983.453028,-8438.347739,-1776.494261,-919.314598
983.453349,-6735.874072,-74.020594,-1378.971896
983.453670,-8882.471304,592.164754,-76.609550
983.453991,-9474.636058,-814.226536,1915.238745
983.454311,-9252.574275,148.041188,1915.238745
983.454632,-10881.027347,-592.164754,2604.724693
983.454953,-10362.883188,-1998.556043,2911.162892
983.455274,-11177.109724,-1332.370696,1991.848295
983.455594,-10362.883188,-1184.329507,2374.896044
983.455915,-8438.347739,222.061783,842.705048
983.456236,-7846.182985,2590.720797,612.876398
983.456557,-10881.027347,-296.082377,1072.533697
983.456878,-8438.347739,1036.288319,-306.438199
983.457198,-9622.677246,222.061783,76.609550
983.457519,-8808.450710,-592.164754,0.000000
983.457840,-9400.615463,1554.432478,1455.581446
983.458161,-11917.315666,888.247130,3447.429741
983.458482,-10140.821405,-592.164754,1149.143247
983.458802,-10362.883188,962.267725,1302.362347
983.459123,-10214.842000,-888.247130,383.047749
983.459444,-9474.636058,-222.061783,1302.362347
983.459765,-10510.924376,1628.453072,1762.019645
983.460086,-9622.677246,-592.164754,153.219100
983.460404,-8216.285956,0.000000,-995.924147
983.460725,-9104.533087,0.000000,0.000000
983.461045,-9474.636058,-1184.329507,1225.752797
983.461366,-9992.780217,1554.432478,2604.724693
983.461687,-11029.068536,-222.061783,2528.115143
983.462007,-9548.656652,-2664.741391,-229.828649
983.462328,-7772.162391,222.061783,-766.095498
983.462649,-10436.903782,-1850.514855,612.876398
983.462969,-9400.615463,-740.205942,1762.019645
983.463290,-9252.574275,0.000000,1838.629195
983.463610,-9622.677246,-1480.411884,306.438199
983.463931,-8290.306550,-518.144159,-536.266849
983.464252,-10140.821405,518.144159,689.485948
983.464572,-10214.842000,1480.411884,1838.629195
983.464893,-9474.636058,3627.009116,2451.505594
983.465214,-10658.965565,518.144159,1685.410096
983.465534,-8438.347739,-2146.597232,76.609550
983.465855,-8512.368333,-1702.473667,-306.438199
983.466175,-10140.821405,-2812.782580,766.095498
983.466496,-8734.430116,148.041188,3600.648841
983.466817,-9548.656652,370.102971,2528.115143
983.467137,-9548.656652,-1554.432478,612.876398
983.467458,-9104.533087,0.000000,0.000000
983.467779,-9178.553681,-1110.308913,-995.924147
983.468099,-9104.533087,-444.123565,-1072.533697
983.468420,-8438.347739,1998.556043,842.705048
983.468741,-10807.006753,-1110.308913,1685.410096
983.469061,-8956.491898,-814.226536,1762.019645
983.469382,-11473.192101,-2220.617826,1225.752797
983.469702,-10807.006753,-2072.576638,1991.848295
983.470023,-10510.924376,-814.226536,3677.258390
983.470344,-9474.636058,-888.247130,1608.800546
983.470664,-10214.842000,74.020594,153.219100
983.470985,-9474.636058,1258.350101,919.314598
983.471306,-7105.977043,1036.288319,-153.219100
983.471626,-9918.759623,-296.082377,842.705048
983.471947,-7846.182985,74.020594,995.924147
983.472267,-10288.862594,-1850.514855,1072.533697
983.472588,-10288.862594,-1258.350101,919.314598
983.472909,-10658.965565,0.000000,2374.896044
983.473229,-11251.130318,-370.102971,3370.820191
983.473550,-9992.780217,1110.308913,4060.306139
983.473871,-10214.842000,0.000000,2221.676944
983.474191,-9400.615463,-592.164754,536.266849
983.474512,-8438.347739,370.102971,-995.924147
983.474833,-8808.450710,1702.473667,-536.266849
983.475153,-9104.533087,1628.453072,-459.657299
983.475474,-8216.285956,3775.050304,1302.362347
983.475794,-9622.677246,-296.082377,1302.362347
983.476115,-9770.718434,-1332.370696,766.095498
983.476436,-11029.068536,-1110.308913,2145.067394
983.476756,-10807.006753,-1924.535449,1991.848295
983.477077,-10807.006753,1332.370696,3677.258390
983.477398,-10066.800811,0.000000,2604.724693
983.477718,-7994.224174,74.020594,-536.266849
983.478039,-9326.594869,-740.205942,-766.095498
983.478360,-7920.203579,-962.267725,0.000000
983.478680,-8734.430116,-962.267725,919.314598
983.479001,-10066.800811,1480.411884,2451.505594
983.479321,-10436.903782,-1776.494261,1915.238745
983.479642,-10140.821405,-296.082377,2987.772442
983.479963,-10881.027347,-2516.700203,2451.505594
983.480283,-10881.027347,-2072.576638,2221.676944
983.480604,-10214.842000,-592.164754,2145.067394
983.480925,-9474.636058,-962.267725,383.047749
983.481245,-8142.265362,-444.123565,-995.924147
983.481566,-8438.347739,222.061783,-766.095498
983.481886,-7254.018232,0.000000,-995.924147
983.482207,-8068.244768,296.082377,0.000000
983.482528,-9918.759623,0.000000,1149.143247
983.482848,-10288.862594,-1406.391290,766.095498
983.483169,-10658.965565,-148.041188,1149.143247
983.483490,-11325.150913,-370.102971,1532.190996
983.483810,-9770.718434,0.000000,1455.581446
983.484131,-9992.780217,814.226536,2068.457845
983.484452,-9770.718434,-2368.659014,383.047749
983.484772,-7698.141797,-1480.411884,-2528.115143
983.485093,-9252.574275,-1628.453072,-1608.800546
983.485413,-9178.553681,-370.102971,-306.438199
983.485734,-9622.677246,1332.370696,1378.971896
983.486055,-10288.862594,592.164754,1991.848295
983.486375,-9474.636058,-1480.411884,612.876398
983.486696,-9992.780217,-888.247130,383.047749
983.487017,-11251.130318,-1776.494261,1532.190996
983.487337,-9770.718434,-1850.514855,1225.752797
983.487658,-7846.182985,2738.761985,4826.401637
983.487978,-12805.562797,-3997.112087,-383.047749
983.488299,-4515.256246,1702.473667,153.219100
983.488620,-11177.109724,-1850.514855,-1072.533697
983.488940,-8290.306550,814.226536,2451.505594
983.489261,-8734.430116,296.082377,1455.581446
983.489582,-11399.171507,1184.329507,5439.278036
983.489902,-9918.759623,-3478.967927,842.705048
983.490223,-9918.759623,-1554.432478,919.314598
983.490544,-11917.315666,-370.102971,4519.963438
983.490864,-8142.265362,-962.267725,153.219100
983.491185,-9548.656652,2220.617826,1915.238745
983.491505,-9474.636058,-592.164754,536.266849
983.491826,-6069.688724,1776.494261,-2528.115143
983.492147,-11547.212695,814.226536,0.000000
983.492467,-8586.388927,888.247130,1685.410096
983.492788,-9178.553681,1480.411884,2757.943793
983.493109,-11325.150913,-1110.308913,2451.505594
983.493429,-9326.594869,-1258.350101,1685.410096
983.493750,-9992.780217,0.000000,1838.629195
983.494071,-10732.986159,-1850.514855,1915.238745
983.494391,-9030.512492,1036.288319,2145.067394
983.494712,-9548.656652,1332.370696,1378.971896
983.495032,-9030.512492,-1184.329507,0.000000
983.495353,-9770.718434,-370.102971,-229.828649
983.495674,-8808.450710,74.020594,459.657299
983.495994,-10288.862594,-1554.432478,1225.752797
983.496315,-9104.533087,1924.535449,2757.943793
983.496636,-10584.944971,-1406.391290,2145.067394
983.496956,-9844.739029,-2220.617826,459.657299
983.497277,-8956.491898,518.144159,2068.457845
983.497597,-10658.965565,-1184.329507,1302.362347
983.497918,-9326.594869,1258.350101,1532.190996
983.498239,-9326.594869,1036.288319,1302.362347
983.498559,-9622.677246,-1628.453072,-536.266849
983.498880,-8364.327145,0.000000,-383.047749
983.499201,-9844.739029,74.020594,383.047749
983.499521,-10140.821405,0.000000,995.924147
983.499842,-10066.800811,2368.659014,2145.067394
983.500163,-10214.842000,-370.102971,1838.629195
983.500483,-9030.512492,-1776.494261,-459.657299
983.500804,-10066.800811,222.061783,689.485948
983.501124,-10066.800811,-1702.473667,536.266849
983.501445,-9178.553681,296.082377,612.876398
983.501766,-9696.697840,0.000000,1149.143247
983.502086,-9400.615463,-2368.659014,-306.438199
983.502407,-8882.471304,-962.267725,-536.266849
983.502728,-10066.800811,-1776.494261,306.438199
983.503048,-7772.162391,0.000000,-536.266849
983.503369,-10881.027347,-518.144159,2451.505594
983.503689,-10436.903782,-1850.514855,1532.190996
983.504010,-8734.430116,-2072.576638,306.438199
983.504331,-9844.739029,-2220.617826,229.828649
983.504651,-9104.533087,-1036.288319,1072.533697
983.504972,-10140.821405,-148.041188,3064.381992
983.505293,-9548.656652,-1036.288319,2221.676944
983.505613,-8734.430116,-1776.494261,229.828649
983.505934,-8586.388927,-1258.350101,-1838.629195
983.506255,-8660.409521,-1480.411884,-919.314598
983.506575,-8438.347739,444.123565,-383.047749
983.506896,-7994.224174,2886.803174,1532.190996
983.507216,-10584.944971,-222.061783,1455.581446
983.507537,-9548.656652,148.041188,1149.143247
983.507858,-11103.089130,0.000000,3140.991542
983.508178,-11917.315666,-2220.617826,3370.820191
983.508499,-9252.574275,444.123565,3447.429741
983.508820,-11547.212695,0.000000,2987.772442
983.509140,-9548.656652,296.082377,1302.362347
983.509461,-7624.121203,1924.535449,-76.609550
983.509782,-9696.697840,962.267725,919.314598
983.510102,-7550.100608,444.123565,1072.533697
983.510423,-9104.533087,1258.350101,689.485948
983.510743,-10214.842000,-592.164754,1532.190996
983.511064,-8660.409521,814.226536,612.876398
983.511385,-10955.047942,0.000000,2068.457845
983.511705,-10955.047942,-740.205942,2911.162892
983.512026,-9770.718434,740.205942,2987.772442
983.512347,-11621.233289,-2072.576638,2451.505594
983.512667,-9548.656652,-1702.473667,1685.410096
983.512988,-9696.697840,-1554.432478,459.657299
983.513308,-8364.327145,-888.247130,306.438199
983.513629,-8956.491898,1406.391290,1072.533697
983.513950,-8660.409521,1628.453072,2451.505594
983.514270,-8512.368333,-2368.659014,229.828649
983.514591,-9400.615463,-814.226536,842.705048
983.514912,-10066.800811,-1554.432478,536.266849
983.515232,-10807.006753,-1924.535449,2834.553343
983.515553,-9918.759623,1258.350101,3600.648841
983.515874,-9918.759623,-962.267725,1378.971896
983.516194,-9696.697840,0.000000,0.000000
983.516515,-9104.533087,148.041188,0.000000
983.516835,-9104.533087,-962.267725,-383.047749
983.517156,-9252.574275,296.082377,459.657299
983.517477,-8364.327145,1184.329507,459.657299
983.517797,-9252.574275,-962.267725,0.000000
983.518118,-9844.739029,296.082377,536.266849
983.518439,-11473.192101,-592.164754,2681.334243
983.518759,-9844.739029,-962.267725,2451.505594
983.519080,-10881.027347,-962.267725,2451.505594
983.519400,-10288.862594,-2368.659014,1225.752797
983.519721,-9400.615463,-444.123565,0.000000
983.520042,-8734.430116,814.226536,-383.047749
983.520362,-8808.450710,1110.308913,76.609550
983.520683,-8586.388927,1628.453072,153.219100
983.521004,-9400.615463,-222.061783,153.219100
983.521324,-8882.471304,-2886.803174,-1072.533697
983.521645,-9326.594869,-1110.308913,-306.438199
983.521966,-11103.089130,-1258.350101,842.705048
983.522286,-10436.903782,0.000000,1991.848295
983.522607,-8882.471304,1406.391290,4826.401637
983.522927,-10955.047942,-1554.432478,1608.800546
983.523248,-8660.409521,-1554.432478,-612.876398
983.523569,-9844.739029,-1110.308913,-536.266849
983.523889,-10362.883188,-1110.308913,306.438199
983.524210,-9104.533087,2368.659014,1915.238745
983.524531,-10066.800811,962.267725,2604.724693
983.524851,-9992.780217,-1332.370696,1072.533697
983.525172,-9030.512492,148.041188,76.609550
983.525492,-10584.944971,-2072.576638,1685.410096
983.525813,-9326.594869,-1036.288319,1302.362347
983.526134,-8882.471304,1702.473667,2145.067394
983.526454,-10881.027347,-1036.288319,1072.533697
983.526775,-8734.430116,2368.659014,153.219100
983.527096,-9696.697840,-148.041188,229.828649
983.527416,-9622.677246,-370.102971,2145.067394
983.527737,-9548.656652,1998.556043,3294.210641
983.528058,-11473.192101,-1184.329507,2834.553343
983.528378,-9178.553681,-1776.494261,536.266849
983.528699,-8660.409521,0.000000,689.485948
983.529019,-9992.780217,-1628.453072,1302.362347
983.529340,-9252.574275,518.144159,2681.334243
983.529661,-8956.491898,-444.123565,3294.210641
983.529981,-9474.636058,-3108.864956,536.266849
983.530302,-9178.553681,-518.144159,995.924147
983.530623,-9918.759623,-666.185348,1915.238745
983.530943,-9770.718434,518.144159,2451.505594
983.531264,-9474.636058,2368.659014,3217.601092
983.531585,-9918.759623,-1850.514855,1762.019645
983.531905,-8660.409521,-1702.473667,-995.924147
983.532226,-9474.636058,222.061783,-689.485948
983.532546,-10584.944971,-666.185348,919.314598
983.532867,-9474.636058,1628.453072,1915.238745
983.533188,-9326.594869,0.000000,1378.971896
983.533508,-9622.677246,-2294.638420,-1378.971896
983.533829,-9844.739029,-222.061783,229.828649
983.534150,-10658.965565,-814.226536,1072.533697
983.534470,-10658.965565,814.226536,2068.457845
983.534791,-10584.944971,2294.638420,2834.553343
983.535111,-10214.842000,-1258.350101,306.438199
983.535432,-8734.430116,-1406.391290,-919.314598
983.535753,-9474.636058,-1258.350101,-689.485948
983.536073,-10214.842000,-962.267725,0.000000
983.536394,-9400.615463,1258.350101,1302.362347
983.536715,-9770.718434,296.082377,919.314598
983.537035,-9474.636058,-1850.514855,-459.657299
983.537356,-9622.677246,-1184.329507,-459.657299
983.537677,-10732.986159,-1702.473667,689.485948
983.537997,-9918.759623,-814.226536,1762.019645
983.538318,-9178.553681,74.020594,1608.800546
983.538638,-9770.718434,-1702.473667,995.924147
983.538959,-9252.574275,-1036.288319,-536.266849
983.539280,-6957.935855,1110.308913,1225.752797
983.539600,-10362.883188,-1850.514855,-153.219100
983.539921,-6143.709319,2220.617826,919.314598
983.540242,-10436.903782,-1628.453072,536.266849
983.540562,-9548.656652,0.000000,2221.676944
983.540883,-9844.739029,1110.308913,3524.039291
983.541203,-11251.130318,-1776.494261,4443.353888
983.541524,-9474.636058,1776.494261,4519.963438
983.541845,-11103.089130,1184.329507,4136.915689
983.542165,-8734.430116,-1850.514855,919.314598
983.542486,-7624.121203,222.061783,-1149.143247
983.542807,-7920.203579,-444.123565,-1915.238745
983.543127,-6957.935855,666.185348,-1608.800546
983.543448,-9178.553681,2368.659014,1072.533697
983.543769,-9696.697840,-444.123565,1838.629195
983.544089,-9622.677246,-666.185348,1608.800546
983.544410,-11325.150913,-2220.617826,1149.143247
983.544730,-8586.388927,-1110.308913,766.095498
983.545051,-10436.903782,0.000000,1915.238745
983.545372,-8290.306550,2738.761985,2221.676944
983.545692,-10362.883188,444.123565,1532.190996
983.546013,-9696.697840,-74.020594,1072.533697
983.546334,-9400.615463,-962.267725,536.266849
983.546654,-12213.398043,-2368.659014,1991.848295
983.546975,-10066.800811,444.123565,2911.162892
983.547296,-10807.006753,-1628.453072,1991.848295
983.547616,-8956.491898,-1406.391290,1762.019645
983.547937,-9030.512492,-740.205942,153.219100
983.548257,-9844.739029,-1332.370696,919.314598
983.548578,-8808.450710,1406.391290,1838.629195
983.548899,-9622.677246,1184.329507,1838.629195
983.549219,-9844.739029,-370.102971,842.705048
983.549540,-7920.203579,1332.370696,842.705048
983.549861,-11029.068536,-2368.659014,1532.190996
983.550181,-8660.409521,-740.205942,1455.581446
983.550502,-10288.862594,-370.102971,4749.792088
983.550822,-10140.821405,-2368.659014,1225.752797
983.551143,-9474.636058,-296.082377,612.876398
983.551464,-10362.883188,0.000000,1149.143247
983.551784,-9104.533087,222.061783,689.485948
983.552105,-9030.512492,1998.556043,1072.533697
983.552426,-9844.739029,0.000000,689.485948
983.552746,-8364.327145,-1998.556043,-459.657299
983.553067,-9548.656652,-1184.329507,-229.828649
983.553388,-10214.842000,-1332.370696,766.095498
983.553708,-9844.739029,-814.226536,766.095498
983.554029,-9844.739029,1036.288319,2221.676944
983.554349,-10510.924376,-1258.350101,766.095498
983.554670,-8882.471304,-296.082377,689.485948
983.554991,-9474.636058,-666.185348,153.219100
983.555311,-9178.553681,-1702.473667,-153.219100
983.555632,-9104.533087,814.226536,459.657299
983.555953,-9104.533087,-1036.288319,459.657299
983.556273,-8142.265362,-1628.453072,-612.876398
983.556594,-9178.553681,148.041188,0.000000
983.556914,-11251.130318,-962.267725,1762.019645
983.557235,-9992.780217,74.020594,2757.943793
983.557556,-11917.315666,-222.061783,4060.306139
983.557876,-10510.924376,-1406.391290,3140.991542
983.558197,-10807.006753,-2368.659014,1149.143247
983.558518,-8882.471304,-740.205942,1302.362347
983.558838,-10436.903782,-1036.288319,2221.676944
983.559159,-7402.059420,2368.659014,1378.971896
983.559480,-7920.203579,-518.144159,0.000000
983.559800,-8882.471304,-1850.514855,-1302.362347
983.560121,-8660.409521,444.123565,-383.047749
983.560441,-10955.047942,-962.267725,1455.581446
983.560762,-9622.677246,2368.659014,3370.820191
983.561083,-11103.089130,1258.350101,4136.915689
983.561403,-11917.315666,-666.185348,2528.115143
983.561724,-8586.388927,-518.144159,612.876398
983.562045,-9252.574275,-1998.556043,-306.438199
983.562365,-9474.636058,-814.226536,612.876398
983.562686,-9696.697840,1406.391290,1762.019645
983.563006,-10658.965565,1332.370696,1149.143247
983.563327,-9400.615463,814.226536,1149.143247
983.563648,-9030.512492,814.226536,919.314598
983.563968,-10584.944971,-222.061783,919.314598
983.564289,-9474.636058,444.123565,1149.143247
983.564610,-8808.450710,-592.164754,1149.143247
983.564930,-9474.636058,-2368.659014,-459.657299
983.565251,-8512.368333,-296.082377,-383.047749
983.565571,-10362.883188,-888.247130,1685.410096
983.565892,-9252.574275,74.020594,2298.286494
983.566213,-11103.089130,1480.411884,3907.087040
983.566533,-10436.903782,-1998.556043,2451.505594
983.566854,-9992.780217,-1554.432478,-306.438199
983.567174,-9474.636058,1702.473667,2681.334243
983.567495,-9844.739029,-1406.391290,612.876398
983.567816,-7920.203579,1776.494261,1455.581446
983.568136,-9178.553681,0.000000,995.924147
983.568457,-8438.347739,-2664.741391,-689.485948
983.568778,-9400.615463,0.000000,1072.533697
983.569098,-10288.862594,-2368.659014,1302.362347
983.569419,-9474.636058,518.144159,2451.505594
983.569739,-10510.924376,444.123565,3447.429741
983.570060,-10140.821405,-592.164754,2068.457845
983.570381,-9770.718434,-518.144159,842.705048
983.570701,-10066.800811,0.000000,153.219100
983.571022,-9400.615463,444.123565,536.266849
983.571343,-8734.430116,1924.535449,1838.629195
983.571663,-9252.574275,-296.082377,-612.876398
983.571984,-8660.409521,-1184.329507,-1915.238745
983.572304,-8956.491898,-444.123565,-689.485948
983.572625,-9918.759623,-1998.556043,76.609550
983.572946,-10584.944971,-444.123565,1915.238745
983.573266,-10140.821405,296.082377,3140.991542
983.573587,-10436.903782,-1776.494261,1685.410096
983.573908,-9178.553681,-740.205942,1378.971896
983.574228,-10436.903782,-1554.432478,1072.533697
983.574549,-9326.594869,-1332.370696,995.924147
983.574869,-8438.347739,814.226536,1225.752797
983.575190,-9400.615463,-1480.411884,612.876398
983.575511,-8586.388927,-1110.308913,229.828649
983.575831,-9400.615463,-592.164754,-229.828649
983.576152,-9548.656652,-222.061783,919.314598
983.576473,-10807.006753,888.247130,4749.792088
983.576793,-10955.047942,-2442.679609,2068.457845
983.577114,-7328.038826,-2886.803174,612.876398
983.577434,-11177.109724,-444.123565,0.000000
983.577755,-8734.430116,0.000000,2528.115143
983.578076,-9104.533087,-962.267725,1072.533697
983.578396,-11399.171507,2664.741391,5209.449386
983.578717,-8216.285956,-1628.453072,-995.924147
983.579038,-9844.739029,0.000000,689.485948
983.579358,-9178.553681,592.164754,2987.772442
983.579679,-10732.986159,-666.185348,1838.629195
983.579999,-11325.150913,1110.308913,5132.839837
983.580320,-9252.574275,0.000000,3370.820191
983.580641,-8068.244768,-2146.597232,-536.266849
983.580961,-11177.109724,-592.164754,1225.752797
983.581282,-8438.347739,148.041188,76.609550
983.581603,-9178.553681,740.205942,0.000000
983.581923,-9030.512492,2516.700203,306.438199
983.582244,-8364.327145,0.000000,-459.657299
983.582564,-9770.718434,222.061783,459.657299
983.582885,-11547.212695,-1406.391290,1225.752797
983.583206,-10066.800811,-1110.308913,2834.553343
983.583526,-10066.800811,-888.247130,2374.896044
983.583847,-9474.636058,-1258.350101,2221.676944
983.584167,-9918.759623,-740.205942,689.485948
983.584488,-8956.491898,1110.308913,459.657299
983.584809,-10140.821405,370.102971,1072.533697
983.585129,-7994.224174,592.164754,229.828649
983.585450,-9030.512492,518.144159,306.438199
983.585771,-10362.883188,-1924.535449,689.485948
983.586091,-8660.409521,-222.061783,0.000000
983.586412,-10807.006753,-592.164754,842.705048
983.586732,-10288.862594,1036.288319,0.000000
983.587053,-9474.636058,2294.638420,1225.752797
983.587374,-11843.295072,-592.164754,1302.362347
983.587694,-8956.491898,74.020594,0.000000
983.588015,-9548.656652,-296.082377,-153.219100
983.588336,-10214.842000,-1628.453072,76.609550
983.588656,-8290.306550,222.061783,536.266849
983.588977,-9770.718434,444.123565,1225.752797
983.589297,-9548.656652,-1184.329507,612.876398
983.589618,-9474.636058,-296.082377,0.000000
983.589939,-9548.656652,-1184.329507,459.657299
983.590259,-10436.903782,-1850.514855,153.219100
983.590580,-9252.574275,1924.535449,2451.505594
983.590901,-11177.109724,-1628.453072,3294.210641
983.591221,-9030.512492,-1998.556043,689.485948
983.591542,-8512.368333,-1480.411884,0.000000
983.591862,-9474.636058,-2368.659014,-919.314598
983.592183,-8586.388927,1110.308913,383.047749
983.592504,-10732.986159,-1332.370696,383.047749
983.592824,-7624.121203,-148.041188,-995.924147
983.593145,-9474.636058,-370.102971,-459.657299
983.593466,-9326.594869,-1776.494261,842.705048
983.593786,-10732.986159,0.000000,2987.772442
983.594107,-13027.624579,-222.061783,5515.887586
983.594427,-10362.883188,-1332.370696,3600.648841
983.594748,-10658.965565,-3330.926739,1991.848295
983.595069,-8438.347739,-2294.638420,1225.752797
983.595389,-9252.574275,-2368.659014,459.657299
983.595710,-8216.285956,1480.411884,1149.143247
983.596031,-7402.059420,1480.411884,1532.190996
983.596351,-8956.491898,-2294.638420,-306.438199
983.596672,-8734.430116,-518.144159,-383.047749
983.596992,-10658.965565,-1036.288319,919.314598
983.597313,-9252.574275,962.267725,2145.067394
983.597634,-10214.842000,1628.453072,3294.210641
983.597954,-11473.192101,0.000000,3064.381992
983.598275,-10214.842000,-370.102971,1685.410096
983.598596,-10362.883188,-1036.288319,1149.143247
983.598916,-9622.677246,-814.226536,1608.800546
983.599237,-8882.471304,1110.308913,383.047749
983.599557,-9548.656652,296.082377,995.924147
983.599878,-9030.512492,-592.164754,459.657299
983.600199,-8438.347739,0.000000,459.657299
983.600519,-9400.615463,-1628.453072,842.705048
983.600840,-9400.615463,-148.041188,1302.362347
983.601160,-9696.697840,740.205942,2757.943793
983.601481,-9844.739029,-592.164754,2221.676944
983.601802,-10066.800811,-370.102971,1225.752797
983.602122,-9474.636058,222.061783,766.095498
983.602443,-9770.718434,-296.082377,689.485948
983.602764,-9918.759623,1850.514855,2911.162892
983.603084,-10214.842000,444.123565,1915.238745
983.603405,-11177.109724,-962.267725,1532.190996
983.603725,-9844.739029,296.082377,919.314598
983.604046,-9696.697840,-370.102971,919.314598
983.604367,-9992.780217,222.061783,1302.362347
983.604687,-8290.306550,1258.350101,1915.238745
983.605008,-8660.409521,-1332.370696,-1072.533697
983.605329,-8216.285956,-296.082377,-1225.752797
983.605649,-9326.594869,-1554.432478,-76.609550
983.605970,-10288.862594,-1110.308913,842.705048
983.606290,-10510.924376,2664.741391,2757.943793
983.606611,-10658.965565,444.123565,1915.238745
983.606932,-9992.780217,-592.164754,76.609550
983.607252,-8586.388927,0.000000,-229.828649
983.607573,-8808.450710,-814.226536,-536.266849
983.607894,-9474.636058,592.164754,612.876398
983.608214,-9104.533087,0.000000,1225.752797
983.608535,-9474.636058,-2368.659014,-306.438199
983.608855,-8512.368333,-666.185348,-383.047749
983.609176,-9992.780217,-592.164754,689.485948
983.609497,-10066.800811,518.144159,2298.286494
983.609817,-9622.677246,1406.391290,2451.505594
983.610138,-9696.697840,-1258.350101,1225.752797
983.610459,-9104.533087,-1924.535449,306.438199
983.610779,-9474.636058,-444.123565,766.095498
983.611100,-9770.718434,-1258.350101,919.314598
983.611420,-9030.512492,1924.535449,1608.800546
983.611741,-10288.862594,740.205942,1302.362347
983.612062,-9030.512492,-1850.514855,-766.095498
983.612382,-9622.677246,-518.144159,0.000000
983.612703,-11029.068536,-2146.597232,459.657299
983.613024,-10436.903782,-592.164754,1762.019645
983.613344,-10510.924376,2664.741391,4366.744339
983.613665,-11769.274478,-1554.432478,3524.039291
983.613985,-9104.533087,-740.205942,1302.362347
983.614306,-9474.636058,-1258.350101,536.266849
983.614627,-7698.141797,-1184.329507,-1608.800546
983.614947,-8290.306550,2368.659014,153.219100
983.615268,-9770.718434,592.164754,1225.752797
983.615589,-8216.285956,518.144159,766.095498
983.615909,-9326.594869,-814.226536,-1072.533697
983.616230,-9548.656652,-2368.659014,1762.019645
983.616550,-11399.171507,-1332.370696,3140.991542
983.616871,-11695.253884,0.000000,4596.572988
983.617192,-9992.780217,-1924.535449,2681.334243
983.617512,-9030.512492,-148.041188,919.314598
983.617833,-8882.471304,-962.267725,-459.657299
983.618154,-9474.636058,-666.185348,842.705048
983.618474,-8068.244768,2368.659014,1991.848295
983.618795,-9326.594869,-444.123565,1072.533697
983.619115,-8660.409521,-962.267725,306.438199
983.619436,-9474.636058,-666.185348,612.876398
983.619757,-9622.677246,-2220.617826,2068.457845
983.620077,-10214.842000,-1110.308913,2374.896044
983.620398,-9548.656652,0.000000,2604.724693
983.620718,-9992.780217,-1998.556043,1225.752797
983.621039,-8438.347739,-296.082377,0.000000
983.621360,-9474.636058,-1480.411884,229.828649
983.621680,-9400.615463,-888.247130,0.000000
983.622001,-8808.450710,1924.535449,1225.752797
983.622322,-9770.718434,0.000000,766.095498
983.622642,-9252.574275,-370.102971,-459.657299
983.622963,-9400.615463,1036.288319,383.047749
983.623283,-11325.150913,-1776.494261,919.314598
983.623604,-9030.512492,0.000000,1072.533697
983.623925,-9326.594869,-518.144159,1455.581446
983.624245,-10436.903782,-1850.514855,306.438199
983.624566,-9770.718434,-592.164754,0.000000
983.624887,-9474.636058,518.144159,1149.143247
983.625207,-9696.697840,74.020594,1685.410096
983.625528,-9474.636058,2442.679609,2145.067394
983.625848,-10732.986159,444.123565,2451.505594
983.626169,-9548.656652,740.205942,1225.752797
983.626490,-9770.718434,1184.329507,1762.019645
983.626810,-10584.944971,-1702.473667,2221.676944
983.627131,-8586.388927,1776.494261,1838.629195
983.627452,-10288.862594,740.205942,3370.820191
983.627772,-10066.800811,-444.123565,1378.971896
983.628093,-9104.533087,2072.576638,2911.162892
983.628413,-10436.903782,-444.123565,2911.162892
983.628734,-9178.553681,0.000000,3217.601092
983.629055,-10066.800811,2220.617826,4519.963438
983.629375,-10362.883188,888.247130,4136.915689
983.629696,-9770.718434,1036.288319,2987.772442
983.630017,-9178.553681,1480.411884,1302.362347
983.630337,-9400.615463,962.267725,383.047749
983.630658,-8512.368333,2812.782580,1149.143247
983.630978,-8290.306550,2516.700203,1378.971896
983.631299,-9030.512492,962.267725,2987.772442
983.631620,-8808.450710,222.061783,1532.190996
983.631940,-10214.842000,-1554.432478,1608.800546
983.632261,-10214.842000,0.000000,2221.676944
983.632582,-8512.368333,2442.679609,2911.162892
983.632902,-9992.780217,2590.720797,4366.744339
983.633223,-10140.821405,3108.864956,4903.011187
983.633543,-9400.615463,1332.370696,3064.381992
983.633864,-9918.759623,1184.329507,2451.505594
983.634185,-10658.965565,2368.659014,3907.087040
983.634505,-9548.656652,2368.659014,4060.306139
983.634826,-10214.842000,2590.720797,5362.668486
983.635147,-9252.574275,2442.679609,3983.696590
983.635467,-8660.409521,1924.535449,3294.210641
983.635788,-10140.821405,1702.473667,3983.696590
983.636108,-9252.574275,1850.514855,4136.915689
983.636429,-9474.636058,1110.308913,3370.820191
983.636750,-8882.471304,2368.659014,5669.106685
983.637070,-9326.594869,814.226536,3983.696590
983.637391,-9474.636058,222.061783,3677.258390
983.637711,-9844.739029,1036.288319,3294.210641
983.638032,-8956.491898,888.247130,1685.410096
983.638353,-9770.718434,1998.556043,1762.019645
983.638673,-9178.553681,3256.906145,3370.820191
983.638994,-9992.780217,2220.617826,3370.820191
983.639315,-10807.006753,1036.288319,3294.210641
983.639635,-10066.800811,592.164754,3524.039291
983.639956,-9474.636058,814.226536,2528.115143
983.640276,-10066.800811,1776.494261,2681.334243
983.640597,-10066.800811,2072.576638,4060.306139
983.640918,-8956.491898,2220.617826,5132.839837
983.641238,-10436.903782,814.226536,3600.648841
983.641559,-10584.944971,74.020594,2911.162892
983.641880,-9252.574275,1036.288319,2604.724693
983.642200,-9918.759623,1184.329507,2451.505594
983.642521,-9770.718434,2960.823768,3370.820191
983.642841,-9770.718434,2368.659014,3447.429741
983.643162,-8808.450710,1258.350101,2068.457845
983.643483,-9474.636058,1406.391290,2221.676944
983.643803,-10214.842000,740.205942,3064.381992
983.644124,-9770.718434,1702.473667,3524.039291
983.644445,-10584.944971,1628.453072,3677.258390
983.644765,-9622.677246,2072.576638,3753.867940
983.645086,-8364.327145,740.205942,2221.676944
983.645406,-9548.656652,592.164754,3524.039291
983.645727,-9918.759623,1184.329507,4213.525239
983.646048,-10658.965565,1258.350101,5132.839837
983.646368,-10066.800811,1258.350101,4903.011187
983.646689,-9770.718434,666.185348,2681.334243
983.647010,-9844.739029,1998.556043,2374.896044
983.647330,-9252.574275,2886.803174,2451.505594
983.647651,-8512.368333,2886.803174,1991.848295
983.647971,-8808.450710,1554.432478,919.314598
983.648292,-8438.347739,1702.473667,612.876398
983.648613,-9400.615463,1332.370696,1915.238745
983.648933,-9696.697840,1628.453072,3677.258390
983.649254,-11177.109724,2442.679609,4213.525239
983.649575,-9770.718434,1850.514855,4213.525239
983.649895,-9770.718434,1628.453072,4596.572988
983.650216,-9548.656652,1258.350101,4596.572988
983.650536,-9326.594869,1110.308913,3370.820191
983.650857,-9030.512492,1776.494261,3370.820191
983.651178,-9252.574275,2738.761985,3830.477490
983.651498,-9400.615463,3256.906145,4826.401637
983.651819,-10214.842000,2220.617826,4673.182538
983.652140,-9548.656652,2072.576638,3294.210641
983.652460,-9844.739029,1850.514855,2374.896044
983.652781,-9400.615463,2294.638420,2681.334243
983.653101,-9918.759623,1998.556043,2834.553343
983.653422,-9474.636058,2146.597232,2757.943793
983.653743,-9770.718434,962.267725,1762.019645
983.654063,-9252.574275,1406.391290,1455.581446
983.654384,-10214.842000,1924.535449,3217.601092
983.654704,-10807.006753,2442.679609,4290.134789
983.655025,-10807.006753,2738.761985,5669.106685
983.655346,-10288.862594,2220.617826,4366.744339
983.655666,-9474.636058,2220.617826,3753.867940
983.655987,-9622.677246,2294.638420,4519.963438
983.656308,-9696.697840,1998.556043,5132.839837
983.656628,-9326.594869,1702.473667,4213.525239
983.656949,-8586.388927,1184.329507,1915.238745
983.657269,-8808.450710,1702.473667,1378.971896
983.657590,-9326.594869,2368.659014,1532.190996
983.657911,-10362.883188,3108.864956,4749.792088
983.658231,-10658.965565,3108.864956,5515.887586
983.658552,-10214.842000,2146.597232,4290.134789
983.658873,-9992.780217,1332.370696,3294.210641
983.659193,-9844.739029,1332.370696,2911.162892
983.659514,-9326.594869,1332.370696,3217.601092
983.659834,-8956.491898,1850.514855,2528.115143
983.660155,-8512.368333,1406.391290,1378.971896
983.660476,-8290.306550,666.185348,689.485948
983.660796,-9178.553681,370.102971,1838.629195
983.661117,-9770.718434,592.164754,2145.067394
983.661438,-9992.780217,518.144159,3140.991542
983.661758,-9548.656652,888.247130,2221.676944
983.662079,-9844.739029,1036.288319,4519.963438
983.662400,-10066.800811,1184.329507,5056.230287
983.662720,-10436.903782,962.267725,5056.230287
983.663041,-9770.718434,1480.411884,4596.572988
983.663362,-9622.677246,2072.576638,3140.991542
983.663682,-9178.553681,2516.700203,2451.505594
983.664003,-8734.430116,2368.659014,1838.629195
983.664324,-8438.347739,1554.432478,1608.800546
983.664644,-8512.368333,1628.453072,1302.362347
983.664965,-9474.636058,370.102971,1762.019645
983.665286,-9770.718434,-222.061783,1762.019645
983.665607,-10362.883188,296.082377,2298.286494
983.665927,-10436.903782,592.164754,4213.525239
983.666248,-10288.862594,2368.659014,3677.258390
983.666569,-10140.821405,2812.782580,4443.353888
983.666889,-10362.883188,1998.556043,4519.963438
983.667210,-10362.883188,1184.329507,4826.401637
983.667531,-10066.800811,1184.329507,5286.058936
983.667852,-9770.718434,2072.576638,5439.278036
983.668172,-9696.697840,2368.659014,5286.058936
983.668493,-8956.491898,2960.823768,4596.572988
983.668814,-8660.409521,2368.659014,4596.572988
983.669134,-8660.409521,2294.638420,2451.505594
983.669455,-9326.594869,1554.432478,1685.410096
983.669776,-9178.553681,740.205942,1072.533697
983.670096,-9474.636058,370.102971,536.266849
983.670417,-10140.821405,666.185348,842.705048
983.670738,-10066.800811,1258.350101,1762.019645
983.671059,-10584.944971,814.226536,2451.505594
983.671379,-10807.006753,814.226536,3217.601092
983.671700,-10807.006753,370.102971,3524.039291
983.672021,-10140.821405,222.061783,4443.353888
983.672341,-9918.759623,666.185348,4826.401637
983.672662,-9400.615463,1554.432478,4826.401637
983.672983,-8882.471304,1702.473667,2681.334243
983.673304,-8216.285956,1776.494261,4673.182538
983.673624,-8364.327145,1702.473667,3830.477490
983.673945,-8512.368333,1480.411884,3370.820191
983.674266,-9030.512492,1924.535449,3217.601092
983.674586,-9474.636058,1924.535449,3370.820191
983.674907,-9622.677246,2072.576638,3217.601092
983.675228,-9992.780217,2516.700203,3294.210641
983.675548,-10362.883188,2664.741391,2987.772442
983.675869,-9770.718434,2146.597232,3064.381992
983.676190,-10362.883188,2812.782580,3217.601092
983.676511,-9844.739029,2664.741391,3447.429741
983.676831,-9844.739029,2220.617826,3677.258390
983.677152,-9844.739029,1998.556043,6052.154434
983.677473,-9400.615463,1628.453072,4060.306139
983.677793,-9252.574275,1480.411884,4136.915689
983.678114,-9252.574275,1258.350101,3600.648841
983.678435,-9326.594869,1480.411884,3370.820191
983.678756,-9474.636058,1702.473667,3294.210641
983.679076,-9622.677246,1776.494261,2451.505594
983.679397,-9474.636058,2146.597232,2221.676944
983.679718,-9770.718434,1924.535449,1225.752797
983.680038,-9918.759623,2146.597232,2987.772442
983.680359,-10066.800811,2072.576638,1608.800546
983.680680,-10436.903782,2072.576638,1838.629195
983.681000,-10214.842000,1850.514855,2068.457845
983.681321,-9844.739029,1480.411884,1991.848295
983.681642,-9622.677246,1702.473667,2528.115143
983.681963,-9770.718434,1332.370696,2604.724693
983.682283,-9474.636058,1332.370696,2681.334243
983.682604,-9400.615463,666.185348,2681.334243
983.682925,-9030.512492,518.144159,2451.505594
983.683245,-9474.636058,-296.082377,2451.505594
983.683566,-9252.574275,-444.123565,2298.286494
983.683887,-9104.533087,-740.205942,1838.629195
983.684208,-9178.553681,-444.123565,1149.143247
983.684528,-9548.656652,444.123565,1302.362347
983.684849,-10066.800811,1332.370696,1455.581446
983.685170,-9992.780217,1628.453072,1532.190996
983.685490,-10066.800811,1406.391290,1685.410096
983.685811,-9696.697840,1184.329507,1149.143247
983.686132,-9474.636058,740.205942,995.924147
983.686452,-9252.574275,1110.308913,1225.752797
983.686773,-9326.594869,1184.329507,1608.800546
983.687094,-9178.553681,1332.370696,1225.752797
983.687415,-9400.615463,962.267725,1685.410096
983.687735,-9474.636058,592.164754,2298.286494
983.688056,-9696.697840,740.205942,2757.943793
983.688377,-10881.027347,1776.494261,3064.381992
983.688697,-9844.739029,1036.288319,3217.601092
983.689018,-9548.656652,1406.391290,3370.820191
983.689339,-9844.739029,1480.411884,3294.210641
983.689660,-9622.677246,1702.473667,3217.601092
983.689980,-10066.800811,1776.494261,3294.210641
983.690301,-9992.780217,1702.473667,3907.087040
983.690622,-10066.800811,2072.576638,4519.963438
983.690942,-9992.780217,2072.576638,4596.572988
983.691263,-10288.862594,2368.659014,5132.839837
983.691584,-9918.759623,1924.535449,5592.497135
983.691904,-10140.821405,1850.514855,5975.544884
983.692225,-9770.718434,1850.514855,6052.154434
983.692546,-9030.512492,1258.350101,5286.058936
983.692867,-9326.594869,1998.556043,5975.544884
983.693187,-9252.574275,1850.514855,6281.983084
983.693508,-9326.594869,2220.617826,6281.983084
983.693829,-9474.636058,2368.659014,6128.763984
983.694149,-9548.656652,2886.803174,6205.373534
983.694470,-9696.697840,2516.700203,6435.202183
983.694791,-9770.718434,2664.741391,6358.592633
983.695112,-9918.759623,2738.761985,6435.202183
983.695432,-9770.718434,3182.885551,5975.544884
983.695753,-9474.636058,3108.864956,5515.887586
983.696074,-9178.553681,3256.906145,4979.620737
983.696394,-8956.491898,3923.091493,4443.353888
983.696715,-9252.574275,3256.906145,3524.039291
983.697036,-9104.533087,3404.947333,3524.039291
983.697356,-9104.533087,3478.967927,3447.429741
983.697677,-9474.636058,2590.720797,3447.429741
983.697998,-9770.718434,2812.782580,3447.429741
983.698319,-10066.800811,2442.679609,2911.162892
983.698639,-9770.718434,2220.617826,1991.848295
983.698960,-9622.677246,2072.576638,1455.581446
983.699281,-9326.594869,1702.473667,536.266849
983.699601,-9178.553681,1776.494261,-306.438199
983.699922,-9252.574275,2442.679609,-153.219100
983.700243,-9844.739029,2220.617826,76.609550
983.700564,-9696.697840,2072.576638,1149.143247
983.700884,-10881.027347,2368.659014,3217.601092
983.701205,-10807.006753,1406.391290,3064.381992
983.701526,-10584.944971,1480.411884,3370.820191
983.701846,-10288.862594,1628.453072,3140.991542
983.702167,-9474.636058,1998.556043,2757.943793
983.702488,-9104.533087,2590.720797,1991.848295
983.702808,-9400.615463,2442.679609,2068.457845
983.703129,-9178.553681,2442.679609,1455.581446
983.703450,-9474.636058,1924.535449,1149.143247
983.703771,-9770.718434,1110.308913,383.047749
983.704091,-9400.615463,1110.308913,306.438199
983.704412,-9548.656652,1110.308913,536.266849
983.704733,-9622.677246,1406.391290,1455.581446
983.705053,-9770.718434,814.226536,2298.286494
983.705374,-10140.821405,592.164754,3294.210641
983.705695,-10955.047942,148.041188,3753.867940
983.706016,-10658.965565,518.144159,5439.278036
983.706336,-10510.924376,1184.329507,6281.983084
983.706657,-9844.739029,2072.576638,6741.640382
983.706978,-9474.636058,2738.761985,7201.297681
983.707298,-9104.533087,2072.576638,7507.735880
983.707619,-8808.450710,888.247130,6741.640382
983.707940,-8142.265362,-1184.329507,4596.572988
983.708260,-7846.182985,-814.226536,2757.943793
983.708581,-8216.285956,74.020594,2451.505594
983.708902,-8882.471304,962.267725,2528.115143
983.709223,-9474.636058,1850.514855,3064.381992
983.709543,-10214.842000,518.144159,2987.772442
983.709864,-10214.842000,222.061783,2604.724693
983.710185,-10807.006753,74.020594,3677.258390
983.710505,-11325.150913,148.041188,5745.716235
983.710826,-10510.924376,518.144159,6588.421283
983.711147,-10214.842000,0.000000,6741.640382
983.711468,-9104.533087,-592.164754,5209.449386
983.711788,-8290.306550,-222.061783,3983.696590
983.712109,-8734.430116,1776.494261,3600.648841
983.712430,-8808.450710,1998.556043,3370.820191
983.712750,-8512.368333,3552.988522,4136.915689
983.713071,-9400.615463,1776.494261,3064.381992
983.713392,-9178.553681,1924.535449,3140.991542
983.713712,-10140.821405,1184.329507,2834.553343
983.714033,-10955.047942,1332.370696,2987.772442
983.714354,-11399.171507,2368.659014,2987.772442
983.714675,-10362.883188,2442.679609,919.314598
983.714995,-9030.512492,3108.864956,766.095498
983.715316,-9622.677246,3108.864956,-306.438199
983.715637,-9252.574275,2516.700203,306.438199
983.715957,-9474.636058,1332.370696,229.828649
983.716278,-9178.553681,1924.535449,229.828649
983.716599,-9030.512492,2294.638420,1378.971896
983.716920,-9844.739029,3034.844362,3983.696590
983.717240,-10436.903782,2664.741391,5209.449386
983.717561,-10436.903782,1554.432478,4136.915689
983.717882,-9622.677246,1776.494261,2068.457845
983.718202,-9104.533087,2886.803174,2145.067394
983.718523,-9918.759623,3997.112087,3677.258390
983.718844,-10732.986159,3404.947333,4903.011187
983.719164,-10362.883188,3923.091493,4213.525239
983.719485,-9918.759623,3256.906145,3524.039291
983.719806,-9844.739029,2442.679609,4060.306139
983.720127,-10658.965565,1702.473667,4443.353888
983.720447,-9400.615463,1406.391290,3600.648841
983.720768,-8438.347739,1850.514855,1915.238745
983.721089,-7402.059420,1998.556043,1685.410096
983.721409,-7846.182985,2294.638420,2528.115143
983.721730,-9474.636058,1998.556043,3294.210641
983.722051,-9992.780217,2368.659014,4749.792088
983.722372,-10214.842000,1184.329507,5209.449386
983.722692,-10288.862594,666.185348,5132.839837
983.723013,-9844.739029,518.144159,4749.792088
983.723334,-10658.965565,1850.514855,5975.544884
983.723654,-9918.759623,1628.453072,6358.592633
983.723975,-8660.409521,1628.453072,5132.839837
983.724296,-9622.677246,1628.453072,3983.696590
983.724616,-10214.842000,1776.494261,2834.553343
983.724937,-8364.327145,2886.803174,2221.676944
983.725258,-8512.368333,3923.091493,2834.553343
983.725579,-9474.636058,4811.338623,3140.991542
983.725899,-8586.388927,3034.844362,3830.477490
983.726220,-9622.677246,148.041188,3447.429741
983.726541,-9844.739029,148.041188,4290.134789
983.726861,-10362.883188,-1480.411884,3600.648841
983.727182,-10584.944971,0.000000,4749.792088
983.727503,-8364.327145,1036.288319,2068.457845
983.727824,-9474.636058,1998.556043,1685.410096
983.728144,-9548.656652,1702.473667,2604.724693
983.728465,-9104.533087,2664.741391,3140.991542
983.728786,-10362.883188,1406.391290,3983.696590
983.729106,-10807.006753,1036.288319,2451.505594
983.729427,-9252.574275,1850.514855,2528.115143
983.729748,-10214.842000,2590.720797,2987.772442
983.730069,-10288.862594,2664.741391,4366.744339
983.730389,-9252.574275,2738.761985,3140.991542
983.730710,-9622.677246,1406.391290,1915.238745
983.731031,-9548.656652,0.000000,153.219100
983.731351,-9992.780217,296.082377,0.000000
983.731672,-9548.656652,2220.617826,153.219100
983.731993,-9622.677246,2072.576638,1225.752797
983.732313,-9030.512492,1480.411884,1149.143247
983.732634,-9252.574275,0.000000,1532.190996
983.732955,-10436.903782,-1036.288319,689.485948
983.733276,-9548.656652,-1554.432478,842.705048
983.733596,-10436.903782,-592.164754,1915.238745
983.733917,-8660.409521,888.247130,2681.334243
983.734238,-8660.409521,1036.288319,2757.943793
983.734558,-8808.450710,1332.370696,3830.477490
983.734879,-9030.512492,-740.205942,2681.334243
983.735200,-9030.512492,-1924.535449,1225.752797
983.735521,-9400.615463,-740.205942,1685.410096
983.735841,-8438.347739,518.144159,2221.676944
983.736162,-9030.512492,1776.494261,3064.381992
983.736483,-9992.780217,1924.535449,3753.867940
983.736803,-9474.636058,74.020594,2911.162892
983.737124,-9252.574275,-296.082377,1608.800546
983.737445,-10658.965565,-962.267725,3370.820191
983.737765,-9622.677246,-888.247130,3370.820191
983.738086,-10288.862594,-814.226536,3830.477490
983.738407,-9918.759623,-222.061783,3753.867940
983.738728,-8956.491898,-1998.556043,1991.848295
983.739048,-8586.388927,-1258.350101,1225.752797
983.739369,-9474.636058,1036.288319,3907.087040
983.739690,-10214.842000,74.020594,3447.429741
983.740010,-10362.883188,2442.679609,4826.401637
983.740331,-11251.130318,888.247130,3140.991542
983.740652,-9178.553681,1258.350101,1149.143247
983.740973,-10140.821405,1776.494261,1991.848295
983.741293,-8956.491898,1258.350101,3370.820191
983.741614,-9474.636058,1184.329507,1225.752797
983.741935,-10436.903782,-370.102971,-153.219100
983.742255,-9474.636058,-148.041188,-919.314598
983.742576,-9400.615463,222.061783,-1149.143247
983.742897,-10881.027347,962.267725,995.924147
983.743217,-10288.862594,1110.308913,1838.629195
983.743538,-9622.677246,1184.329507,1838.629195
983.743859,-11325.150913,-1480.411884,1532.190996
983.744180,-9696.697840,-1554.432478,1378.971896
983.744500,-10362.883188,-370.102971,1991.848295
983.744821,-10436.903782,296.082377,2834.553343
983.745142,-8438.347739,1110.308913,1685.410096
983.745462,-9844.739029,814.226536,0.000000
983.745783,-8438.347739,-1184.329507,-1378.971896
983.746104,-8142.265362,-444.123565,-2221.676944
983.746425,-9326.594869,962.267725,-689.485948
983.746745,-8882.471304,1184.329507,766.095498
983.747066,-9030.512492,444.123565,536.266849
983.747387,-10436.903782,-2072.576638,-919.314598
983.747707,-9252.574275,-1850.514855,-1991.848295
983.748028,-9622.677246,296.082377,-306.438199
983.748349,-9918.759623,-370.102971,153.219100
983.748669,-9030.512492,1110.308913,536.266849
983.748990,-10658.965565,-1480.411884,-919.314598
983.749311,-6735.874072,2072.576638,-1608.800546
983.749632,-10510.924376,-666.185348,-919.314598
983.749952,-7328.038826,1258.350101,3294.210641
983.750273,-10288.862594,-1480.411884,1762.019645
983.750594,-10510.924376,74.020594,2987.772442
983.750914,-8734.430116,-1406.391290,689.485948
983.751235,-9252.574275,-740.205942,1072.533697
983.751556,-11991.336260,370.102971,3600.648841
983.751877,-7772.162391,148.041188,766.095498
983.752197,-10807.006753,962.267725,1532.190996
983.752518,-8586.388927,-888.247130,536.266849
983.752839,-9400.615463,-962.267725,-1378.971896
983.753159,-11251.130318,-370.102971,1225.752797
983.753480,-8734.430116,1036.288319,459.657299
983.753801,-9326.594869,666.185348,689.485948
983.754121,-10066.800811,0.000000,919.314598
983.754442,-8660.409521,-814.226536,919.314598
983.754763,-10066.800811,-2294.638420,2298.286494
983.755084,-10955.047942,-1776.494261,4826.401637
983.755404,-11769.274478,-2516.700203,5669.106685
983.755725,-11399.171507,-3923.091493,5745.716235
983.756046,-9918.759623,-2442.679609,2451.505594
983.756366,-9474.636058,-2368.659014,1762.019645
983.756687,-7994.224174,148.041188,536.266849
983.757008,-8290.306550,888.247130,2298.286494
983.757329,-8290.306550,-222.061783,383.047749
983.757649,-6883.915261,370.102971,-1072.533697
983.757970,-10436.903782,-2072.576638,-306.438199
983.758291,-9178.553681,-296.082377,306.438199
983.758611,-11029.068536,444.123565,4060.306139
983.758932,-10066.800811,-2220.617826,3217.601092
983.759253,-9474.636058,-1332.370696,2451.505594
983.759573,-10881.027347,-2812.782580,1762.019645
983.759894,-8586.388927,-2146.597232,0.000000
983.760215,-8660.409521,1480.411884,1532.190996
983.760536,-10214.842000,-296.082377,2374.896044
983.760856,-7772.162391,-518.144159,536.266849
983.761177,-8734.430116,-222.061783,-1225.752797
983.761498,-9326.594869,-2146.597232,-1225.752797
983.761818,-9178.553681,-370.102971,-612.876398
983.762139,-10140.821405,592.164754,919.314598
983.762460,-10658.965565,370.102971,1149.143247
983.762781,-9696.697840,2368.659014,1149.143247
983.763101,-11843.295072,0.000000,1608.800546
983.763422,-10288.862594,-2146.597232,76.609550
983.763743,-9474.636058,74.020594,-306.438199
983.764064,-10066.800811,-1998.556043,306.438199
983.764384,-7772.162391,1184.329507,-995.924147
983.764705,-7920.203579,1258.350101,-842.705048
983.765026,-8438.347739,-148.041188,-1838.629195
983.765347,-8512.368333,1850.514855,-536.266849
983.765667,-10658.965565,666.185348,995.924147
983.765988,-9992.780217,-296.082377,1685.410096
983.766309,-11325.150913,444.123565,2221.676944
983.766630,-11177.109724,-1998.556043,1685.410096
983.766950,-9918.759623,-888.247130,-689.485948
983.767271,-10510.924376,2072.576638,1608.800546
983.767592,-9770.718434,74.020594,1838.629195
983.767912,-8512.368333,1702.473667,1685.410096
983.768233,-10658.965565,1258.350101,1838.629195
983.768554,-8660.409521,-1036.288319,-1225.752797
983.768875,-9252.574275,1554.432478,612.876398
983.769195,-9918.759623,-148.041188,2298.286494
983.769516,-9104.533087,-962.267725,2374.896044
983.769837,-10288.862594,-888.247130,3140.991542
983.770158,-9548.656652,-3182.885551,1685.410096
983.770478,-10066.800811,-1110.308913,1532.190996
983.770799,-10658.965565,888.247130,3753.867940
983.771120,-10732.986159,444.123565,3753.867940
983.771441,-9326.594869,1628.453072,2834.553343
983.771761,-8882.471304,-592.164754,1225.752797
983.772082,-7624.121203,-1776.494261,-842.705048
983.772403,-8586.388927,-962.267725,0.000000
983.772724,-8364.327145,-1332.370696,689.485948
983.773044,-8364.327145,-888.247130,306.438199
983.773365,-8808.450710,222.061783,459.657299
983.773686,-9104.533087,-888.247130,383.047749
983.774007,-11621.233289,148.041188,1991.848295
983.774327,-11029.068536,74.020594,4136.915689
983.774648,-11399.171507,-2072.576638,2834.553343
983.774969,-9548.656652,1110.308913,2757.943793
983.775290,-10066.800811,-1110.308913,995.924147
983.775610,-9104.533087,-814.226536,0.000000
983.775931,-8660.409521,1776.494261,1225.752797
983.776252,-8290.306550,-888.247130,0.000000
983.776572,-7920.203579,370.102971,-689.485948
983.776893,-10584.944971,-592.164754,1225.752797
983.777214,-10288.862594,-2960.823768,536.266849
983.777535,-10436.903782,-814.226536,919.314598
983.777855,-10955.047942,-148.041188,2604.724693
983.778176,-10288.862594,-888.247130,1149.143247
983.778497,-10436.903782,888.247130,1532.190996
983.778818,-10140.821405,-888.247130,306.438199
983.779138,-8290.306550,0.000000,-1225.752797
983.779459,-9622.677246,444.123565,76.609550
983.779780,-9326.594869,-1036.288319,459.657299
983.780101,-9030.512492,74.020594,0.000000
983.780421,-10881.027347,-1184.329507,612.876398
983.780742,-9918.759623,-1850.514855,-459.657299
983.781063,-9770.718434,-518.144159,153.219100
983.781384,-10140.821405,0.000000,1762.019645
983.781704,-10214.842000,222.061783,1838.629195
983.782025,-10288.862594,518.144159,1838.629195
983.782346,-9178.553681,-1628.453072,-459.657299
983.782667,-8882.471304,-518.144159,-842.705048
983.782987,-9474.636058,1110.308913,383.047749
983.783308,-9770.718434,0.000000,919.314598
983.783629,-8438.347739,1184.329507,766.095498
983.783949,-9622.677246,0.000000,0.000000
983.784270,-9104.533087,-1998.556043,-383.047749
983.784591,-8956.491898,0.000000,76.609550
983.784912,-10436.903782,-296.082377,1608.800546
983.785232,-9252.574275,-148.041188,995.924147
983.785553,-9252.574275,1332.370696,3140.991542
983.785874,-10658.965565,-1998.556043,2068.457845
983.786195,-9474.636058,-1480.411884,2068.457845
983.786515,-10214.842000,-148.041188,4903.011187
983.786836,-9622.677246,-2146.597232,2834.553343
983.787157,-9252.574275,-1110.308913,2298.286494
983.787478,-9548.656652,-1332.370696,1149.143247
983.787798,-8364.327145,-3627.009116,-612.876398
983.788119,-7328.038826,0.000000,229.828649
983.788440,-9770.718434,-814.226536,2221.676944
983.788761,-8290.306550,-740.205942,1838.629195
983.789081,-9696.697840,0.000000,2221.676944
983.789402,-9992.780217,-2886.803174,459.657299
983.789723,-8438.347739,-518.144159,766.095498
983.790044,-11177.109724,370.102971,3217.601092
983.790364,-9770.718434,-222.061783,2834.553343
983.790685,-9696.697840,444.123565,3294.210641
983.791006,-9622.677246,-518.144159,459.657299
983.791326,-8512.368333,-2590.720797,-1072.533697
983.791647,-8512.368333,740.205942,-306.438199
983.791968,-10362.883188,1480.411884,2604.724693
983.792289,-10288.862594,0.000000,2221.676944
983.792609,-8808.450710,1776.494261,1532.190996
983.792930,-10955.047942,-2812.782580,1072.533697
983.793251,-8586.388927,1036.288319,536.266849
983.793572,-11177.109724,1480.411884,2298.286494
983.793892,-10510.924376,74.020594,2374.896044
983.794213,-9178.553681,1924.535449,1532.190996
983.794534,-9918.759623,-1480.411884,-153.219100
983.794855,-9770.718434,0.000000,-306.438199
983.795175,-9770.718434,1036.288319,842.705048
983.795496,-11029.068536,-444.123565,1838.629195
983.795817,-8512.368333,370.102971,1532.190996
983.796138,-9770.718434,148.041188,1225.752797
983.796458,-9992.780217,-2294.638420,536.266849
983.796779,-9548.656652,518.144159,919.314598
983.797100,-10362.883188,518.144159,2834.553343
983.797421,-8660.409521,-962.267725,1072.533697
983.797741,-9252.574275,148.041188,995.924147
983.798062,-9918.759623,-1702.473667,-229.828649
983.798383,-8586.388927,-888.247130,-459.657299
983.798703,-9548.656652,1036.288319,1455.581446
983.799024,-9622.677246,-666.185348,995.924147
983.799345,-8808.450710,1554.432478,995.924147
983.799666,-10510.924376,296.082377,995.924147
983.799986,-8882.471304,-592.164754,0.000000
983.800307,-9622.677246,1110.308913,1225.752797
983.800628,-9400.615463,370.102971,2528.115143
983.800949,-8438.347739,-740.205942,0.000000
983.801269,-9474.636058,1406.391290,0.000000
983.801590,-9474.636058,-888.247130,-919.314598
983.801911,-8438.347739,-962.267725,-229.828649
983.802232,-10436.903782,740.205942,2374.896044
983.802552,-10807.006753,-666.185348,3447.429741
983.802873,-10732.986159,-518.144159,3830.477490
983.803194,-11547.212695,-1628.453072,3370.820191
983.803515,-9844.739029,-2368.659014,1455.581446
983.803835,-9770.718434,0.000000,1685.410096
983.804156,-9844.739029,370.102971,1915.238745
983.804477,-8438.347739,0.000000,0.000000
983.804798,-8364.327145,1850.514855,689.485948
983.805118,-9844.739029,-2590.720797,-1532.190996
983.805439,-8512.368333,-296.082377,-383.047749
983.805760,-11399.171507,-962.267725,1838.629195
