#time,accel_x,accel_y,accel_z
1417.455910,-9770.718434,148.041188,1225.752797
1417.456231,-9770.718434,-370.102971,1149.143247
1417.456551,-9474.636058,-370.102971,1302.362347
1417.456872,-9548.656652,-370.102971,919.314598
1417.457193,-9696.697840,-222.061783,919.314598
1417.457514,-9548.656652,-518.144159,1225.752797
1417.457835,-9548.656652,-222.061783,1378.971896
1417.458156,-9622.677246,-370.102971,1378.971896
1417.458477,-9622.677246,-296.082377,1302.362347
1417.458798,-10140.821405,0.000000,689.485948
1417.459119,-9696.697840,-370.102971,1149.143247
1417.459440,-9770.718434,-370.102971,1072.533697
1417.459761,-9622.677246,0.000000,1302.362347
1417.460082,-9992.780217,-592.164754,842.705048
1417.460403,-9474.636058,-592.164754,1302.362347
1417.460724,-9400.615463,-740.205942,689.485948
1417.461045,-9548.656652,-740.205942,1378.971896
1417.461366,-9770.718434,-592.164754,1225.752797
1417.461687,-9696.697840,-888.247130,995.924147
1417.462008,-9400.615463,-666.185348,842.705048
1417.462329,-9622.677246,-962.267725,919.314598
1417.462650,-9696.697840,-666.185348,1072.533697
1417.462971,-9844.739029,-222.061783,1302.362347
1417.463292,-9696.697840,-592.164754,1072.533697
1417.463613,-9992.780217,-518.144159,306.438199
1417.463934,-9400.615463,-518.144159,842.705048
1417.464255,-10288.862594,-74.020594,536.266849
1417.464576,-9548.656652,-444.123565,1455.581446
1417.464897,-9770.718434,-962.267725,1302.362347
1417.465218,-9548.656652,-1184.329507,1532.190996
1417.465539,-9622.677246,-1332.370696,1762.019645
1417.465860,-9474.636058,-1702.473667,1838.629195
1417.466181,-9474.636058,-1332.370696,2145.067394
1417.466502,-9474.636058,-1406.391290,2068.457845
1417.466823,-9548.656652,-1258.350101,2068.457845
1417.467144,-9400.615463,-1110.308913,2145.067394
1417.467465,-9696.697840,-1184.329507,2221.676944
1417.467786,-9474.636058,-962.267725,2374.896044
1417.468107,-9696.697840,-888.247130,2451.505594
1417.468428,-9474.636058,-740.205942,2911.162892
1417.468749,-9844.739029,-814.226536,3064.381992
1417.469070,-9918.759623,-1258.350101,3524.039291
1417.469391,-9696.697840,-1332.370696,4136.915689
1417.469712,-9770.718434,-1258.350101,4519.963438
1417.470032,-8956.491898,-2072.576638,4596.572988
1417.470353,-9622.677246,-1776.494261,4979.620737
1417.470674,-9400.615463,-2072.576638,5286.058936
1417.470995,-9474.636058,-2368.659014,5286.058936
1417.471316,-9252.574275,-2220.617826,5209.449386
1417.471637,-9178.553681,-2368.659014,5286.058936
1417.471958,-9252.574275,-2442.679609,5669.106685
1417.472279,-9400.615463,-3182.885551,5592.497135
1417.472600,-8956.491898,-3923.091493,5286.058936
1417.472921,-8956.491898,-4219.173869,5132.839837
1417.473242,-9326.594869,-4441.235652,5286.058936
1417.473563,-9400.615463,-4293.194464,5056.230287
1417.473884,-9252.574275,-3997.112087,4826.401637
1417.474205,-9548.656652,-3849.070898,3600.648841
1417.474526,-9104.533087,-3849.070898,4213.525239
1417.474847,-9548.656652,-4071.132681,4290.134789
1417.475168,-9622.677246,-4293.194464,4290.134789
1417.475489,-9474.636058,-4589.276840,4060.306139
1417.475810,-9400.615463,-4515.256246,4213.525239
1417.476131,-9326.594869,-4811.338623,4366.744339
1417.476452,-9474.636058,-5477.523971,3907.087040
1417.476773,-9400.615463,-5477.523971,3524.039291
1417.477094,-9178.553681,-5921.647536,2987.772442
1417.477415,-8808.450710,-5847.626942,2145.067394
1417.477736,-8808.450710,-4959.379811,1378.971896
1417.478057,-9030.512492,-3627.009116,612.876398
1417.478378,-9252.574275,-2442.679609,153.219100
1417.478699,-9548.656652,-1258.350101,459.657299
1417.479020,-9844.739029,-1184.329507,766.095498
1417.479341,-10362.883188,-1554.432478,919.314598
1417.479662,-10584.944971,-1628.453072,1608.800546
1417.479983,-10584.944971,-2664.741391,2604.724693
1417.480304,-10510.924376,-4145.153275,2987.772442
1417.480625,-9918.759623,-5699.585753,2987.772442
1417.480946,-9474.636058,-6069.688724,2451.505594
1417.481267,-9252.574275,-5773.606348,2374.896044
1417.481588,-9252.574275,-5477.523971,3140.991542
1417.481909,-9104.533087,-5033.400406,3064.381992
1417.482230,-9104.533087,-4737.318029,2911.162892
1417.482551,-9252.574275,-4589.276840,2374.896044
1417.482872,-9548.656652,-3108.864956,2221.676944
1417.483193,-9770.718434,-1924.535449,1072.533697
1417.483514,-9548.656652,-296.082377,919.314598
1417.483834,-10140.821405,1480.411884,2221.676944
1417.484155,-10288.862594,1998.556043,1608.800546
1417.484476,-10584.944971,1998.556043,2374.896044
1417.484797,-10732.986159,888.247130,3064.381992
1417.485118,-10881.027347,-814.226536,4213.525239
1417.485439,-10214.842000,-2220.617826,4673.182538
1417.485760,-9696.697840,-3627.009116,5209.449386
1417.486081,-9400.615463,-4589.276840,6281.983084
1417.486402,-8882.471304,-5477.523971,7048.078582
1417.486723,-8956.491898,-4589.276840,6588.421283
1417.487044,-8216.285956,-6809.894666,5362.668486
1417.487365,-7698.141797,-5255.462188,3907.087040
1417.487686,-7846.182985,-2886.803174,2834.553343
1417.488007,-8512.368333,370.102971,4979.620737
1417.488328,-9104.533087,2220.617826,3370.820191
1417.488649,-10066.800811,3256.906145,3370.820191
1417.488970,-10510.924376,2294.638420,3370.820191
1417.489291,-10807.006753,814.226536,3064.381992
1417.489612,-10807.006753,0.000000,3830.477490
1417.489933,-10584.944971,-666.185348,4596.572988
1417.490254,-10140.821405,-1776.494261,5209.449386
1417.490575,-9400.615463,-3701.029710,5362.668486
1417.490896,-8364.327145,-6217.729913,3677.258390
1417.491217,-7698.141797,-7476.080014,2911.162892
1417.491538,-7920.203579,-6661.853478,2451.505594
1417.491859,-8364.327145,-3701.029710,3447.429741
1417.492180,-8734.430116,-2220.617826,3907.087040
1417.492501,-8734.430116,-1184.329507,3370.820191
1417.492822,-9178.553681,-444.123565,1915.238745
1417.493143,-10214.842000,148.041188,1762.019645
1417.493464,-10881.027347,1110.308913,2604.724693
1417.493785,-11399.171507,444.123565,3370.820191
1417.494106,-10066.800811,-1036.288319,2145.067394
1417.494427,-10140.821405,-1628.453072,0.000000
1417.494748,-9918.759623,-1036.288319,0.000000
1417.495069,-9622.677246,444.123565,766.095498
1417.495390,-10214.842000,-444.123565,1838.629195
1417.495711,-9548.656652,-1554.432478,2298.286494
1417.496032,-9400.615463,-3404.947333,1915.238745
1417.496353,-9548.656652,-2886.803174,3753.867940
1417.496674,-10658.965565,-4441.235652,4443.353888
1417.496995,-9844.739029,-5551.544565,4903.011187
1417.497315,-9030.512492,-5995.668130,3140.991542
1417.497636,-9474.636058,-5403.503377,1149.143247
1417.497957,-7994.224174,-222.061783,2681.334243
1417.498278,-11621.233289,-2590.720797,3370.820191
1417.498599,-8956.491898,-740.205942,3677.258390
1417.498920,-9474.636058,-3034.844362,689.485948
1417.499241,-10214.842000,-1998.556043,153.219100
1417.499562,-9474.636058,-1332.370696,1685.410096
1417.499883,-11103.089130,-4219.173869,3600.648841
1417.500204,-8808.450710,-4737.318029,3217.601092
1417.500525,-8956.491898,-4663.297435,2298.286494
1417.500846,-10584.944971,-3552.988522,5898.935335
1417.501167,-10362.883188,-4589.276840,6894.859482
1417.501488,-10362.883188,-5625.565159,7277.907231
1417.501809,-9474.636058,-6513.812290,5822.325785
1417.502130,-8290.306550,-5699.585753,3830.477490
1417.502451,-8142.265362,-5625.565159,2834.553343
1417.502772,-7698.141797,-4293.194464,2987.772442
1417.503093,-8216.285956,-2072.576638,3140.991542
1417.503414,-8364.327145,-444.123565,3140.991542
1417.503735,-8882.471304,-666.185348,3677.258390
1417.504056,-9844.739029,296.082377,3907.087040
1417.504377,-10881.027347,-962.267725,4596.572988
1417.504698,-11399.171507,-2664.741391,5132.839837
1417.505019,-9178.553681,-3404.947333,3677.258390
1417.505340,-9548.656652,-2960.823768,3064.381992
1417.505661,-10436.903782,-2442.679609,4596.572988
1417.505982,-9030.512492,-2590.720797,5132.839837
1417.506303,-9178.553681,-4071.132681,4136.915689
1417.506624,-9104.533087,-3182.885551,3677.258390
1417.506945,-9030.512492,-4293.194464,2451.505594
1417.507266,-8660.409521,-3256.906145,3217.601092
1417.507587,-9326.594869,-3478.967927,3294.210641
1417.507908,-10140.821405,-2590.720797,3370.820191
1417.508229,-9918.759623,-1554.432478,3064.381992
1417.508550,-10288.862594,-888.247130,2681.334243
1417.508871,-11325.150913,-962.267725,2604.724693
1417.509192,-10436.903782,-1258.350101,3447.429741
1417.509513,-9474.636058,74.020594,1225.752797
1417.509834,-10436.903782,888.247130,919.314598
1417.510155,-9770.718434,740.205942,1685.410096
1417.510476,-9696.697840,-222.061783,2757.943793
1417.510796,-9400.615463,-3330.926739,2681.334243
1417.511117,-9030.512492,-4737.318029,1532.190996
1417.511438,-9252.574275,-3552.988522,2221.676944
1417.511759,-9474.636058,-2738.761985,3294.210641
1417.512080,-8586.388927,-3256.906145,2757.943793
1417.512401,-8290.306550,-2960.823768,3907.087040
1417.512722,-8512.368333,-3627.009116,2528.115143
1417.513043,-8808.450710,-3256.906145,459.657299
1417.513364,-8512.368333,-666.185348,995.924147
1417.513685,-9548.656652,518.144159,2068.457845
1417.514006,-9252.574275,2294.638420,2451.505594
1417.514327,-10732.986159,1776.494261,2374.896044
1417.514648,-10362.883188,518.144159,2834.553343
1417.514969,-9474.636058,-2072.576638,1302.362347
1417.515290,-9918.759623,-2516.700203,2834.553343
1417.515611,-10955.047942,-3330.926739,3677.258390
1417.515932,-9326.594869,-2442.679609,4290.134789
1417.516252,-9548.656652,-2812.782580,5132.839837
1417.516573,-8808.450710,-4663.297435,3294.210641
1417.516894,-7105.977043,-4071.132681,2757.943793
1417.517215,-10288.862594,-3701.029710,3370.820191
1417.517536,-10140.821405,-1628.453072,5209.449386
1417.517857,-9252.574275,-1850.514855,5209.449386
1417.518178,-10140.821405,-2442.679609,5132.839837
1417.518499,-9474.636058,-3627.009116,3600.648841
1417.518820,-9548.656652,-2960.823768,3294.210641
1417.519141,-11177.109724,-1480.411884,5515.887586
1417.519462,-10214.842000,-888.247130,5975.544884
1417.519783,-9992.780217,-2590.720797,5669.106685
1417.520104,-11325.150913,-4811.338623,5056.230287
1417.520425,-8512.368333,-4737.318029,3677.258390
1417.520745,-9400.615463,-3849.070898,2374.896044
1417.521066,-8142.265362,-1036.288319,3600.648841
1417.521387,-7772.162391,-888.247130,2911.162892
1417.521708,-7994.224174,-2960.823768,0.000000
1417.522029,-7550.100608,-2960.823768,1378.971896
1417.522350,-9326.594869,-3034.844362,2757.943793
1417.522671,-9622.677246,-3849.070898,3830.477490
1417.522992,-10584.944971,-3478.967927,6052.154434
1417.523313,-10510.924376,-4441.235652,4596.572988
1417.523634,-7994.224174,-3701.029710,995.924147
1417.523955,-9252.574275,-1036.288319,1838.629195
1417.524276,-10066.800811,-148.041188,2528.115143
1417.524597,-9992.780217,-1850.514855,3217.601092
1417.524918,-11325.150913,-4219.173869,1991.848295
1417.525239,-9400.615463,-4515.256246,842.705048
1417.525559,-10288.862594,-1998.556043,689.485948
1417.525880,-12879.583391,-2220.617826,6511.811733
1417.526201,-9844.739029,-3627.009116,3830.477490
1417.526522,-8216.285956,-3701.029710,76.609550
1417.526843,-8512.368333,-3108.864956,-1762.019645
1417.527164,-7772.162391,-1702.473667,-1991.848295
1417.527485,-8586.388927,-814.226536,536.266849
1417.527806,-9992.780217,-2442.679609,1072.533697
1417.528127,-7031.956449,-1184.329507,-1838.629195
1417.528448,-9622.677246,-814.226536,-919.314598
1417.528769,-11399.171507,888.247130,3064.381992
1417.529090,-11399.171507,-2072.576638,3753.867940
1417.529411,-12583.501014,-4219.173869,2221.676944
1417.529732,-8956.491898,-1998.556043,1072.533697
1417.530053,-8882.471304,-1184.329507,-383.047749
1417.530373,-10288.862594,3182.885551,3677.258390
1417.530694,-11325.150913,-1406.391290,4673.182538
1417.531015,-5995.668130,-1702.473667,-612.876398
1417.531336,-8734.430116,-1036.288319,-1072.533697
1417.531657,-8142.265362,-148.041188,1455.581446
1417.531978,-9178.553681,-592.164754,4136.915689
1417.532299,-11251.130318,-3108.864956,4979.620737
1417.532620,-7846.182985,-1850.514855,2221.676944
1417.532941,-8882.471304,-666.185348,1225.752797
1417.533262,-10881.027347,0.000000,3753.867940
1417.533583,-10658.965565,-592.164754,4519.963438
1417.533904,-9622.677246,-888.247130,3140.991542
1417.534225,-9326.594869,0.000000,1149.143247
1417.534546,-9178.553681,1258.350101,1072.533697
1417.534867,-9622.677246,1702.473667,2528.115143
1417.535187,-10214.842000,-666.185348,3217.601092
1417.535508,-8956.491898,148.041188,1225.752797
1417.535829,-9474.636058,518.144159,766.095498
1417.536150,-9770.718434,1184.329507,2451.505594
1417.536471,-9622.677246,370.102971,3370.820191
1417.536792,-9844.739029,-1850.514855,2911.162892
1417.537113,-9252.574275,-1702.473667,1302.362347
1417.537434,-8956.491898,296.082377,153.219100
1417.537755,-9252.574275,666.185348,229.828649
1417.538076,-8290.306550,-962.267725,-1225.752797
1417.538397,-8660.409521,1628.453072,-995.924147
1417.538718,-11325.150913,2442.679609,0.000000
1417.539039,-11547.212695,5181.441594,3983.696590
1417.539360,-11991.336260,296.082377,3907.087040
1417.539681,-11177.109724,-2072.576638,1072.533697
1417.540001,-9622.677246,-1924.535449,-919.314598
1417.540322,-9622.677246,296.082377,-306.438199
1417.540643,-9474.636058,1924.535449,919.314598
1417.540964,-9178.553681,-1184.329507,153.219100
1417.541285,-6439.791695,-2220.617826,-3524.039291
1417.541606,-9252.574275,-1258.350101,-2987.772442
1417.541927,-11325.150913,0.000000,229.828649
1417.542248,-9844.739029,-962.267725,1991.848295
1417.542569,-9844.739029,-2738.761985,1378.971896
1417.542890,-9474.636058,-962.267725,-229.828649
1417.543211,-11399.171507,888.247130,383.047749
1417.543532,-11325.150913,1406.391290,1685.410096
1417.543853,-8142.265362,0.000000,-153.219100
1417.544174,-7846.182985,-888.247130,-2911.162892
1417.544495,-8660.409521,0.000000,-2681.334243
1417.544815,-9622.677246,1110.308913,536.266849
1417.545136,-9178.553681,-1332.370696,1072.533697
1417.545457,-7624.121203,-2886.803174,536.266849
1417.545778,-9548.656652,-2738.761985,76.609550
1417.546099,-10362.883188,-1110.308913,1532.190996
1417.546420,-10807.006753,74.020594,4903.011187
1417.546741,-10732.986159,-3404.947333,3983.696590
1417.547062,-8068.244768,-2442.679609,1302.362347
1417.547383,-9770.718434,-1554.432478,306.438199
1417.547704,-9548.656652,814.226536,3064.381992
1417.548025,-8956.491898,148.041188,3677.258390
1417.548346,-9548.656652,-740.205942,3217.601092
1417.548667,-7994.224174,-2812.782580,0.000000
1417.548988,-9326.594869,-740.205942,689.485948
1417.549308,-11473.192101,444.123565,4213.525239
1417.549629,-10288.862594,-518.144159,2834.553343
1417.549950,-8956.491898,-740.205942,1532.190996
1417.550271,-8882.471304,0.000000,1225.752797
1417.550592,-10658.965565,740.205942,2834.553343
1417.550913,-10658.965565,-74.020594,4136.915689
1417.551234,-10214.842000,-814.226536,3753.867940
1417.551555,-8512.368333,-2146.597232,1149.143247
1417.551876,-8956.491898,-1036.288319,1072.533697
1417.552197,-11325.150913,-1480.411884,3600.648841
1417.552518,-10658.965565,-2368.659014,1072.533697
1417.552839,-8290.306550,-2146.597232,-459.657299
1417.553160,-8956.491898,888.247130,-153.219100
1417.553481,-11399.171507,592.164754,1991.848295
1417.553802,-9474.636058,-2146.597232,1225.752797
1417.554122,-9252.574275,-518.144159,-383.047749
1417.554443,-9770.718434,148.041188,-1838.629195
1417.554764,-10214.842000,2368.659014,383.047749
1417.555085,-10658.965565,2072.576638,3677.258390
1417.555406,-11103.089130,-1110.308913,2374.896044
1417.555727,-8438.347739,-1480.411884,0.000000
1417.556048,-10288.862594,-1554.432478,-766.095498
1417.556369,-9030.512492,1036.288319,-766.095498
1417.556690,-10510.924376,296.082377,-1225.752797
1417.557011,-8290.306550,1628.453072,-1991.848295
1417.557332,-7031.956449,1776.494261,-2451.505594
1417.557653,-9548.656652,1332.370696,-1838.629195
1417.557974,-9030.512492,1258.350101,2834.553343
1417.558295,-11621.233289,-4293.194464,-536.266849
1417.558616,-7550.100608,814.226536,-612.876398
1417.558936,-11621.233289,888.247130,0.000000
1417.559257,-9622.677246,2738.761985,1915.238745
1417.559578,-10510.924376,1480.411884,2681.334243
1417.559899,-9474.636058,0.000000,229.828649
1417.560220,-9104.533087,0.000000,-1378.971896
1417.560541,-9696.697840,222.061783,0.000000
1417.560862,-10214.842000,-888.247130,383.047749
1417.561183,-9918.759623,-1036.288319,536.266849
1417.561504,-9326.594869,0.000000,0.000000
1417.561825,-9770.718434,1924.535449,2451.505594
1417.562146,-10881.027347,1332.370696,3370.820191
1417.562467,-10140.821405,-1406.391290,2834.553343
1417.562788,-8216.285956,-592.164754,689.485948
1417.563109,-9104.533087,0.000000,-919.314598
1417.563430,-8364.327145,2664.741391,612.876398
1417.563750,-10140.821405,814.226536,2068.457845
1417.564071,-7698.141797,148.041188,1149.143247
1417.564392,-10510.924376,-666.185348,2298.286494
1417.564713,-10584.944971,-592.164754,3370.820191
1417.565034,-11251.130318,-962.267725,5209.449386
1417.565355,-10955.047942,-1776.494261,4673.182538
1417.565676,-9992.780217,-1184.329507,2987.772442
1417.565997,-8364.327145,518.144159,1991.848295
1417.566318,-9844.739029,814.226536,3677.258390
1417.566639,-8364.327145,-2516.700203,1838.629195
1417.566960,-8142.265362,-3330.926739,-306.438199
1417.567281,-8068.244768,-2960.823768,-766.095498
1417.567602,-10140.821405,0.000000,1072.533697
1417.567923,-10436.903782,740.205942,4136.915689
1417.568244,-10807.006753,-888.247130,3677.258390
1417.568564,-8660.409521,-1258.350101,689.485948
1417.568885,-10140.821405,-666.185348,612.876398
1417.569206,-10732.986159,-296.082377,995.924147
1417.569527,-8438.347739,-3182.885551,842.705048
1417.569848,-6809.894666,-3404.947333,-3140.991542
1417.570169,-7328.038826,148.041188,-2911.162892
1417.570490,-9770.718434,2812.782580,919.314598
1417.570811,-11399.171507,-518.144159,3983.696590
1417.571132,-10584.944971,-3404.947333,2451.505594
1417.571453,-9696.697840,-4293.194464,-842.705048
1417.571774,-11621.233289,-1110.308913,153.219100
1417.572095,-11843.295072,1332.370696,3447.429741
1417.572416,-9918.759623,-888.247130,1838.629195
1417.572737,-7328.038826,814.226536,-2221.676944
1417.573058,-8660.409521,74.020594,-3983.696590
1417.573378,-9474.636058,2146.597232,-2451.505594
1417.573699,-10362.883188,-2146.597232,1072.533697
1417.574020,-9252.574275,-3997.112087,-1149.143247
1417.574341,-8882.471304,-1702.473667,-1072.533697
1417.574662,-11251.130318,74.020594,1072.533697
1417.574983,-12139.377449,0.000000,4903.011187
1417.575304,-10510.924376,-2442.679609,2911.162892
1417.575625,-8882.471304,-2960.823768,-689.485948
1417.575946,-7179.997637,1110.308913,-1225.752797
1417.576267,-11769.274478,740.205942,1072.533697
1417.576588,-9178.553681,1332.370696,3064.381992
1417.576909,-7698.141797,-1332.370696,-153.219100
1417.577230,-7624.121203,-1480.411884,-2298.286494
1417.577551,-11177.109724,1480.411884,919.314598
1417.577871,-11547.212695,74.020594,4136.915689
1417.578192,-10881.027347,-148.041188,4366.744339
1417.578513,-9844.739029,0.000000,1838.629195
1417.578834,-9474.636058,962.267725,1072.533697
1417.579155,-10288.862594,2664.741391,2757.943793
1417.579476,-9918.759623,1036.288319,3677.258390
1417.579797,-8068.244768,-962.267725,1915.238745
1417.580118,-7624.121203,-1776.494261,0.000000
1417.580439,-9400.615463,-222.061783,229.828649
1417.580760,-9474.636058,1110.308913,3907.087040
1417.581081,-10658.965565,-666.185348,4443.353888
1417.581402,-8956.491898,0.000000,1838.629195
1417.581723,-9622.677246,-518.144159,2681.334243
1417.582044,-10288.862594,-370.102971,2221.676944
1417.582365,-9622.677246,-814.226536,2374.896044
1417.582685,-10140.821405,-1480.411884,1608.800546
1417.583006,-8882.471304,0.000000,-306.438199
1417.583327,-8660.409521,3034.844362,766.095498
1417.583648,-10881.027347,1036.288319,1685.410096
1417.583969,-9252.574275,296.082377,766.095498
1417.584290,-9992.780217,-592.164754,-459.657299
1417.584611,-10362.883188,-666.185348,-536.266849
1417.584932,-8956.491898,814.226536,689.485948
1417.585253,-10881.027347,-2294.638420,383.047749
1417.585574,-8290.306550,0.000000,0.000000
1417.585895,-8438.347739,222.061783,-1838.629195
1417.586216,-9622.677246,1776.494261,153.219100
1417.586537,-8808.450710,666.185348,689.485948
1417.586858,-10955.047942,-1258.350101,76.609550
1417.587179,-8586.388927,1628.453072,995.924147
1417.587499,-11177.109724,-592.164754,2221.676944
1417.587820,-10658.965565,-370.102971,2528.115143
1417.588141,-9770.718434,-2368.659014,306.438199
1417.588462,-9326.594869,-666.185348,-995.924147
1417.588783,-7772.162391,2220.617826,-2374.896044
1417.589104,-10288.862594,2442.679609,1532.190996
1417.589425,-9400.615463,-370.102971,1072.533697
1417.589746,-8290.306550,-1480.411884,-1149.143247
1417.590067,-8882.471304,-1702.473667,-2757.943793
1417.590388,-9992.780217,740.205942,1685.410096
1417.590709,-11399.171507,666.185348,4213.525239
1417.591030,-11399.171507,-1332.370696,3753.867940
1417.591351,-8956.491898,-2294.638420,842.705048
1417.591672,-8364.327145,-296.082377,-536.266849
1417.591993,-11843.295072,1776.494261,2528.115143
1417.592313,-10288.862594,-1628.453072,3294.210641
1417.592634,-7550.100608,-1110.308913,-306.438199
1417.592955,-9400.615463,-222.061783,-919.314598
1417.593276,-11029.068536,962.267725,1455.581446
1417.593597,-10436.903782,1628.453072,3907.087040
1417.593918,-12065.356855,-1850.514855,5439.278036
1417.594239,-8512.368333,-1406.391290,0.000000
1417.594560,-8364.327145,-1924.535449,0.000000
1417.594881,-10732.986159,-1480.411884,2221.676944
1417.595202,-7994.224174,-2664.741391,1302.362347
1417.595523,-7920.203579,-2072.576638,-153.219100
1417.595844,-7994.224174,-148.041188,-229.828649
1417.596165,-8586.388927,1332.370696,1225.752797
1417.596486,-11251.130318,-592.164754,4136.915689
1417.596807,-10584.944971,-3034.844362,3677.258390
1417.597127,-9770.718434,-1406.391290,1915.238745
1417.597448,-11991.336260,-592.164754,2221.676944
1417.597769,-10732.986159,1110.308913,4136.915689
1417.598090,-8956.491898,-888.247130,2068.457845
1417.598411,-7920.203579,-888.247130,-229.828649
1417.598732,-8956.491898,518.144159,-2451.505594
1417.599053,-8660.409521,2294.638420,-842.705048
1417.599374,-10807.006753,-888.247130,1149.143247
1417.599695,-9178.553681,-2590.720797,689.485948
1417.600016,-8882.471304,-2960.823768,-842.705048
1417.600337,-10362.883188,-962.267725,229.828649
1417.600658,-10881.027347,888.247130,3370.820191
1417.600979,-9104.533087,-740.205942,689.485948
1417.601300,-8364.327145,-1850.514855,-2221.676944
1417.601621,-6883.915261,518.144159,-4290.134789
1417.601941,-10214.842000,2220.617826,-229.828649
1417.602262,-10658.965565,518.144159,2987.772442
1417.602583,-10362.883188,-2442.679609,4979.620737
1417.602904,-11177.109724,-5625.565159,459.657299
1417.603225,-11103.089130,-3034.844362,842.705048
1417.603546,-11547.212695,-962.267725,3524.039291
1417.603867,-10510.924376,74.020594,2451.505594
1417.604188,-8512.368333,814.226536,842.705048
1417.604509,-7772.162391,1998.556043,-2451.505594
1417.604830,-9400.615463,2294.638420,459.657299
1417.605151,-9474.636058,-666.185348,459.657299
1417.605472,-9474.636058,-2368.659014,0.000000
1417.605793,-9252.574275,-1702.473667,-153.219100
1417.606114,-11325.150913,740.205942,2298.286494
1417.606435,-10807.006753,0.000000,3907.087040
1417.606755,-9622.677246,-592.164754,2604.724693
1417.607076,-9622.677246,74.020594,766.095498
1417.607397,-9474.636058,2738.761985,536.266849
1417.607718,-11177.109724,3108.864956,3370.820191
1417.608039,-9696.697840,222.061783,2911.162892
1417.608360,-8586.388927,-1036.288319,536.266849
1417.608681,-8808.450710,-1332.370696,-612.876398
1417.609002,-8956.491898,962.267725,306.438199
1417.609323,-10436.903782,1776.494261,3983.696590
1417.609644,-11103.089130,222.061783,2451.505594
1417.609965,-9030.512492,962.267725,1608.800546
1417.610286,-11325.150913,-444.123565,842.705048
1417.610607,-10436.903782,740.205942,3370.820191
1417.610928,-9770.718434,-2146.597232,2604.724693
1417.611248,-8808.450710,-1702.473667,842.705048
1417.611569,-7476.080014,-2368.659014,-2068.457845
1417.611890,-8142.265362,1110.308913,-229.828649
1417.612210,-10288.862594,1036.288319,2528.115143
1417.612531,-10510.924376,-814.226536,919.314598
1417.612852,-8956.491898,740.205942,-459.657299
1417.613173,-10436.903782,0.000000,-306.438199
1417.613493,-10658.965565,1110.308913,3447.429741
1417.613814,-11029.068536,-2738.761985,1302.362347
1417.614135,-8586.388927,-1924.535449,-459.657299
1417.614455,-9178.553681,-740.205942,-1915.238745
1417.614776,-9030.512492,1776.494261,306.438199
1417.615097,-10807.006753,-1332.370696,2374.896044
1417.615418,-9104.533087,-1332.370696,153.219100
1417.615738,-7550.100608,518.144159,-1455.581446
1417.616059,-11325.150913,-370.102971,0.000000
1417.616380,-8734.430116,2146.597232,2528.115143
1417.616701,-10510.924376,-666.185348,3294.210641
1417.617021,-9474.636058,-2738.761985,0.000000
1417.617342,-7031.956449,-888.247130,-919.314598
1417.617663,-11325.150913,-1184.329507,919.314598
1417.617983,-7402.059420,-148.041188,2834.553343
1417.618304,-9252.574275,-1258.350101,-689.485948
1417.618625,-7994.224174,1332.370696,0.000000
1417.618946,-10362.883188,2072.576638,1302.362347
1417.619266,-11325.150913,1184.329507,4903.011187
1417.619587,-11473.192101,-2664.741391,4519.963438
1417.619908,-9400.615463,-3849.070898,306.438199
1417.620228,-9030.512492,-1332.370696,-1455.581446
1417.620549,-9104.533087,1554.432478,1072.533697
1417.620870,-8364.327145,518.144159,1915.238745
1417.621191,-7920.203579,0.000000,306.438199
1417.621511,-8216.285956,-518.144159,0.000000
1417.621832,-10732.986159,-1184.329507,1225.752797
1417.622153,-11399.171507,0.000000,5439.278036
1417.622473,-13397.727550,-2738.761985,5975.544884
1417.622794,-9992.780217,-1702.473667,4290.134789
1417.623115,-9400.615463,-2146.597232,919.314598
1417.623436,-9844.739029,148.041188,2451.505594
1417.623756,-8956.491898,-2960.823768,306.438199
1417.624077,-7698.141797,-2812.782580,-842.705048
1417.624398,-7772.162391,-1332.370696,-2221.676944
1417.624719,-8808.450710,1406.391290,-1072.533697
1417.625039,-10807.006753,1258.350101,2451.505594
1417.625360,-10066.800811,-222.061783,2987.772442
1417.625681,-10436.903782,-1702.473667,1762.019645
1417.626001,-11547.212695,222.061783,1532.190996
1417.626322,-11325.150913,1110.308913,3830.477490
1417.626643,-10436.903782,-2368.659014,1455.581446
1417.626964,-7105.977043,-1850.514855,-919.314598
1417.627284,-7105.977043,-296.082377,-3294.210641
1417.627605,-7254.018232,2738.761985,-3064.381992
1417.627926,-8586.388927,3256.906145,995.924147
1417.628246,-8660.409521,296.082377,0.000000
1417.628567,-8734.430116,-814.226536,-459.657299
1417.628888,-11399.171507,-1776.494261,459.657299
1417.629209,-11843.295072,666.185348,4366.744339
1417.629529,-12361.439231,-888.247130,4136.915689
1417.629850,-9474.636058,74.020594,1378.971896
1417.630171,-8734.430116,1406.391290,0.000000
1417.630491,-9178.553681,2072.576638,306.438199
1417.630812,-8438.347739,-444.123565,459.657299
1417.631133,-8882.471304,-2590.720797,-842.705048
1417.631454,-8142.265362,-3404.947333,-2298.286494
1417.631774,-9030.512492,-444.123565,-459.657299
1417.632095,-11325.150913,0.000000,3600.648841
1417.632416,-10362.883188,-1924.535449,3217.601092
1417.632737,-9030.512492,-2368.659014,536.266849
1417.633057,-9474.636058,-592.164754,0.000000
1417.633378,-9918.759623,1480.411884,2221.676944
1417.633699,-10881.027347,-666.185348,2757.943793
1417.634019,-8660.409521,370.102971,383.047749
1417.634340,-7624.121203,962.267725,-2298.286494
1417.634661,-7624.121203,1998.556043,-919.314598
1417.634982,-11621.233289,1184.329507,3294.210641
1417.635302,-11843.295072,-1850.514855,4366.744339
1417.635623,-10510.924376,-2294.638420,2604.724693
1417.635944,-9770.718434,-370.102971,2145.067394
1417.636264,-10584.944971,-592.164754,4366.744339
1417.636585,-10510.924376,-666.185348,4366.744339
1417.636906,-8956.491898,148.041188,2451.505594
1417.637227,-7105.977043,74.020594,-919.314598
1417.637547,-7476.080014,1480.411884,-766.095498
1417.637868,-9030.512492,74.020594,2145.067394
1417.638189,-9696.697840,-1776.494261,1685.410096
1417.638509,-8882.471304,888.247130,1149.143247
1417.638830,-10732.986159,962.267725,1378.971896
1417.639151,-10362.883188,2590.720797,4979.620737
1417.639472,-11621.233289,-1406.391290,4519.963438
1417.639792,-10288.862594,-2590.720797,2834.553343
1417.640113,-9030.512492,-2368.659014,-1149.143247
1417.640434,-9400.615463,592.164754,-1149.143247
1417.640754,-9326.594869,-1184.329507,689.485948
1417.641075,-8142.265362,-1184.329507,-995.924147
1417.641396,-8364.327145,518.144159,-2451.505594
1417.641717,-10140.821405,962.267725,-1762.019645
1417.642037,-9770.718434,2368.659014,2451.505594
1417.642358,-11843.295072,-2886.803174,2145.067394
1417.642679,-9696.697840,-1850.514855,1225.752797
1417.643000,-10288.862594,-1850.514855,-1608.800546
1417.643320,-9326.594869,1998.556043,842.705048
1417.643641,-9770.718434,-444.123565,1762.019645
1417.643962,-9104.533087,-2072.576638,0.000000
1417.644282,-8068.244768,-962.267725,-2374.896044
1417.644603,-8734.430116,1776.494261,-1072.533697
1417.644924,-9918.759623,1702.473667,2604.724693
1417.645245,-10807.006753,-1850.514855,1685.410096
1417.645565,-9104.533087,-888.247130,459.657299
1417.645886,-10140.821405,-1480.411884,-612.876398
1417.646207,-9252.574275,2146.597232,1608.800546
1417.646527,-10510.924376,-962.267725,3294.210641
1417.646848,-8586.388927,-1332.370696,76.609550
1417.647169,-8216.285956,74.020594,-1072.533697
1417.647490,-9104.533087,1332.370696,76.609550
1417.647810,-9252.574275,3034.844362,3524.039291
1417.648131,-10140.821405,-2368.659014,1685.410096
1417.648452,-6957.935855,740.205942,459.657299
1417.648772,-11843.295072,-1110.308913,919.314598
1417.649093,-9992.780217,1110.308913,3447.429741
1417.649414,-9770.718434,-2368.659014,3983.696590
1417.649735,-9622.677246,-2960.823768,1608.800546
1417.650055,-7772.162391,-814.226536,-383.047749
1417.650376,-11547.212695,1776.494261,2451.505594
1417.650697,-10140.821405,3034.844362,6894.859482
1417.651018,-9622.677246,-1258.350101,4596.572988
1417.651338,-11103.089130,-1332.370696,3983.696590
1417.651659,-9326.594869,-4219.173869,383.047749
1417.651980,-8512.368333,-1184.329507,612.876398
1417.652300,-7846.182985,-1036.288319,1149.143247
1417.652621,-6587.832884,0.000000,-842.705048
1417.652942,-7624.121203,2072.576638,-1991.848295
1417.653263,-10214.842000,962.267725,1455.581446
1417.653583,-10881.027347,666.185348,3140.991542
1417.653904,-12953.603985,-4663.297435,3677.258390
1417.654225,-10732.986159,-4441.235652,2604.724693
1417.654545,-10436.903782,-2294.638420,1915.238745
1417.654866,-11325.150913,-592.164754,3677.258390
1417.655187,-8734.430116,-1332.370696,1838.629195
1417.655508,-8142.265362,-2220.617826,-1455.581446
1417.655828,-7105.977043,-888.247130,-3524.039291
1417.656149,-8660.409521,1924.535449,-2145.067394
1417.656470,-10510.924376,2072.576638,383.047749
1417.656790,-10140.821405,0.000000,0.000000
1417.657111,-9548.656652,-518.144159,-2221.676944
1417.657432,-9918.759623,0.000000,-995.924147
1417.657753,-12805.562797,1258.350101,2451.505594
1417.658073,-10732.986159,-2590.720797,3524.039291
1417.658394,-9844.739029,-2664.741391,1149.143247
1417.658715,-7920.203579,0.000000,-2068.457845
1417.659036,-9548.656652,2294.638420,-1608.800546
1417.659356,-8734.430116,1924.535449,-1532.190996
1417.659677,-8512.368333,1480.411884,-766.095498
1417.659998,-7328.038826,-2738.761985,-2681.334243
1417.660318,-7920.203579,-1702.473667,-1762.019645
1417.660639,-10584.944971,-2442.679609,1838.629195
1417.660960,-12731.542202,-3478.967927,3064.381992
1417.661281,-10584.944971,-370.102971,612.876398
1417.661601,-10955.047942,740.205942,1991.848295
1417.661922,-11177.109724,2886.803174,3217.601092
1417.662243,-9474.636058,2072.576638,2068.457845
1417.662563,-10288.862594,-1924.535449,0.000000
1417.662884,-6217.729913,-666.185348,-1608.800546
1417.663205,-9030.512492,-740.205942,-919.314598
1417.663526,-8956.491898,0.000000,1685.410096
1417.663846,-9992.780217,0.000000,2528.115143
1417.664167,-10214.842000,0.000000,1455.581446
1417.664488,-8808.450710,1406.391290,2374.896044
1417.664808,-12435.459826,-296.082377,4903.011187
1417.665129,-10288.862594,-1924.535449,4903.011187
1417.665450,-10362.883188,-2664.741391,3217.601092
1417.665771,-7920.203579,-740.205942,0.000000
1417.666091,-7031.956449,666.185348,-229.828649
1417.666412,-7772.162391,1850.514855,2221.676944
1417.666733,-10362.883188,-666.185348,1762.019645
1417.667054,-8586.388927,518.144159,1455.581446
1417.667374,-11991.336260,0.000000,3524.039291
1417.667695,-11103.089130,444.123565,5515.887586
1417.668016,-12213.398043,-3182.885551,4979.620737
1417.668336,-11325.150913,-2146.597232,3064.381992
1417.668657,-7772.162391,148.041188,0.000000
1417.668978,-8586.388927,1554.432478,-153.219100
1417.669299,-8808.450710,814.226536,2068.457845
1417.669619,-8142.265362,-1480.411884,-1685.410096
1417.669940,-8660.409521,-444.123565,-2757.943793
1417.670261,-8808.450710,2072.576638,-2145.067394
1417.670581,-11473.192101,3108.864956,2221.676944
1417.670902,-11399.171507,-444.123565,3370.820191
1417.671223,-10658.965565,-1924.535449,2221.676944
1417.671544,-10584.944971,-3627.009116,536.266849
1417.671864,-9030.512492,-2368.659014,-1302.362347
1417.672185,-9844.739029,-1702.473667,153.219100
1417.672506,-9474.636058,0.000000,-2145.067394
1417.672826,-7772.162391,1480.411884,-2681.334243
1417.673147,-9474.636058,2294.638420,-1685.410096
1417.673468,-7698.141797,3256.906145,612.876398
1417.673789,-10510.924376,-3330.926739,-153.219100
1417.674109,-10140.821405,-1332.370696,995.924147
1417.674430,-10362.883188,-1480.411884,919.314598
1417.674751,-11621.233289,-1998.556043,1455.581446
1417.675072,-9326.594869,740.205942,3064.381992
1417.675392,-11251.130318,-2812.782580,689.485948
1417.675713,-6439.791695,-962.267725,-1915.238745
1417.676034,-10732.986159,740.205942,306.438199
1417.676354,-9326.594869,1406.391290,2221.676944
1417.676675,-9474.636058,-1110.308913,536.266849
1417.676996,-8882.471304,-1110.308913,612.876398
1417.677317,-8956.491898,-1036.288319,612.876398
1417.677637,-10658.965565,518.144159,3140.991542
1417.677958,-11769.274478,-1184.329507,4903.011187
1417.678279,-8586.388927,-1998.556043,1838.629195
1417.678599,-9030.512492,-1258.350101,229.828649
1417.678920,-9992.780217,1184.329507,1225.752797
1417.679241,-10436.903782,2368.659014,4290.134789
1417.679562,-9992.780217,0.000000,3524.039291
1417.679882,-8438.347739,-592.164754,2145.067394
1417.680203,-9474.636058,-1332.370696,536.266849
1417.680524,-9326.594869,222.061783,2221.676944
1417.680844,-10362.883188,-1702.473667,3447.429741
1417.681165,-8808.450710,-1110.308913,2374.896044
1417.681486,-8586.388927,-222.061783,842.705048
1417.681807,-10732.986159,0.000000,1072.533697
1417.682127,-8364.327145,370.102971,1762.019645
1417.682448,-10584.944971,-518.144159,2757.943793
1417.682769,-10362.883188,-888.247130,3677.258390
1417.683090,-9548.656652,-1628.453072,1608.800546
1417.683410,-12361.439231,-1628.453072,4749.792088
1417.683731,-10362.883188,-3034.844362,1225.752797
1417.684052,-9252.574275,-3182.885551,-995.924147
1417.684372,-6883.915261,666.185348,-2911.162892
1417.684693,-8512.368333,3627.009116,-1302.362347
1417.685014,-8956.491898,3478.967927,-689.485948
1417.685335,-8808.450710,-1480.411884,-1378.971896
1417.685655,-7772.162391,-1480.411884,-2451.505594
1417.685976,-11103.089130,-1480.411884,-1915.238745
1417.686297,-10214.842000,148.041188,1455.581446
1417.686617,-10807.006753,370.102971,2451.505594
1417.686938,-8438.347739,-444.123565,0.000000
1417.687259,-9548.656652,1850.514855,76.609550
1417.687580,-12139.377449,2738.761985,1915.238745
1417.687900,-10584.944971,740.205942,2911.162892
1417.688221,-9622.677246,-1406.391290,-612.876398
1417.688542,-8956.491898,444.123565,-459.657299
1417.688862,-9622.677246,-740.205942,-1455.581446
1417.689183,-8364.327145,-666.185348,1685.410096
1417.689504,-9252.574275,-4663.297435,-229.828649
1417.689825,-7550.100608,-2442.679609,-2374.896044
1417.690145,-8512.368333,74.020594,-1608.800546
1417.690466,-12805.562797,2886.803174,3753.867940
1417.690787,-11917.315666,1628.453072,4290.134789
1417.691108,-9474.636058,1036.288319,2068.457845
1417.691428,-11029.068536,-222.061783,0.000000
1417.691749,-8068.244768,1036.288319,-383.047749
1417.692070,-11177.109724,-1258.350101,1378.971896
1417.692390,-9252.574275,-3256.906145,229.828649
1417.692711,-5403.503377,-592.164754,-3447.429741
1417.693032,-8290.306550,518.144159,-1838.629195
1417.693353,-10510.924376,4145.153275,3983.696590
1417.693673,-10584.944971,1184.329507,4749.792088
1417.693994,-11769.274478,-1628.453072,4673.182538
1417.694315,-9548.656652,-1924.535449,1762.019645
1417.694635,-11029.068536,-962.267725,2757.943793
1417.694956,-11473.192101,-148.041188,6588.421283
1417.695277,-9918.759623,-1924.535449,4443.353888
1417.695598,-6957.935855,-1628.453072,306.438199
1417.695918,-7254.018232,-1332.370696,-1455.581446
1417.696239,-7105.977043,1776.494261,689.485948
1417.696560,-9474.636058,0.000000,2451.505594
1417.696880,-10584.944971,-888.247130,2298.286494
1417.697201,-8364.327145,-740.205942,919.314598
1417.697522,-10807.006753,-1036.288319,306.438199
1417.697843,-10732.986159,-148.041188,3677.258390
1417.698163,-10955.047942,-2368.659014,2681.334243
1417.698484,-9326.594869,-1924.535449,383.047749
1417.698805,-10584.944971,-1628.453072,-2451.505594
1417.699125,-7031.956449,6809.894666,612.876398
1417.699446,-13619.789333,-2368.659014,1225.752797
1417.699767,-8068.244768,1332.370696,2757.943793
1417.700088,-9400.615463,-2812.782580,-1608.800546
1417.700408,-10436.903782,-2886.803174,-689.485948
1417.700729,-8438.347739,-2072.576638,-229.828649
1417.701050,-10732.986159,-2368.659014,919.314598
1417.701371,-10066.800811,222.061783,689.485948
1417.701691,-8586.388927,1036.288319,-1915.238745
1417.702012,-11103.089130,4663.297435,1455.581446
1417.702333,-9400.615463,0.000000,842.705048
1417.702653,-9400.615463,-1776.494261,-1378.971896
1417.702974,-9104.533087,74.020594,0.000000
1417.703295,-10732.986159,-1776.494261,766.095498
1417.703616,-9400.615463,-518.144159,1685.410096
1417.703936,-10436.903782,-2368.659014,1608.800546
1417.704257,-8216.285956,-1998.556043,229.828649
1417.704578,-9104.533087,1258.350101,0.000000
1417.704898,-12879.583391,740.205942,3600.648841
1417.705219,-7624.121203,-296.082377,1455.581446
1417.705540,-8512.368333,-518.144159,-229.828649
1417.705861,-9474.636058,222.061783,-2145.067394
1417.706181,-9474.636058,1702.473667,1838.629195
1417.706502,-9918.759623,-666.185348,3064.381992
1417.706823,-8808.450710,-2220.617826,1302.362347
1417.707143,-7846.182985,-592.164754,-459.657299
1417.707464,-12287.418637,666.185348,2145.067394
1417.707785,-9918.759623,2960.823768,4903.011187
1417.708106,-10584.944971,-296.082377,3370.820191
1417.708426,-9178.553681,-1258.350101,1225.752797
1417.708747,-7105.977043,-1480.411884,-1532.190996
1417.709068,-8142.265362,-148.041188,229.828649
1417.709389,-9474.636058,-1406.391290,1149.143247
1417.709709,-7328.038826,666.185348,383.047749
1417.710030,-9474.636058,740.205942,1532.190996
1417.710351,-11251.130318,-666.185348,2528.115143
1417.710671,-11177.109724,-962.267725,4673.182538
1417.710992,-11177.109724,-4367.215058,3217.601092
1417.711313,-9918.759623,-1776.494261,1378.971896
1417.711634,-9548.656652,1110.308913,1072.533697
1417.711954,-10140.821405,1628.453072,2604.724693
1417.712275,-8364.327145,-814.226536,842.705048
1417.712596,-7179.997637,-1776.494261,-2604.724693
1417.712916,-8142.265362,-1406.391290,-3064.381992
1417.713237,-9992.780217,814.226536,153.219100
1417.713558,-10140.821405,1480.411884,3370.820191
1417.713879,-11991.336260,-444.123565,2145.067394
1417.714199,-9326.594869,1554.432478,2145.067394
1417.714520,-9844.739029,296.082377,229.828649
1417.714841,-11251.130318,1110.308913,3830.477490
1417.715162,-11103.089130,-3404.947333,3140.991542
1417.715483,-9474.636058,-3108.864956,306.438199
1417.715803,-9400.615463,-1184.329507,-2528.115143
1417.716124,-8660.409521,3034.844362,-1915.238745
1417.716445,-9178.553681,3330.926739,1378.971896
1417.716766,-8660.409521,74.020594,-306.438199
1417.717087,-7105.977043,740.205942,-1762.019645
1417.717407,-10436.903782,-1998.556043,-1072.533697
1417.717728,-10066.800811,-1776.494261,1762.019645
1417.718049,-12435.459826,-4145.153275,3217.601092
1417.718370,-10658.965565,-2516.700203,2221.676944
1417.718691,-9400.615463,222.061783,842.705048
1417.719011,-9696.697840,2812.782580,1685.410096
1417.719332,-9326.594869,1480.411884,2681.334243
1417.719653,-9474.636058,-2220.617826,612.876398
1417.719974,-8512.368333,-1702.473667,-1455.581446
1417.720295,-8586.388927,-1258.350101,-1608.800546
1417.720615,-9844.739029,0.000000,2068.457845
1417.720936,-9770.718434,-814.226536,2528.115143
1417.721257,-8586.388927,0.000000,842.705048
1417.721578,-9770.718434,370.102971,1072.533697
1417.721899,-10510.924376,1406.391290,2068.457845
1417.722219,-10881.027347,-444.123565,4366.744339
1417.722540,-10510.924376,-2368.659014,1608.800546
1417.722861,-9622.677246,0.000000,2298.286494
1417.723182,-9844.739029,370.102971,1378.971896
1417.723502,-7920.203579,1776.494261,4060.306139
1417.723823,-10510.924376,-3478.967927,1685.410096
1417.724144,-7031.956449,-1258.350101,-766.095498
1417.724465,-8512.368333,0.000000,-1225.752797
1417.724786,-9918.759623,1480.411884,2298.286494
1417.725106,-8364.327145,74.020594,3370.820191
1417.725427,-11769.274478,-962.267725,1991.848295
1417.725748,-9104.533087,-962.267725,689.485948
1417.726069,-10732.986159,74.020594,153.219100
1417.726390,-11473.192101,1554.432478,4366.744339
1417.726710,-9400.615463,-666.185348,1685.410096
1417.727031,-8586.388927,962.267725,-919.314598
1417.727352,-7846.182985,1480.411884,-2145.067394
1417.727673,-9548.656652,1776.494261,-689.485948
1417.727994,-10436.903782,666.185348,2528.115143
1417.728314,-11029.068536,-3182.885551,306.438199
1417.728635,-8808.450710,-962.267725,1762.019645
1417.728956,-11621.233289,-1628.453072,919.314598
1417.729277,-10881.027347,0.000000,2604.724693
1417.729598,-11251.130318,-3108.864956,383.047749
1417.729918,-6809.894666,-1110.308913,-1838.629195
1417.730239,-9770.718434,370.102971,-2145.067394
1417.730560,-9400.615463,2590.720797,1302.362347
1417.730881,-8512.368333,-962.267725,-229.828649
1417.731202,-9400.615463,-962.267725,306.438199
1417.731522,-9992.780217,-1258.350101,-1149.143247
1417.731843,-9252.574275,444.123565,1149.143247
1417.732164,-10955.047942,-1258.350101,2528.115143
1417.732485,-8142.265362,-1998.556043,995.924147
1417.732805,-9844.739029,-2516.700203,-383.047749
1417.733126,-8734.430116,1998.556043,-229.828649
1417.733447,-10362.883188,1924.535449,2911.162892
1417.733768,-8438.347739,-592.164754,3370.820191
1417.734089,-7476.080014,0.000000,153.219100
1417.734409,-8586.388927,-592.164754,-995.924147
1417.734730,-9178.553681,1036.288319,1685.410096
1417.735051,-10955.047942,-370.102971,4213.525239
1417.735372,-9474.636058,-1332.370696,2528.115143
1417.735693,-8438.347739,-1702.473667,1072.533697
1417.736013,-10288.862594,1036.288319,1608.800546
1417.736334,-9770.718434,2220.617826,3677.258390
1417.736655,-10955.047942,74.020594,3064.381992
1417.736976,-9326.594869,1036.288319,1838.629195
1417.737297,-8586.388927,74.020594,-153.219100
1417.737617,-9844.739029,0.000000,766.095498
1417.737938,-9474.636058,-1036.288319,2834.553343
1417.738259,-9844.739029,-1036.288319,1455.581446
1417.738580,-8956.491898,0.000000,1149.143247
1417.738901,-10510.924376,1110.308913,1762.019645
1417.739221,-10732.986159,1184.329507,4136.915689
1417.739542,-10807.006753,-3478.967927,2374.896044
1417.739863,-8882.471304,-3034.844362,1225.752797
1417.740184,-8586.388927,-4737.318029,-919.314598
1417.740504,-8808.450710,-1702.473667,383.047749
1417.740825,-8956.491898,-592.164754,0.000000
1417.741146,-9178.553681,0.000000,-1072.533697
1417.741467,-7772.162391,1924.535449,-766.095498
1417.741788,-10436.903782,592.164754,1072.533697
1417.742108,-11991.336260,0.000000,3830.477490
1417.742429,-11769.274478,-3182.885551,2451.505594
1417.742750,-10510.924376,-1702.473667,1149.143247
1417.743071,-11029.068536,-222.061783,995.924147
1417.743392,-9252.574275,1110.308913,1685.410096
1417.743712,-8882.471304,-1480.411884,689.485948
1417.744033,-7698.141797,-1702.473667,-1532.190996
1417.744354,-7179.997637,-2442.679609,-3677.258390
1417.744675,-7550.100608,1036.288319,-1608.800546
1417.744996,-10807.006753,2146.597232,2757.943793
1417.745316,-9696.697840,1332.370696,2221.676944
1417.745637,-10658.965565,222.061783,2145.067394
1417.745958,-9696.697840,-1036.288319,995.924147
1417.746279,-10584.944971,-2664.741391,1455.581446
1417.746600,-10288.862594,-4293.194464,1149.143247
1417.746920,-9770.718434,-1406.391290,612.876398
1417.747241,-9104.533087,1036.288319,-459.657299
1417.747562,-10362.883188,2590.720797,2145.067394
1417.747883,-9696.697840,0.000000,1532.190996
1417.748204,-9622.677246,-592.164754,229.828649
1417.748524,-9474.636058,-962.267725,-1532.190996
1417.748845,-9474.636058,-296.082377,76.609550
1417.749166,-10140.821405,296.082377,1915.238745
1417.749487,-10732.986159,-2072.576638,1762.019645
1417.749807,-8216.285956,-1258.350101,-536.266849
1417.750128,-9474.636058,1184.329507,0.000000
1417.750449,-11325.150913,2812.782580,2221.676944
1417.750770,-11029.068536,1184.329507,3907.087040
1417.751091,-10807.006753,-888.247130,3140.991542
1417.751411,-9252.574275,-1702.473667,1149.143247
1417.751732,-9400.615463,-592.164754,153.219100
1417.752053,-10140.821405,222.061783,2528.115143
1417.752374,-9474.636058,-222.061783,1762.019645
1417.752695,-8512.368333,740.205942,153.219100
1417.753015,-9622.677246,592.164754,0.000000
1417.753336,-10214.842000,1110.308913,1302.362347
1417.753657,-11251.130318,-2072.576638,2604.724693
1417.753978,-9770.718434,-1628.453072,1149.143247
1417.754299,-9326.594869,-148.041188,1072.533697
1417.754619,-9844.739029,666.185348,995.924147
1417.754940,-9548.656652,148.041188,2528.115143
1417.755261,-9474.636058,-2146.597232,229.828649
1417.755582,-7698.141797,-1406.391290,-1991.848295
1417.755903,-8216.285956,222.061783,-2604.724693
1417.756223,-9474.636058,3552.988522,153.219100
1417.756544,-9474.636058,1628.453072,1608.800546
1417.756865,-9918.759623,0.000000,306.438199
1417.757186,-9400.615463,-592.164754,76.609550
1417.757507,-11251.130318,-1332.370696,1149.143247
1417.757827,-10066.800811,-1110.308913,2987.772442
1417.758148,-10510.924376,-2886.803174,1302.362347
1417.758469,-7476.080014,74.020594,-536.266849
1417.758790,-8216.285956,3552.988522,-995.924147
1417.759110,-9474.636058,1850.514855,536.266849
1417.759431,-7328.038826,888.247130,0.000000
1417.759752,-10732.986159,-814.226536,536.266849
1417.760073,-9326.594869,222.061783,459.657299
1417.760394,-11177.109724,-370.102971,3064.381992
1417.760714,-12139.377449,-1184.329507,5745.716235
1417.761035,-10140.821405,-3330.926739,2221.676944
1417.761356,-9252.574275,-1924.535449,0.000000
1417.761677,-9770.718434,3330.926739,919.314598
1417.761998,-10140.821405,3330.926739,2374.896044
1417.762318,-9474.636058,1258.350101,1378.971896
1417.762639,-9178.553681,-222.061783,0.000000
1417.762960,-6883.915261,-740.205942,-766.095498
1417.763281,-10732.986159,222.061783,1302.362347
1417.763602,-11177.109724,-962.267725,3983.696590
1417.763922,-10584.944971,-2590.720797,2987.772442
1417.764243,-9252.574275,-2516.700203,1608.800546
1417.764564,-9844.739029,-444.123565,1378.971896
1417.764885,-9770.718434,1628.453072,3600.648841
1417.765206,-10584.944971,-962.267725,2681.334243
1417.765526,-7254.018232,962.267725,1225.752797
1417.765847,-9622.677246,-1628.453072,-1762.019645
1417.766168,-8068.244768,296.082377,1225.752797
1417.766489,-11325.150913,-1998.556043,2757.943793
1417.766810,-8438.347739,-2442.679609,1991.848295
1417.767130,-9622.677246,-3701.029710,-536.266849
1417.767451,-9030.512492,0.000000,536.266849
1417.767772,-10362.883188,518.144159,995.924147
1417.768093,-10584.944971,444.123565,4290.134789
1417.768413,-12065.356855,-1554.432478,1762.019645
1417.768734,-6069.688724,-2368.659014,-1225.752797
1417.769055,-10362.883188,-2516.700203,-1608.800546
1417.769376,-9400.615463,-740.205942,1455.581446
1417.769697,-7698.141797,-2368.659014,-1532.190996
1417.770017,-8364.327145,222.061783,153.219100
1417.770338,-7698.141797,1924.535449,-1302.362347
1417.770659,-10510.924376,1036.288319,842.705048
1417.770980,-10955.047942,-2146.597232,2834.553343
1417.771301,-9400.615463,-1998.556043,-1302.362347
1417.771621,-10955.047942,-1110.308913,0.000000
1417.771942,-9918.759623,666.185348,1378.971896
1417.772263,-7624.121203,-444.123565,-995.924147
1417.772584,-9178.553681,-888.247130,-2604.724693
1417.772905,-7105.977043,888.247130,-1532.190996
1417.773225,-10066.800811,1406.391290,1302.362347
1417.773546,-11621.233289,-444.123565,3983.696590
1417.773867,-12139.377449,-2146.597232,3370.820191
1417.774188,-10288.862594,-296.082377,1762.019645
1417.774509,-12805.562797,-1110.308913,1762.019645
1417.774829,-9252.574275,2072.576638,4903.011187
1417.775150,-10140.821405,-4293.194464,2834.553343
1417.775471,-6291.750507,-2812.782580,-3294.210641
1417.775792,-8364.327145,-1850.514855,-1455.581446
1417.776113,-8512.368333,592.164754,-229.828649
1417.776433,-11103.089130,2812.782580,4366.744339
1417.776754,-9474.636058,296.082377,3294.210641
1417.777075,-10140.821405,-592.164754,229.828649
1417.777396,-9104.533087,2072.576638,1455.581446
1417.777716,-13101.645173,222.061783,4213.525239
1417.778037,-10436.903782,-2368.659014,4519.963438
1417.778358,-9474.636058,-1332.370696,1225.752797
1417.778679,-8290.306550,-1184.329507,-1455.581446
1417.779000,-8512.368333,3997.112087,689.485948
1417.779320,-10214.842000,2368.659014,4903.011187
1417.779641,-9770.718434,296.082377,4596.572988
1417.779962,-9622.677246,-962.267725,2451.505594
1417.780283,-10288.862594,-2368.659014,612.876398
1417.780604,-9770.718434,-592.164754,2451.505594
1417.780924,-9400.615463,-2072.576638,1608.800546
1417.781245,-7846.182985,444.123565,919.314598
1417.781566,-7698.141797,3552.988522,0.000000
1417.781887,-9474.636058,2146.597232,229.828649
1417.782208,-8808.450710,-222.061783,919.314598
1417.782528,-10658.965565,-2368.659014,-612.876398
1417.782849,-9252.574275,-1036.288319,-689.485948
1417.783170,-11473.192101,370.102971,1838.629195
1417.783491,-11473.192101,1258.350101,4213.525239
1417.783812,-10288.862594,-1406.391290,689.485948
1417.784132,-9326.594869,-1628.453072,-1225.752797
1417.784453,-9474.636058,370.102971,-1762.019645
1417.784774,-10362.883188,814.226536,-1149.143247
1417.785095,-10140.821405,962.267725,536.266849
1417.785416,-9696.697840,-74.020594,-689.485948
1417.785736,-9326.594869,370.102971,-1302.362347
1417.786057,-12139.377449,740.205942,842.705048
1417.786378,-9400.615463,-1258.350101,1455.581446
1417.786699,-10140.821405,-3256.906145,-383.047749
1417.787019,-9326.594869,-1850.514855,-1762.019645
1417.787340,-8068.244768,592.164754,-2911.162892
1417.787661,-9474.636058,2516.700203,-459.657299
1417.787982,-8216.285956,2738.761985,1149.143247
1417.788303,-9252.574275,-148.041188,0.000000
1417.788623,-11029.068536,-2812.782580,-612.876398
1417.788944,-9400.615463,-1480.411884,1149.143247
1417.789265,-10881.027347,-3552.988522,2528.115143
1417.789586,-10510.924376,-1406.391290,2987.772442
1417.789907,-10214.842000,-1480.411884,2068.457845
1417.790227,-8438.347739,1776.494261,459.657299
1417.790548,-9622.677246,1850.514855,2911.162892
1417.790869,-8290.306550,370.102971,2298.286494
1417.791190,-8734.430116,-2960.823768,1149.143247
1417.791511,-7772.162391,-2368.659014,-766.095498
1417.791831,-9178.553681,-296.082377,2145.067394
1417.792152,-9104.533087,-2220.617826,3370.820191
1417.792473,-9696.697840,-3627.009116,2604.724693
1417.792794,-7254.018232,-518.144159,1072.533697
1417.793115,-10881.027347,814.226536,2374.896044
1417.793435,-10214.842000,2368.659014,5209.449386
1417.793756,-10807.006753,0.000000,4903.011187
1417.794077,-9770.718434,-1184.329507,2068.457845
1417.794398,-8438.347739,-1406.391290,-383.047749
1417.794719,-8734.430116,518.144159,1302.362347
1417.795039,-10510.924376,-74.020594,2145.067394
1417.795360,-8660.409521,-888.247130,1838.629195
1417.795681,-10066.800811,-222.061783,1302.362347
1417.796002,-10362.883188,-222.061783,1608.800546
1417.796322,-9992.780217,0.000000,3140.991542
1417.796643,-10510.924376,-1776.494261,2528.115143
1417.796964,-8068.244768,-1998.556043,0.000000
1417.797285,-9252.574275,-740.205942,-766.095498
1417.797606,-9400.615463,296.082377,612.876398
1417.797926,-9918.759623,-814.226536,919.314598
1417.798247,-11917.315666,-444.123565,1838.629195
1417.798568,-10510.924376,-1702.473667,-612.876398
1417.798889,-9918.759623,1406.391290,-383.047749
1417.799210,-11103.089130,740.205942,1838.629195
1417.799530,-9474.636058,814.226536,995.924147
1417.799851,-9992.780217,-962.267725,-919.314598
1417.800172,-8586.388927,296.082377,-2374.896044
1417.800493,-9622.677246,1258.350101,-1225.752797
1417.800814,-9326.594869,-962.267725,0.000000
1417.801134,-9474.636058,-1554.432478,-689.485948
1417.801455,-7772.162391,0.000000,-1685.410096
1417.801776,-11177.109724,1036.288319,-536.266849
1417.802097,-9622.677246,1850.514855,2298.286494
1417.802418,-10658.965565,-814.226536,1762.019645
1417.802738,-8734.430116,-962.267725,-612.876398
1417.803059,-8364.327145,444.123565,-1225.752797
1417.803380,-9770.718434,148.041188,1225.752797
1417.803701,-8956.491898,-1554.432478,766.095498
1417.804021,-8216.285956,-1628.453072,-612.876398
1417.804342,-7772.162391,0.000000,-1991.848295
1417.804663,-8956.491898,2368.659014,1532.190996
1417.804984,-10732.986159,518.144159,3983.696590
1417.805305,-10436.903782,-814.226536,2757.943793
1417.805625,-8660.409521,0.000000,1762.019645
1417.805946,-10732.986159,-1406.391290,1072.533697
1417.806267,-9252.574275,1480.411884,4213.525239
1417.806588,-10214.842000,-1554.432478,2528.115143
1417.806909,-8068.244768,-666.185348,459.657299
1417.807229,-7550.100608,666.185348,0.000000
1417.807550,-9770.718434,1406.391290,1685.410096
1417.807871,-9326.594869,1924.535449,3907.087040
1417.808192,-10955.047942,-1406.391290,3140.991542
1417.808513,-9104.533087,-1332.370696,2451.505594
1417.808833,-9770.718434,-370.102971,3064.381992
1417.809154,-11917.315666,-1036.288319,5362.668486
1417.809475,-10436.903782,-3478.967927,4136.915689
1417.809796,-9474.636058,-2960.823768,383.047749
1417.810117,-7698.141797,444.123565,-1532.190996
1417.810437,-9844.739029,4145.153275,919.314598
1417.810758,-10955.047942,3034.844362,5056.230287
1417.811079,-9918.759623,-2516.700203,3370.820191
1417.811400,-9696.697840,-3182.885551,612.876398
1417.811721,-10584.944971,-1998.556043,-76.609550
1417.812041,-11843.295072,-370.102971,4443.353888
1417.812362,-12361.439231,148.041188,6128.763984
1417.812683,-9548.656652,-2146.597232,1225.752797
1417.813004,-8364.327145,-74.020594,-2145.067394
1417.813327,-7550.100608,1554.432478,-1302.362347
1417.813648,-9104.533087,-1332.370696,-1915.238745
1417.813969,-9326.594869,-740.205942,-2221.676944
1417.814289,-7994.224174,444.123565,-2451.505594
1417.814610,-7846.182985,518.144159,-1072.533697
1417.814931,-9474.636058,-592.164754,995.924147
1417.815251,-11621.233289,-4071.132681,1608.800546
1417.815572,-10362.883188,-1776.494261,306.438199
1417.815892,-9918.759623,444.123565,1685.410096
1417.816213,-10066.800811,2738.761985,2451.505594
1417.816534,-9400.615463,-1184.329507,612.876398
1417.816854,-8660.409521,-1554.432478,-1915.238745
1417.817175,-7698.141797,-666.185348,-3064.381992
1417.817496,-8068.244768,-74.020594,-2451.505594
1417.817816,-7994.224174,1110.308913,995.924147
1417.818137,-11325.150913,-2960.823768,1915.238745
1417.818458,-8586.388927,-962.267725,-689.485948
1417.818778,-11399.171507,-296.082377,1149.143247
1417.819099,-10658.965565,1924.535449,3524.039291
1417.819420,-9548.656652,74.020594,3830.477490
1417.819740,-9548.656652,-2146.597232,1072.533697
1417.820061,-7179.997637,0.000000,-1762.019645
1417.820381,-8586.388927,0.000000,-766.095498
1417.820702,-8734.430116,444.123565,2145.067394
1417.821023,-9844.739029,-814.226536,2374.896044
1417.821343,-9252.574275,-518.144159,229.828649
1417.821664,-10288.862594,1480.411884,1762.019645
1417.821985,-11251.130318,2220.617826,4826.401637
1417.822305,-10807.006753,0.000000,5822.325785
1417.822626,-11769.274478,-1924.535449,4213.525239
1417.822947,-7476.080014,-666.185348,2987.772442
1417.823267,-8734.430116,-148.041188,919.314598
1417.823588,-9622.677246,518.144159,2987.772442
1417.823909,-9400.615463,-1110.308913,2604.724693
1417.824229,-8068.244768,-1110.308913,1532.190996
1417.824550,-8956.491898,0.000000,536.266849
1417.824871,-9548.656652,1776.494261,3064.381992
1417.825191,-11177.109724,-1406.391290,2834.553343
1417.825512,-10140.821405,-1036.288319,2374.896044
1417.825832,-9844.739029,-1036.288319,383.047749
1417.826153,-9474.636058,-666.185348,612.876398
1417.826474,-9622.677246,-1110.308913,1532.190996
1417.826794,-9696.697840,-2072.576638,76.609550
1417.827115,-9178.553681,370.102971,-459.657299
1417.827436,-10362.883188,2886.803174,766.095498
1417.827756,-9178.553681,2146.597232,1455.581446
1417.828077,-9178.553681,-1850.514855,-919.314598
1417.828398,-8882.471304,-1110.308913,-1762.019645
1417.828718,-7994.224174,1406.391290,-1685.410096
1417.829039,-10732.986159,2368.659014,1915.238745
1417.829360,-9844.739029,-1332.370696,2145.067394
1417.829680,-10584.944971,-2590.720797,-612.876398
1417.830001,-9622.677246,-1258.350101,-1149.143247
1417.830321,-10807.006753,-518.144159,383.047749
1417.830642,-10066.800811,1332.370696,4136.915689
1417.830963,-11177.109724,-2516.700203,1149.143247
1417.831283,-7846.182985,666.185348,0.000000
1417.831604,-8660.409521,-444.123565,-2834.553343
1417.831925,-9474.636058,-518.144159,1302.362347
1417.832245,-8438.347739,-2664.741391,995.924147
1417.832566,-8882.471304,-1332.370696,153.219100
1417.832887,-9326.594869,0.000000,-689.485948
1417.833207,-9992.780217,814.226536,919.314598
1417.833528,-9548.656652,666.185348,4443.353888
1417.833849,-11325.150913,-5773.606348,2221.676944
1417.834169,-7476.080014,-814.226536,-153.219100
1417.834490,-11251.130318,0.000000,76.609550
1417.834810,-9622.677246,2294.638420,2221.676944
1417.835131,-10807.006753,74.020594,2987.772442
1417.835452,-8142.265362,-518.144159,1149.143247
1417.835772,-8512.368333,-1184.329507,-1608.800546
1417.836093,-9844.739029,592.164754,536.266849
1417.836414,-9844.739029,444.123565,4290.134789
1417.836734,-10362.883188,-3034.844362,2757.943793
1417.837055,-9622.677246,1332.370696,2374.896044
1417.837376,-10881.027347,814.226536,2604.724693
1417.837696,-8882.471304,-148.041188,4366.744339
1417.838017,-9474.636058,-1702.473667,3600.648841
1417.838338,-10510.924376,-2442.679609,1149.143247
1417.838658,-8142.265362,1184.329507,-229.828649
1417.838979,-10436.903782,3404.947333,1302.362347
1417.839299,-8882.471304,3108.864956,3753.867940
1417.839620,-9696.697840,370.102971,2068.457845
1417.839941,-9178.553681,-2664.741391,0.000000
1417.840261,-9992.780217,-1554.432478,766.095498
1417.840582,-10955.047942,-1850.514855,1915.238745
1417.840903,-9770.718434,-2590.720797,2757.943793
1417.841223,-9252.574275,-1258.350101,76.609550
1417.841544,-8364.327145,1036.288319,-1685.410096
1417.841865,-8216.285956,3701.029710,-766.095498
1417.842185,-9104.533087,2960.823768,536.266849
1417.842506,-8586.388927,296.082377,536.266849
1417.842827,-10807.006753,-2590.720797,-306.438199
1417.843147,-11695.253884,-962.267725,536.266849
1417.843468,-10510.924376,-1184.329507,1991.848295
1417.843789,-8734.430116,-2442.679609,1532.190996
1417.844109,-9474.636058,-592.164754,2298.286494
1417.844430,-9770.718434,-1036.288319,-229.828649
1417.844750,-10510.924376,1406.391290,1532.190996
1417.845071,-8882.471304,-592.164754,76.609550
1417.845392,-7105.977043,-740.205942,-1455.581446
1417.845712,-8586.388927,-518.144159,-2298.286494
1417.846033,-7031.956449,4293.194464,-1608.800546
1417.846354,-9474.636058,-296.082377,995.924147
1417.846674,-6809.894666,-2368.659014,0.000000
1417.846995,-8364.327145,-4293.194464,-383.047749
1417.847316,-11177.109724,-2516.700203,153.219100
1417.847636,-11695.253884,962.267725,4060.306139
1417.847957,-10732.986159,666.185348,2911.162892
1417.848278,-8808.450710,1036.288319,2145.067394
1417.848598,-10140.821405,-888.247130,-153.219100
1417.848919,-9030.512492,370.102971,0.000000
1417.849239,-10732.986159,-2072.576638,1685.410096
1417.849560,-8290.306550,-1628.453072,0.000000
1417.849881,-7920.203579,-592.164754,-153.219100
1417.850201,-10214.842000,592.164754,-306.438199
1417.850522,-11251.130318,3775.050304,3753.867940
1417.850843,-12583.501014,1628.453072,4213.525239
1417.851163,-10436.903782,74.020594,2911.162892
1417.851484,-10362.883188,-1184.329507,1762.019645
1417.851805,-10066.800811,592.164754,2298.286494
1417.852125,-9770.718434,-592.164754,3524.039291
1417.852446,-9178.553681,-1184.329507,1915.238745
1417.852767,-6291.750507,74.020594,-1762.019645
1417.853087,-8364.327145,1776.494261,-1762.019645
1417.853408,-8586.388927,2590.720797,1762.019645
1417.853728,-10288.862594,0.000000,2528.115143
1417.854049,-11029.068536,-2812.782580,2604.724693
1417.854370,-9548.656652,-2294.638420,536.266849
1417.854690,-11991.336260,-148.041188,4136.915689
1417.855011,-12139.377449,-1628.453072,6128.763984
1417.855332,-9548.656652,-2442.679609,3524.039291
1417.855652,-8216.285956,-2368.659014,-766.095498
1417.855973,-7698.141797,518.144159,-1608.800546
1417.856294,-8734.430116,1702.473667,1455.581446
1417.856614,-9696.697840,-1702.473667,229.828649
1417.856935,-7920.203579,-1998.556043,-1149.143247
1417.857256,-8660.409521,-592.164754,-1762.019645
1417.857576,-9474.636058,1554.432478,919.314598
1417.857897,-11177.109724,-740.205942,2987.772442
1417.858217,-10066.800811,-2442.679609,459.657299
1417.858538,-7994.224174,-444.123565,-995.924147
1417.858859,-10584.944971,518.144159,-383.047749
1417.859179,-9474.636058,1850.514855,2451.505594
1417.859500,-9622.677246,-592.164754,1685.410096
1417.859821,-8882.471304,-222.061783,-612.876398
1417.860141,-7550.100608,740.205942,-3064.381992
1417.860462,-9548.656652,3034.844362,0.000000
1417.860783,-9696.697840,1110.308913,2604.724693
1417.861103,-10510.924376,-2368.659014,229.828649
1417.861424,-10807.006753,-1480.411884,1072.533697
1417.861745,-11177.109724,-2368.659014,1149.143247
1417.862065,-9622.677246,-1258.350101,3677.258390
1417.862386,-10807.006753,-2368.659014,3524.039291
1417.862706,-7550.100608,-1924.535449,995.924147
1417.863027,-8808.450710,0.000000,-1149.143247
1417.863348,-9918.759623,1110.308913,689.485948
1417.863668,-8216.285956,444.123565,995.924147
1417.863989,-10362.883188,-1036.288319,459.657299
1417.864310,-9030.512492,-1110.308913,-153.219100
1417.864630,-9474.636058,888.247130,1991.848295
1417.864951,-10955.047942,-1554.432478,2604.724693
1417.865272,-9474.636058,-518.144159,2757.943793
1417.865592,-11103.089130,-2368.659014,1991.848295
1417.865913,-9326.594869,0.000000,383.047749
1417.866234,-10658.965565,2072.576638,2757.943793
1417.866554,-8882.471304,444.123565,3064.381992
1417.866875,-9104.533087,-740.205942,612.876398
1417.867196,-8808.450710,0.000000,153.219100
1417.867516,-10066.800811,1628.453072,1378.971896
1417.867837,-10288.862594,888.247130,3217.601092
1417.868157,-9104.533087,-1554.432478,2757.943793
1417.868478,-9104.533087,-2294.638420,919.314598
1417.868799,-10214.842000,-1628.453072,842.705048
1417.869119,-9844.739029,0.000000,2374.896044
1417.869440,-9844.739029,-1480.411884,1991.848295
1417.869761,-8216.285956,-1184.329507,0.000000
1417.870081,-7920.203579,296.082377,-306.438199
1417.870402,-10732.986159,148.041188,0.000000
1417.870723,-8882.471304,-1258.350101,1532.190996
1417.871043,-9696.697840,-1702.473667,-536.266849
1417.871364,-9252.574275,518.144159,0.000000
1417.871685,-11325.150913,370.102971,-229.828649
1417.872005,-10584.944971,1036.288319,2681.334243
1417.872326,-9992.780217,-2516.700203,383.047749
1417.872646,-7476.080014,-1702.473667,-1915.238745
1417.872967,-9770.718434,-1628.453072,-1685.410096
1417.873288,-9770.718434,592.164754,1225.752797
1417.873608,-9918.759623,74.020594,1915.238745
1417.873929,-9030.512492,-888.247130,-536.266849
1417.874250,-8290.306550,-148.041188,-1225.752797
1417.874570,-9400.615463,1110.308913,-612.876398
1417.874891,-9696.697840,518.144159,2145.067394
1417.875212,-8364.327145,-666.185348,1532.190996
1417.875532,-9326.594869,-1998.556043,-1072.533697
1417.875853,-9178.553681,518.144159,-919.314598
1417.876174,-10584.944971,1554.432478,1455.581446
1417.876494,-9400.615463,0.000000,2987.772442
1417.876815,-10510.924376,-444.123565,3370.820191
1417.877135,-10066.800811,-1480.411884,2298.286494
1417.877456,-10584.944971,-1332.370696,1608.800546
1417.877777,-11325.150913,-1036.288319,3600.648841
1417.878097,-9252.574275,-1258.350101,1072.533697
1417.878418,-7105.977043,1258.350101,-842.705048
1417.878739,-8364.327145,1998.556043,-1378.971896
1417.879059,-7254.018232,3552.988522,612.876398
1417.879380,-10140.821405,0.000000,1149.143247
1417.879701,-9400.615463,-1924.535449,1302.362347
1417.880021,-10658.965565,-1554.432478,1915.238745
1417.880342,-10658.965565,962.267725,3370.820191
1417.880663,-12361.439231,74.020594,6358.592633
1417.880983,-10881.027347,-814.226536,3753.867940
1417.881304,-9474.636058,444.123565,1532.190996
1417.881624,-8808.450710,148.041188,0.000000
1417.881945,-7920.203579,814.226536,612.876398
1417.882266,-9548.656652,-1332.370696,1225.752797
1417.882586,-9178.553681,-3849.070898,-612.876398
1417.882907,-7105.977043,-2590.720797,-2221.676944
1417.883228,-11177.109724,-148.041188,-153.219100
1417.883548,-10807.006753,-296.082377,3983.696590
1417.883869,-11177.109724,-1776.494261,2451.505594
1417.884190,-9030.512492,-1184.329507,-306.438199
1417.884510,-8290.306550,592.164754,-2987.772442
1417.884831,-8660.409521,2442.679609,-1302.362347
1417.885152,-9252.574275,370.102971,153.219100
1417.885472,-8216.285956,1406.391290,689.485948
1417.885793,-9474.636058,-518.144159,689.485948
1417.886114,-10066.800811,-2442.679609,2528.115143
1417.886434,-10955.047942,-2960.823768,3677.258390
1417.886755,-12287.418637,-3256.906145,3064.381992
1417.887075,-8956.491898,1036.288319,1455.581446
1417.887396,-10658.965565,3775.050304,1532.190996
1417.887717,-7994.224174,3034.844362,995.924147
1417.888037,-8216.285956,-148.041188,-536.266849
1417.888358,-8364.327145,-740.205942,-1608.800546
1417.888679,-9104.533087,-2368.659014,-2221.676944
1417.888999,-7179.997637,3552.988522,459.657299
1417.889320,-12435.459826,-444.123565,2068.457845
1417.889641,-8956.491898,888.247130,2681.334243
1417.889961,-9622.677246,-2368.659014,1072.533697
1417.890282,-9918.759623,0.000000,3064.381992
1417.890603,-9400.615463,-1036.288319,2068.457845
1417.890923,-8956.491898,-2812.782580,1532.190996
1417.891244,-9696.697840,-3182.885551,76.609550
1417.891564,-7328.038826,-814.226536,-689.485948
1417.891885,-10955.047942,370.102971,1838.629195
1417.892206,-8586.388927,-3034.844362,1991.848295
1417.892526,-8290.306550,-1110.308913,612.876398
1417.892847,-10288.862594,0.000000,1378.971896
1417.893168,-12731.542202,888.247130,2681.334243
1417.893488,-9400.615463,1924.535449,4136.915689
1417.893809,-10732.986159,-2146.597232,2451.505594
1417.894130,-7698.141797,-148.041188,459.657299
1417.894450,-9770.718434,1776.494261,766.095498
1417.894771,-9696.697840,1036.288319,3140.991542
1417.895092,-7772.162391,-444.123565,2221.676944
1417.895412,-9400.615463,-1850.514855,1378.971896
1417.895733,-8142.265362,-1702.473667,536.266849
1417.896053,-10881.027347,888.247130,1149.143247
1417.896374,-9474.636058,2146.597232,3983.696590
1417.896695,-10288.862594,-962.267725,1762.019645
1417.897015,-8956.491898,666.185348,689.485948
1417.897336,-10658.965565,-370.102971,0.000000
1417.897657,-10436.903782,518.144159,2374.896044
1417.897977,-9622.677246,-2294.638420,1378.971896
1417.898298,-8216.285956,-1554.432478,-1762.019645
1417.898619,-8734.430116,296.082377,-1915.238745
1417.898939,-9030.512492,2590.720797,-766.095498
1417.899260,-10807.006753,1924.535449,2221.676944
1417.899581,-10658.965565,-1258.350101,689.485948
1417.899901,-8586.388927,-1702.473667,76.609550
1417.900222,-10955.047942,-592.164754,-536.266849
1417.900542,-10362.883188,814.226536,2298.286494
1417.900863,-10214.842000,-2368.659014,-153.219100
1417.901184,-8068.244768,370.102971,-1225.752797
1417.901504,-8068.244768,592.164754,-2145.067394
1417.901825,-9548.656652,1184.329507,-229.828649
1417.902146,-9474.636058,1036.288319,1762.019645
1417.902466,-10436.903782,-1184.329507,0.000000
1417.902787,-9474.636058,962.267725,-766.095498
1417.903108,-10510.924376,1406.391290,1455.581446
1417.903428,-10807.006753,-1184.329507,3294.210641
1417.903749,-8734.430116,-1998.556043,612.876398
1417.904070,-9400.615463,-1776.494261,1225.752797
1417.904390,-8216.285956,222.061783,-536.266849
1417.904711,-8956.491898,3108.864956,1838.629195
1417.905032,-9770.718434,-1184.329507,2987.772442
1417.905352,-6661.853478,-592.164754,76.609550
1417.905673,-8290.306550,-222.061783,383.047749
1417.905993,-9844.739029,74.020594,2374.896044
1417.906314,-10066.800811,-1036.288319,5132.839837
1417.906635,-9474.636058,-1924.535449,3753.867940
1417.906955,-9992.780217,-2220.617826,1532.190996
1417.907276,-7105.977043,1406.391290,459.657299
1417.907597,-9622.677246,1258.350101,2451.505594
1417.907917,-10510.924376,0.000000,3677.258390
1417.908238,-7920.203579,-1110.308913,3677.258390
1417.908559,-8660.409521,-1036.288319,1608.800546
1417.908879,-11621.233289,-666.185348,4060.306139
1417.909200,-10658.965565,-1258.350101,6052.154434
1417.909521,-12583.501014,-3182.885551,4903.011187
1417.909841,-9622.677246,-2368.659014,2221.676944
1417.910162,-8734.430116,0.000000,-383.047749
1417.910482,-9770.718434,1776.494261,1991.848295
1417.910803,-7179.997637,222.061783,995.924147
1417.911124,-8290.306550,-444.123565,-1302.362347
1417.911444,-9104.533087,-1554.432478,-1072.533697
1417.911765,-8660.409521,-1850.514855,-1915.238745
1417.912086,-10807.006753,-1554.432478,1762.019645
1417.912406,-10436.903782,-2516.700203,2604.724693
1417.912727,-10140.821405,518.144159,842.705048
1417.913048,-12287.418637,1480.411884,1455.581446
1417.913368,-9992.780217,2294.638420,1072.533697
1417.913689,-10510.924376,-888.247130,536.266849
1417.914009,-10658.965565,-1702.473667,76.609550
1417.914330,-8660.409521,-1036.288319,-1915.238745
1417.914650,-9770.718434,0.000000,-153.219100
1417.914971,-10881.027347,-1184.329507,1225.752797
1417.915292,-9918.759623,-1998.556043,153.219100
1417.915612,-9400.615463,-2738.761985,-1838.629195
1417.915933,-10140.821405,1702.473667,-1455.581446
1417.916253,-9548.656652,3182.885551,995.924147
1417.916574,-9252.574275,0.000000,0.000000
1417.916895,-8364.327145,222.061783,-2451.505594
1417.917215,-6957.935855,962.267725,-2987.772442
1417.917536,-8808.450710,0.000000,-1991.848295
1417.917856,-8882.471304,-888.247130,1608.800546
1417.918177,-10955.047942,-2812.782580,995.924147
1417.918498,-10955.047942,-1554.432478,1302.362347
1417.918818,-12879.583391,592.164754,3907.087040
1417.919139,-10732.986159,2294.638420,5362.668486
1417.919459,-10584.944971,-1554.432478,2757.943793
1417.919780,-7402.059420,-1480.411884,383.047749
1417.920100,-7402.059420,148.041188,-995.924147
1417.920421,-8438.347739,222.061783,689.485948
1417.920742,-7105.977043,-888.247130,689.485948
1417.921062,-7698.141797,-1480.411884,0.000000
1417.921383,-10066.800811,-962.267725,766.095498
1417.921703,-9252.574275,1702.473667,2374.896044
1417.922024,-10140.821405,2664.741391,5515.887586
1417.922345,-11177.109724,-888.247130,4519.963438
1417.922665,-9992.780217,-1110.308913,2681.334243
1417.922986,-10362.883188,-888.247130,2068.457845
1417.923306,-8734.430116,-370.102971,2068.457845
1417.923627,-9252.574275,-370.102971,2757.943793
1417.923948,-9178.553681,-296.082377,1225.752797
1417.924268,-8438.347739,444.123565,459.657299
1417.924589,-9770.718434,1480.411884,1532.190996
1417.924909,-10584.944971,-296.082377,4136.915689
1417.925230,-10584.944971,-2072.576638,2451.505594
1417.925551,-9696.697840,-1850.514855,995.924147
1417.925871,-11029.068536,-1628.453072,1532.190996
1417.926192,-10066.800811,1258.350101,3217.601092
1417.926512,-11399.171507,-814.226536,2451.505594
1417.926833,-9030.512492,-1406.391290,-842.705048
1417.927153,-7920.203579,296.082377,-2604.724693
1417.927474,-10584.944971,962.267725,-995.924147
1417.927795,-10140.821405,1628.453072,0.000000
1417.928115,-11177.109724,-1332.370696,842.705048
1417.928436,-8956.491898,-1776.494261,-689.485948
1417.928756,-10214.842000,-1628.453072,-766.095498
1417.929077,-10658.965565,-518.144159,1838.629195
1417.929398,-11177.109724,-1628.453072,1838.629195
1417.929718,-9474.636058,-666.185348,-306.438199
1417.930039,-8364.327145,1702.473667,-1762.019645
1417.930359,-9400.615463,3701.029710,-1532.190996
1417.930680,-7254.018232,2220.617826,-612.876398
1417.931001,-7846.182985,-74.020594,-2298.286494
1417.931321,-8512.368333,-444.123565,-2681.334243
1417.931642,-8660.409521,-962.267725,-459.657299
1417.931962,-11769.274478,-1110.308913,2834.553343
1417.932283,-11843.295072,-2516.700203,5132.839837
1417.932603,-10584.944971,-3775.050304,1302.362347
1417.932924,-10140.821405,-444.123565,1225.752797
1417.933245,-10510.924376,1702.473667,1532.190996
1417.933565,-8882.471304,1258.350101,2528.115143
1417.933886,-7994.224174,-2368.659014,-229.828649
1417.934206,-6365.771101,-962.267725,-1455.581446
1417.934527,-8808.450710,-1776.494261,-919.314598
1417.934848,-9030.512492,0.000000,2374.896044
1417.935168,-10658.965565,-1480.411884,3294.210641
1417.935489,-9474.636058,-444.123565,3370.820191
1417.935809,-10288.862594,-740.205942,3064.381992
1417.936130,-10584.944971,962.267725,5975.544884
1417.936451,-10288.862594,-222.061783,3907.087040
1417.936771,-9474.636058,-1332.370696,1915.238745
1417.937092,-8216.285956,296.082377,1072.533697
1417.937412,-8956.491898,666.185348,1225.752797
1417.937733,-9474.636058,222.061783,2528.115143
1417.938054,-9548.656652,-1332.370696,1838.629195
1417.938374,-9030.512492,-740.205942,919.314598
1417.938695,-10881.027347,1184.329507,2757.943793
1417.939015,-12065.356855,370.102971,4136.915689
1417.939336,-10807.006753,-444.123565,4519.963438
1417.939656,-10066.800811,-2442.679609,1608.800546
1417.939977,-9178.553681,-2146.597232,-306.438199
1417.940298,-9918.759623,518.144159,-459.657299
1417.940618,-11029.068536,962.267725,3140.991542
1417.940939,-10066.800811,592.164754,2068.457845
1417.941259,-8882.471304,-148.041188,0.000000
1417.941580,-9548.656652,-1406.391290,-1608.800546
1417.941901,-8808.450710,740.205942,-689.485948
1417.942221,-10732.986159,-1110.308913,-383.047749
1417.942542,-7920.203579,814.226536,-1838.629195
1417.942862,-7846.182985,814.226536,-2911.162892
1417.943183,-9400.615463,1184.329507,-2681.334243
1417.943504,-9178.553681,296.082377,153.219100
1417.943824,-11325.150913,-1998.556043,459.657299
1417.944145,-9474.636058,-962.267725,153.219100
1417.944465,-10955.047942,-740.205942,76.609550
1417.944786,-11547.212695,962.267725,2987.772442
1417.945106,-9178.553681,-1628.453072,536.266849
1417.945427,-9548.656652,-592.164754,383.047749
1417.945748,-8586.388927,296.082377,-2221.676944
1417.946068,-9252.574275,74.020594,-2145.067394
1417.946389,-9844.739029,888.247130,0.000000
1417.946709,-11547.212695,222.061783,383.047749
1417.947030,-8216.285956,-1332.370696,76.609550
1417.947351,-9474.636058,-1036.288319,-1149.143247
1417.947671,-10362.883188,-518.144159,2834.553343
1417.947992,-10066.800811,-3256.906145,1532.190996
1417.948312,-9178.553681,-2368.659014,1532.190996
1417.948633,-8290.306550,962.267725,919.314598
1417.948954,-10288.862594,3775.050304,1915.238745
1417.949274,-8068.244768,1924.535449,2604.724693
1417.949595,-9992.780217,-222.061783,1302.362347
1417.949915,-6439.791695,0.000000,459.657299
1417.950236,-9548.656652,-1036.288319,2681.334243
1417.950557,-11473.192101,-1036.288319,4213.525239
1417.950877,-11473.192101,-444.123565,5822.325785
1417.951198,-10362.883188,-444.123565,3447.429741
1417.951518,-9474.636058,1628.453072,3753.867940
1417.951839,-10066.800811,-148.041188,2221.676944
1417.952159,-9326.594869,-592.164754,3217.601092
1417.952480,-9474.636058,-1850.514855,1225.752797
1417.952801,-7031.956449,222.061783,536.266849
1417.953121,-9474.636058,518.144159,2681.334243
1417.953442,-8956.491898,0.000000,2911.162892
1417.953762,-9400.615463,-2146.597232,1225.752797
1417.954083,-10140.821405,-1036.288319,1378.971896
1417.954404,-8882.471304,-1332.370696,766.095498
1417.954724,-10362.883188,814.226536,2604.724693
1417.955045,-10066.800811,-2072.576638,1915.238745
1417.955365,-8660.409521,-888.247130,-612.876398
1417.955686,-8660.409521,1110.308913,-842.705048
1417.956007,-9992.780217,74.020594,459.657299
1417.956327,-9252.574275,-222.061783,1762.019645
1417.956648,-10807.006753,-4219.173869,-153.219100
1417.956968,-8438.347739,-2886.803174,-1991.848295
1417.957289,-10288.862594,-1480.411884,-842.705048
1417.957609,-9770.718434,-148.041188,1072.533697
1417.957930,-10732.986159,-962.267725,1532.190996
1417.958251,-9474.636058,444.123565,0.000000
1417.958571,-8216.285956,370.102971,-995.924147
1417.958892,-9400.615463,962.267725,-1302.362347
1417.959212,-8956.491898,-370.102971,-229.828649
1417.959533,-9474.636058,-1036.288319,-1225.752797
1417.959854,-9474.636058,518.144159,0.000000
1417.960174,-9030.512492,1258.350101,-459.657299
1417.960495,-10362.883188,1332.370696,1991.848295
1417.960815,-11251.130318,-2220.617826,919.314598
1417.961136,-9400.615463,-1110.308913,-306.438199
1417.961457,-9622.677246,74.020594,-153.219100
1417.961777,-9400.615463,2516.700203,1225.752797
1417.962098,-8956.491898,-814.226536,1149.143247
1417.962418,-7476.080014,-518.144159,-1378.971896
1417.962739,-8660.409521,-370.102971,-1838.629195
1417.963060,-9844.739029,1332.370696,995.924147
1417.963380,-10955.047942,1776.494261,4826.401637
1417.963701,-12435.459826,-1776.494261,5132.839837
1417.964021,-10436.903782,-1628.453072,536.266849
1417.964342,-9918.759623,-370.102971,383.047749
1417.964662,-10066.800811,1850.514855,1915.238745
1417.964983,-8438.347739,2220.617826,1915.238745
1417.965304,-9770.718434,592.164754,229.828649
1417.965624,-7772.162391,888.247130,-842.705048
1417.965945,-9104.533087,1480.411884,-612.876398
1417.966265,-9770.718434,666.185348,3217.601092
1417.966586,-10214.842000,-2516.700203,2451.505594
1417.966907,-9622.677246,-74.020594,1455.581446
1417.967227,-9844.739029,-1110.308913,1838.629195
1417.967548,-9992.780217,666.185348,2681.334243
1417.967868,-10362.883188,0.000000,3370.820191
1417.968189,-9770.718434,-888.247130,1225.752797
1417.968510,-8364.327145,962.267725,-842.705048
1417.968830,-9400.615463,1924.535449,-536.266849
1417.969151,-9104.533087,1554.432478,1225.752797
1417.969471,-9770.718434,-370.102971,76.609550
1417.969792,-8956.491898,370.102971,-1608.800546
1417.970112,-9326.594869,1702.473667,-1455.581446
1417.970433,-9918.759623,4885.359217,229.828649
1417.970754,-10955.047942,2664.741391,2221.676944
1417.971074,-9918.759623,0.000000,689.485948
1417.971395,-8734.430116,148.041188,-1991.848295
1417.971715,-10288.862594,0.000000,-2834.553343
1417.972036,-10140.821405,1702.473667,-1072.533697
1417.972357,-9400.615463,592.164754,-1532.190996
1417.972677,-8290.306550,1110.308913,-2911.162892
1417.972998,-8364.327145,1850.514855,-3447.429741
1417.973318,-9548.656652,3404.947333,-3217.601092
1417.973639,-11695.253884,3552.988522,0.000000
1417.973960,-10881.027347,2590.720797,-2068.457845
1417.974280,-9918.759623,3404.947333,-2834.553343
1417.974601,-10436.903782,3775.050304,-1915.238745
1417.974921,-9326.594869,4441.235652,-766.095498
1417.975242,-11325.150913,1184.329507,1225.752797
1417.975563,-10214.842000,-1258.350101,-612.876398
1417.975883,-9400.615463,-2664.741391,-3753.867940
1417.976204,-9030.512492,0.000000,-3830.477490
1417.976524,-8512.368333,4293.194464,-1225.752797
1417.976845,-9548.656652,3256.906145,0.000000
1417.977165,-9252.574275,3256.906145,-1072.533697
1417.977486,-8290.306550,2072.576638,-2681.334243
1417.977807,-9548.656652,592.164754,-2604.724693
1417.978127,-12287.418637,666.185348,536.266849
1417.978448,-11325.150913,1998.556043,2068.457845
1417.978768,-10732.986159,1332.370696,-153.219100
1417.979089,-9252.574275,2960.823768,-766.095498
1417.979410,-7846.182985,3404.947333,-3140.991542
1417.979730,-8142.265362,3256.906145,-1991.848295
1417.980051,-10288.862594,3034.844362,0.000000
1417.980371,-9104.533087,2368.659014,-689.485948
1417.980692,-9400.615463,962.267725,-459.657299
1417.981013,-8882.471304,-148.041188,-612.876398
1417.981333,-9326.594869,518.144159,612.876398
1417.981654,-11177.109724,0.000000,2604.724693
1417.981974,-9030.512492,2368.659014,1072.533697
1417.982295,-10436.903782,2738.761985,1608.800546
1417.982615,-9474.636058,740.205942,-153.219100
1417.982936,-8586.388927,1554.432478,-766.095498
1417.983257,-10658.965565,1480.411884,0.000000
1417.983577,-10955.047942,1332.370696,-2604.724693
1417.983898,-8660.409521,4219.173869,-766.095498
1417.984218,-10288.862594,2812.782580,-1225.752797
1417.984539,-9104.533087,3256.906145,-2451.505594
1417.984860,-10140.821405,3182.885551,-1915.238745
1417.985180,-9770.718434,2368.659014,-1072.533697
1417.985501,-9844.739029,2738.761985,-1608.800546
1417.985821,-10732.986159,1184.329507,-459.657299
1417.986142,-10436.903782,0.000000,0.000000
1417.986463,-9696.697840,444.123565,-842.705048
1417.986783,-9548.656652,592.164754,-1838.629195
1417.987104,-8364.327145,2590.720797,-2221.676944
1417.987424,-9474.636058,3330.926739,-2221.676944
1417.987745,-9326.594869,2368.659014,-1149.143247
1417.988066,-9178.553681,888.247130,-1762.019645
1417.988386,-8734.430116,-148.041188,-3447.429741
1417.988707,-9104.533087,444.123565,-3140.991542
1417.989027,-10362.883188,2368.659014,-1532.190996
1417.989348,-10288.862594,2664.741391,0.000000
1417.989668,-10658.965565,1406.391290,-306.438199
1417.989989,-9326.594869,1110.308913,-1685.410096
1417.990310,-9770.718434,222.061783,-2451.505594
1417.990630,-9622.677246,222.061783,-766.095498
1417.990951,-9474.636058,2442.679609,-1532.190996
1417.991271,-9178.553681,3849.070898,-2221.676944
1417.991592,-9178.553681,4737.318029,-2298.286494
1417.991913,-8882.471304,4663.297435,-2298.286494
1417.992233,-10066.800811,1406.391290,-1149.143247
1417.992554,-10362.883188,1332.370696,-153.219100
1417.992874,-10288.862594,370.102971,-842.705048
1417.993195,-9548.656652,1776.494261,-612.876398
1417.993516,-10140.821405,1776.494261,229.828649
1417.993836,-9696.697840,2146.597232,612.876398
1417.994157,-10362.883188,1628.453072,995.924147
1417.994477,-9474.636058,1924.535449,306.438199
1417.994798,-9770.718434,0.000000,0.000000
1417.995118,-9770.718434,296.082377,-1225.752797
1417.995439,-9548.656652,666.185348,-1072.533697
1417.995760,-8734.430116,2072.576638,-1378.971896
1417.996080,-9622.677246,3775.050304,-1149.143247
1417.996401,-9474.636058,3108.864956,0.000000
1417.996721,-9992.780217,1480.411884,153.219100
1417.997042,-10436.903782,888.247130,306.438199
1417.997363,-10807.006753,1036.288319,842.705048
1417.997683,-9622.677246,444.123565,459.657299
1417.998004,-9104.533087,740.205942,0.000000
1417.998324,-9104.533087,1480.411884,0.000000
1417.998645,-9400.615463,1480.411884,229.828649
1417.998966,-8882.471304,1998.556043,-612.876398
1417.999286,-9178.553681,1628.453072,-1072.533697
1417.999607,-9474.636058,2368.659014,-1378.971896
1417.999927,-9992.780217,2812.782580,-1378.971896
1418.000248,-10214.842000,2368.659014,-2145.067394
1418.000569,-9252.574275,3034.844362,-2451.505594
1418.000889,-9548.656652,3997.112087,-2528.115143
1418.001210,-10362.883188,5107.421000,-612.876398
1418.001530,-11029.068536,2960.823768,-306.438199
1418.001851,-9696.697840,1702.473667,-536.266849
1418.002171,-9474.636058,1776.494261,-1838.629195
1418.002492,-9770.718434,2072.576638,-383.047749
1418.002813,-9474.636058,740.205942,76.609550
1418.003133,-9030.512492,-740.205942,-1149.143247
1418.003454,-7920.203579,-666.185348,-3294.210641
1418.003774,-8068.244768,1332.370696,-3217.601092
1418.004095,-8808.450710,3108.864956,-1378.971896
1418.004416,-9326.594869,2072.576638,612.876398
1418.004736,-9548.656652,1480.411884,-1915.238745
1418.005057,-10066.800811,2072.576638,-1915.238745
1418.005377,-10881.027347,2368.659014,-689.485948
1418.005698,-11399.171507,1998.556043,153.219100
1418.006019,-11177.109724,148.041188,-459.657299
1418.006339,-9992.780217,296.082377,-2298.286494
1418.006660,-9474.636058,1480.411884,-3830.477490
1418.006980,-9326.594869,2960.823768,-3524.039291
1418.007301,-9770.718434,4737.318029,-2298.286494
1418.007621,-9844.739029,4219.173869,-1225.752797
1418.007942,-9622.677246,2516.700203,-842.705048
1418.008263,-9622.677246,740.205942,-612.876398
1418.008583,-9696.697840,-814.226536,-306.438199
1418.008904,-10362.883188,-666.185348,1378.971896
1418.009224,-10214.842000,-222.061783,1915.238745
1418.009545,-9474.636058,74.020594,1072.533697
1418.009866,-9104.533087,888.247130,-1072.533697
1418.010186,-8364.327145,2220.617826,-2374.896044
1418.010507,-8956.491898,3627.009116,-1532.190996
1418.010827,-10066.800811,4515.256246,-536.266849
1418.011148,-10584.944971,3701.029710,-459.657299
1418.011469,-10362.883188,3182.885551,-689.485948
1418.011789,-10214.842000,1480.411884,-1302.362347
1418.012110,-10362.883188,1184.329507,-612.876398
1418.012431,-10510.924376,1702.473667,76.609550
1418.012751,-9770.718434,2368.659014,-1225.752797
1418.013072,-9474.636058,2442.679609,0.000000
1418.013393,-9104.533087,962.267725,-383.047749
1418.013713,-8956.491898,-592.164754,-995.924147
1418.014034,-9104.533087,-1110.308913,-1378.971896
1418.014355,-8734.430116,444.123565,-1378.971896
1418.014675,-9104.533087,1776.494261,-2221.676944
1418.014996,-9474.636058,2960.823768,-1685.410096
1418.015317,-10140.821405,3997.112087,-1149.143247
1418.015638,-10214.842000,4219.173869,-459.657299
1418.015958,-10658.965565,4219.173869,-536.266849
1418.016279,-10732.986159,2590.720797,-383.047749
1418.016600,-10214.842000,666.185348,-459.657299
1418.016920,-9844.739029,-74.020594,-536.266849
1418.017241,-9400.615463,-222.061783,-229.828649
1418.017562,-8956.491898,0.000000,-153.219100
1418.017882,-9030.512492,74.020594,-76.609550
1418.018203,-8882.471304,74.020594,-612.876398
1418.018524,-9326.594869,814.226536,-1225.752797
1418.018845,-9474.636058,1554.432478,-1225.752797
1418.019165,-9326.594869,1998.556043,-1378.971896
1418.019486,-9400.615463,1998.556043,-2451.505594
1418.019807,-9326.594869,2516.700203,-2451.505594
1418.020127,-9992.780217,2960.823768,-2681.334243
1418.020448,-10510.924376,3701.029710,-2451.505594
1418.020769,-10584.944971,3775.050304,-1915.238745
1418.021089,-10881.027347,3849.070898,-1685.410096
1418.021410,-10807.006753,3330.926739,-229.828649
1418.021731,-10732.986159,2072.576638,383.047749
1418.022052,-9696.697840,1036.288319,306.438199
1418.022372,-9326.594869,-592.164754,153.219100
1418.022693,-8216.285956,-1554.432478,306.438199
1418.023014,-8660.409521,-1332.370696,-383.047749
1418.023334,-8808.450710,-148.041188,-766.095498
1418.023655,-8734.430116,1554.432478,-842.705048
1418.023976,-8956.491898,2590.720797,-1685.410096
1418.024296,-9474.636058,3627.009116,-1225.752797
1418.024617,-9844.739029,3478.967927,-1455.581446
1418.024938,-10214.842000,3256.906145,-1225.752797
1418.025258,-10658.965565,3034.844362,-612.876398
1418.025579,-10436.903782,2590.720797,-306.438199
1418.025900,-10510.924376,2220.617826,-459.657299
1418.026221,-10362.883188,1628.453072,-459.657299
1418.026541,-9844.739029,1184.329507,-306.438199
1418.026862,-9178.553681,148.041188,-383.047749
1418.027183,-9474.636058,74.020594,0.000000
1418.027503,-9178.553681,0.000000,-612.876398
1418.027824,-9326.594869,0.000000,-689.485948
1418.028145,-9030.512492,-296.082377,229.828649
1418.028465,-9178.553681,1480.411884,-1378.971896
1418.028786,-9474.636058,2516.700203,-1915.238745
1418.029107,-9474.636058,3849.070898,-2298.286494
1418.029428,-9696.697840,4589.276840,-2374.896044
1418.029748,-10214.842000,4811.338623,-2451.505594
1418.030069,-9992.780217,4737.318029,-2068.457845
1418.030390,-10140.821405,3478.967927,-1838.629195
1418.030710,-10436.903782,2516.700203,-1072.533697
1418.031031,-10584.944971,1776.494261,-919.314598
1418.031352,-10140.821405,370.102971,-536.266849
1418.031672,-9992.780217,370.102971,-306.438199
1418.031993,-9548.656652,74.020594,383.047749
1418.032314,-9474.636058,370.102971,612.876398
1418.032635,-8808.450710,666.185348,0.000000
1418.032955,-8808.450710,1036.288319,-536.266849
1418.033276,-8808.450710,1036.288319,-1072.533697
1418.033597,-8660.409521,1480.411884,-1072.533697
1418.033917,-9400.615463,2294.638420,-919.314598
1418.034238,-9622.677246,2590.720797,0.000000
1418.034559,-9992.780217,2368.659014,919.314598
1418.034879,-10362.883188,1036.288319,1455.581446
1418.035200,-9252.574275,1110.308913,153.219100
1418.035521,-9918.759623,-666.185348,995.924147
1418.035842,-9622.677246,-666.185348,1149.143247
1418.036162,-9104.533087,-740.205942,1225.752797
1418.036483,-8956.491898,-444.123565,995.924147
1418.036804,-8808.450710,-296.082377,689.485948
1418.037124,-9178.553681,74.020594,1072.533697
1418.037445,-9474.636058,74.020594,1072.533697
1418.037766,-9696.697840,888.247130,1608.800546
1418.038086,-10066.800811,1184.329507,1685.410096
1418.038407,-9770.718434,1924.535449,1455.581446
1418.038728,-9844.739029,2368.659014,766.095498
1418.039049,-9918.759623,2368.659014,306.438199
1418.039369,-8956.491898,2812.782580,-383.047749
1418.039690,-9770.718434,2294.638420,-383.047749
1418.040011,-9844.739029,2146.597232,-612.876398
1418.040331,-9918.759623,1628.453072,-689.485948
1418.040652,-10288.862594,1480.411884,-153.219100
1418.040973,-10436.903782,1406.391290,-229.828649
1418.041293,-10510.924376,1036.288319,-383.047749
1418.041614,-10436.903782,740.205942,-766.095498
1418.041935,-10288.862594,888.247130,-1762.019645
1418.042256,-9992.780217,1332.370696,-2604.724693
1418.042576,-9918.759623,2294.638420,-3294.210641
1418.042897,-9474.636058,2886.803174,-3753.867940
1418.043218,-9474.636058,2960.823768,-4596.572988
1418.043538,-8512.368333,3849.070898,-4903.011187
1418.043859,-9622.677246,3256.906145,-5439.278036
1418.044180,-9992.780217,3034.844362,-5132.839837
1418.044500,-10436.903782,2738.761985,-4979.620737
1418.044821,-10658.965565,2738.761985,-4673.182538
1418.045142,-10436.903782,2664.741391,-4136.915689
1418.045462,-10436.903782,2812.782580,-4290.134789
1418.045783,-10066.800811,2960.823768,-4213.525239
1418.046104,-9918.759623,3182.885551,-4136.915689
1418.046425,-9326.594869,3182.885551,-3447.429741
1418.046745,-9252.574275,2368.659014,-4060.306139
1418.047066,-8660.409521,3034.844362,-3753.867940
1418.047387,-9104.533087,2368.659014,-3447.429741
1418.047707,-7772.162391,3478.967927,-3370.820191
1418.048028,-8734.430116,3034.844362,-2451.505594
1418.048349,-9178.553681,3256.906145,-2068.457845
1418.048669,-9104.533087,3627.009116,-1915.238745
1418.048990,-9474.636058,3701.029710,-766.095498
1418.049311,-9622.677246,4145.153275,-153.219100
1418.049632,-9844.739029,3775.050304,153.219100
1418.049952,-10362.883188,3478.967927,1532.190996
1418.050273,-10066.800811,2294.638420,2451.505594
1418.050594,-9696.697840,1406.391290,2681.334243
1418.050914,-9770.718434,444.123565,3600.648841
1418.051235,-9474.636058,-370.102971,3064.381992
1418.051556,-8586.388927,-444.123565,2145.067394
1418.051876,-8586.388927,666.185348,2451.505594
1418.052197,-8512.368333,1998.556043,459.657299
1418.052518,-8882.471304,3923.091493,229.828649
1418.052839,-9622.677246,4663.297435,766.095498
1418.053159,-10140.821405,3997.112087,689.485948
1418.053480,-10658.965565,3330.926739,536.266849
1418.053801,-10955.047942,2516.700203,383.047749
1418.054121,-10955.047942,2738.761985,919.314598
1418.054442,-10881.027347,2886.803174,1225.752797
1418.054763,-10658.965565,2590.720797,1685.410096
1418.055083,-10288.862594,1776.494261,2221.676944
1418.055404,-9918.759623,0.000000,2068.457845
1418.055725,-9474.636058,-2146.597232,1532.190996
1418.056046,-8734.430116,-2516.700203,1915.238745
1418.056366,-8956.491898,-2368.659014,0.000000
1418.056687,-8586.388927,-1036.288319,-1072.533697
1418.057008,-8142.265362,222.061783,-1991.848295
1418.057328,-8660.409521,1850.514855,-1838.629195
1418.057649,-9252.574275,3108.864956,-4136.915689
1418.057970,-9992.780217,3849.070898,-4596.572988
1418.058290,-10584.944971,4293.194464,-4596.572988
1418.058611,-11103.089130,4811.338623,-4903.011187
1418.058932,-11103.089130,5107.421000,-3524.039291
1418.059253,-11325.150913,3701.029710,-2145.067394
1418.059573,-10881.027347,666.185348,-1532.190996
1418.059894,-10066.800811,-2072.576638,-1838.629195
1418.060215,-8882.471304,-3997.112087,-3370.820191
1418.060535,-8882.471304,-2886.803174,-2528.115143
1418.060856,-8512.368333,-1554.432478,-1991.848295
1418.061177,-7994.224174,-814.226536,-1915.238745
1418.061497,-7624.121203,-296.082377,-3140.991542
1418.061818,-8216.285956,0.000000,-4136.915689
1418.062139,-9104.533087,444.123565,-4519.963438
1418.062460,-9474.636058,2368.659014,-4443.353888
1418.062780,-11029.068536,5181.441594,-2757.943793
1418.063101,-10881.027347,6217.729913,-1762.019645
1418.063422,-11843.295072,4441.235652,-1378.971896
1418.063742,-11399.171507,2368.659014,-2298.286494
1418.064063,-10658.965565,1776.494261,-2834.553343
1418.064384,-11325.150913,2590.720797,1225.752797
1418.064704,-10658.965565,1184.329507,383.047749
1418.065025,-8882.471304,0.000000,-1225.752797
1418.065346,-6883.915261,444.123565,-1915.238745
1418.065667,-8142.265362,1702.473667,-459.657299
1418.065987,-9400.615463,1850.514855,3217.601092
1418.066308,-10362.883188,-1036.288319,4290.134789
1418.066629,-9178.553681,-2146.597232,2911.162892
1418.066949,-9696.697840,-888.247130,1225.752797
1418.067270,-10140.821405,1110.308913,3064.381992
1418.067591,-10436.903782,3478.967927,3370.820191
1418.067911,-10658.965565,4589.276840,2451.505594
1418.068232,-8586.388927,3849.070898,-1225.752797
1418.068553,-8882.471304,3849.070898,-1762.019645
1418.068873,-10214.842000,4589.276840,-306.438199
1418.069194,-10955.047942,4071.132681,1302.362347
1418.069515,-10510.924376,2072.576638,1455.581446
1418.069836,-9030.512492,814.226536,0.000000
1418.070156,-9252.574275,888.247130,-459.657299
1418.070477,-10732.986159,296.082377,459.657299
1418.070798,-9104.533087,962.267725,766.095498
1418.071118,-9474.636058,1702.473667,0.000000
1418.071439,-8956.491898,2664.741391,-995.924147
1418.071760,-9252.574275,2590.720797,-1302.362347
1418.072080,-9252.574275,962.267725,-995.924147
1418.072401,-8586.388927,666.185348,-2911.162892
1418.072722,-9326.594869,1036.288319,-2987.772442
1418.073043,-9474.636058,1776.494261,-3753.867940
1418.073363,-8882.471304,3330.926739,-3830.477490
1418.073684,-10140.821405,4145.153275,-3983.696590
1418.074005,-10658.965565,5625.565159,-2298.286494
1418.074325,-11769.274478,5329.482782,-1762.019645
1418.074646,-10436.903782,2960.823768,-2068.457845
1418.074967,-9844.739029,444.123565,-3217.601092
1418.075287,-10658.965565,-296.082377,-2681.334243
1418.075608,-9548.656652,0.000000,-2451.505594
1418.075929,-9474.636058,1480.411884,-2221.676944
1418.076250,-8586.388927,2738.761985,-2451.505594
1418.076570,-8956.491898,3552.988522,-3294.210641
1418.076891,-9104.533087,2516.700203,-3140.991542
1418.077212,-8956.491898,2886.803174,-3217.601092
1418.077532,-9622.677246,1924.535449,-3217.601092
1418.077853,-10066.800811,2072.576638,-2604.724693
1418.078174,-9844.739029,2368.659014,-1532.190996
1418.078494,-10732.986159,2812.782580,383.047749
1418.078815,-11695.253884,2368.659014,919.314598
1418.079136,-10807.006753,2294.638420,842.705048
1418.079457,-10362.883188,1628.453072,459.657299
1418.079777,-10288.862594,1702.473667,-306.438199
1418.080098,-9252.574275,2664.741391,-153.219100
1418.080419,-9326.594869,2368.659014,842.705048
1418.080739,-8068.244768,1850.514855,612.876398
1418.081060,-8734.430116,-370.102971,-383.047749
1418.081381,-8068.244768,-518.144159,-766.095498
1418.081701,-9844.739029,296.082377,-229.828649
1418.082022,-9844.739029,2146.597232,229.828649
1418.082343,-9252.574275,3923.091493,1072.533697
1418.082664,-10288.862594,3849.070898,766.095498
1418.082984,-10066.800811,2664.741391,536.266849
1418.083305,-10214.842000,666.185348,229.828649
1418.083626,-10436.903782,148.041188,383.047749
1418.083946,-11177.109724,2516.700203,-919.314598
1418.084267,-10288.862594,1258.350101,76.609550
1418.084588,-9474.636058,888.247130,383.047749
1418.084908,-8808.450710,-518.144159,-383.047749
1418.085229,-8068.244768,-666.185348,-536.266849
1418.085550,-9622.677246,-1480.411884,-306.438199
1418.085871,-9178.553681,1110.308913,459.657299
1418.086191,-10584.944971,2072.576638,1991.848295
1418.086512,-10881.027347,2368.659014,2145.067394
1418.086833,-8882.471304,148.041188,0.000000
1418.087153,-8364.327145,-1110.308913,-3753.867940
1418.087474,-7994.224174,296.082377,-4443.353888
1418.087795,-8438.347739,3701.029710,-4290.134789
1418.088115,-10140.821405,5403.503377,-919.314598
1418.088436,-9696.697840,2960.823768,-1685.410096
1418.088757,-9178.553681,1332.370696,-3294.210641
1418.089077,-10436.903782,-666.185348,-3983.696590
1418.089398,-11029.068536,370.102971,-2145.067394
1418.089719,-10732.986159,2812.782580,-153.219100
1418.090040,-12065.356855,2072.576638,919.314598
1418.090360,-9622.677246,888.247130,-842.705048
1418.090681,-9030.512492,0.000000,-2834.553343
1418.091002,-9474.636058,-1110.308913,-3753.867940
1418.091322,-8586.388927,1406.391290,-3447.429741
1418.091643,-9770.718434,2960.823768,-1532.190996
1418.091964,-9992.780217,2072.576638,-2451.505594
1418.092284,-8216.285956,3108.864956,-3753.867940
1418.092605,-10140.821405,1110.308913,-2911.162892
1418.092926,-9918.759623,3256.906145,-1378.971896
1418.093247,-11621.233289,3478.967927,0.000000
1418.093567,-11325.150913,2442.679609,842.705048
1418.093888,-9622.677246,1628.453072,-459.657299
1418.094209,-9770.718434,666.185348,-1225.752797
1418.094529,-9622.677246,2146.597232,-766.095498
1418.094850,-10658.965565,3108.864956,689.485948
1418.095171,-9696.697840,2072.576638,1302.362347
1418.095491,-8956.491898,2812.782580,0.000000
1418.095812,-10584.944971,666.185348,-383.047749
1418.096133,-8364.327145,1998.556043,76.609550
1418.096454,-11029.068536,3627.009116,2451.505594
1418.096774,-10658.965565,2960.823768,2451.505594
1418.097095,-7994.224174,2368.659014,-383.047749
1418.097416,-9844.739029,3330.926739,842.705048
1418.097736,-8660.409521,2664.741391,1378.971896
1418.098057,-9844.739029,2664.741391,2068.457845
1418.098378,-8808.450710,666.185348,2451.505594
1418.098698,-7698.141797,-222.061783,-919.314598
1418.099019,-9030.512492,1628.453072,0.000000
1418.099340,-9622.677246,1998.556043,1685.410096
1418.099661,-9770.718434,1850.514855,2451.505594
1418.099981,-10436.903782,1406.391290,2834.553343
1418.100302,-10436.903782,1110.308913,1378.971896
1418.100623,-10584.944971,1036.288319,2834.553343
1418.100943,-10658.965565,592.164754,1838.629195
1418.101264,-10362.883188,-592.164754,842.705048
1418.101585,-8142.265362,-666.185348,-2221.676944
1418.101905,-7624.121203,370.102971,-4136.915689
1418.102226,-8216.285956,1628.453072,-2451.505594
1418.102547,-8586.388927,666.185348,-1149.143247
1418.102868,-9992.780217,-2960.823768,-766.095498
1418.103188,-8808.450710,-296.082377,-1608.800546
1418.103509,-11547.212695,0.000000,-153.219100
1418.103830,-11473.192101,1184.329507,2068.457845
1418.104150,-11547.212695,-1332.370696,4136.915689
1418.104471,-9178.553681,-3849.070898,-1225.752797
1418.104792,-9252.574275,-1480.411884,-536.266849
1418.105112,-9992.780217,-3330.926739,-1685.410096
1418.105433,-9770.718434,0.000000,919.314598
1418.105754,-11621.233289,-1258.350101,2374.896044
1418.106075,-8068.244768,-1480.411884,-2451.505594
1418.106395,-7920.203579,-370.102971,-2604.724693
1418.106716,-8290.306550,592.164754,-1608.800546
1418.107037,-9548.656652,-518.144159,76.609550
1418.107357,-9474.636058,-1850.514855,-536.266849
1418.107678,-7846.182985,888.247130,-995.924147
1418.107999,-10658.965565,74.020594,306.438199
1418.108319,-11325.150913,962.267725,2604.724693
1418.108640,-10510.924376,-888.247130,3600.648841
1418.108961,-11177.109724,-1332.370696,2374.896044
1418.109281,-7920.203579,1036.288319,1762.019645
1418.109602,-11547.212695,-962.267725,3217.601092
1418.109923,-9030.512492,-2516.700203,3217.601092
1418.110244,-9178.553681,-5033.400406,-459.657299
1418.110564,-7698.141797,-1998.556043,153.219100
1418.110885,-7698.141797,296.082377,919.314598
1418.111206,-10510.924376,592.164754,2987.772442
1418.111526,-9844.739029,0.000000,4290.134789
1418.111847,-9918.759623,-1332.370696,842.705048
1418.112168,-9844.739029,740.205942,2451.505594
1418.112489,-11177.109724,222.061783,3753.867940
1418.112809,-10584.944971,814.226536,5132.839837
1418.113130,-9918.759623,-2072.576638,2451.505594
1418.113451,-8882.471304,0.000000,1149.143247
1418.113772,-8142.265362,-148.041188,1072.533697
1418.114092,-8882.471304,-370.102971,1072.533697
1418.114413,-9474.636058,296.082377,2834.553343
1418.114734,-9770.718434,-962.267725,766.095498
1418.115054,-8364.327145,74.020594,842.705048
1418.115375,-10510.924376,-370.102971,2451.505594
1418.115696,-9992.780217,-888.247130,3064.381992
1418.116017,-10955.047942,-2072.576638,3524.039291
1418.116337,-10066.800811,-222.061783,1608.800546
1418.116658,-9474.636058,148.041188,842.705048
1418.116979,-9548.656652,1554.432478,766.095498
1418.117300,-8734.430116,666.185348,689.485948
1418.117620,-9474.636058,518.144159,-1378.971896
1418.117941,-9104.533087,2220.617826,76.609550
1418.118262,-10362.883188,-148.041188,306.438199
1418.118582,-9400.615463,-1480.411884,1225.752797
1418.118903,-10955.047942,-4737.318029,-229.828649
1418.119224,-9474.636058,0.000000,-76.609550
1418.119545,-10066.800811,592.164754,229.828649
1418.119865,-9918.759623,1998.556043,1915.238745
1418.120186,-9104.533087,-1110.308913,766.095498
1418.120507,-6291.750507,-1628.453072,-4903.011187
1418.120828,-8068.244768,0.000000,-3524.039291
1418.121148,-9474.636058,814.226536,-1072.533697
1418.121469,-9474.636058,370.102971,995.924147
1418.121790,-11103.089130,-1110.308913,-153.219100
1418.122110,-10066.800811,1332.370696,383.047749
1418.122431,-11547.212695,0.000000,919.314598
1418.122752,-12287.418637,1258.350101,3830.477490
1418.123073,-9696.697840,-1036.288319,1225.752797
1418.123393,-8586.388927,0.000000,-1532.190996
1418.123714,-9030.512492,740.205942,766.095498
1418.124035,-8364.327145,222.061783,-306.438199
1418.124356,-10140.821405,-370.102971,2528.115143
1418.124676,-9474.636058,-2072.576638,1608.800546
1418.124997,-8216.285956,1184.329507,1072.533697
1418.125318,-11251.130318,888.247130,3064.381992
1418.125638,-9696.697840,1332.370696,4749.792088
1418.125959,-10288.862594,-1332.370696,3753.867940
1418.126280,-9400.615463,-1480.411884,2145.067394
1418.126601,-8808.450710,-962.267725,1302.362347
1418.126921,-9918.759623,444.123565,2987.772442
1418.127242,-8956.491898,-296.082377,3907.087040
1418.127563,-9844.739029,-1554.432478,1608.800546
1418.127884,-7846.182985,1998.556043,919.314598
1418.128204,-10214.842000,370.102971,1378.971896
1418.128525,-9622.677246,1924.535449,4136.915689
1418.128846,-9548.656652,-2368.659014,1762.019645
1418.129166,-10436.903782,-1184.329507,2298.286494
1418.129487,-9622.677246,-962.267725,2068.457845
1418.129808,-9770.718434,-666.185348,1762.019645
1418.130129,-8512.368333,-1110.308913,2451.505594
1418.130449,-9474.636058,-2072.576638,-995.924147
1418.130770,-7994.224174,518.144159,-766.095498
1418.131091,-9400.615463,-370.102971,229.828649
1418.131412,-8068.244768,-296.082377,1532.190996
1418.131732,-10140.821405,-3478.967927,919.314598
1418.132053,-11695.253884,-962.267725,1915.238745
1418.132374,-11177.109724,-1776.494261,2374.896044
1418.132695,-10658.965565,-888.247130,1225.752797
1418.133015,-9400.615463,-2072.576638,1685.410096
1418.133336,-8956.491898,-2960.823768,-1991.848295
1418.133657,-8586.388927,-148.041188,-1378.971896
1418.133977,-9030.512492,0.000000,-766.095498
1418.134298,-7698.141797,148.041188,-612.876398
1418.134619,-9178.553681,-2368.659014,-1762.019645
1418.134940,-8660.409521,-444.123565,-1991.848295
1418.135260,-9548.656652,1036.288319,-306.438199
1418.135581,-10881.027347,222.061783,1991.848295
1418.135902,-9178.553681,-1480.411884,766.095498
1418.136223,-9548.656652,-1036.288319,-1685.410096
1418.136543,-10362.883188,296.082377,-612.876398
1418.136864,-10807.006753,3034.844362,1608.800546
1418.137185,-10732.986159,2590.720797,3753.867940
1418.137505,-10436.903782,-1332.370696,-536.266849
1418.137826,-9030.512492,222.061783,-689.485948
1418.138147,-9326.594869,-2368.659014,-1608.800546
1418.138468,-8660.409521,1702.473667,306.438199
1418.138788,-9104.533087,370.102971,1072.533697
1418.139109,-8956.491898,518.144159,0.000000
1418.139430,-9770.718434,1480.411884,1608.800546
1418.139751,-10140.821405,-888.247130,1608.800546
1418.140071,-8882.471304,-1998.556043,4749.792088
1418.140392,-10288.862594,-3108.864956,1991.848295
1418.140713,-9770.718434,1480.411884,2681.334243
1418.141033,-11399.171507,1628.453072,4290.134789
1418.141354,-10658.965565,888.247130,5209.449386
1418.141675,-9104.533087,-962.267725,2987.772442
1418.141996,-10584.944971,-1998.556043,229.828649
1418.142316,-6661.853478,0.000000,766.095498
1418.142637,-11473.192101,-666.185348,2451.505594
1418.142958,-8734.430116,1998.556043,4290.134789
1418.143279,-9992.780217,-1998.556043,612.876398
1418.143599,-8364.327145,1480.411884,842.705048
1418.143920,-10881.027347,740.205942,1838.629195
1418.144241,-9474.636058,444.123565,3983.696590
1418.144561,-9622.677246,-814.226536,2451.505594
1418.144882,-9696.697840,-740.205942,1302.362347
1418.145203,-9178.553681,444.123565,1532.190996
1418.145524,-10362.883188,-1110.308913,1762.019645
1418.145844,-8734.430116,-1850.514855,1685.410096
1418.146165,-8290.306550,-2516.700203,-1225.752797
1418.146486,-8364.327145,592.164754,-306.438199
1418.146807,-10140.821405,814.226536,1149.143247
1418.147127,-9548.656652,-222.061783,766.095498
1418.147448,-9400.615463,-1998.556043,-153.219100
1418.147769,-8438.347739,-148.041188,-1302.362347
1418.148089,-10140.821405,740.205942,459.657299
1418.148410,-11103.089130,0.000000,2145.067394
1418.148731,-8438.347739,-1554.432478,1762.019645
1418.149052,-9326.594869,-3256.906145,-2757.943793
1418.149372,-9104.533087,-444.123565,-1838.629195
1418.149693,-10066.800811,1110.308913,0.000000
1418.150014,-10140.821405,2294.638420,2451.505594
1418.150335,-10510.924376,-2294.638420,229.828649
1418.150655,-9178.553681,-222.061783,-766.095498
1418.150976,-10362.883188,-740.205942,-842.705048
1418.151297,-10436.903782,-444.123565,689.485948
1418.151617,-8142.265362,-888.247130,-612.876398
1418.151938,-7550.100608,-1258.350101,-3524.039291
1418.152259,-6143.709319,1184.329507,-4213.525239
1418.152580,-8956.491898,2072.576638,-1149.143247
1418.152900,-11991.336260,444.123565,1608.800546
1418.153221,-9696.697840,-1184.329507,1378.971896
1418.153542,-12065.356855,0.000000,2451.505594
1418.153863,-12509.480420,0.000000,4749.792088
1418.154183,-11325.150913,1554.432478,5439.278036
1418.154504,-14285.974681,-6069.688724,6358.592633
1418.154825,-6735.874072,-2738.761985,1378.971896
1418.155146,-8290.306550,-1332.370696,-459.657299
1418.155466,-10288.862594,1998.556043,459.657299
1418.155787,-7772.162391,1998.556043,2987.772442
1418.156108,-8660.409521,-888.247130,306.438199
1418.156428,-9178.553681,592.164754,1302.362347
1418.156749,-8956.491898,-296.082377,536.266849
1418.157070,-13397.727550,0.000000,6281.983084
1418.157391,-10436.903782,-1332.370696,5362.668486
1418.157711,-11547.212695,-222.061783,2528.115143
1418.158032,-9104.533087,444.123565,3140.991542
1418.158353,-9918.759623,74.020594,2604.724693
1418.158674,-7920.203579,-592.164754,2145.067394
1418.158994,-9992.780217,-1776.494261,229.828649
1418.159315,-6735.874072,1480.411884,0.000000
1418.159636,-9770.718434,-666.185348,0.000000
1418.159956,-9548.656652,222.061783,1532.190996
1418.160277,-9474.636058,-1406.391290,1072.533697
1418.160598,-9252.574275,-2738.761985,-306.438199
1418.160919,-9400.615463,592.164754,1838.629195
1418.161239,-12065.356855,-740.205942,2145.067394
1418.161560,-8956.491898,-1258.350101,1608.800546
1418.161881,-10066.800811,-3108.864956,-1685.410096
1418.162202,-7031.956449,592.164754,-1685.410096
1418.162522,-8808.450710,518.144159,-766.095498
1418.162843,-9844.739029,518.144159,1455.581446
1418.163164,-8512.368333,-3108.864956,-766.095498
1418.163484,-9252.574275,-2442.679609,-2145.067394
1418.163805,-10140.821405,-222.061783,1149.143247
1418.164126,-10510.924376,-518.144159,1915.238745
1418.164447,-11547.212695,-518.144159,3064.381992
1418.164767,-9548.656652,-1480.411884,-153.219100
1418.165088,-8956.491898,222.061783,-536.266849
1418.165409,-9178.553681,1258.350101,-306.438199
1418.165730,-10066.800811,1480.411884,1149.143247
1418.166050,-9474.636058,-888.247130,-1455.581446
1418.166371,-8216.285956,2294.638420,-1072.533697
1418.166692,-8734.430116,2294.638420,-1762.019645
1418.167012,-10214.842000,1628.453072,1762.019645
1418.167333,-10732.986159,-1480.411884,2298.286494
1418.167654,-10288.862594,-1036.288319,153.219100
1418.167975,-9104.533087,1776.494261,1455.581446
1418.168295,-10066.800811,444.123565,1991.848295
1418.168616,-9622.677246,-370.102971,4136.915689
1418.168937,-7994.224174,-2886.803174,306.438199
1418.169258,-8142.265362,-814.226536,383.047749
1418.169578,-9030.512492,0.000000,1762.019645
1418.169899,-10955.047942,222.061783,4290.134789
1418.170220,-9770.718434,-1850.514855,3983.696590
1418.170540,-9918.759623,-2368.659014,689.485948
1418.170861,-8660.409521,518.144159,2681.334243
1418.171182,-11325.150913,222.061783,3600.648841
1418.171503,-10288.862594,-962.267725,3830.477490
1418.171823,-9326.594869,-1628.453072,1378.971896
1418.172144,-9030.512492,1036.288319,612.876398
1418.172465,-9548.656652,518.144159,1762.019645
1418.172786,-9178.553681,222.061783,2451.505594
1418.173106,-10288.862594,-1850.514855,2681.334243
1418.173427,-8586.388927,0.000000,689.485948
1418.173748,-10436.903782,0.000000,1762.019645
1418.174068,-9992.780217,1036.288319,2374.896044
1418.174389,-9844.739029,-962.267725,2451.505594
1418.174710,-9548.656652,-2368.659014,-536.266849
1418.175031,-7846.182985,814.226536,1225.752797
1418.175351,-9844.739029,-1998.556043,0.000000
1418.175672,-9252.574275,0.000000,1915.238745
1418.175993,-9918.759623,-2146.597232,-153.219100
1418.176314,-9696.697840,-518.144159,-1149.143247
1418.176634,-9548.656652,2146.597232,1072.533697
1418.176955,-11177.109724,518.144159,919.314598
1418.177276,-9178.553681,-1184.329507,919.314598
1418.177596,-10140.821405,-2368.659014,-2068.457845
1418.177917,-9252.574275,1924.535449,-1838.629195
1418.178238,-10214.842000,1036.288319,-229.828649
1418.178559,-9252.574275,962.267725,1302.362347
1418.178879,-8808.450710,-1702.473667,-1302.362347
1418.179200,-8808.450710,-296.082377,-2451.505594
1418.179521,-9622.677246,888.247130,-383.047749
1418.179842,-10584.944971,-296.082377,1762.019645
1418.180162,-10066.800811,-1850.514855,2221.676944
1418.180483,-8438.347739,-1406.391290,-1532.190996
1418.180804,-9474.636058,1480.411884,-459.657299
1418.181125,-11177.109724,2072.576638,1685.410096
1418.181445,-9474.636058,1406.391290,3677.258390
1418.181766,-9252.574275,-1554.432478,76.609550
1418.182087,-9474.636058,0.000000,-229.828649
1418.182407,-10362.883188,-1036.288319,1072.533697
1418.182728,-10362.883188,-1184.329507,2604.724693
1418.183049,-10436.903782,-1702.473667,3447.429741
1418.183370,-10140.821405,-592.164754,1302.362347
1418.183690,-10288.862594,1850.514855,3753.867940
1418.184011,-10436.903782,-148.041188,2374.896044
1418.184332,-6735.874072,-592.164754,306.438199
1418.184653,-8290.306550,-1924.535449,-2911.162892
1418.184973,-7698.141797,740.205942,-229.828649
1418.185294,-9178.553681,2590.720797,919.314598
1418.185615,-11695.253884,962.267725,5132.839837
1418.185935,-9104.533087,-2960.823768,3217.601092
1418.186256,-10584.944971,-1406.391290,1455.581446
1418.186577,-12583.501014,592.164754,5822.325785
1418.186898,-12065.356855,2294.638420,5362.668486
1418.187218,-10140.821405,2738.761985,5439.278036
1418.187539,-8660.409521,-1332.370696,0.000000
1418.187860,-5847.626942,-518.144159,-1685.410096
1418.188181,-9104.533087,-1480.411884,-995.924147
1418.188501,-8956.491898,-1776.494261,1149.143247
1418.188822,-8734.430116,-2886.803174,0.000000
1418.189143,-8142.265362,-2812.782580,-1455.581446
1418.189463,-9548.656652,-814.226536,766.095498
1418.189784,-11103.089130,1480.411884,3677.258390
1418.190105,-10807.006753,-1776.494261,4596.572988
1418.190426,-9474.636058,-2664.741391,689.485948
1418.190746,-8734.430116,-1036.288319,306.438199
1418.191067,-9622.677246,-2590.720797,-153.219100
1418.191388,-9622.677246,-592.164754,1915.238745
1418.191709,-7772.162391,-2738.761985,-612.876398
1418.192029,-7624.121203,-1924.535449,-2834.553343
1418.192350,-8734.430116,1036.288319,-1532.190996
1418.192671,-9770.718434,1184.329507,229.828649
1418.192991,-10436.903782,0.000000,1838.629195
1418.193312,-9770.718434,-148.041188,-995.924147
1418.193633,-9548.656652,740.205942,76.609550
1418.193954,-9918.759623,1036.288319,766.095498
1418.194274,-10140.821405,814.226536,1762.019645
1418.194595,-8512.368333,-370.102971,-766.095498
1418.194916,-7772.162391,1332.370696,-1762.019645
1418.195237,-8882.471304,1776.494261,-612.876398
1418.195557,-10584.944971,1184.329507,1838.629195
1418.195878,-10510.924376,-148.041188,2911.162892
1418.196199,-10807.006753,-1480.411884,1149.143247
1418.196519,-9992.780217,370.102971,2298.286494
1418.196840,-11103.089130,370.102971,2681.334243
1418.197161,-11103.089130,-1184.329507,3524.039291
1418.197482,-8142.265362,-3701.029710,1991.848295
1418.197802,-5921.647536,666.185348,766.095498
1418.198123,-9622.677246,-1850.514855,-1455.581446
1418.198444,-7920.203579,4071.132681,2298.286494
1418.198765,-10807.006753,-3478.967927,536.266849
1418.199085,-7179.997637,-740.205942,766.095498
1418.199406,-9104.533087,518.144159,76.609550
1418.199727,-11251.130318,814.226536,4979.620737
1418.200047,-9622.677246,-888.247130,2604.724693
1418.200368,-10807.006753,-1554.432478,1838.629195
1418.200689,-9474.636058,222.061783,1532.190996
1418.201010,-9178.553681,-592.164754,842.705048
1418.201330,-9030.512492,1332.370696,3524.039291
1418.201651,-9474.636058,-2368.659014,1149.143247
1418.201972,-7105.977043,1628.453072,-536.266849
1418.202293,-10955.047942,-666.185348,612.876398
1418.202613,-9178.553681,814.226536,689.485948
1418.202934,-10362.883188,0.000000,2681.334243
1418.203255,-10881.027347,-2812.782580,383.047749
1418.203576,-8882.471304,1036.288319,0.000000
1418.203896,-10881.027347,1406.391290,1302.362347
1418.204217,-9770.718434,1924.535449,2757.943793
1418.204538,-9400.615463,-666.185348,1608.800546
1418.204858,-10288.862594,-888.247130,-1608.800546
1418.205179,-7846.182985,-222.061783,-306.438199
1418.205500,-10288.862594,-962.267725,536.266849
1418.205821,-8882.471304,-2072.576638,1608.800546
1418.206141,-10214.842000,-2590.720797,-536.266849
1418.206462,-8808.450710,962.267725,-536.266849
1418.206783,-10436.903782,1332.370696,-153.219100
1418.207104,-10362.883188,2294.638420,2911.162892
1418.207424,-8956.491898,-1406.391290,612.876398
1418.207745,-9696.697840,-962.267725,-1225.752797
1418.208066,-9178.553681,666.185348,919.314598
1418.208386,-11621.233289,-666.185348,2604.724693
1418.208707,-10658.965565,-2072.576638,4366.744339
1418.209028,-9474.636058,-2294.638420,919.314598
1418.209349,-8586.388927,0.000000,153.219100
1418.209669,-9770.718434,1924.535449,-995.924147
1418.209990,-9178.553681,3108.864956,1532.190996
1418.210311,-8216.285956,-1258.350101,-842.705048
1418.210632,-8216.285956,222.061783,-612.876398
1418.210952,-9030.512492,-1480.411884,-612.876398
1418.211273,-9178.553681,-1702.473667,766.095498
1418.211594,-9548.656652,-1184.329507,3294.210641
1418.211914,-10362.883188,-888.247130,2604.724693
1418.212235,-10436.903782,2886.803174,3830.477490
1418.212556,-11325.150913,2146.597232,3677.258390
1418.212877,-9474.636058,444.123565,3294.210641
1418.213197,-8660.409521,-2738.761985,459.657299
1418.213518,-9178.553681,-518.144159,-383.047749
1418.213839,-9326.594869,740.205942,383.047749
1418.214160,-9548.656652,1480.411884,2145.067394
1418.214480,-8882.471304,0.000000,1762.019645
1418.214801,-9548.656652,-296.082377,0.000000
1418.215122,-10436.903782,740.205942,1532.190996
1418.215442,-12213.398043,1258.350101,3370.820191
1418.215763,-10214.842000,962.267725,4596.572988
1418.216084,-9770.718434,-4811.338623,689.485948
1418.216404,-7402.059420,-3330.926739,-1762.019645
1418.216725,-8438.347739,-3034.844362,-1302.362347
1418.217046,-9252.574275,-1924.535449,-842.705048
1418.217367,-7328.038826,-518.144159,-995.924147
1418.217687,-10214.842000,-296.082377,-995.924147
1418.218008,-9030.512492,1480.411884,153.219100
1418.218329,-14211.954086,0.000000,2987.772442
1418.218649,-11621.233289,-3256.906145,5056.230287
1418.218970,-10214.842000,-6365.771101,306.438199
1418.219291,-9474.636058,-1258.350101,689.485948
1418.219611,-10214.842000,-1628.453072,1072.533697
1418.219932,-8216.285956,888.247130,1915.238745
1418.220253,-8290.306550,-1702.473667,-536.266849
1418.220574,-5329.482782,148.041188,-4136.915689
1418.220894,-8364.327145,1776.494261,-1838.629195
1418.221215,-11473.192101,666.185348,2681.334243
1418.221536,-9474.636058,-1036.288319,3140.991542
1418.221856,-9622.677246,-2738.761985,229.828649
1418.222177,-9030.512492,-148.041188,995.924147
1418.222498,-10288.862594,296.082377,2221.676944
1418.222818,-11917.315666,1850.514855,4366.744339
1418.223139,-9844.739029,148.041188,2221.676944
1418.223460,-8438.347739,1332.370696,-919.314598
1418.223781,-9252.574275,2664.741391,0.000000
1418.224101,-11473.192101,1480.411884,1685.410096
1418.224422,-9548.656652,148.041188,2681.334243
1418.224743,-9252.574275,-1702.473667,306.438199
1418.225063,-9178.553681,-962.267725,1072.533697
1418.225384,-10362.883188,-1628.453072,4060.306139
1418.225705,-11621.233289,-1406.391290,4903.011187
1418.226025,-10732.986159,-2368.659014,3753.867940
1418.226346,-9104.533087,1406.391290,1685.410096
1418.226667,-10140.821405,740.205942,1378.971896
1418.226988,-6883.915261,1776.494261,3064.381992
1418.227308,-8364.327145,-4145.153275,-919.314598
1418.227629,-7624.121203,-2664.741391,-766.095498
1418.227950,-8734.430116,222.061783,-766.095498
1418.228270,-11695.253884,1776.494261,2757.943793
1418.228591,-11917.315666,-222.061783,3753.867940
1418.228912,-11917.315666,-740.205942,3677.258390
1418.229232,-10807.006753,148.041188,1838.629195
1418.229553,-11621.233289,666.185348,2374.896044
1418.229874,-10140.821405,2072.576638,3140.991542
1418.230195,-8956.491898,-1406.391290,1302.362347
1418.230515,-7846.182985,-3997.112087,-2604.724693
1418.230836,-6661.853478,222.061783,-1838.629195
1418.231157,-9326.594869,-1480.411884,-1072.533697
1418.231477,-9400.615463,148.041188,1608.800546
1418.231798,-9696.697840,-518.144159,-689.485948
1418.232119,-10214.842000,1998.556043,229.828649
1418.232439,-9326.594869,1924.535449,766.095498
1418.232760,-10362.883188,-444.123565,1685.410096
1418.233081,-9326.594869,-2812.782580,76.609550
1418.233402,-9326.594869,-2664.741391,-2834.553343
1418.233722,-8290.306550,592.164754,-1149.143247
1418.234043,-10584.944971,962.267725,919.314598
1418.234364,-9030.512492,148.041188,1455.581446
1418.234684,-8956.491898,-2516.700203,-1225.752797
1418.235005,-9474.636058,-296.082377,-1991.848295
1418.235326,-10510.924376,0.000000,76.609550
1418.235646,-10066.800811,296.082377,2221.676944
1418.235967,-10066.800811,-2072.576638,1378.971896
1418.236288,-8956.491898,-1406.391290,-1072.533697
1418.236609,-7920.203579,-1480.411884,-919.314598
1418.236929,-9400.615463,-962.267725,306.438199
1418.237250,-9548.656652,-1110.308913,612.876398
