#time,accel_x,accel_y,accel_z
1236.781566,-9696.697840,-1998.556043,1532.190996
1236.781887,-9474.636058,-1628.453072,766.095498
1236.782208,-9696.697840,-1258.350101,919.314598
1236.782530,-9696.697840,-740.205942,1225.752797
1236.782851,-9474.636058,-1924.535449,1608.800546
1236.783172,-9474.636058,-2442.679609,1378.971896
1236.783493,-9400.615463,-2442.679609,919.314598
1236.783814,-9474.636058,-1850.514855,2604.724693
1236.784135,-9474.636058,-1184.329507,1072.533697
1236.784457,-9474.636058,0.000000,995.924147
1236.784778,-9548.656652,296.082377,995.924147
1236.785099,-9178.553681,592.164754,919.314598
1236.785420,-9400.615463,-74.020594,842.705048
1236.785741,-9548.656652,148.041188,766.095498
1236.786062,-9844.739029,0.000000,1225.752797
1236.786384,-9844.739029,-296.082377,2298.286494
1236.786705,-10140.821405,-888.247130,2451.505594
1236.787026,-9622.677246,-2590.720797,2451.505594
1236.787347,-9252.574275,-3256.906145,2068.457845
1236.787668,-9252.574275,-3330.926739,1991.848295
1236.787989,-9104.533087,-2516.700203,3677.258390
1236.788310,-9400.615463,-1258.350101,2681.334243
1236.788632,-9548.656652,-888.247130,2451.505594
1236.788953,-9474.636058,-814.226536,2451.505594
1236.789274,-9770.718434,-666.185348,2298.286494
1236.789595,-10066.800811,-222.061783,2451.505594
1236.789916,-10214.842000,0.000000,2987.772442
1236.790237,-10140.821405,0.000000,3524.039291
1236.790559,-9992.780217,-222.061783,3753.867940
1236.790880,-9992.780217,-518.144159,3983.696590
1236.791201,-10140.821405,-1554.432478,5209.449386
1236.791522,-9770.718434,-2590.720797,6128.763984
1236.791843,-9548.656652,-3923.091493,6588.421283
1236.792164,-9918.759623,-3404.947333,6205.373534
1236.792485,-9178.553681,-5699.585753,7201.297681
1236.792807,-9104.533087,-6143.709319,7277.907231
1236.793128,-8734.430116,-6291.750507,7201.297681
1236.793449,-8438.347739,-5921.647536,6894.859482
1236.793770,-8512.368333,-5551.544565,6588.421283
1236.794091,-8364.327145,-5255.462188,5439.278036
1236.794412,-8808.450710,-4737.318029,5056.230287
1236.794734,-8660.409521,-4219.173869,4596.572988
1236.795055,-8956.491898,-3701.029710,4213.525239
1236.795376,-9326.594869,-3404.947333,3983.696590
1236.795697,-9696.697840,-3256.906145,3907.087040
1236.796018,-9696.697840,-3034.844362,3600.648841
1236.796339,-9770.718434,-2960.823768,2757.943793
1236.796660,-9770.718434,-3775.050304,4596.572988
1236.796982,-9622.677246,-4441.235652,4443.353888
1236.797303,-9622.677246,-5107.421000,4903.011187
1236.797624,-9474.636058,-5995.668130,5209.449386
1236.797945,-9252.574275,-7105.977043,5362.668486
1236.798266,-9030.512492,-7698.141797,5132.839837
1236.798587,-8734.430116,-8216.285956,4290.134789
1236.798909,-8586.388927,-7179.997637,3753.867940
1236.799230,-8882.471304,-6661.853478,2604.724693
1236.799551,-9104.533087,-4663.297435,2528.115143
1236.799872,-9400.615463,-3701.029710,1915.238745
1236.800193,-9844.739029,-3034.844362,1685.410096
1236.800514,-9548.656652,-3330.926739,1991.848295
1236.800835,-10362.883188,-2738.761985,306.438199
1236.801157,-10510.924376,-2516.700203,-306.438199
1236.801478,-10288.862594,-2368.659014,-1302.362347
1236.801799,-9992.780217,-1258.350101,-1762.019645
1236.802120,-9548.656652,-518.144159,-1762.019645
1236.802441,-10066.800811,0.000000,-689.485948
1236.802762,-10362.883188,-1036.288319,229.828649
1236.803084,-10732.986159,-2368.659014,1225.752797
1236.803405,-9918.759623,-3923.091493,2298.286494
1236.803726,-9992.780217,-5255.462188,2451.505594
1236.804047,-9992.780217,-4959.379811,3217.601092
1236.804368,-9696.697840,-4589.276840,3524.039291
1236.804689,-9474.636058,-4219.173869,2604.724693
1236.805010,-9326.594869,-2294.638420,2528.115143
1236.805331,-9400.615463,-1776.494261,1838.629195
1236.805651,-9474.636058,-1258.350101,689.485948
1236.805972,-8956.491898,74.020594,-689.485948
1236.806293,-9326.594869,2220.617826,-995.924147
1236.806614,-9696.697840,3701.029710,536.266849
1236.806934,-9918.759623,4441.235652,1455.581446
1236.807255,-10288.862594,4071.132681,2681.334243
1236.807576,-10881.027347,2368.659014,4366.744339
1236.807897,-10362.883188,296.082377,4826.401637
1236.808217,-9474.636058,-1628.453072,5209.449386
1236.808538,-9474.636058,-2812.782580,5975.544884
1236.808859,-8956.491898,-3256.906145,6128.763984
1236.809179,-8512.368333,-4219.173869,6511.811733
1236.809500,-7698.141797,-4515.256246,5745.716235
1236.809821,-7624.121203,-3997.112087,3907.087040
1236.810142,-7846.182985,-1850.514855,3217.601092
1236.810462,-8808.450710,1184.329507,4060.306139
1236.810783,-9770.718434,3552.988522,4136.915689
1236.811104,-10214.842000,4589.276840,4290.134789
1236.811424,-10584.944971,4219.173869,3294.210641
1236.811745,-10510.924376,2812.782580,2221.676944
1236.812066,-10732.986159,1850.514855,2374.896044
1236.812387,-10732.986159,740.205942,2451.505594
1236.812707,-9622.677246,222.061783,2834.553343
1236.813028,-10288.862594,-296.082377,4366.744339
1236.813349,-9030.512492,-1998.556043,1455.581446
1236.813669,-8660.409521,-3034.844362,383.047749
1236.813990,-8586.388927,-2442.679609,459.657299
1236.814311,-8586.388927,-888.247130,0.000000
1236.814632,-9252.574275,740.205942,995.924147
1236.814952,-9548.656652,1924.535449,612.876398
1236.815273,-10066.800811,1480.411884,0.000000
1236.815594,-10288.862594,888.247130,153.219100
1236.815915,-12065.356855,1110.308913,459.657299
1236.816235,-11177.109724,666.185348,306.438199
1236.816556,-11103.089130,-74.020594,459.657299
1236.816877,-9844.739029,-1184.329507,0.000000
1236.817197,-9474.636058,-2294.638420,-3217.601092
1236.817518,-9030.512492,-2442.679609,-2298.286494
1236.817839,-8808.450710,-1036.288319,-2068.457845
1236.818160,-9474.636058,-518.144159,-842.705048
1236.818480,-9400.615463,-518.144159,0.000000
1236.818801,-9474.636058,-1110.308913,306.438199
1236.819122,-9622.677246,-2442.679609,459.657299
1236.819442,-9474.636058,-2516.700203,1149.143247
1236.819763,-10066.800811,-2368.659014,1762.019645
1236.820084,-8956.491898,-3034.844362,1991.848295
1236.820405,-9548.656652,-3108.864956,536.266849
1236.820725,-8364.327145,-2146.597232,-919.314598
1236.821046,-8882.471304,-1850.514855,-1915.238745
1236.821367,-8438.347739,222.061783,-536.266849
1236.821688,-9622.677246,296.082377,0.000000
1236.822008,-9918.759623,814.226536,1072.533697
1236.822329,-10214.842000,-518.144159,1149.143247
1236.822650,-9696.697840,-1480.411884,2451.505594
1236.822970,-10584.944971,-2516.700203,3217.601092
1236.823291,-9696.697840,-2664.741391,4060.306139
1236.823612,-9992.780217,-2886.803174,4136.915689
1236.823933,-8586.388927,-3404.947333,3447.429741
1236.824253,-8216.285956,-4293.194464,1532.190996
1236.824574,-7846.182985,-2812.782580,1072.533697
1236.824895,-8290.306550,-1332.370696,842.705048
1236.825215,-8882.471304,740.205942,1762.019645
1236.825536,-9622.677246,1702.473667,4290.134789
1236.825857,-9844.739029,1332.370696,2298.286494
1236.826178,-10214.842000,1036.288319,1685.410096
1236.826498,-11251.130318,1406.391290,2374.896044
1236.826819,-11399.171507,1702.473667,3294.210641
1236.827140,-11177.109724,1850.514855,3983.696590
1236.827460,-11251.130318,-666.185348,3064.381992
1236.827781,-9548.656652,-1406.391290,1225.752797
1236.828102,-9474.636058,-1776.494261,0.000000
1236.828423,-8216.285956,-1406.391290,0.000000
1236.828743,-8956.491898,962.267725,0.000000
1236.829064,-9178.553681,1924.535449,383.047749
1236.829385,-9252.574275,1998.556043,766.095498
1236.829706,-9326.594869,1110.308913,536.266849
1236.830026,-9992.780217,592.164754,919.314598
1236.830347,-10436.903782,592.164754,1915.238745
1236.830668,-10510.924376,444.123565,2145.067394
1236.830988,-9844.739029,-518.144159,1378.971896
1236.831309,-9104.533087,-740.205942,-459.657299
1236.831630,-8734.430116,-148.041188,-1608.800546
1236.831951,-9252.574275,1184.329507,-1149.143247
1236.832271,-9548.656652,2664.741391,153.219100
1236.832592,-9622.677246,1998.556043,689.485948
1236.832913,-9696.697840,1332.370696,76.609550
1236.833233,-9252.574275,666.185348,-612.876398
1236.833554,-9400.615463,666.185348,76.609550
1236.833875,-9992.780217,962.267725,1915.238745
1236.834196,-9696.697840,0.000000,2221.676944
1236.834516,-9326.594869,-1184.329507,1378.971896
1236.834837,-8956.491898,-2146.597232,76.609550
1236.835158,-8586.388927,-1480.411884,-306.438199
1236.835478,-9104.533087,296.082377,1225.752797
1236.835799,-9474.636058,1850.514855,689.485948
1236.836120,-9622.677246,2442.679609,1072.533697
1236.836441,-9622.677246,1850.514855,919.314598
1236.836761,-9548.656652,666.185348,766.095498
1236.837082,-9918.759623,148.041188,1302.362347
1236.837403,-10658.965565,592.164754,2911.162892
1236.837724,-10658.965565,-370.102971,3370.820191
1236.838044,-9696.697840,-1480.411884,2298.286494
1236.838365,-9400.615463,-2368.659014,1991.848295
1236.838686,-9178.553681,-2960.823768,612.876398
1236.839006,-9030.512492,-1258.350101,1072.533697
1236.839327,-10214.842000,0.000000,1685.410096
1236.839648,-9548.656652,888.247130,1685.410096
1236.839969,-9918.759623,222.061783,1149.143247
1236.840289,-9548.656652,296.082377,919.314598
1236.840610,-10066.800811,222.061783,1149.143247
1236.840931,-10807.006753,444.123565,2068.457845
1236.841251,-10066.800811,444.123565,2681.334243
1236.841572,-10140.821405,-1850.514855,1915.238745
1236.841893,-9548.656652,-3330.926739,612.876398
1236.842214,-9400.615463,-3182.885551,-153.219100
1236.842534,-7772.162391,-2368.659014,1378.971896
1236.842855,-9178.553681,-370.102971,536.266849
1236.843176,-9474.636058,148.041188,1302.362347
1236.843496,-9474.636058,-370.102971,1149.143247
1236.843817,-9474.636058,-1776.494261,536.266849
1236.844138,-9400.615463,-1998.556043,766.095498
1236.844459,-9844.739029,-2220.617826,1685.410096
1236.844779,-9770.718434,-1554.432478,2451.505594
1236.845100,-9696.697840,-2368.659014,2528.115143
1236.845421,-9104.533087,-3108.864956,919.314598
1236.845742,-8364.327145,-3034.844362,-689.485948
1236.846062,-9104.533087,-1332.370696,-612.876398
1236.846383,-9844.739029,1332.370696,766.095498
1236.846704,-9548.656652,1776.494261,536.266849
1236.847024,-9474.636058,888.247130,459.657299
1236.847345,-9030.512492,0.000000,-536.266849
1236.847666,-9400.615463,-296.082377,-383.047749
1236.847987,-10362.883188,-296.082377,1302.362347
1236.848307,-10436.903782,-592.164754,2528.115143
1236.848628,-10066.800811,-1924.535449,2374.896044
1236.848949,-9474.636058,-2738.761985,919.314598
1236.849269,-8882.471304,-2590.720797,-383.047749
1236.849590,-9474.636058,-962.267725,0.000000
1236.849911,-9400.615463,1258.350101,766.095498
1236.850232,-9770.718434,1332.370696,1225.752797
1236.850552,-9474.636058,1036.288319,766.095498
1236.850873,-9252.574275,0.000000,1608.800546
1236.851194,-9770.718434,-888.247130,842.705048
1236.851514,-10288.862594,-296.082377,2068.457845
1236.851835,-10288.862594,296.082377,2757.943793
1236.852156,-10066.800811,-962.267725,2528.115143
1236.852477,-9474.636058,-1776.494261,1685.410096
1236.852797,-8734.430116,-2146.597232,76.609550
1236.853118,-9548.656652,-962.267725,153.219100
1236.853439,-9696.697840,666.185348,842.705048
1236.853760,-8956.491898,1554.432478,842.705048
1236.854080,-9622.677246,1184.329507,689.485948
1236.854401,-8808.450710,1258.350101,0.000000
1236.854722,-9992.780217,1924.535449,1072.533697
1236.855042,-10658.965565,1036.288319,2145.067394
1236.855363,-10140.821405,888.247130,2451.505594
1236.855684,-10658.965565,-962.267725,2834.553343
1236.856005,-9548.656652,-2368.659014,1302.362347
1236.856325,-9548.656652,-1702.473667,0.000000
1236.856646,-9252.574275,296.082377,-229.828649
1236.856967,-9400.615463,2442.679609,689.485948
1236.857287,-9474.636058,3256.906145,1225.752797
1236.857608,-10066.800811,1850.514855,1149.143247
1236.857929,-8882.471304,814.226536,306.438199
1236.858250,-9844.739029,-370.102971,153.219100
1236.858570,-10140.821405,-148.041188,1915.238745
1236.858891,-10140.821405,-592.164754,2987.772442
1236.859212,-9770.718434,-1480.411884,1915.238745
1236.859532,-9252.574275,-2590.720797,919.314598
1236.859853,-8808.450710,-1924.535449,153.219100
1236.860174,-9622.677246,-962.267725,0.000000
1236.860495,-9622.677246,814.226536,1149.143247
1236.860815,-9844.739029,1924.535449,1149.143247
1236.861136,-9474.636058,1184.329507,536.266849
1236.861457,-9030.512492,0.000000,-306.438199
1236.861778,-9252.574275,-370.102971,0.000000
1236.862098,-10288.862594,-370.102971,1685.410096
1236.862419,-10214.842000,-1036.288319,2757.943793
1236.862740,-9770.718434,-1776.494261,2451.505594
1236.863060,-9622.677246,-3034.844362,842.705048
1236.863381,-8512.368333,-2886.803174,0.000000
1236.863702,-9400.615463,-1258.350101,76.609550
1236.864023,-9252.574275,740.205942,612.876398
1236.864343,-9400.615463,1628.453072,1072.533697
1236.864664,-9622.677246,1480.411884,1532.190996
1236.864985,-9696.697840,444.123565,1149.143247
1236.865305,-9770.718434,-518.144159,1302.362347
1236.865626,-10140.821405,-592.164754,2068.457845
1236.865947,-9918.759623,-1258.350101,2604.724693
1236.866268,-9548.656652,-1924.535449,2145.067394
1236.866588,-9474.636058,-2886.803174,1302.362347
1236.866909,-8734.430116,-2590.720797,995.924147
1236.867230,-9178.553681,-1480.411884,689.485948
1236.867550,-9992.780217,0.000000,1455.581446
1236.867871,-9770.718434,740.205942,1762.019645
1236.868192,-9622.677246,74.020594,1838.629195
1236.868513,-9474.636058,0.000000,612.876398
1236.868833,-9252.574275,0.000000,1302.362347
1236.869154,-10066.800811,148.041188,1991.848295
1236.869475,-10066.800811,-518.144159,2757.943793
1236.869796,-9622.677246,-1924.535449,2145.067394
1236.870116,-9548.656652,-3256.906145,1378.971896
1236.870437,-8956.491898,-3256.906145,459.657299
1236.870758,-9474.636058,-1628.453072,612.876398
1236.871078,-9474.636058,444.123565,1302.362347
1236.871399,-9474.636058,1332.370696,1685.410096
1236.871720,-9474.636058,1332.370696,2298.286494
1236.872041,-9474.636058,-296.082377,766.095498
1236.872361,-9252.574275,-962.267725,919.314598
1236.872682,-9696.697840,-1110.308913,1532.190996
1236.873003,-9622.677246,-1480.411884,689.485948
1236.873323,-9548.656652,-1998.556043,1991.848295
1236.873644,-8882.471304,-2368.659014,383.047749
1236.873965,-8956.491898,-1776.494261,0.000000
1236.874286,-9548.656652,-518.144159,536.266849
1236.874606,-9622.677246,592.164754,995.924147
1236.874927,-10436.903782,1258.350101,1378.971896
1236.875248,-9622.677246,1110.308913,766.095498
1236.875569,-9400.615463,962.267725,-536.266849
1236.875889,-9844.739029,1776.494261,536.266849
1236.876210,-9918.759623,1406.391290,1149.143247
1236.876531,-10066.800811,592.164754,1685.410096
1236.876851,-9696.697840,-962.267725,2145.067394
1236.877172,-10066.800811,-2368.659014,0.000000
1236.877493,-9696.697840,-2738.761985,-229.828649
1236.877814,-9252.574275,-888.247130,-536.266849
1236.878134,-9252.574275,1628.453072,459.657299
1236.878455,-9918.759623,2590.720797,919.314598
1236.878776,-9696.697840,2738.761985,1685.410096
1236.879096,-9622.677246,888.247130,919.314598
1236.879417,-9918.759623,296.082377,612.876398
1236.879738,-10807.006753,592.164754,2374.896044
1236.880059,-10066.800811,-370.102971,2834.553343
1236.880379,-9918.759623,-1110.308913,3600.648841
1236.880700,-9326.594869,-2368.659014,1915.238745
1236.881021,-8438.347739,-2738.761985,-229.828649
1236.881341,-8438.347739,-444.123565,-1991.848295
1236.881662,-9548.656652,888.247130,306.438199
1236.881983,-8808.450710,1998.556043,612.876398
1236.882304,-8290.306550,1850.514855,-689.485948
1236.882624,-8142.265362,1628.453072,-1762.019645
1236.882945,-8660.409521,1258.350101,-1532.190996
1236.883266,-9770.718434,814.226536,459.657299
1236.883587,-10658.965565,0.000000,2374.896044
1236.883907,-10732.986159,-1998.556043,2451.505594
1236.884228,-10066.800811,-3775.050304,1838.629195
1236.884549,-9844.739029,-3182.885551,1225.752797
1236.884869,-10140.821405,-1702.473667,1149.143247
1236.885190,-9770.718434,444.123565,1455.581446
1236.885511,-9474.636058,2442.679609,766.095498
1236.885832,-8734.430116,1332.370696,76.609550
1236.886152,-8956.491898,222.061783,-229.828649
1236.886473,-9178.553681,370.102971,689.485948
1236.886794,-9326.594869,0.000000,1685.410096
1236.887114,-10140.821405,-518.144159,2757.943793
1236.887435,-10140.821405,-1480.411884,3524.039291
1236.887756,-9770.718434,-3108.864956,2528.115143
1236.888077,-9474.636058,-3256.906145,1838.629195
1236.888397,-9622.677246,-1628.453072,919.314598
1236.888718,-9770.718434,74.020594,1225.752797
1236.889039,-9400.615463,1628.453072,1378.971896
1236.889359,-9474.636058,1184.329507,689.485948
1236.889680,-9252.574275,74.020594,-459.657299
1236.890001,-9030.512492,-222.061783,-459.657299
1236.890322,-9770.718434,-370.102971,689.485948
1236.890642,-10066.800811,-1258.350101,2145.067394
1236.890963,-10510.924376,-1924.535449,2528.115143
1236.891284,-9844.739029,-2738.761985,2145.067394
1236.891605,-9548.656652,-3404.947333,459.657299
1236.891925,-9474.636058,-2146.597232,459.657299
1236.892246,-9400.615463,-444.123565,919.314598
1236.892567,-9178.553681,740.205942,383.047749
1236.892887,-9252.574275,1036.288319,383.047749
1236.893208,-8882.471304,592.164754,153.219100
1236.893529,-9104.533087,0.000000,0.000000
1236.893850,-10214.842000,-148.041188,-383.047749
1236.894170,-9918.759623,-666.185348,2145.067394
1236.894491,-9770.718434,-1480.411884,2221.676944
1236.894812,-9622.677246,-2146.597232,1302.362347
1236.895132,-9252.574275,-1924.535449,1991.848295
1236.895453,-9326.594869,-518.144159,459.657299
1236.895774,-10066.800811,74.020594,1072.533697
1236.896095,-9548.656652,1776.494261,1991.848295
1236.896415,-9770.718434,0.000000,1225.752797
1236.896736,-9400.615463,0.000000,76.609550
1236.897057,-9548.656652,0.000000,459.657299
1236.897377,-9844.739029,666.185348,1149.143247
1236.897698,-9918.759623,1332.370696,2374.896044
1236.898019,-11029.068536,148.041188,1915.238745
1236.898340,-9548.656652,-1850.514855,1455.581446
1236.898660,-9770.718434,-2664.741391,229.828649
1236.898981,-9548.656652,-1554.432478,0.000000
1236.899302,-9696.697840,518.144159,459.657299
1236.899623,-10436.903782,2072.576638,1225.752797
1236.899943,-10066.800811,2220.617826,1149.143247
1236.900264,-9770.718434,1258.350101,766.095498
1236.900585,-9918.759623,518.144159,689.485948
1236.900905,-9992.780217,-222.061783,1072.533697
1236.901226,-10362.883188,-296.082377,1838.629195
1236.901547,-9844.739029,-1110.308913,1685.410096
1236.901868,-8882.471304,-2146.597232,536.266849
1236.902188,-8808.450710,-2886.803174,-1149.143247
1236.902509,-8808.450710,-1184.329507,-383.047749
1236.902830,-9844.739029,444.123565,1072.533697
1236.903150,-9918.759623,1554.432478,1608.800546
1236.903471,-9770.718434,1702.473667,3294.210641
1236.903792,-9622.677246,888.247130,229.828649
1236.904113,-9622.677246,888.247130,689.485948
1236.904433,-10140.821405,888.247130,2068.457845
1236.904754,-9844.739029,444.123565,2451.505594
1236.905075,-9548.656652,-1258.350101,1991.848295
1236.905396,-9400.615463,-2294.638420,1149.143247
1236.905717,-9178.553681,-2738.761985,229.828649
1236.906038,-9400.615463,-1258.350101,459.657299
1236.906359,-9030.512492,518.144159,1608.800546
1236.906679,-9326.594869,1184.329507,1149.143247
1236.907000,-9326.594869,740.205942,842.705048
1236.907321,-9474.636058,-296.082377,0.000000
1236.907642,-8956.491898,-222.061783,306.438199
1236.907963,-9992.780217,-666.185348,459.657299
1236.908284,-9770.718434,0.000000,1915.238745
1236.908605,-9622.677246,-592.164754,1838.629195
1236.908925,-9622.677246,-2442.679609,995.924147
1236.909246,-8660.409521,-2442.679609,0.000000
1236.909567,-9844.739029,-2220.617826,-229.828649
1236.909888,-9474.636058,0.000000,306.438199
1236.910209,-10140.821405,1628.453072,1302.362347
1236.910530,-9622.677246,1406.391290,1838.629195
1236.910851,-9252.574275,518.144159,0.000000
1236.911171,-9104.533087,74.020594,-153.219100
1236.911492,-9548.656652,0.000000,459.657299
1236.911813,-10066.800811,-370.102971,1685.410096
1236.912134,-10214.842000,-814.226536,2451.505594
1236.912455,-10214.842000,-2146.597232,1072.533697
1236.912776,-9474.636058,-1998.556043,0.000000
1236.913097,-9770.718434,-888.247130,0.000000
1236.913417,-10288.862594,962.267725,689.485948
1236.913738,-9992.780217,1924.535449,1378.971896
1236.914059,-10066.800811,1776.494261,1072.533697
1236.914380,-9548.656652,1184.329507,612.876398
1236.914701,-10214.842000,-222.061783,-612.876398
1236.915022,-9918.759623,-296.082377,1302.362347
1236.915343,-10066.800811,-666.185348,2528.115143
1236.915663,-9696.697840,-1776.494261,2221.676944
1236.915984,-9474.636058,-3256.906145,1455.581446
1236.916305,-8734.430116,-3330.926739,612.876398
1236.916626,-8956.491898,-2072.576638,229.828649
1236.916947,-9474.636058,0.000000,1072.533697
1236.917268,-9844.739029,1628.453072,2068.457845
1236.917589,-9474.636058,592.164754,1302.362347
1236.917910,-9400.615463,0.000000,383.047749
1236.918230,-8956.491898,-370.102971,0.000000
1236.918551,-9474.636058,74.020594,766.095498
1236.918872,-9548.656652,370.102971,1225.752797
1236.919193,-9474.636058,-74.020594,2298.286494
1236.919514,-9252.574275,-1776.494261,1608.800546
1236.919835,-9252.574275,-2072.576638,766.095498
1236.920156,-9474.636058,-1850.514855,1149.143247
1236.920476,-9474.636058,-666.185348,1149.143247
1236.920797,-9326.594869,296.082377,1608.800546
1236.921118,-9474.636058,1036.288319,1378.971896
1236.921439,-9178.553681,740.205942,1072.533697
1236.921760,-9770.718434,74.020594,1302.362347
1236.922081,-9548.656652,-148.041188,1302.362347
1236.922402,-9844.739029,0.000000,1685.410096
1236.922722,-9844.739029,-740.205942,1991.848295
1236.923043,-9918.759623,-1924.535449,1072.533697
1236.923364,-9474.636058,-2294.638420,459.657299
1236.923685,-9474.636058,-1480.411884,-306.438199
1236.924006,-9844.739029,370.102971,612.876398
1236.924327,-10288.862594,1480.411884,1608.800546
1236.924648,-10436.903782,1702.473667,1762.019645
1236.924968,-9918.759623,666.185348,766.095498
1236.925289,-9400.615463,148.041188,153.219100
1236.925610,-9770.718434,-222.061783,766.095498
1236.925931,-10362.883188,0.000000,2068.457845
1236.926252,-9992.780217,-666.185348,2374.896044
1236.926573,-9474.636058,-1628.453072,1532.190996
1236.926894,-9474.636058,-2220.617826,612.876398
1236.927214,-9622.677246,-1776.494261,306.438199
1236.927535,-9918.759623,296.082377,383.047749
1236.927856,-9844.739029,1480.411884,1072.533697
1236.928177,-9622.677246,2146.597232,919.314598
1236.928498,-9326.594869,1332.370696,383.047749
1236.928819,-9770.718434,296.082377,612.876398
1236.929140,-9474.636058,0.000000,1302.362347
1236.929460,-10362.883188,-1110.308913,2374.896044
1236.929781,-9844.739029,-1776.494261,2451.505594
1236.930102,-9030.512492,-3330.926739,1378.971896
1236.930423,-8956.491898,-2886.803174,842.705048
1236.930744,-8438.347739,-1480.411884,306.438199
1236.931065,-9030.512492,518.144159,995.924147
1236.931386,-9030.512492,592.164754,1838.629195
1236.931706,-9178.553681,1036.288319,842.705048
1236.932027,-8808.450710,0.000000,0.000000
1236.932348,-9104.533087,-148.041188,0.000000
1236.932669,-9622.677246,370.102971,689.485948
1236.932990,-10140.821405,370.102971,2374.896044
1236.933311,-9770.718434,0.000000,2451.505594
1236.933632,-9696.697840,-1332.370696,1762.019645
1236.933952,-9474.636058,-2072.576638,459.657299
1236.934273,-9178.553681,-1776.494261,153.219100
1236.934594,-9474.636058,0.000000,842.705048
1236.934915,-9400.615463,1406.391290,1072.533697
1236.935236,-9474.636058,1776.494261,1915.238745
1236.935557,-8956.491898,592.164754,2451.505594
1236.935878,-9474.636058,-1184.329507,919.314598
1236.936198,-9844.739029,-1184.329507,1302.362347
1236.936519,-10140.821405,-592.164754,2374.896044
1236.936840,-10436.903782,-370.102971,2757.943793
1236.937161,-10066.800811,-1332.370696,2145.067394
1236.937482,-9252.574275,-1850.514855,689.485948
1236.937803,-9400.615463,-1110.308913,229.828649
1236.938124,-9548.656652,222.061783,995.924147
1236.938444,-9252.574275,148.041188,2374.896044
1236.938765,-9992.780217,1110.308913,1685.410096
1236.939086,-9696.697840,296.082377,842.705048
1236.939407,-9252.574275,0.000000,383.047749
1236.939728,-9770.718434,-814.226536,536.266849
1236.940049,-9844.739029,0.000000,1685.410096
1236.940370,-10214.842000,-740.205942,2298.286494
1236.940690,-9918.759623,-1702.473667,2145.067394
1236.941011,-9400.615463,-2442.679609,766.095498
1236.941332,-9178.553681,-2072.576638,0.000000
1236.941653,-9400.615463,-296.082377,229.828649
1236.941974,-9178.553681,1332.370696,842.705048
1236.942295,-9400.615463,1776.494261,766.095498
1236.942616,-8808.450710,1258.350101,1149.143247
1236.942936,-9030.512492,222.061783,76.609550
1236.943257,-9622.677246,-296.082377,919.314598
1236.943578,-9918.759623,-370.102971,2145.067394
1236.943899,-9622.677246,-740.205942,1685.410096
1236.944220,-9548.656652,-2442.679609,1608.800546
1236.944541,-8660.409521,-2516.700203,76.609550
1236.944862,-8734.430116,-1628.453072,-153.219100
1236.945182,-9474.636058,148.041188,459.657299
1236.945503,-9622.677246,1628.453072,1149.143247
1236.945824,-9696.697840,1480.411884,842.705048
1236.946145,-9696.697840,518.144159,306.438199
1236.946466,-9474.636058,222.061783,-153.219100
1236.946787,-10140.821405,518.144159,383.047749
1236.947108,-9992.780217,74.020594,1608.800546
1236.947428,-9992.780217,-444.123565,1838.629195
1236.947749,-10214.842000,-1332.370696,1762.019645
1236.948070,-9474.636058,-1702.473667,2068.457845
1236.948391,-9030.512492,-2146.597232,-153.219100
1236.948712,-9696.697840,-444.123565,0.000000
1236.949033,-9992.780217,1554.432478,1072.533697
1236.949354,-9918.759623,2146.597232,1302.362347
1236.949674,-9770.718434,1184.329507,1378.971896
1236.949995,-9770.718434,0.000000,842.705048
1236.950316,-9992.780217,-370.102971,1685.410096
1236.950637,-10584.944971,-962.267725,2757.943793
1236.950958,-9400.615463,-1480.411884,2068.457845
1236.951279,-10214.842000,-1850.514855,2451.505594
1236.951600,-9030.512492,-2146.597232,919.314598
1236.951920,-8882.471304,-1628.453072,0.000000
1236.952241,-9326.594869,-148.041188,76.609550
1236.952562,-9548.656652,1258.350101,1532.190996
1236.952883,-10066.800811,1258.350101,1302.362347
1236.953204,-9252.574275,1332.370696,766.095498
1236.953525,-9622.677246,518.144159,383.047749
1236.953846,-10955.047942,1702.473667,612.876398
1236.954166,-10140.821405,740.205942,1991.848295
1236.954487,-10288.862594,-296.082377,2834.553343
1236.954808,-9696.697840,-2886.803174,1608.800546
1236.955129,-8364.327145,-3034.844362,306.438199
1236.955450,-9474.636058,-3108.864956,-229.828649
1236.955771,-8364.327145,-296.082377,-153.219100
1236.956092,-9844.739029,1480.411884,1149.143247
1236.956412,-9178.553681,1702.473667,689.485948
1236.956733,-9030.512492,1258.350101,536.266849
1236.957054,-9622.677246,518.144159,766.095498
1236.957375,-9400.615463,0.000000,612.876398
1236.957696,-10436.903782,-444.123565,1915.238745
1236.958017,-10214.842000,-1184.329507,2757.943793
1236.958338,-9622.677246,-2072.576638,2911.162892
1236.958658,-9548.656652,-3404.947333,1685.410096
1236.958979,-9400.615463,-2442.679609,1302.362347
1236.959300,-9622.677246,-888.247130,1302.362347
1236.959621,-9770.718434,666.185348,2145.067394
1236.959942,-9992.780217,1480.411884,612.876398
1236.960263,-9030.512492,592.164754,76.609550
1236.960584,-8142.265362,222.061783,-1532.190996
1236.960904,-9326.594869,222.061783,-1149.143247
1236.961225,-9030.512492,962.267725,153.219100
1236.961546,-9770.718434,-222.061783,1302.362347
1236.961867,-9622.677246,-1332.370696,919.314598
1236.962188,-9770.718434,-2146.597232,229.828649
1236.962509,-10362.883188,-1702.473667,612.876398
1236.962830,-10066.800811,-296.082377,1915.238745
1236.963150,-10436.903782,444.123565,2451.505594
1236.963471,-10658.965565,888.247130,2604.724693
1236.963792,-9548.656652,-222.061783,1225.752797
1236.964113,-9252.574275,-444.123565,459.657299
1236.964434,-9400.615463,-1036.288319,229.828649
1236.964755,-9252.574275,0.000000,1149.143247
1236.965076,-9844.739029,-74.020594,1915.238745
1236.965396,-9326.594869,-1406.391290,1532.190996
1236.965717,-8956.491898,-2368.659014,229.828649
1236.966038,-9548.656652,-1776.494261,0.000000
1236.966359,-9844.739029,-370.102971,612.876398
1236.966680,-10436.903782,1480.411884,1838.629195
1236.967001,-10436.903782,2072.576638,1838.629195
1236.967322,-9622.677246,1110.308913,0.000000
1236.967642,-9400.615463,962.267725,383.047749
1236.967963,-9770.718434,592.164754,383.047749
1236.968284,-9622.677246,962.267725,1532.190996
1236.968605,-9770.718434,-296.082377,1762.019645
1236.968926,-9178.553681,-1554.432478,1302.362347
1236.969247,-9400.615463,-2368.659014,689.485948
1236.969568,-9252.574275,-2146.597232,459.657299
1236.969888,-9474.636058,-222.061783,919.314598
1236.970209,-9178.553681,2146.597232,2374.896044
1236.970530,-9770.718434,2220.617826,1915.238745
1236.970851,-9474.636058,1480.411884,995.924147
1236.971172,-9400.615463,666.185348,612.876398
1236.971493,-9548.656652,-296.082377,766.095498
1236.971814,-9548.656652,-148.041188,1838.629195
1236.972134,-9696.697840,-1036.288319,2451.505594
1236.972455,-9252.574275,-2368.659014,1608.800546
1236.972776,-8882.471304,-2664.741391,842.705048
1236.973097,-8808.450710,-2516.700203,-1455.581446
1236.973418,-9326.594869,-888.247130,842.705048
1236.973739,-9696.697840,148.041188,1608.800546
1236.974060,-9696.697840,518.144159,1838.629195
1236.974380,-9474.636058,74.020594,1072.533697
1236.974701,-9326.594869,-148.041188,459.657299
1236.975022,-9474.636058,0.000000,689.485948
1236.975343,-10066.800811,222.061783,1302.362347
1236.975664,-10288.862594,0.000000,2145.067394
1236.975985,-9918.759623,-888.247130,1915.238745
1236.976306,-9918.759623,-2072.576638,459.657299
1236.976627,-9252.574275,-2368.659014,-689.485948
1236.976947,-9548.656652,-740.205942,-153.219100
1236.977268,-10214.842000,888.247130,689.485948
1236.977589,-10436.903782,1924.535449,2221.676944
1236.977910,-10732.986159,814.226536,536.266849
1236.978231,-9770.718434,148.041188,153.219100
1236.978552,-10140.821405,-370.102971,842.705048
1236.978873,-10510.924376,74.020594,1915.238745
1236.979193,-10214.842000,-1184.329507,2145.067394
1236.979514,-9474.636058,-2072.576638,919.314598
1236.979835,-8882.471304,-2738.761985,-153.219100
1236.980156,-8290.306550,-2146.597232,-919.314598
1236.980477,-8882.471304,666.185348,-459.657299
1236.980798,-9918.759623,1406.391290,1455.581446
1236.981119,-9844.739029,1702.473667,1225.752797
1236.981439,-9622.677246,518.144159,919.314598
1236.981760,-9844.739029,-148.041188,0.000000
1236.982081,-10510.924376,814.226536,1225.752797
1236.982402,-10584.944971,444.123565,2374.896044
1236.982723,-9622.677246,148.041188,2834.553343
1236.983044,-9474.636058,-1924.535449,1915.238745
1236.983365,-8956.491898,-2294.638420,842.705048
1236.983685,-9326.594869,-2368.659014,612.876398
1236.984006,-9400.615463,-296.082377,1378.971896
1236.984327,-9844.739029,1184.329507,2298.286494
1236.984648,-8956.491898,1554.432478,2451.505594
1236.984969,-9548.656652,814.226536,1532.190996
1236.985290,-9326.594869,0.000000,1225.752797
1236.985611,-9548.656652,-518.144159,1302.362347
1236.985931,-9696.697840,-148.041188,2298.286494
1236.986252,-9696.697840,-592.164754,4136.915689
1236.986573,-9400.615463,-1480.411884,2068.457845
1236.986894,-8956.491898,-2294.638420,383.047749
1236.987215,-8660.409521,-1702.473667,0.000000
1236.987536,-9474.636058,-518.144159,459.657299
1236.987857,-9696.697840,592.164754,1149.143247
1236.988177,-10288.862594,666.185348,1838.629195
1236.988498,-9770.718434,74.020594,766.095498
1236.988819,-9400.615463,0.000000,306.438199
1236.989140,-9696.697840,74.020594,1149.143247
1236.989461,-10066.800811,222.061783,1915.238745
1236.989782,-10066.800811,-74.020594,2068.457845
1236.990103,-9622.677246,-1332.370696,1532.190996
1236.990423,-9252.574275,-2072.576638,76.609550
1236.990744,-9326.594869,-2146.597232,-383.047749
1236.991065,-9622.677246,-370.102971,153.219100
1236.991386,-9992.780217,1776.494261,536.266849
1236.991707,-9992.780217,2072.576638,1225.752797
1236.992028,-9696.697840,1480.411884,0.000000
1236.992349,-9622.677246,814.226536,306.438199
1236.992669,-10288.862594,-222.061783,842.705048
1236.992990,-9918.759623,0.000000,2221.676944
1236.993311,-10066.800811,-1036.288319,2374.896044
1236.993632,-9548.656652,-2664.741391,2068.457845
1236.993953,-9030.512492,-3034.844362,766.095498
1236.994274,-9030.512492,-2738.761985,383.047749
1236.994595,-9104.533087,-1036.288319,383.047749
1236.994915,-9770.718434,370.102971,1762.019645
1236.995236,-10362.883188,592.164754,306.438199
1236.995557,-9622.677246,0.000000,842.705048
1236.995878,-9326.594869,-296.082377,-306.438199
1236.996199,-9474.636058,0.000000,459.657299
1236.996520,-10066.800811,518.144159,1532.190996
1236.996841,-10288.862594,222.061783,2221.676944
1236.997161,-9548.656652,-962.267725,2068.457845
1236.997482,-9474.636058,-2368.659014,612.876398
1236.997803,-8956.491898,-2442.679609,-153.219100
1236.998124,-9548.656652,-962.267725,612.876398
1236.998445,-9696.697840,814.226536,1072.533697
1236.998766,-9844.739029,1702.473667,1762.019645
1236.999087,-9770.718434,740.205942,1532.190996
1236.999407,-9104.533087,-518.144159,766.095498
1236.999728,-9918.759623,-1184.329507,766.095498
1237.000049,-9770.718434,-740.205942,1685.410096
1237.000370,-9844.739029,-518.144159,2528.115143
1237.000691,-9696.697840,-1110.308913,2298.286494
1237.001012,-9622.677246,-1998.556043,459.657299
1237.001333,-9030.512492,-1850.514855,0.000000
1237.001653,-9622.677246,-518.144159,229.828649
1237.001974,-9918.759623,1332.370696,1302.362347
1237.002295,-9844.739029,1702.473667,1608.800546
1237.002616,-9918.759623,888.247130,1072.533697
1237.002937,-9178.553681,666.185348,0.000000
1237.003258,-9548.656652,592.164754,76.609550
1237.003579,-10066.800811,888.247130,1608.800546
1237.003899,-11251.130318,962.267725,766.095498
1237.004220,-9770.718434,-1332.370696,1302.362347
1237.004541,-9400.615463,-1924.535449,459.657299
1237.004862,-9474.636058,-1184.329507,-229.828649
1237.005183,-9696.697840,370.102971,383.047749
1237.005504,-9992.780217,1628.453072,1378.971896
1237.005824,-9918.759623,1850.514855,1225.752797
1237.006145,-9844.739029,962.267725,1072.533697
1237.006466,-9548.656652,222.061783,1072.533697
1237.006787,-10140.821405,-518.144159,1838.629195
1237.007108,-9622.677246,-962.267725,2068.457845
1237.007428,-9696.697840,-1998.556043,1838.629195
1237.007749,-8882.471304,-1850.514855,995.924147
1237.008070,-9474.636058,-2738.761985,766.095498
1237.008391,-8660.409521,-1998.556043,229.828649
1237.008712,-9030.512492,-740.205942,612.876398
1237.009033,-9992.780217,1184.329507,1225.752797
1237.009353,-9696.697840,1628.453072,1378.971896
1237.009674,-9252.574275,592.164754,459.657299
1237.009995,-9474.636058,740.205942,383.047749
1237.010316,-8882.471304,0.000000,229.828649
1237.010637,-10214.842000,666.185348,1455.581446
1237.010958,-9992.780217,-222.061783,2451.505594
1237.011278,-9696.697840,-1258.350101,1915.238745
1237.011599,-9548.656652,-2146.597232,995.924147
1237.011920,-9104.533087,-1702.473667,-76.609550
1237.012241,-9474.636058,74.020594,-383.047749
1237.012562,-9622.677246,1850.514855,766.095498
1237.012882,-9474.636058,1850.514855,1455.581446
1237.013203,-9252.574275,666.185348,1302.362347
1237.013524,-9844.739029,-1258.350101,612.876398
1237.013845,-9770.718434,-1628.453072,383.047749
1237.014166,-9918.759623,-1036.288319,1302.362347
1237.014487,-9844.739029,-814.226536,1838.629195
1237.014807,-9474.636058,-1110.308913,1608.800546
1237.015128,-9252.574275,-1554.432478,1072.533697
1237.015449,-9178.553681,-1850.514855,76.609550
1237.015770,-8808.450710,444.123565,1225.752797
1237.016091,-9918.759623,0.000000,1072.533697
1237.016412,-10066.800811,444.123565,1225.752797
1237.016732,-9844.739029,518.144159,842.705048
1237.017053,-9696.697840,370.102971,0.000000
1237.017374,-9474.636058,592.164754,536.266849
1237.017695,-10214.842000,370.102971,1072.533697
1237.018016,-10510.924376,-148.041188,2145.067394
1237.018336,-10066.800811,-814.226536,1532.190996
1237.018657,-9918.759623,-2072.576638,1072.533697
1237.018978,-9326.594869,-1702.473667,0.000000
1237.019299,-9770.718434,-370.102971,229.828649
1237.019620,-9474.636058,814.226536,919.314598
1237.019941,-9474.636058,1554.432478,1072.533697
1237.020261,-9326.594869,592.164754,766.095498
1237.020582,-9104.533087,74.020594,383.047749
1237.020903,-9474.636058,-148.041188,842.705048
1237.021224,-9844.739029,0.000000,2145.067394
1237.021545,-9548.656652,296.082377,2451.505594
1237.021865,-9474.636058,-1628.453072,2374.896044
1237.022186,-9104.533087,-3330.926739,1685.410096
1237.022507,-8660.409521,-3256.906145,536.266849
1237.022828,-9104.533087,-2368.659014,1378.971896
1237.023149,-8956.491898,0.000000,995.924147
1237.023470,-8808.450710,1850.514855,1302.362347
1237.023790,-9622.677246,1036.288319,919.314598
1237.024111,-8882.471304,1406.391290,229.828649
1237.024432,-9548.656652,1332.370696,842.705048
1237.024753,-9992.780217,-592.164754,1302.362347
1237.025074,-9548.656652,-148.041188,1838.629195
1237.025395,-10436.903782,-2516.700203,2298.286494
1237.025715,-8734.430116,-3552.988522,1532.190996
1237.026036,-9030.512492,-2368.659014,383.047749
1237.026357,-9252.574275,-962.267725,76.609550
1237.026678,-9326.594869,1332.370696,1149.143247
1237.026999,-9844.739029,2072.576638,1302.362347
1237.027319,-9474.636058,740.205942,1149.143247
1237.027640,-9252.574275,148.041188,536.266849
1237.027961,-9622.677246,-296.082377,842.705048
1237.028282,-9918.759623,0.000000,2298.286494
1237.028603,-10140.821405,-666.185348,1991.848295
1237.028924,-9474.636058,-2072.576638,2528.115143
1237.029244,-9844.739029,-3182.885551,1455.581446
1237.029565,-8808.450710,-2516.700203,76.609550
1237.029886,-9474.636058,-814.226536,0.000000
1237.030207,-10214.842000,1776.494261,995.924147
1237.030528,-10288.862594,2516.700203,1149.143247
1237.030849,-10066.800811,1776.494261,919.314598
1237.031169,-10288.862594,74.020594,229.828649
1237.031490,-9548.656652,444.123565,306.438199
1237.031811,-10807.006753,-444.123565,1072.533697
1237.032132,-10362.883188,0.000000,2451.505594
1237.032453,-9696.697840,-1480.411884,1685.410096
1237.032773,-9770.718434,-2072.576638,612.876398
1237.033094,-9030.512492,-1850.514855,-306.438199
1237.033415,-9178.553681,-740.205942,-612.876398
1237.033736,-9770.718434,962.267725,612.876398
1237.034057,-9400.615463,1554.432478,842.705048
1237.034378,-10584.944971,1406.391290,76.609550
1237.034698,-9326.594869,-592.164754,995.924147
1237.035019,-9104.533087,-1036.288319,383.047749
1237.035340,-9992.780217,-1110.308913,1455.581446
1237.035661,-9918.759623,-1184.329507,1991.848295
1237.035982,-9326.594869,-1406.391290,2221.676944
1237.036303,-9326.594869,-2220.617826,1149.143247
1237.036623,-8660.409521,-1480.411884,76.609550
1237.036944,-9178.553681,-518.144159,612.876398
1237.037265,-9622.677246,518.144159,2451.505594
1237.037586,-9770.718434,1036.288319,2451.505594
1237.037907,-9622.677246,296.082377,1762.019645
1237.038227,-9252.574275,-592.164754,689.485948
1237.038548,-9474.636058,-222.061783,536.266849
1237.038869,-8882.471304,0.000000,1225.752797
1237.039190,-9474.636058,444.123565,612.876398
1237.039511,-9326.594869,148.041188,842.705048
1237.039832,-9104.533087,-740.205942,-536.266849
1237.040152,-9400.615463,-1036.288319,-306.438199
1237.040473,-9178.553681,296.082377,-153.219100
1237.040794,-9992.780217,1110.308913,995.924147
1237.041115,-10288.862594,1480.411884,1915.238745
1237.041436,-10140.821405,592.164754,2221.676944
1237.041757,-9992.780217,-74.020594,2221.676944
1237.042077,-10066.800811,-666.185348,1915.238745
1237.042398,-9992.780217,-148.041188,2145.067394
1237.042719,-10214.842000,-444.123565,2757.943793
1237.043040,-10066.800811,-1184.329507,1608.800546
1237.043361,-8956.491898,-2368.659014,1072.533697
1237.043681,-8586.388927,-3034.844362,-76.609550
1237.044002,-8734.430116,-1406.391290,0.000000
1237.044323,-9696.697840,592.164754,1455.581446
1237.044644,-10066.800811,1258.350101,2374.896044
1237.044965,-10066.800811,962.267725,1455.581446
1237.045286,-10066.800811,222.061783,459.657299
1237.045606,-9770.718434,370.102971,459.657299
1237.045927,-10140.821405,1036.288319,1608.800546
1237.046248,-10584.944971,666.185348,2604.724693
1237.046569,-9696.697840,-1184.329507,1838.629195
1237.046890,-8734.430116,-2294.638420,536.266849
1237.047211,-9104.533087,-3256.906145,0.000000
1237.047531,-8882.471304,-1554.432478,-459.657299
1237.047852,-9770.718434,74.020594,1149.143247
1237.048173,-9474.636058,1924.535449,536.266849
1237.048494,-9696.697840,1776.494261,1149.143247
1237.048815,-9474.636058,370.102971,0.000000
1237.049135,-9400.615463,-296.082377,459.657299
1237.049456,-10214.842000,-740.205942,1302.362347
1237.049777,-9770.718434,-814.226536,1685.410096
1237.050098,-9474.636058,-1776.494261,3524.039291
1237.050419,-9400.615463,-3108.864956,1302.362347
1237.050740,-8438.347739,-2812.782580,229.828649
1237.051060,-9252.574275,-1924.535449,76.609550
1237.051381,-9178.553681,0.000000,229.828649
1237.051702,-10066.800811,814.226536,612.876398
1237.052023,-9474.636058,666.185348,842.705048
1237.052344,-9474.636058,0.000000,459.657299
1237.052665,-9696.697840,-518.144159,153.219100
1237.052985,-9622.677246,74.020594,2528.115143
1237.053306,-10214.842000,-592.164754,2374.896044
1237.053627,-9918.759623,-1702.473667,2451.505594
1237.053948,-9770.718434,-2442.679609,842.705048
1237.054269,-9326.594869,-1628.453072,0.000000
1237.054589,-9770.718434,370.102971,-459.657299
1237.054910,-9770.718434,2442.679609,536.266849
1237.055231,-10140.821405,2442.679609,1149.143247
1237.055552,-9548.656652,1776.494261,689.485948
1237.055873,-10436.903782,1036.288319,1838.629195
1237.056194,-9918.759623,-1184.329507,459.657299
1237.056514,-10510.924376,-814.226536,2145.067394
1237.056835,-10955.047942,-888.247130,2911.162892
1237.057156,-9696.697840,-888.247130,3217.601092
1237.057477,-9844.739029,-2368.659014,1838.629195
1237.057798,-8586.388927,-3108.864956,0.000000
1237.058119,-8290.306550,-1850.514855,-842.705048
1237.058439,-9400.615463,0.000000,306.438199
1237.058760,-9992.780217,1332.370696,842.705048
1237.059081,-9548.656652,1406.391290,1072.533697
1237.059402,-9400.615463,666.185348,766.095498
1237.059723,-9474.636058,518.144159,766.095498
1237.060043,-10584.944971,444.123565,1915.238745
1237.060364,-10881.027347,444.123565,2911.162892
1237.060685,-10066.800811,-370.102971,2757.943793
1237.061006,-9474.636058,-1406.391290,1608.800546
1237.061327,-9178.553681,-2294.638420,229.828649
1237.061648,-9696.697840,-1110.308913,-153.219100
1237.061968,-9252.574275,0.000000,383.047749
1237.062289,-9326.594869,1554.432478,1455.581446
1237.062610,-9474.636058,962.267725,1532.190996
1237.062931,-9252.574275,0.000000,1915.238745
1237.063252,-9844.739029,-962.267725,995.924147
1237.063573,-9474.636058,-444.123565,1685.410096
1237.063893,-9992.780217,-592.164754,2681.334243
1237.064214,-9474.636058,-814.226536,2757.943793
1237.064535,-9918.759623,-1998.556043,1378.971896
1237.064856,-8734.430116,-2812.782580,536.266849
1237.065177,-8586.388927,-2146.597232,0.000000
1237.065497,-9030.512492,-370.102971,153.219100
1237.065818,-9622.677246,1110.308913,1378.971896
1237.066139,-9474.636058,888.247130,766.095498
1237.066460,-9474.636058,74.020594,229.828649
1237.066781,-9474.636058,296.082377,0.000000
1237.067102,-10066.800811,370.102971,919.314598
1237.067422,-10362.883188,444.123565,1149.143247
1237.067743,-10140.821405,-1036.288319,2451.505594
1237.068064,-9770.718434,-2368.659014,842.705048
1237.068385,-9252.574275,-2516.700203,0.000000
1237.068706,-9770.718434,-1702.473667,-459.657299
1237.069027,-9178.553681,666.185348,1302.362347
1237.069347,-9844.739029,1702.473667,1149.143247
1237.069668,-9622.677246,1480.411884,689.485948
1237.069989,-9548.656652,740.205942,-153.219100
1237.070310,-9844.739029,-370.102971,0.000000
1237.070631,-9992.780217,0.000000,1608.800546
1237.070951,-10510.924376,0.000000,2604.724693
1237.071272,-10140.821405,-592.164754,2528.115143
1237.071593,-9548.656652,-1998.556043,1532.190996
1237.071914,-9030.512492,-2072.576638,229.828649
1237.072235,-9030.512492,-1332.370696,0.000000
1237.072556,-9474.636058,370.102971,536.266849
1237.072876,-9770.718434,1776.494261,1455.581446
1237.073197,-9844.739029,1406.391290,1225.752797
1237.073518,-9326.594869,1480.411884,1915.238745
1237.073839,-9622.677246,0.000000,766.095498
1237.074160,-9548.656652,-370.102971,995.924147
1237.074481,-9918.759623,-296.082377,1915.238745
1237.074801,-9992.780217,-592.164754,2528.115143
1237.075122,-9400.615463,-1924.535449,2145.067394
1237.075443,-8956.491898,-2442.679609,766.095498
1237.075764,-8882.471304,-1480.411884,0.000000
1237.076085,-9178.553681,1036.288319,459.657299
1237.076405,-9548.656652,1924.535449,3140.991542
1237.076726,-9252.574275,1406.391290,1991.848295
1237.077047,-9400.615463,666.185348,919.314598
1237.077368,-9104.533087,-518.144159,995.924147
1237.077689,-9622.677246,-888.247130,1685.410096
1237.078010,-10066.800811,-1036.288319,2987.772442
1237.078330,-9622.677246,-1554.432478,2911.162892
1237.078651,-9474.636058,-2368.659014,2221.676944
1237.078972,-8734.430116,-2368.659014,689.485948
1237.079293,-8364.327145,-1258.350101,-689.485948
1237.079614,-9474.636058,666.185348,1072.533697
1237.079935,-9696.697840,1998.556043,1838.629195
1237.080255,-9918.759623,1110.308913,2068.457845
1237.080576,-9770.718434,0.000000,612.876398
1237.080897,-9400.615463,-518.144159,229.828649
1237.081218,-9696.697840,-148.041188,1072.533697
1237.081539,-9992.780217,-444.123565,1991.848295
1237.081859,-9622.677246,-888.247130,2451.505594
1237.082180,-9548.656652,-2516.700203,1302.362347
1237.082501,-8734.430116,-2886.803174,-306.438199
1237.082822,-9030.512492,-2220.617826,-153.219100
1237.083143,-9992.780217,0.000000,612.876398
1237.083464,-9992.780217,1776.494261,1532.190996
1237.083784,-9474.636058,1184.329507,1455.581446
1237.084105,-9696.697840,296.082377,1072.533697
1237.084426,-9770.718434,-1036.288319,229.828649
1237.084747,-9992.780217,-1036.288319,459.657299
1237.085068,-10288.862594,-296.082377,1532.190996
1237.085389,-10362.883188,-740.205942,2374.896044
1237.085709,-9622.677246,-1332.370696,1378.971896
1237.086030,-9252.574275,-1998.556043,-383.047749
1237.086351,-9030.512492,-1036.288319,-612.876398
1237.086672,-9400.615463,740.205942,1149.143247
1237.086993,-10510.924376,1480.411884,1762.019645
1237.087313,-9622.677246,1406.391290,1072.533697
1237.087634,-9474.636058,222.061783,76.609550
1237.087955,-9474.636058,222.061783,153.219100
1237.088276,-9696.697840,740.205942,229.828649
1237.088597,-10140.821405,888.247130,1991.848295
1237.088918,-9918.759623,0.000000,1915.238745
1237.089238,-9252.574275,-1776.494261,842.705048
1237.089559,-9178.553681,-3108.864956,-229.828649
1237.089880,-8882.471304,-2368.659014,-306.438199
1237.090201,-9252.574275,148.041188,153.219100
1237.090522,-9474.636058,1998.556043,1302.362347
1237.090842,-9326.594869,2220.617826,1378.971896
1237.091163,-8882.471304,592.164754,2528.115143
1237.091484,-9474.636058,-222.061783,1302.362347
1237.091805,-9844.739029,-962.267725,1608.800546
1237.092126,-10066.800811,-888.247130,2298.286494
1237.092447,-10066.800811,-1628.453072,2757.943793
1237.092767,-9178.553681,-2072.576638,2374.896044
1237.093088,-8882.471304,-1924.535449,536.266849
1237.093409,-8808.450710,-444.123565,536.266849
1237.093730,-9474.636058,962.267725,459.657299
1237.094051,-9474.636058,1850.514855,1532.190996
1237.094372,-9770.718434,1628.453072,1455.581446
1237.094692,-9326.594869,814.226536,229.828649
1237.095013,-9548.656652,740.205942,459.657299
1237.095334,-9992.780217,370.102971,1378.971896
1237.095655,-10140.821405,444.123565,2528.115143
1237.095976,-10288.862594,-518.144159,2834.553343
1237.096296,-9918.759623,-1776.494261,2145.067394
1237.096617,-8956.491898,-1628.453072,689.485948
1237.096938,-9992.780217,-2072.576638,919.314598
1237.097259,-9326.594869,222.061783,1378.971896
1237.097580,-10140.821405,1332.370696,2145.067394
1237.097901,-9770.718434,222.061783,1685.410096
1237.098221,-9326.594869,222.061783,1455.581446
1237.098542,-9918.759623,-2294.638420,1072.533697
1237.098863,-9696.697840,-1036.288319,995.924147
1237.099184,-10214.842000,-296.082377,2145.067394
1237.099505,-10066.800811,-814.226536,2528.115143
1237.099826,-9474.636058,-2146.597232,1532.190996
1237.100146,-9918.759623,-1924.535449,153.219100
1237.100467,-8956.491898,-2368.659014,-306.438199
1237.100788,-9326.594869,-740.205942,536.266849
1237.101109,-10066.800811,518.144159,1378.971896
1237.101430,-9918.759623,740.205942,1455.581446
1237.101750,-9696.697840,0.000000,536.266849
1237.102071,-9326.594869,-518.144159,-383.047749
1237.102392,-9770.718434,-666.185348,306.438199
1237.102713,-9992.780217,-814.226536,1378.971896
1237.103034,-9696.697840,-1332.370696,1532.190996
1237.103355,-9178.553681,-2294.638420,1149.143247
1237.103675,-9252.574275,-3108.864956,-229.828649
1237.103996,-8956.491898,-2368.659014,-459.657299
1237.104317,-9770.718434,-518.144159,0.000000
1237.104638,-9326.594869,1628.453072,2451.505594
1237.104959,-10066.800811,1850.514855,919.314598
1237.105280,-9844.739029,1110.308913,689.485948
1237.105600,-9548.656652,148.041188,612.876398
1237.105921,-10066.800811,-370.102971,1072.533697
1237.106242,-10362.883188,-888.247130,1991.848295
1237.106563,-9992.780217,-1776.494261,2374.896044
1237.106883,-9474.636058,-2812.782580,1302.362347
1237.107204,-8734.430116,-3108.864956,76.609550
1237.107525,-8734.430116,-1480.411884,0.000000
1237.107846,-9548.656652,296.082377,766.095498
1237.108166,-9696.697840,2294.638420,1991.848295
1237.108487,-9770.718434,2516.700203,1685.410096
1237.108808,-10214.842000,0.000000,0.000000
1237.109129,-9104.533087,888.247130,842.705048
1237.109449,-11621.233289,-370.102971,1072.533697
1237.109770,-9696.697840,962.267725,3140.991542
1237.110091,-10807.006753,-740.205942,1991.848295
1237.110412,-9474.636058,-444.123565,1915.238745
1237.110732,-9252.574275,-1850.514855,-229.828649
1237.111053,-9992.780217,444.123565,842.705048
1237.111374,-9178.553681,1406.391290,1149.143247
1237.111694,-9474.636058,2220.617826,383.047749
1237.112015,-10214.842000,2220.617826,1991.848295
1237.112336,-9474.636058,666.185348,2451.505594
1237.112657,-9696.697840,148.041188,1608.800546
1237.112977,-10214.842000,-74.020594,2374.896044
1237.113298,-9326.594869,0.000000,2451.505594
1237.113619,-9918.759623,-1036.288319,2528.115143
1237.113940,-9474.636058,-2146.597232,2298.286494
1237.114260,-8512.368333,-2664.741391,229.828649
1237.114581,-8882.471304,-1406.391290,383.047749
1237.114902,-8882.471304,296.082377,919.314598
1237.115223,-9844.739029,2072.576638,842.705048
1237.115543,-9992.780217,740.205942,2145.067394
1237.115864,-9326.594869,-74.020594,1149.143247
1237.116185,-9400.615463,-1110.308913,842.705048
1237.116505,-9622.677246,-1184.329507,1532.190996
1237.116826,-9770.718434,-666.185348,2757.943793
1237.117147,-9696.697840,-1258.350101,2374.896044
1237.117468,-9252.574275,-2294.638420,919.314598
1237.117788,-8068.244768,-2738.761985,-612.876398
1237.118109,-8068.244768,-2664.741391,-1991.848295
1237.118430,-8808.450710,0.000000,-1302.362347
1237.118751,-9252.574275,1776.494261,153.219100
1237.119071,-9770.718434,2220.617826,919.314598
1237.119392,-9992.780217,962.267725,842.705048
1237.119713,-10066.800811,-740.205942,1608.800546
1237.120034,-11177.109724,-296.082377,1838.629195
1237.120354,-11103.089130,-296.082377,2604.724693
1237.120675,-10807.006753,-1184.329507,3140.991542
1237.120996,-9992.780217,-2294.638420,1532.190996
1237.121316,-9474.636058,-2664.741391,0.000000
1237.121637,-8882.471304,-1776.494261,-1532.190996
1237.121958,-9030.512492,296.082377,-766.095498
1237.122279,-9770.718434,1554.432478,153.219100
1237.122599,-10881.027347,2960.823768,-383.047749
1237.122920,-10140.821405,592.164754,-229.828649
1237.123241,-9770.718434,0.000000,-306.438199
1237.123562,-10436.903782,0.000000,383.047749
1237.123882,-10955.047942,0.000000,2145.067394
1237.124203,-11177.109724,-814.226536,2604.724693
1237.124524,-9992.780217,-2220.617826,1608.800546
1237.124845,-9326.594869,-2590.720797,76.609550
1237.125165,-8882.471304,-2072.576638,-383.047749
1237.125486,-8660.409521,-666.185348,306.438199
1237.125807,-9104.533087,1036.288319,1149.143247
1237.126127,-9252.574275,1406.391290,1378.971896
1237.126448,-8882.471304,740.205942,995.924147
1237.126769,-9252.574275,148.041188,1378.971896
1237.127090,-10140.821405,-148.041188,2221.676944
1237.127410,-9918.759623,592.164754,3524.039291
1237.127731,-10066.800811,-518.144159,3600.648841
1237.128052,-9178.553681,-1702.473667,2757.943793
1237.128373,-8438.347739,-2664.741391,153.219100
1237.128693,-8364.327145,-1998.556043,536.266849
1237.129014,-8734.430116,0.000000,306.438199
1237.129335,-8734.430116,1554.432478,1149.143247
1237.129656,-9326.594869,1776.494261,1072.533697
1237.129976,-8882.471304,1406.391290,842.705048
1237.130297,-9474.636058,296.082377,995.924147
1237.130618,-9992.780217,-148.041188,1608.800546
1237.130938,-10362.883188,222.061783,2604.724693
1237.131259,-10807.006753,-814.226536,3217.601092
1237.131580,-9696.697840,-1998.556043,2528.115143
1237.131901,-9326.594869,-3034.844362,842.705048
1237.132221,-9030.512492,-2146.597232,-306.438199
1237.132542,-9252.574275,0.000000,-229.828649
1237.132863,-10362.883188,2368.659014,0.000000
1237.133184,-9844.739029,3034.844362,842.705048
1237.133504,-9992.780217,1776.494261,536.266849
1237.133825,-10066.800811,740.205942,842.705048
1237.134146,-10436.903782,-740.205942,689.485948
1237.134466,-10955.047942,0.000000,1991.848295
1237.134787,-11399.171507,-814.226536,2987.772442
1237.135108,-10436.903782,-1998.556043,2145.067394
1237.135429,-9474.636058,-2738.761985,612.876398
1237.135749,-9770.718434,-1850.514855,1072.533697
1237.136070,-9104.533087,-518.144159,-459.657299
1237.136391,-9400.615463,1110.308913,842.705048
1237.136712,-9400.615463,1258.350101,689.485948
1237.137032,-9104.533087,370.102971,-459.657299
1237.137353,-9326.594869,0.000000,-153.219100
1237.137674,-9696.697840,-592.164754,459.657299
1237.137995,-10288.862594,74.020594,2068.457845
1237.138315,-10658.965565,-370.102971,3064.381992
1237.138636,-10140.821405,-1110.308913,2374.896044
1237.138957,-8956.491898,-2368.659014,1225.752797
1237.139277,-9178.553681,-2738.761985,153.219100
1237.139598,-8882.471304,-592.164754,306.438199
1237.139919,-9474.636058,518.144159,612.876398
1237.140240,-8512.368333,1332.370696,919.314598
1237.140560,-8956.491898,1184.329507,995.924147
1237.140881,-9030.512492,222.061783,919.314598
1237.141202,-9770.718434,-962.267725,1532.190996
1237.141523,-9992.780217,-1776.494261,2451.505594
1237.141843,-9844.739029,-2368.659014,2757.943793
1237.142164,-9326.594869,-2590.720797,2374.896044
1237.142485,-9252.574275,-3256.906145,842.705048
1237.142806,-8660.409521,-1924.535449,229.828649
1237.143126,-9474.636058,-518.144159,536.266849
1237.143447,-9696.697840,1998.556043,1378.971896
1237.143768,-9844.739029,1998.556043,1302.362347
1237.144088,-9770.718434,74.020594,306.438199
1237.144409,-9178.553681,-370.102971,-842.705048
1237.144730,-9696.697840,148.041188,0.000000
1237.145051,-10066.800811,592.164754,1608.800546
1237.145371,-10658.965565,222.061783,2681.334243
1237.145692,-10510.924376,-1110.308913,2374.896044
1237.146013,-9548.656652,-1406.391290,306.438199
1237.146334,-9844.739029,-1702.473667,229.828649
1237.146654,-9918.759623,-74.020594,766.095498
1237.146975,-9844.739029,1332.370696,1532.190996
1237.147296,-9696.697840,1998.556043,1532.190996
1237.147617,-9252.574275,1036.288319,995.924147
1237.147937,-9326.594869,-370.102971,536.266849
1237.148258,-9548.656652,-888.247130,1302.362347
1237.148579,-10140.821405,-592.164754,2221.676944
1237.148899,-10362.883188,-370.102971,3140.991542
1237.149220,-9918.759623,-1036.288319,2528.115143
1237.149541,-9400.615463,-1776.494261,1455.581446
1237.149862,-8882.471304,-1554.432478,459.657299
1237.150182,-9326.594869,-222.061783,459.657299
1237.150503,-9696.697840,1406.391290,1685.410096
1237.150824,-9622.677246,2072.576638,1762.019645
1237.151145,-9400.615463,1184.329507,842.705048
1237.151465,-9030.512492,148.041188,229.828649
1237.151786,-9178.553681,-888.247130,2068.457845
1237.152107,-9474.636058,-222.061783,1685.410096
1237.152428,-10214.842000,-666.185348,2528.115143
1237.152748,-9622.677246,-1554.432478,2298.286494
1237.153069,-9252.574275,-2738.761985,689.485948
1237.153390,-8882.471304,-2442.679609,0.000000
1237.153710,-8956.491898,-740.205942,-459.657299
1237.154031,-9474.636058,1554.432478,689.485948
1237.154352,-9474.636058,2368.659014,995.924147
1237.154673,-9326.594869,666.185348,153.219100
1237.154993,-9918.759623,-222.061783,306.438199
1237.155314,-9918.759623,-1110.308913,689.485948
1237.155635,-10288.862594,-1332.370696,1762.019645
1237.155956,-10436.903782,-1850.514855,2451.505594
1237.156276,-9622.677246,-2368.659014,2298.286494
1237.156597,-9400.615463,-3330.926739,383.047749
1237.156918,-8364.327145,-1776.494261,-612.876398
1237.157239,-9400.615463,444.123565,383.047749
1237.157559,-10140.821405,1924.535449,919.314598
1237.157880,-10140.821405,2220.617826,1378.971896
1237.158201,-9844.739029,740.205942,0.000000
1237.158521,-9252.574275,0.000000,-1072.533697
1237.158842,-9918.759623,518.144159,-459.657299
1237.159163,-10066.800811,370.102971,995.924147
1237.159484,-10436.903782,666.185348,1532.190996
1237.159804,-10066.800811,-222.061783,1608.800546
1237.160125,-9770.718434,-1332.370696,229.828649
1237.160446,-9622.677246,-1184.329507,0.000000
1237.160767,-9400.615463,-296.082377,383.047749
1237.161087,-9474.636058,1184.329507,766.095498
1237.161408,-9548.656652,1480.411884,1072.533697
1237.161729,-9104.533087,74.020594,842.705048
1237.162050,-8586.388927,-592.164754,1225.752797
1237.162370,-9770.718434,-962.267725,995.924147
1237.162691,-9992.780217,-222.061783,2374.896044
1237.163012,-10066.800811,-444.123565,2911.162892
1237.163332,-9474.636058,-1850.514855,2068.457845
1237.163653,-8512.368333,-3256.906145,1685.410096
1237.163974,-8734.430116,-2738.761985,306.438199
1237.164295,-9104.533087,-1184.329507,536.266849
1237.164615,-9474.636058,888.247130,1608.800546
1237.164936,-9474.636058,1406.391290,2068.457845
1237.165257,-9474.636058,592.164754,766.095498
1237.165578,-8586.388927,1258.350101,689.485948
1237.165898,-9992.780217,0.000000,766.095498
1237.166219,-9400.615463,518.144159,2221.676944
1237.166540,-9696.697840,-1258.350101,2681.334243
1237.166860,-9474.636058,-2220.617826,2451.505594
1237.167181,-9326.594869,-2590.720797,1532.190996
1237.167502,-9252.574275,-2590.720797,1072.533697
1237.167823,-8734.430116,0.000000,1225.752797
1237.168143,-9622.677246,1036.288319,1225.752797
1237.168464,-9326.594869,2146.597232,1762.019645
1237.168785,-9918.759623,1628.453072,1532.190996
1237.169106,-9400.615463,740.205942,1455.581446
1237.169426,-9474.636058,-148.041188,1685.410096
1237.169747,-10362.883188,-666.185348,2221.676944
1237.170068,-10362.883188,-1110.308913,2681.334243
1237.170389,-9992.780217,-2294.638420,2221.676944
1237.170709,-9622.677246,-3034.844362,1608.800546
1237.171030,-9030.512492,-2220.617826,0.000000
1237.171351,-9770.718434,-592.164754,229.828649
1237.171671,-9622.677246,1332.370696,1225.752797
1237.171992,-9918.759623,1776.494261,1149.143247
1237.172313,-9104.533087,444.123565,383.047749
1237.172634,-9252.574275,-296.082377,-536.266849
1237.172954,-10066.800811,-1036.288319,0.000000
1237.173275,-10214.842000,-814.226536,919.314598
1237.173596,-10362.883188,-1184.329507,1225.752797
1237.173917,-10436.903782,-1776.494261,919.314598
1237.174237,-9030.512492,-2664.741391,0.000000
1237.174558,-9400.615463,-2072.576638,-459.657299
1237.174879,-9326.594869,-296.082377,-306.438199
1237.175200,-8586.388927,1110.308913,-306.438199
1237.175520,-9696.697840,1776.494261,1149.143247
1237.175841,-9252.574275,518.144159,919.314598
1237.176162,-9400.615463,-592.164754,306.438199
1237.176482,-9474.636058,-666.185348,536.266849
1237.176803,-9770.718434,-666.185348,1608.800546
1237.177124,-9918.759623,-666.185348,2451.505594
1237.177445,-9622.677246,-1998.556043,2068.457845
1237.177765,-8956.491898,-2812.782580,1149.143247
1237.178086,-7772.162391,-1776.494261,-306.438199
1237.178407,-9030.512492,-1110.308913,76.609550
1237.178728,-9696.697840,1554.432478,1149.143247
1237.179048,-9622.677246,2294.638420,1455.581446
1237.179369,-9770.718434,2072.576638,1072.533697
1237.179690,-9178.553681,1406.391290,229.828649
1237.180011,-9548.656652,814.226536,383.047749
1237.180331,-10288.862594,814.226536,1302.362347
1237.180652,-10362.883188,0.000000,2374.896044
1237.180973,-10510.924376,-2146.597232,2068.457845
1237.181293,-9622.677246,-2294.638420,1072.533697
1237.181614,-9326.594869,-1776.494261,0.000000
1237.181935,-9474.636058,0.000000,0.000000
1237.182256,-9696.697840,2072.576638,995.924147
1237.182576,-9474.636058,2812.782580,2068.457845
1237.182897,-9770.718434,1850.514855,1685.410096
1237.183218,-9548.656652,444.123565,1302.362347
1237.183539,-9770.718434,-148.041188,1455.581446
1237.183859,-10066.800811,-592.164754,3677.258390
1237.184180,-10214.842000,-148.041188,2987.772442
1237.184501,-9918.759623,-1184.329507,2528.115143
1237.184822,-9548.656652,-1924.535449,2068.457845
1237.185142,-9326.594869,-2146.597232,766.095498
1237.185463,-9104.533087,-1332.370696,459.657299
1237.185784,-9252.574275,0.000000,842.705048
1237.186104,-9178.553681,1332.370696,1378.971896
1237.186425,-9474.636058,444.123565,766.095498
1237.186746,-9326.594869,740.205942,229.828649
1237.187067,-9030.512492,296.082377,306.438199
1237.187387,-10214.842000,0.000000,1378.971896
1237.187708,-10066.800811,370.102971,2068.457845
1237.188029,-9992.780217,-962.267725,3447.429741
1237.188350,-9326.594869,-1924.535449,536.266849
1237.188670,-9252.574275,-2738.761985,-459.657299
1237.188991,-8290.306550,-1110.308913,-306.438199
1237.189312,-9326.594869,0.000000,229.828649
1237.189633,-9918.759623,1110.308913,306.438199
1237.189953,-9474.636058,370.102971,689.485948
1237.190274,-9178.553681,0.000000,153.219100
1237.190595,-9474.636058,-592.164754,229.828649
1237.190915,-9992.780217,0.000000,1685.410096
1237.191236,-10436.903782,-296.082377,2451.505594
1237.191557,-9918.759623,-2220.617826,1685.410096
1237.191878,-9548.656652,-2886.803174,766.095498
1237.192198,-8956.491898,-2664.741391,-383.047749
1237.192519,-10140.821405,-1776.494261,-1149.143247
1237.192840,-9992.780217,814.226536,995.924147
1237.193161,-10066.800811,1406.391290,1225.752797
1237.193481,-9474.636058,1184.329507,0.000000
1237.193802,-9844.739029,592.164754,0.000000
1237.194123,-10140.821405,148.041188,919.314598
1237.194444,-10288.862594,-518.144159,2068.457845
1237.194764,-10955.047942,-1036.288319,2451.505594
1237.195085,-10436.903782,-1998.556043,2604.724693
1237.195406,-9548.656652,-2368.659014,2834.553343
1237.195726,-9844.739029,-2368.659014,1378.971896
1237.196047,-9474.636058,-1332.370696,689.485948
1237.196368,-9474.636058,740.205942,1072.533697
1237.196689,-9326.594869,1480.411884,995.924147
1237.197009,-8586.388927,0.000000,0.000000
1237.197330,-8882.471304,0.000000,0.000000
1237.197651,-8512.368333,296.082377,76.609550
1237.197972,-9770.718434,74.020594,1149.143247
1237.198292,-9548.656652,0.000000,2757.943793
1237.198613,-9474.636058,-1850.514855,2528.115143
1237.198934,-9622.677246,-3034.844362,1838.629195
1237.199255,-8734.430116,-3182.885551,459.657299
1237.199575,-9474.636058,-1406.391290,842.705048
1237.199896,-9992.780217,1406.391290,842.705048
1237.200217,-9770.718434,1924.535449,2068.457845
1237.200537,-9622.677246,1036.288319,919.314598
1237.200858,-8512.368333,222.061783,-306.438199
1237.201179,-9548.656652,-740.205942,-995.924147
1237.201500,-9622.677246,370.102971,919.314598
1237.201820,-10362.883188,370.102971,2298.286494
1237.202141,-9992.780217,0.000000,1991.848295
1237.202462,-9622.677246,-1332.370696,1149.143247
1237.202783,-8882.471304,-1184.329507,-1072.533697
1237.203103,-9400.615463,-666.185348,229.828649
1237.203424,-10140.821405,1332.370696,766.095498
1237.203745,-9918.759623,2368.659014,1455.581446
1237.204065,-9400.615463,1850.514855,1225.752797
1237.204386,-9104.533087,592.164754,1225.752797
1237.204707,-9178.553681,-370.102971,689.485948
1237.205028,-9844.739029,-888.247130,1378.971896
1237.205348,-10066.800811,-1184.329507,2528.115143
1237.205669,-9400.615463,-1924.535449,2528.115143
1237.205990,-9918.759623,-2960.823768,1608.800546
1237.206311,-8808.450710,-2738.761985,459.657299
1237.206631,-9252.574275,-1258.350101,306.438199
1237.206952,-9696.697840,518.144159,1532.190996
1237.207273,-9474.636058,1850.514855,1915.238745
1237.207594,-9770.718434,1036.288319,1685.410096
1237.207915,-9696.697840,296.082377,689.485948
1237.208235,-9474.636058,-296.082377,612.876398
1237.208556,-9548.656652,222.061783,536.266849
1237.208877,-9844.739029,-518.144159,1685.410096
1237.209198,-9622.677246,-1184.329507,1608.800546
1237.209519,-9178.553681,-2072.576638,306.438199
1237.209839,-9326.594869,-2516.700203,0.000000
1237.210160,-9474.636058,-1332.370696,0.000000
1237.210481,-9622.677246,444.123565,612.876398
1237.210802,-10140.821405,1702.473667,1608.800546
1237.211122,-9548.656652,1628.453072,1149.143247
1237.211443,-9918.759623,370.102971,1532.190996
1237.211764,-9696.697840,-740.205942,1072.533697
1237.212085,-10436.903782,-666.185348,1915.238745
1237.212406,-10584.944971,-1776.494261,2451.505594
1237.212726,-10066.800811,-2072.576638,2221.676944
1237.213047,-9992.780217,-2812.782580,995.924147
1237.213368,-9178.553681,-2294.638420,-153.219100
1237.213689,-9178.553681,-518.144159,-383.047749
1237.214009,-9770.718434,1258.350101,383.047749
1237.214330,-9252.574275,2368.659014,2221.676944
1237.214651,-9474.636058,1036.288319,0.000000
1237.214972,-8882.471304,666.185348,-536.266849
1237.215293,-9474.636058,0.000000,-153.219100
1237.215613,-9622.677246,222.061783,1149.143247
1237.215934,-9622.677246,74.020594,1991.848295
1237.216255,-10140.821405,-1258.350101,1915.238745
1237.216576,-9178.553681,-1850.514855,612.876398
1237.216896,-9030.512492,-2294.638420,0.000000
1237.217217,-9474.636058,-740.205942,76.609550
1237.217538,-9770.718434,592.164754,1149.143247
1237.217859,-9918.759623,1776.494261,1915.238745
1237.218180,-9918.759623,1406.391290,2145.067394
1237.218500,-9844.739029,518.144159,1762.019645
1237.218821,-9622.677246,-444.123565,1685.410096
1237.219142,-9770.718434,-148.041188,2221.676944
1237.219463,-9696.697840,-592.164754,2911.162892
1237.219783,-9400.615463,-1406.391290,2528.115143
1237.220104,-9178.553681,-2738.761985,1149.143247
1237.220425,-8438.347739,-2442.679609,76.609550
1237.220746,-8882.471304,-740.205942,383.047749
1237.221067,-9178.553681,1480.411884,1072.533697
1237.221387,-9622.677246,2516.700203,1991.848295
1237.221708,-9770.718434,2072.576638,1378.971896
1237.222029,-9252.574275,296.082377,459.657299
1237.222350,-9548.656652,-222.061783,689.485948
1237.222671,-10288.862594,-444.123565,1685.410096
1237.222991,-8660.409521,-888.247130,2987.772442
1237.223312,-10140.821405,-1332.370696,2528.115143
1237.223633,-9696.697840,-2368.659014,1225.752797
1237.223954,-9400.615463,-2516.700203,0.000000
1237.224274,-9252.574275,-1480.411884,-383.047749
1237.224595,-9474.636058,592.164754,383.047749
1237.224916,-9696.697840,1110.308913,1302.362347
1237.225237,-9474.636058,1036.288319,689.485948
1237.225558,-9622.677246,444.123565,306.438199
1237.225878,-10140.821405,-74.020594,1225.752797
1237.226199,-9918.759623,148.041188,919.314598
1237.226520,-10658.965565,0.000000,1915.238745
1237.226841,-10288.862594,-1258.350101,2298.286494
1237.227161,-9548.656652,-2738.761985,1225.752797
1237.227482,-9104.533087,-3108.864956,-383.047749
1237.227803,-9252.574275,-1850.514855,-612.876398
1237.228124,-9918.759623,444.123565,919.314598
1237.228445,-10066.800811,1850.514855,1838.629195
1237.228765,-9548.656652,1110.308913,1378.971896
1237.229086,-9474.636058,1036.288319,0.000000
1237.229407,-9770.718434,296.082377,229.828649
1237.229728,-10214.842000,1110.308913,1149.143247
1237.230048,-10510.924376,0.000000,2221.676944
1237.230369,-9918.759623,-814.226536,1838.629195
1237.230690,-9474.636058,-2368.659014,766.095498
1237.231011,-9104.533087,-2738.761985,-229.828649
1237.231332,-9252.574275,-1924.535449,-383.047749
1237.231652,-8882.471304,-296.082377,229.828649
1237.231973,-9474.636058,1628.453072,995.924147
1237.232294,-9252.574275,1850.514855,1149.143247
1237.232615,-9474.636058,296.082377,1149.143247
1237.232936,-9326.594869,-1036.288319,919.314598
1237.233256,-9844.739029,-962.267725,1838.629195
1237.233577,-9770.718434,-962.267725,2451.505594
1237.233898,-9548.656652,-1554.432478,2604.724693
1237.234219,-9326.594869,-2738.761985,1838.629195
1237.234539,-8586.388927,-2442.679609,689.485948
1237.234860,-8734.430116,-1036.288319,0.000000
1237.235181,-9844.739029,296.082377,1378.971896
1237.235502,-9474.636058,1036.288319,1838.629195
1237.235823,-9474.636058,814.226536,1838.629195
1237.236143,-9178.553681,-148.041188,842.705048
1237.236464,-9252.574275,0.000000,919.314598
1237.236785,-9696.697840,74.020594,1685.410096
1237.237106,-9474.636058,962.267725,2298.286494
1237.237426,-10436.903782,-148.041188,2145.067394
1237.237747,-9400.615463,-740.205942,1762.019645
1237.238068,-9326.594869,-1554.432478,536.266849
1237.238389,-9548.656652,-1702.473667,76.609550
1237.238710,-9474.636058,296.082377,919.314598
1237.239030,-10362.883188,1554.432478,1762.019645
1237.239351,-9474.636058,1998.556043,1915.238745
1237.239672,-9696.697840,444.123565,1302.362347
1237.239993,-9474.636058,-148.041188,919.314598
1237.240313,-10288.862594,-444.123565,1838.629195
1237.240634,-10066.800811,-296.082377,2451.505594
1237.240955,-9918.759623,-1036.288319,2451.505594
1237.241276,-9400.615463,-2664.741391,995.924147
1237.241597,-9030.512492,-2442.679609,229.828649
1237.241917,-8956.491898,-1480.411884,536.266849
1237.242238,-9548.656652,518.144159,919.314598
1237.242559,-9992.780217,2072.576638,1455.581446
1237.242880,-9992.780217,1258.350101,1072.533697
1237.243200,-9104.533087,962.267725,459.657299
1237.243521,-9770.718434,-74.020594,153.219100
1237.243842,-9918.759623,-222.061783,766.095498
1237.244163,-10140.821405,-740.205942,1838.629195
1237.244484,-10066.800811,-1776.494261,2068.457845
1237.244804,-9474.636058,-2738.761985,1072.533697
1237.245125,-9326.594869,-3256.906145,0.000000
1237.245446,-8882.471304,-1850.514855,-612.876398
1237.245767,-9252.574275,74.020594,153.219100
1237.246088,-9474.636058,1628.453072,2681.334243
1237.246408,-9696.697840,2442.679609,1225.752797
1237.246729,-9548.656652,1110.308913,995.924147
1237.247050,-9622.677246,-148.041188,536.266849
1237.247371,-10066.800811,-1184.329507,1302.362347
1237.247691,-9844.739029,-1480.411884,1455.581446
1237.248012,-9992.780217,-1554.432478,2298.286494
1237.248333,-9474.636058,-2516.700203,1302.362347
1237.248654,-8882.471304,-2146.597232,306.438199
1237.248975,-9178.553681,-888.247130,-76.609550
1237.249295,-9474.636058,814.226536,995.924147
1237.249616,-9696.697840,1406.391290,1225.752797
1237.249937,-9770.718434,1332.370696,1072.533697
1237.250258,-9474.636058,296.082377,76.609550
1237.250578,-8956.491898,0.000000,842.705048
1237.250899,-10362.883188,1036.288319,1149.143247
1237.251220,-10288.862594,1184.329507,2374.896044
1237.251541,-10362.883188,0.000000,2604.724693
1237.251862,-9918.759623,-2072.576638,1915.238745
1237.252182,-9474.636058,-2516.700203,383.047749
1237.252503,-9400.615463,-1998.556043,0.000000
1237.252824,-9474.636058,222.061783,536.266849
1237.253145,-9252.574275,1924.535449,1378.971896
1237.253465,-9030.512492,2146.597232,1838.629195
1237.253786,-9770.718434,1924.535449,1532.190996
1237.254107,-9548.656652,222.061783,1302.362347
1237.254428,-9622.677246,-740.205942,1608.800546
1237.254749,-9844.739029,-1110.308913,2451.505594
1237.255069,-9696.697840,-1480.411884,2987.772442
1237.255390,-9622.677246,-2146.597232,2298.286494
1237.255711,-8808.450710,-1850.514855,1072.533697
1237.256032,-9030.512492,-962.267725,459.657299
1237.256352,-9474.636058,518.144159,995.924147
1237.256673,-10066.800811,1110.308913,995.924147
1237.256994,-9622.677246,1258.350101,1608.800546
1237.257315,-9252.574275,222.061783,76.609550
1237.257636,-8882.471304,370.102971,306.438199
1237.257956,-9622.677246,444.123565,1225.752797
1237.258277,-10955.047942,0.000000,4136.915689
1237.258598,-9992.780217,-1036.288319,2834.553343
1237.258919,-9770.718434,-3256.906145,1532.190996
1237.259240,-8808.450710,-3478.967927,0.000000
1237.259560,-9104.533087,-2294.638420,-459.657299
1237.259881,-9030.512492,222.061783,459.657299
1237.260202,-9252.574275,1702.473667,1072.533697
1237.260523,-9474.636058,1480.411884,1455.581446
1237.260843,-9548.656652,74.020594,536.266849
1237.261164,-9474.636058,-888.247130,229.828649
1237.261485,-10658.965565,-592.164754,1608.800546
1237.261806,-10658.965565,222.061783,2451.505594
1237.262127,-10362.883188,-518.144159,2298.286494
1237.262447,-9918.759623,-2146.597232,1915.238745
1237.262768,-8808.450710,-2664.741391,919.314598
1237.263089,-9400.615463,-2590.720797,-306.438199
1237.263410,-10066.800811,-444.123565,306.438199
1237.263730,-10066.800811,814.226536,689.485948
1237.264051,-9696.697840,1110.308913,383.047749
1237.264372,-9326.594869,518.144159,-306.438199
1237.264693,-9326.594869,0.000000,-76.609550
1237.265014,-9770.718434,-222.061783,383.047749
1237.265334,-10510.924376,-814.226536,1072.533697
1237.265655,-10214.842000,-296.082377,1991.848295
1237.265976,-9844.739029,-2664.741391,1302.362347
1237.266297,-9400.615463,-2664.741391,229.828649
1237.266617,-9030.512492,-1776.494261,-612.876398
1237.266938,-9918.759623,222.061783,-153.219100
1237.267259,-9474.636058,1924.535449,306.438199
1237.267580,-9252.574275,3034.844362,919.314598
1237.267901,-10362.883188,1184.329507,1149.143247
1237.268221,-8438.347739,-370.102971,76.609550
1237.268542,-9622.677246,-1258.350101,306.438199
1237.268863,-9622.677246,-1332.370696,1072.533697
1237.269184,-9178.553681,-1110.308913,1685.410096
1237.269504,-9844.739029,-1998.556043,2374.896044
1237.269825,-8808.450710,-2368.659014,919.314598
1237.270146,-8438.347739,-1924.535449,0.000000
1237.270467,-9918.759623,-444.123565,459.657299
1237.270788,-9400.615463,1332.370696,2145.067394
1237.271108,-9918.759623,1036.288319,1608.800546
1237.271429,-9622.677246,222.061783,995.924147
1237.271750,-8660.409521,0.000000,612.876398
1237.272071,-9548.656652,444.123565,919.314598
1237.272392,-10584.944971,888.247130,3140.991542
1237.272712,-10214.842000,518.144159,3677.258390
1237.273033,-10140.821405,-814.226536,3294.210641
1237.273354,-9844.739029,-1850.514855,1378.971896
1237.273675,-9400.615463,-1332.370696,1072.533697
1237.273995,-9400.615463,-296.082377,1302.362347
1237.274316,-9844.739029,1036.288319,2145.067394
1237.274637,-9252.574275,1628.453072,2068.457845
1237.274958,-9474.636058,1554.432478,383.047749
1237.275279,-9400.615463,148.041188,689.485948
1237.275599,-9474.636058,222.061783,1072.533697
1237.275920,-10362.883188,0.000000,1991.848295
1237.276241,-9548.656652,0.000000,2298.286494
1237.276562,-9326.594869,-2146.597232,919.314598
1237.276882,-9030.512492,-2812.782580,-153.219100
1237.277203,-8956.491898,-2738.761985,0.000000
1237.277524,-9548.656652,-1036.288319,766.095498
1237.277845,-10362.883188,814.226536,1149.143247
1237.278166,-10140.821405,1036.288319,1302.362347
1237.278486,-9696.697840,0.000000,536.266849
1237.278807,-9548.656652,-222.061783,0.000000
1237.279128,-9622.677246,-148.041188,153.219100
1237.279449,-9992.780217,148.041188,2451.505594
1237.279769,-9844.739029,-592.164754,1762.019645
1237.280090,-9770.718434,-2072.576638,1149.143247
1237.280411,-9178.553681,-2960.823768,-229.828649
1237.280732,-9178.553681,-1998.556043,-689.485948
1237.281053,-8882.471304,-518.144159,-995.924147
1237.281373,-9548.656652,1480.411884,459.657299
1237.281694,-9548.656652,2590.720797,995.924147
1237.282015,-10066.800811,1480.411884,842.705048
1237.282336,-9696.697840,0.000000,306.438199
1237.282656,-9474.636058,-814.226536,689.485948
1237.282977,-10066.800811,-1184.329507,1378.971896
1237.283298,-10066.800811,-1110.308913,2298.286494
1237.283619,-10066.800811,-1998.556043,2145.067394
1237.283940,-8660.409521,-2146.597232,0.000000
1237.284260,-8734.430116,-1628.453072,-229.828649
1237.284581,-9474.636058,370.102971,76.609550
1237.284902,-10288.862594,1924.535449,1532.190996
1237.285223,-9918.759623,1628.453072,1302.362347
1237.285544,-9326.594869,1036.288319,306.438199
1237.285864,-9326.594869,0.000000,76.609550
1237.286185,-9918.759623,74.020594,842.705048
1237.286506,-10436.903782,0.000000,2528.115143
1237.286827,-9548.656652,-1110.308913,1532.190996
1237.287147,-9474.636058,-2294.638420,1762.019645
1237.287468,-9844.739029,-2738.761985,995.924147
1237.287789,-9252.574275,-1628.453072,689.485948
1237.288110,-9622.677246,74.020594,1455.581446
1237.288431,-9326.594869,2368.659014,1838.629195
1237.288751,-9696.697840,1924.535449,1762.019645
1237.289072,-9474.636058,888.247130,1762.019645
1237.289393,-9252.574275,0.000000,919.314598
1237.289714,-9474.636058,-148.041188,3830.477490
1237.290034,-9696.697840,-296.082377,2528.115143
1237.290355,-9622.677246,-444.123565,2604.724693
1237.290676,-9474.636058,-1554.432478,1915.238745
1237.290997,-8734.430116,-2516.700203,306.438199
1237.291318,-8512.368333,-1628.453072,689.485948
1237.291638,-9548.656652,0.000000,689.485948
1237.291959,-10140.821405,1924.535449,1685.410096
1237.292280,-10214.842000,1850.514855,2068.457845
1237.292601,-9326.594869,1110.308913,2221.676944
1237.292921,-9178.553681,222.061783,0.000000
1237.293242,-9400.615463,296.082377,842.705048
1237.293563,-9696.697840,-222.061783,1378.971896
1237.293884,-9622.677246,-1036.288319,1685.410096
1237.294205,-9992.780217,-2442.679609,-766.095498
1237.294525,-8734.430116,-2886.803174,-689.485948
1237.294846,-8956.491898,-1554.432478,-1072.533697
1237.295167,-9252.574275,74.020594,-766.095498
1237.295488,-9770.718434,2294.638420,842.705048
1237.295808,-9992.780217,2072.576638,1225.752797
1237.296129,-10288.862594,740.205942,1225.752797
1237.296450,-10140.821405,-1776.494261,1149.143247
1237.296771,-10881.027347,-1998.556043,1302.362347
1237.297092,-11103.089130,-1332.370696,2374.896044
1237.297412,-10658.965565,-1332.370696,2757.943793
1237.297733,-9844.739029,-1702.473667,2374.896044
1237.298054,-9030.512492,-2442.679609,306.438199
1237.298375,-8956.491898,-1554.432478,-919.314598
1237.298696,-8808.450710,0.000000,-306.438199
1237.299016,-9474.636058,1628.453072,0.000000
1237.299337,-9770.718434,1850.514855,383.047749
1237.299658,-9474.636058,1110.308913,0.000000
1237.299979,-10214.842000,518.144159,76.609550
1237.300299,-9844.739029,-148.041188,1072.533697
1237.300620,-10510.924376,222.061783,2374.896044
1237.300941,-10881.027347,-444.123565,2528.115143
1237.301262,-10140.821405,-962.267725,1915.238745
1237.301583,-9770.718434,-1184.329507,1302.362347
1237.301903,-9326.594869,-888.247130,459.657299
1237.302224,-8956.491898,0.000000,459.657299
1237.302545,-9326.594869,888.247130,1149.143247
1237.302866,-9400.615463,740.205942,1532.190996
1237.303186,-9104.533087,-370.102971,919.314598
1237.303507,-9104.533087,-1184.329507,1149.143247
1237.303828,-9548.656652,-1554.432478,1302.362347
1237.304149,-10140.821405,-814.226536,2757.943793
1237.304470,-10066.800811,-962.267725,3677.258390
1237.304790,-9474.636058,-2220.617826,2681.334243
1237.305111,-9178.553681,-3330.926739,1302.362347
1237.305432,-8882.471304,-2738.761985,0.000000
1237.305752,-8512.368333,-1110.308913,842.705048
1237.306073,-9178.553681,1184.329507,995.924147
1237.306394,-9104.533087,1998.556043,1455.581446
1237.306714,-9400.615463,1184.329507,689.485948
1237.307035,-9030.512492,148.041188,459.657299
1237.307356,-9474.636058,0.000000,229.828649
1237.307676,-10066.800811,0.000000,2221.676944
1237.307997,-10436.903782,-592.164754,2681.334243
1237.308318,-9992.780217,-1776.494261,2451.505594
1237.308638,-9474.636058,-2146.597232,995.924147
1237.308959,-9474.636058,-1924.535449,229.828649
1237.309280,-9844.739029,0.000000,306.438199
1237.309600,-9252.574275,1924.535449,1072.533697
1237.309921,-9178.553681,1554.432478,1378.971896
1237.310242,-9104.533087,1628.453072,612.876398
1237.310562,-9918.759623,-148.041188,689.485948
1237.310883,-9548.656652,-592.164754,459.657299
1237.311204,-10066.800811,-148.041188,1762.019645
1237.311524,-10510.924376,-888.247130,2451.505594
1237.311845,-9770.718434,-1776.494261,1685.410096
1237.312166,-9474.636058,-2516.700203,306.438199
1237.312486,-9178.553681,-2072.576638,-306.438199
1237.312807,-9770.718434,-296.082377,0.000000
1237.313128,-9770.718434,962.267725,1915.238745
1237.313448,-9770.718434,2220.617826,842.705048
1237.313769,-10214.842000,1406.391290,229.828649
1237.314089,-9104.533087,592.164754,-306.438199
1237.314410,-9696.697840,-296.082377,306.438199
1237.314731,-10362.883188,148.041188,919.314598
1237.315051,-10214.842000,-592.164754,2145.067394
1237.315372,-10066.800811,-1998.556043,1762.019645
1237.315693,-9474.636058,-2516.700203,919.314598
1237.316013,-9178.553681,-2516.700203,612.876398
1237.316334,-9030.512492,-962.267725,383.047749
1237.316655,-8956.491898,370.102971,536.266849
1237.316975,-9326.594869,1480.411884,1225.752797
1237.317296,-9252.574275,888.247130,842.705048
1237.317617,-9474.636058,0.000000,383.047749
1237.317937,-9548.656652,-814.226536,1302.362347
1237.318258,-9918.759623,-1110.308913,2298.286494
1237.318579,-9844.739029,-1480.411884,2681.334243
1237.318899,-9548.656652,-2368.659014,2528.115143
1237.319220,-8956.491898,-3256.906145,1072.533697
1237.319541,-8586.388927,-2590.720797,76.609550
1237.319861,-8956.491898,-518.144159,76.609550
1237.320182,-9622.677246,1554.432478,1149.143247
1237.320503,-9178.553681,2516.700203,2604.724693
1237.320823,-9474.636058,1110.308913,842.705048
1237.321144,-9326.594869,740.205942,153.219100
1237.321465,-9844.739029,370.102971,536.266849
1237.321785,-10288.862594,370.102971,1149.143247
1237.322106,-10066.800811,0.000000,2451.505594
1237.322427,-9992.780217,-1480.411884,1915.238745
1237.322747,-9770.718434,-2368.659014,1225.752797
1237.323068,-9178.553681,-1998.556043,0.000000
1237.323389,-9622.677246,222.061783,536.266849
1237.323709,-9622.677246,2072.576638,1225.752797
1237.324030,-10140.821405,2960.823768,1532.190996
1237.324350,-9622.677246,2072.576638,1225.752797
1237.324671,-9918.759623,592.164754,306.438199
1237.324992,-9548.656652,-222.061783,689.485948
1237.325312,-10510.924376,-666.185348,2068.457845
1237.325633,-10807.006753,-740.205942,2528.115143
1237.325954,-9992.780217,-1924.535449,2298.286494
1237.326274,-9178.553681,-2590.720797,842.705048
1237.326595,-8882.471304,-2146.597232,76.609550
1237.326916,-9252.574275,-740.205942,306.438199
1237.327236,-9918.759623,740.205942,919.314598
1237.327557,-9770.718434,1332.370696,1225.752797
1237.327878,-9326.594869,592.164754,153.219100
1237.328198,-8882.471304,296.082377,0.000000
1237.328519,-9844.739029,0.000000,0.000000
1237.328840,-10066.800811,518.144159,459.657299
1237.329160,-10140.821405,0.000000,2221.676944
1237.329481,-9696.697840,-1554.432478,2221.676944
1237.329802,-9474.636058,-3330.926739,842.705048
1237.330122,-9252.574275,-2738.761985,-306.438199
1237.330443,-8956.491898,-1628.453072,229.828649
1237.330764,-8882.471304,74.020594,459.657299
1237.331084,-8956.491898,1554.432478,1149.143247
1237.331405,-9104.533087,814.226536,689.485948
1237.331726,-8808.450710,0.000000,306.438199
1237.332046,-9474.636058,-518.144159,766.095498
1237.332367,-9844.739029,-740.205942,1455.581446
1237.332688,-10214.842000,-370.102971,2528.115143
1237.333008,-10362.883188,-888.247130,2987.772442
1237.333329,-9622.677246,-1924.535449,1455.581446
1237.333649,-9030.512492,-1850.514855,536.266849
1237.333970,-9622.677246,-518.144159,306.438199
1237.334291,-9696.697840,814.226536,612.876398
1237.334611,-9992.780217,1776.494261,1378.971896
1237.334932,-9548.656652,1110.308913,919.314598
1237.335253,-9400.615463,74.020594,-459.657299
1237.335573,-9400.615463,0.000000,-306.438199
1237.335894,-9474.636058,888.247130,1072.533697
1237.336215,-10584.944971,0.000000,2374.896044
1237.336535,-10510.924376,-1480.411884,2528.115143
1237.336856,-9622.677246,-2886.803174,1455.581446
1237.337177,-9548.656652,-3330.926739,0.000000
1237.337497,-9548.656652,-1628.453072,0.000000
1237.337818,-9770.718434,666.185348,995.924147
1237.338139,-9474.636058,2294.638420,1378.971896
1237.338459,-9474.636058,1480.411884,1149.143247
1237.338780,-9474.636058,148.041188,766.095498
1237.339101,-9474.636058,-666.185348,1302.362347
1237.339421,-10288.862594,-518.144159,2221.676944
1237.339742,-10066.800811,-592.164754,3294.210641
1237.340063,-9770.718434,-1554.432478,2987.772442
1237.340383,-9474.636058,-2294.638420,2221.676944
1237.340704,-9030.512492,-2294.638420,919.314598
1237.341025,-8882.471304,-814.226536,459.657299
1237.341345,-9326.594869,740.205942,995.924147
1237.341666,-9326.594869,962.267725,919.314598
1237.341987,-8956.491898,666.185348,383.047749
1237.342307,-9622.677246,-592.164754,0.000000
1237.342628,-9252.574275,-592.164754,383.047749
1237.342949,-10436.903782,740.205942,2068.457845
1237.343269,-10658.965565,0.000000,2681.334243
1237.343590,-10362.883188,-888.247130,2221.676944
1237.343910,-9770.718434,-2368.659014,153.219100
1237.344231,-8438.347739,-148.041188,-229.828649
1237.344552,-9252.574275,0.000000,-689.485948
1237.344872,-9178.553681,1628.453072,459.657299
1237.345193,-8586.388927,1998.556043,536.266849
1237.345514,-9844.739029,962.267725,229.828649
1237.345834,-9252.574275,-296.082377,153.219100
1237.346155,-9622.677246,-444.123565,306.438199
1237.346476,-10584.944971,0.000000,2298.286494
1237.346796,-10214.842000,0.000000,2451.505594
1237.347117,-10362.883188,-1036.288319,2604.724693
1237.347438,-9844.739029,-2368.659014,1915.238745
1237.347758,-9104.533087,-2664.741391,229.828649
1237.348079,-10066.800811,-1924.535449,536.266849
1237.348400,-9326.594869,1036.288319,2374.896044
1237.348720,-10066.800811,1406.391290,1378.971896
1237.349041,-9770.718434,1036.288319,1302.362347
1237.349362,-9030.512492,-74.020594,306.438199
1237.349682,-9474.636058,-592.164754,0.000000
1237.350003,-9844.739029,-296.082377,1149.143247
1237.350324,-10066.800811,0.000000,2298.286494
1237.350644,-10362.883188,-592.164754,2451.505594
1237.350965,-9622.677246,-1850.514855,1072.533697
1237.351286,-10436.903782,-1184.329507,1149.143247
1237.351606,-9178.553681,-1110.308913,229.828649
1237.351927,-9844.739029,592.164754,689.485948
1237.352248,-9918.759623,1702.473667,1532.190996
1237.352568,-9178.553681,2072.576638,2604.724693
1237.352889,-9474.636058,814.226536,842.705048
1237.353210,-9548.656652,296.082377,1302.362347
1237.353530,-9918.759623,-592.164754,1991.848295
1237.353851,-10140.821405,-888.247130,3524.039291
1237.354171,-9770.718434,-2590.720797,3064.381992
1237.354492,-9548.656652,-2960.823768,1838.629195
1237.354813,-9474.636058,-2442.679609,1915.238745
1237.355133,-9400.615463,-1480.411884,1225.752797
1237.355454,-9178.553681,222.061783,1225.752797
1237.355775,-9696.697840,1184.329507,1302.362347
1237.356095,-9474.636058,814.226536,689.485948
1237.356416,-9326.594869,0.000000,-766.095498
1237.356737,-8586.388927,148.041188,-1608.800546
1237.357057,-9252.574275,814.226536,612.876398
1237.357378,-10510.924376,592.164754,1455.581446
1237.357699,-9696.697840,-888.247130,1685.410096
1237.358019,-9992.780217,-2442.679609,689.485948
1237.358340,-9474.636058,-2960.823768,0.000000
1237.358661,-9474.636058,-1702.473667,229.828649
1237.358981,-9992.780217,74.020594,612.876398
1237.359302,-10214.842000,1776.494261,1149.143247
1237.359623,-9400.615463,1628.453072,995.924147
1237.359943,-9474.636058,1554.432478,612.876398
1237.360264,-9548.656652,444.123565,612.876398
1237.360585,-9622.677246,0.000000,995.924147
1237.360905,-9696.697840,-888.247130,2528.115143
1237.361226,-9622.677246,-1554.432478,2221.676944
1237.361547,-9252.574275,-2738.761985,1302.362347
1237.361867,-8808.450710,-2886.803174,919.314598
1237.362188,-9474.636058,-1480.411884,459.657299
1237.362509,-10066.800811,888.247130,1608.800546
1237.362829,-10436.903782,1924.535449,2145.067394
1237.363150,-9622.677246,1406.391290,1378.971896
1237.363470,-9400.615463,518.144159,459.657299
1237.363791,-8808.450710,74.020594,459.657299
1237.364112,-9474.636058,0.000000,1302.362347
1237.364432,-9918.759623,-1110.308913,2298.286494
1237.364753,-9844.739029,-2146.597232,2374.896044
1237.365074,-8882.471304,-3182.885551,995.924147
1237.365394,-9400.615463,-2146.597232,536.266849
1237.365715,-9622.677246,-518.144159,612.876398
1237.366036,-9770.718434,814.226536,995.924147
1237.366356,-9548.656652,1924.535449,1378.971896
1237.366677,-9844.739029,1036.288319,1302.362347
1237.366998,-8956.491898,74.020594,536.266849
1237.367318,-9696.697840,-1110.308913,1072.533697
1237.367639,-9474.636058,-1184.329507,1532.190996
1237.367960,-9622.677246,0.000000,1838.629195
1237.368280,-9474.636058,-740.205942,2298.286494
1237.368601,-9474.636058,-1702.473667,1225.752797
1237.368922,-9178.553681,-1554.432478,612.876398
1237.369242,-9696.697840,222.061783,153.219100
1237.369563,-9548.656652,148.041188,1072.533697
1237.369884,-10066.800811,814.226536,1685.410096
1237.370204,-9844.739029,148.041188,995.924147
1237.370525,-9326.594869,666.185348,-612.876398
1237.370846,-9474.636058,222.061783,-153.219100
1237.371166,-9622.677246,962.267725,459.657299
1237.371487,-10288.862594,1110.308913,1762.019645
1237.371808,-10436.903782,-148.041188,1149.143247
1237.372128,-9992.780217,-1850.514855,383.047749
1237.372449,-9400.615463,-2146.597232,-383.047749
1237.372770,-9622.677246,-814.226536,-383.047749
1237.373090,-9918.759623,1184.329507,459.657299
1237.373411,-10140.821405,1924.535449,2221.676944
1237.373731,-9474.636058,1406.391290,612.876398
1237.374052,-9104.533087,-222.061783,-153.219100
1237.374373,-8956.491898,-814.226536,-459.657299
1237.374693,-9548.656652,-666.185348,766.095498
1237.375014,-9770.718434,-666.185348,1838.629195
1237.375335,-10066.800811,-1184.329507,2221.676944
1237.375655,-9696.697840,-2516.700203,1378.971896
1237.375976,-9696.697840,-2368.659014,612.876398
1237.376297,-10732.986159,-962.267725,1072.533697
1237.376617,-10362.883188,222.061783,1915.238745
1237.376938,-10066.800811,740.205942,1685.410096
1237.377259,-9252.574275,222.061783,995.924147
1237.377579,-8882.471304,-814.226536,-612.876398
1237.377900,-8364.327145,-666.185348,0.000000
1237.378221,-8512.368333,-296.082377,383.047749
1237.378541,-8808.450710,-518.144159,1455.581446
1237.378862,-9326.594869,-1332.370696,1838.629195
1237.379183,-9252.574275,-1924.535449,1838.629195
1237.379503,-9474.636058,-2072.576638,1225.752797
1237.379824,-9696.697840,-518.144159,1225.752797
1237.380145,-9918.759623,962.267725,1991.848295
1237.380465,-9474.636058,2812.782580,2145.067394
1237.380786,-10510.924376,1184.329507,2451.505594
1237.381107,-9844.739029,222.061783,1838.629195
1237.381427,-9548.656652,-1110.308913,1455.581446
1237.381748,-9252.574275,-1998.556043,2757.943793
1237.382069,-9770.718434,-518.144159,2451.505594
1237.382389,-10436.903782,-1258.350101,2987.772442
1237.382710,-9400.615463,-1702.473667,2145.067394
1237.383031,-9326.594869,-1850.514855,0.000000
1237.383351,-9474.636058,-1480.411884,612.876398
1237.383672,-9474.636058,148.041188,919.314598
1237.383992,-10214.842000,740.205942,842.705048
1237.384313,-9474.636058,666.185348,612.876398
1237.384634,-9252.574275,0.000000,-459.657299
1237.384954,-9474.636058,666.185348,-153.219100
1237.385275,-10066.800811,740.205942,536.266849
1237.385596,-10732.986159,444.123565,1838.629195
1237.385916,-9622.677246,-1110.308913,1608.800546
1237.386237,-10658.965565,-2516.700203,919.314598
1237.386558,-9622.677246,-2368.659014,153.219100
1237.386878,-9844.739029,-1628.453072,229.828649
1237.387199,-9548.656652,592.164754,-919.314598
1237.387520,-9770.718434,1628.453072,842.705048
1237.387840,-9326.594869,1702.473667,689.485948
1237.388161,-9474.636058,444.123565,612.876398
1237.388482,-9252.574275,-814.226536,383.047749
1237.388802,-9474.636058,-1110.308913,612.876398
1237.389123,-9474.636058,-1480.411884,1378.971896
1237.389444,-9622.677246,-1554.432478,1685.410096
1237.389764,-9400.615463,-2294.638420,1455.581446
1237.390085,-9400.615463,-2442.679609,383.047749
1237.390406,-9178.553681,-1184.329507,459.657299
1237.390726,-9622.677246,370.102971,689.485948
1237.391047,-9918.759623,1776.494261,1378.971896
1237.391368,-9474.636058,1850.514855,612.876398
1237.391688,-8882.471304,222.061783,-153.219100
1237.392009,-8512.368333,-370.102971,0.000000
1237.392330,-9474.636058,-444.123565,306.438199
1237.392650,-9844.739029,-370.102971,1838.629195
1237.392971,-9622.677246,-740.205942,2145.067394
1237.393291,-9622.677246,-1850.514855,1149.143247
1237.393612,-9474.636058,-1776.494261,306.438199
1237.393933,-9400.615463,-592.164754,229.828649
1237.394253,-9918.759623,2072.576638,1225.752797
1237.394574,-9918.759623,2590.720797,1378.971896
1237.394895,-9770.718434,2368.659014,1762.019645
1237.395215,-9696.697840,592.164754,1072.533697
1237.395536,-9770.718434,592.164754,-306.438199
1237.395857,-9844.739029,0.000000,1532.190996
1237.396177,-9992.780217,222.061783,2528.115143
1237.396498,-9696.697840,0.000000,2757.943793
1237.396819,-9622.677246,-1480.411884,2068.457845
1237.397139,-9104.533087,-2442.679609,995.924147
1237.397460,-9178.553681,-1850.514855,76.609550
1237.397781,-9252.574275,74.020594,919.314598
1237.398101,-10140.821405,1332.370696,2145.067394
1237.398422,-9474.636058,1628.453072,3294.210641
1237.398743,-9474.636058,444.123565,1532.190996
1237.399063,-9548.656652,-370.102971,766.095498
1237.399384,-9844.739029,0.000000,1608.800546
1237.399705,-10436.903782,518.144159,3294.210641
1237.400025,-9844.739029,-518.144159,2987.772442
1237.400346,-9400.615463,-2072.576638,1685.410096
1237.400667,-8438.347739,-2664.741391,0.000000
1237.400987,-8438.347739,-2294.638420,-766.095498
1237.401308,-8956.491898,0.000000,0.000000
1237.401629,-9474.636058,1554.432478,995.924147
1237.401949,-9770.718434,1628.453072,1532.190996
1237.402270,-9474.636058,518.144159,1072.533697
1237.402591,-9992.780217,-740.205942,766.095498
1237.402911,-10288.862594,-1036.288319,1225.752797
1237.403232,-10584.944971,-1110.308913,2374.896044
1237.403552,-10066.800811,-1332.370696,2145.067394
1237.403873,-9548.656652,-2146.597232,1072.533697
1237.404194,-8882.471304,-2368.659014,-383.047749
1237.404514,-8660.409521,-1332.370696,-1149.143247
1237.404835,-9474.636058,740.205942,-306.438199
1237.405156,-9992.780217,1850.514855,612.876398
1237.405476,-9844.739029,1110.308913,536.266849
1237.405797,-9474.636058,-222.061783,-459.657299
1237.406118,-9474.636058,-740.205942,-536.266849
1237.406438,-10066.800811,-148.041188,842.705048
1237.406759,-10658.965565,0.000000,1685.410096
1237.407080,-10658.965565,-666.185348,2298.286494
1237.407400,-10066.800811,-2220.617826,1302.362347
1237.407721,-9474.636058,-2960.823768,0.000000
1237.408042,-9326.594869,-1924.535449,0.000000
1237.408363,-9400.615463,-444.123565,76.609550
1237.408683,-9622.677246,1480.411884,842.705048
1237.409004,-9622.677246,1480.411884,1302.362347
1237.409325,-9548.656652,518.144159,1072.533697
1237.409646,-9252.574275,-518.144159,612.876398
1237.409966,-9770.718434,-444.123565,995.924147
1237.410287,-10436.903782,74.020594,2528.115143
1237.410608,-10066.800811,-370.102971,2834.553343
1237.410929,-9474.636058,-1480.411884,2451.505594
1237.411249,-8808.450710,-1998.556043,919.314598
1237.411570,-9030.512492,-1554.432478,306.438199
1237.411891,-9474.636058,0.000000,1072.533697
1237.412212,-9474.636058,814.226536,2681.334243
1237.412532,-9548.656652,296.082377,1838.629195
1237.412853,-9104.533087,370.102971,995.924147
1237.413174,-9474.636058,296.082377,1149.143247
1237.413495,-9918.759623,592.164754,1532.190996
1237.413815,-9548.656652,740.205942,2757.943793
1237.414136,-9992.780217,-1554.432478,2681.334243
1237.414457,-8808.450710,-1776.494261,1072.533697
1237.414778,-9474.636058,-2886.803174,612.876398
1237.415099,-9252.574275,-1480.411884,0.000000
1237.415419,-9474.636058,666.185348,689.485948
1237.415740,-9548.656652,2368.659014,1072.533697
1237.416061,-9696.697840,2368.659014,1302.362347
1237.416382,-9770.718434,1184.329507,1455.581446
1237.416702,-9918.759623,0.000000,1608.800546
1237.417023,-9770.718434,-518.144159,1225.752797
1237.417344,-10066.800811,-592.164754,2298.286494
1237.417665,-9770.718434,-1036.288319,2451.505594
1237.417985,-9252.574275,-2294.638420,1915.238745
1237.418306,-8734.430116,-2294.638420,383.047749
1237.418627,-8882.471304,-1258.350101,-229.828649
1237.418948,-9770.718434,222.061783,842.705048
1237.419268,-9770.718434,740.205942,2145.067394
1237.419589,-10140.821405,888.247130,1302.362347
1237.419910,-9696.697840,0.000000,383.047749
1237.420231,-9474.636058,0.000000,383.047749
1237.420552,-10436.903782,222.061783,1302.362347
1237.420872,-10658.965565,0.000000,2834.553343
1237.421193,-10658.965565,-888.247130,2374.896044
1237.421514,-9622.677246,-2368.659014,689.485948
1237.421835,-8808.450710,-2960.823768,-306.438199
1237.422155,-8734.430116,-2220.617826,-842.705048
1237.422476,-8734.430116,-444.123565,0.000000
1237.422797,-9104.533087,962.267725,229.828649
1237.423118,-9178.553681,1184.329507,766.095498
1237.423438,-9474.636058,888.247130,1378.971896
1237.423759,-9770.718434,-518.144159,229.828649
1237.424080,-9992.780217,-518.144159,995.924147
1237.424401,-10214.842000,0.000000,2068.457845
1237.424721,-10066.800811,740.205942,995.924147
1237.425042,-9918.759623,-1776.494261,1685.410096
1237.425363,-8808.450710,-2220.617826,536.266849
1237.425684,-8734.430116,-1924.535449,0.000000
1237.426004,-9474.636058,-444.123565,459.657299
1237.426325,-9474.636058,1258.350101,1225.752797
1237.426646,-9992.780217,1628.453072,1455.581446
1237.426967,-9474.636058,962.267725,842.705048
1237.427288,-9474.636058,-222.061783,612.876398
1237.427608,-9992.780217,148.041188,306.438199
1237.427929,-10881.027347,0.000000,2757.943793
1237.428250,-10584.944971,-814.226536,3064.381992
1237.428571,-9992.780217,-2442.679609,2298.286494
1237.428891,-9400.615463,-2738.761985,229.828649
1237.429212,-9178.553681,-1036.288319,0.000000
1237.429533,-9474.636058,518.144159,689.485948
1237.429854,-9844.739029,2294.638420,1762.019645
1237.430174,-9104.533087,1554.432478,1302.362347
1237.430495,-9474.636058,518.144159,153.219100
1237.430816,-9252.574275,-592.164754,536.266849
1237.431137,-9844.739029,-888.247130,842.705048
1237.431457,-9770.718434,-370.102971,2298.286494
1237.431778,-9770.718434,-444.123565,2374.896044
1237.432099,-9252.574275,-1480.411884,1608.800546
1237.432420,-9696.697840,-1702.473667,1378.971896
1237.432740,-9770.718434,-1332.370696,1455.581446
1237.433061,-10066.800811,888.247130,995.924147
1237.433382,-10436.903782,1628.453072,2528.115143
1237.433703,-9844.739029,1406.391290,2451.505594
1237.434024,-9326.594869,148.041188,995.924147
1237.434344,-8956.491898,-592.164754,229.828649
1237.434665,-8808.450710,148.041188,459.657299
1237.434986,-9622.677246,740.205942,1762.019645
1237.435307,-9770.718434,-74.020594,2451.505594
1237.435627,-9400.615463,-1628.453072,1149.143247
1237.435948,-8808.450710,-2960.823768,0.000000
1237.436269,-8808.450710,-2368.659014,-1149.143247
1237.436590,-9252.574275,-592.164754,-306.438199
1237.436910,-9918.759623,888.247130,766.095498
1237.437231,-9622.677246,1480.411884,-306.438199
1237.437552,-9622.677246,592.164754,842.705048
1237.437873,-9918.759623,-296.082377,842.705048
1237.438193,-10140.821405,-592.164754,536.266849
1237.438514,-10584.944971,-444.123565,1685.410096
1237.438835,-9770.718434,-888.247130,1762.019645
1237.439156,-9474.636058,-1628.453072,766.095498
1237.439476,-9178.553681,-2812.782580,-306.438199
1237.439797,-9030.512492,-1850.514855,-612.876398
1237.440118,-9622.677246,-296.082377,-842.705048
1237.440439,-9918.759623,1480.411884,612.876398
1237.440760,-10658.965565,1702.473667,1225.752797
1237.441080,-10140.821405,962.267725,919.314598
1237.441401,-9548.656652,74.020594,-1455.581446
1237.441722,-10140.821405,518.144159,459.657299
1237.442043,-9918.759623,888.247130,1455.581446
1237.442363,-10362.883188,0.000000,2221.676944
1237.442684,-9992.780217,-888.247130,1915.238745
1237.443005,-9252.574275,-1332.370696,536.266849
1237.443326,-9400.615463,-1554.432478,0.000000
1237.443646,-9178.553681,0.000000,306.438199
1237.443967,-9548.656652,1406.391290,1149.143247
1237.444288,-10066.800811,1924.535449,995.924147
1237.444609,-9252.574275,1110.308913,1149.143247
1237.444929,-9696.697840,0.000000,1072.533697
1237.445250,-9918.759623,-666.185348,1532.190996
1237.445571,-9326.594869,-148.041188,2068.457845
1237.445892,-10214.842000,-1184.329507,2757.943793
1237.446213,-9474.636058,-1850.514855,2221.676944
1237.446533,-9030.512492,-2146.597232,995.924147
1237.446854,-8808.450710,-1628.453072,0.000000
1237.447175,-9326.594869,-148.041188,1225.752797
1237.447496,-9400.615463,962.267725,1915.238745
1237.447816,-9104.533087,888.247130,1378.971896
1237.448137,-9178.553681,0.000000,689.485948
1237.448458,-8808.450710,-888.247130,0.000000
1237.448779,-9030.512492,-518.144159,766.095498
1237.449099,-9696.697840,-296.082377,1915.238745
1237.449420,-9770.718434,-888.247130,2451.505594
1237.449741,-9696.697840,-1924.535449,4213.525239
1237.450062,-9844.739029,-2664.741391,1378.971896
1237.450382,-8290.306550,-1258.350101,306.438199
1237.450703,-9844.739029,-370.102971,459.657299
1237.451024,-9178.553681,2146.597232,1378.971896
1237.451345,-9474.636058,2294.638420,1608.800546
1237.451665,-9474.636058,0.000000,383.047749
1237.451986,-8882.471304,-296.082377,76.609550
1237.452307,-9918.759623,-1258.350101,229.828649
1237.452628,-9400.615463,-814.226536,459.657299
1237.452949,-9770.718434,-814.226536,1149.143247
1237.453269,-9474.636058,-1258.350101,1302.362347
1237.453590,-9474.636058,-1924.535449,536.266849
1237.453911,-10214.842000,-1628.453072,-1532.190996
1237.454232,-9918.759623,-148.041188,919.314598
1237.454552,-11103.089130,888.247130,1915.238745
1237.454873,-10955.047942,1776.494261,2068.457845
1237.455194,-10436.903782,1110.308913,1762.019645
1237.455515,-10066.800811,148.041188,995.924147
1237.455835,-9696.697840,-740.205942,766.095498
1237.456156,-10066.800811,-814.226536,1302.362347
1237.456477,-10066.800811,-1110.308913,1838.629195
1237.456798,-9770.718434,-2294.638420,1378.971896
1237.457118,-9326.594869,-2516.700203,0.000000
1237.457439,-8734.430116,-2220.617826,-919.314598
1237.457760,-9030.512492,-222.061783,-536.266849
1237.458081,-9474.636058,1850.514855,459.657299
1237.458401,-9548.656652,1702.473667,1378.971896
1237.458722,-9696.697840,444.123565,1378.971896
1237.459043,-9178.553681,-814.226536,766.095498
1237.459364,-9474.636058,-962.267725,842.705048
1237.459685,-10066.800811,-222.061783,1991.848295
1237.460005,-9992.780217,0.000000,2911.162892
1237.460326,-9474.636058,-962.267725,2221.676944
1237.460647,-8808.450710,-1702.473667,919.314598
1237.460968,-8882.471304,-1924.535449,689.485948
1237.461288,-9474.636058,-518.144159,1225.752797
1237.461609,-9918.759623,888.247130,1838.629195
1237.461930,-9918.759623,1036.288319,2298.286494
1237.462251,-9326.594869,666.185348,0.000000
1237.462571,-8956.491898,148.041188,0.000000
1237.462892,-9548.656652,444.123565,612.876398
1237.463213,-9844.739029,962.267725,2068.457845
1237.463534,-10140.821405,148.041188,2911.162892
1237.463854,-9622.677246,-1110.308913,1378.971896
1237.464175,-9474.636058,-1776.494261,383.047749
1237.464496,-9622.677246,-888.247130,306.438199
1237.464817,-9696.697840,592.164754,536.266849
1237.465137,-9474.636058,1776.494261,1915.238745
1237.465458,-9474.636058,1110.308913,1608.800546
1237.465779,-9400.615463,0.000000,689.485948
1237.466100,-9548.656652,-296.082377,0.000000
1237.466421,-9400.615463,-296.082377,1378.971896
1237.466741,-9844.739029,0.000000,1838.629195
1237.467062,-10066.800811,-370.102971,2604.724693
1237.467383,-9992.780217,-1332.370696,2374.896044
1237.467704,-9400.615463,-2664.741391,1149.143247
1237.468024,-9030.512492,-2220.617826,0.000000
1237.468345,-9474.636058,-296.082377,842.705048
1237.468666,-10214.842000,1036.288319,842.705048
1237.468987,-9548.656652,2220.617826,1608.800546
1237.469307,-9474.636058,1036.288319,1532.190996
1237.469628,-8882.471304,148.041188,76.609550
1237.469949,-9696.697840,0.000000,766.095498
1237.470270,-10362.883188,148.041188,2221.676944
1237.470590,-10881.027347,518.144159,2604.724693
1237.470911,-9844.739029,-1406.391290,2681.334243
1237.471232,-8956.491898,-2960.823768,1378.971896
1237.471553,-8882.471304,-2960.823768,76.609550
1237.471873,-9104.533087,-888.247130,76.609550
1237.472194,-9104.533087,1036.288319,766.095498
1237.472515,-9252.574275,1554.432478,612.876398
1237.472836,-9770.718434,740.205942,459.657299
1237.473157,-9474.636058,-370.102971,459.657299
1237.473477,-9918.759623,-518.144159,1302.362347
1237.473798,-10140.821405,-1554.432478,2068.457845
1237.474119,-10066.800811,-1702.473667,2374.896044
1237.474440,-9918.759623,-2368.659014,2145.067394
1237.474760,-9844.739029,-2368.659014,229.828649
1237.475081,-8882.471304,-1480.411884,-229.828649
1237.475402,-9178.553681,0.000000,-306.438199
1237.475723,-9548.656652,1628.453072,612.876398
1237.476043,-10066.800811,1628.453072,1225.752797
1237.476364,-9770.718434,666.185348,76.609550
1237.476685,-9770.718434,-370.102971,-229.828649
1237.477006,-9844.739029,-444.123565,76.609550
1237.477326,-10362.883188,0.000000,1072.533697
1237.477647,-10732.986159,74.020594,2298.286494
1237.477968,-10066.800811,-888.247130,1838.629195
1237.478289,-9474.636058,-2146.597232,383.047749
1237.478610,-9178.553681,-1850.514855,0.000000
1237.478930,-9548.656652,0.000000,919.314598
1237.479251,-9770.718434,1036.288319,1225.752797
1237.479572,-9696.697840,1480.411884,1378.971896
1237.479893,-9400.615463,888.247130,1225.752797
1237.480213,-9548.656652,-222.061783,689.485948
1237.480534,-9622.677246,-296.082377,1685.410096
1237.480855,-10288.862594,0.000000,2145.067394
1237.481176,-9918.759623,0.000000,3217.601092
1237.481496,-9548.656652,-1406.391290,2681.334243
1237.481817,-9400.615463,-2886.803174,1532.190996
1237.482138,-8216.285956,-2294.638420,0.000000
1237.482459,-8956.491898,-740.205942,0.000000
1237.482779,-9326.594869,1110.308913,995.924147
1237.483100,-9400.615463,1184.329507,2528.115143
1237.483421,-9474.636058,0.000000,842.705048
1237.483742,-9326.594869,-444.123565,76.609550
1237.484062,-10140.821405,-444.123565,766.095498
1237.484383,-9992.780217,148.041188,995.924147
1237.484704,-10436.903782,74.020594,2451.505594
1237.485025,-9992.780217,-888.247130,2451.505594
1237.485346,-9326.594869,-2146.597232,1072.533697
1237.485666,-9030.512492,-1628.453072,0.000000
1237.485987,-9252.574275,0.000000,153.219100
1237.486308,-9622.677246,2072.576638,1149.143247
1237.486629,-9844.739029,2368.659014,1378.971896
1237.486949,-9474.636058,1702.473667,995.924147
1237.487270,-9252.574275,444.123565,153.219100
1237.487591,-9696.697840,-296.082377,1378.971896
1237.487912,-10140.821405,-148.041188,2451.505594
1237.488232,-10732.986159,-666.185348,3370.820191
1237.488553,-10140.821405,-1332.370696,2834.553343
1237.488874,-9474.636058,-2072.576638,1302.362347
1237.489195,-9252.574275,-2146.597232,612.876398
1237.489515,-9178.553681,-814.226536,536.266849
1237.489836,-9622.677246,518.144159,995.924147
1237.490157,-9474.636058,666.185348,1072.533697
1237.490478,-9622.677246,0.000000,306.438199
1237.490798,-9474.636058,-592.164754,0.000000
1237.491119,-9770.718434,-814.226536,153.219100
1237.491440,-9548.656652,0.000000,459.657299
1237.491761,-10066.800811,-296.082377,1532.190996
1237.492082,-9770.718434,-1480.411884,1762.019645
1237.492402,-9474.636058,-2516.700203,612.876398
1237.492723,-8438.347739,-2886.803174,459.657299
1237.493044,-9400.615463,-1850.514855,-536.266849
1237.493365,-9178.553681,-148.041188,842.705048
1237.493685,-9474.636058,1036.288319,995.924147
1237.494006,-9696.697840,666.185348,1302.362347
1237.494327,-9252.574275,74.020594,842.705048
1237.494648,-9474.636058,-962.267725,459.657299
1237.494968,-9400.615463,-444.123565,1532.190996
1237.495289,-10288.862594,-666.185348,2451.505594
1237.495610,-9918.759623,-1184.329507,2298.286494
1237.495931,-9178.553681,-2442.679609,1378.971896
1237.496251,-9252.574275,-2738.761985,306.438199
1237.496572,-9400.615463,-592.164754,766.095498
1237.496893,-9918.759623,814.226536,1762.019645
1237.497214,-10066.800811,2294.638420,2145.067394
1237.497534,-10066.800811,1110.308913,1225.752797
1237.497855,-9104.533087,666.185348,76.609550
1237.498176,-9696.697840,-444.123565,306.438199
1237.498497,-9548.656652,518.144159,1072.533697
1237.498818,-10288.862594,-740.205942,2528.115143
1237.499138,-9696.697840,-1406.391290,1838.629195
1237.499459,-9992.780217,-1776.494261,1302.362347
1237.499780,-9548.656652,-1850.514855,306.438199
1237.500101,-9622.677246,-814.226536,842.705048
1237.500421,-9844.739029,518.144159,1532.190996
1237.500742,-9548.656652,1110.308913,1608.800546
1237.501063,-8438.347739,296.082377,2374.896044
1237.501384,-9622.677246,148.041188,1149.143247
1237.501704,-9252.574275,-296.082377,842.705048
1237.502025,-9696.697840,-444.123565,1838.629195
1237.502346,-9770.718434,-814.226536,2451.505594
1237.502667,-9474.636058,-2072.576638,2451.505594
1237.502987,-9474.636058,-2886.803174,1455.581446
1237.503308,-8956.491898,-2220.617826,76.609550
1237.503629,-9400.615463,0.000000,153.219100
1237.503950,-9252.574275,1554.432478,306.438199
1237.504271,-9548.656652,2812.782580,1608.800546
1237.504591,-9548.656652,1702.473667,995.924147
1237.504912,-9400.615463,74.020594,0.000000
1237.505233,-9400.615463,-1036.288319,842.705048
1237.505554,-10140.821405,-296.082377,919.314598
1237.505874,-9918.759623,0.000000,1915.238745
1237.506195,-9844.739029,-814.226536,1685.410096
1237.506516,-9400.615463,-1776.494261,842.705048
1237.506837,-9474.636058,-1998.556043,76.609550
1237.507157,-9548.656652,-814.226536,0.000000
1237.507478,-9326.594869,814.226536,536.266849
1237.507799,-9918.759623,1480.411884,1225.752797
1237.508120,-9844.739029,814.226536,1149.143247
1237.508440,-9326.594869,0.000000,306.438199
1237.508761,-9918.759623,-518.144159,383.047749
1237.509082,-9696.697840,-518.144159,1455.581446
1237.509403,-10807.006753,-296.082377,3600.648841
1237.509723,-10140.821405,-1924.535449,2451.505594
1237.510044,-9178.553681,-3182.885551,842.705048
1237.510365,-9030.512492,-2960.823768,-229.828649
1237.510686,-9326.594869,-1110.308913,766.095498
1237.511006,-9474.636058,888.247130,612.876398
1237.511327,-10140.821405,1628.453072,1991.848295
1237.511648,-9622.677246,666.185348,1072.533697
1237.511968,-9252.574275,0.000000,-459.657299
1237.512289,-9696.697840,-370.102971,459.657299
1237.512610,-10066.800811,222.061783,919.314598
1237.512930,-10658.965565,296.082377,2298.286494
1237.513251,-10658.965565,-666.185348,2145.067394
1237.513572,-9400.615463,-1110.308913,383.047749
1237.513892,-9104.533087,74.020594,536.266849
1237.514213,-11251.130318,148.041188,1149.143247
1237.514534,-9474.636058,1776.494261,2298.286494
1237.514855,-10807.006753,1036.288319,1915.238745
1237.515175,-9474.636058,962.267725,1532.190996
1237.515496,-8512.368333,-666.185348,0.000000
1237.515817,-10140.821405,-740.205942,1991.848295
1237.516137,-9178.553681,-888.247130,1762.019645
1237.516458,-9992.780217,-592.164754,2145.067394
1237.516779,-9696.697840,-1406.391290,2451.505594
1237.517099,-8734.430116,-2368.659014,995.924147
1237.517420,-9622.677246,-2368.659014,306.438199
1237.517741,-9326.594869,-1258.350101,-459.657299
1237.518061,-8882.471304,740.205942,383.047749
1237.518382,-9474.636058,888.247130,689.485948
1237.518703,-9326.594869,0.000000,306.438199
1237.519023,-8882.471304,-592.164754,0.000000
1237.519344,-9548.656652,-740.205942,76.609550
1237.519665,-9696.697840,148.041188,766.095498
1237.519985,-9992.780217,0.000000,1991.848295
1237.520306,-9696.697840,-1110.308913,1685.410096
1237.520627,-9696.697840,-1850.514855,919.314598
1237.520948,-9474.636058,-2368.659014,76.609550
1237.521268,-8734.430116,-888.247130,-306.438199
1237.521589,-9844.739029,592.164754,842.705048
1237.521910,-9992.780217,1554.432478,1072.533697
1237.522230,-9770.718434,2072.576638,1532.190996
1237.522551,-9696.697840,148.041188,1072.533697
1237.522872,-8956.491898,-148.041188,383.047749
1237.523192,-10510.924376,-888.247130,1685.410096
1237.523513,-9918.759623,-592.164754,2221.676944
1237.523834,-10214.842000,-592.164754,2834.553343
1237.524154,-9622.677246,-1998.556043,2145.067394
1237.524475,-8364.327145,-1998.556043,306.438199
1237.524796,-9548.656652,-740.205942,-229.828649
1237.525116,-9696.697840,1258.350101,1149.143247
1237.525437,-10066.800811,2368.659014,1838.629195
1237.525758,-10584.944971,1850.514855,1608.800546
1237.526078,-9030.512492,1184.329507,153.219100
1237.526399,-9918.759623,74.020594,306.438199
1237.526720,-10140.821405,-296.082377,1455.581446
1237.527040,-10510.924376,-814.226536,1991.848295
1237.527361,-10140.821405,-1480.411884,2221.676944
1237.527682,-9548.656652,-2590.720797,1225.752797
1237.528003,-9326.594869,-1924.535449,229.828649
1237.528323,-9622.677246,-1332.370696,383.047749
1237.528644,-9622.677246,0.000000,689.485948
1237.528965,-9844.739029,1776.494261,689.485948
1237.529285,-9548.656652,1110.308913,1302.362347
1237.529606,-9252.574275,74.020594,919.314598
1237.529927,-9474.636058,-962.267725,995.924147
1237.530247,-10362.883188,-1332.370696,1149.143247
1237.530568,-9918.759623,-1036.288319,1915.238745
1237.530889,-9474.636058,-1406.391290,2374.896044
1237.531209,-9252.574275,-2442.679609,1378.971896
1237.531530,-8882.471304,-1850.514855,0.000000
1237.531851,-9030.512492,-444.123565,0.000000
1237.532171,-9400.615463,1110.308913,612.876398
1237.532492,-9622.677246,2072.576638,1762.019645
1237.532813,-9992.780217,666.185348,1532.190996
1237.533133,-9400.615463,74.020594,536.266849
1237.533454,-9252.574275,-296.082377,0.000000
1237.533775,-10140.821405,-370.102971,1302.362347
1237.534095,-9770.718434,-148.041188,1991.848295
1237.534416,-8808.450710,-666.185348,1455.581446
1237.534737,-9548.656652,-2516.700203,842.705048
1237.535058,-9104.533087,-1406.391290,0.000000
1237.535378,-10214.842000,-222.061783,0.000000
1237.535699,-10066.800811,1702.473667,0.000000
1237.536020,-10362.883188,3108.864956,1072.533697
1237.536340,-9918.759623,2368.659014,1149.143247
1237.536661,-9252.574275,1184.329507,153.219100
1237.536982,-9770.718434,-296.082377,306.438199
1237.537302,-9992.780217,-814.226536,1225.752797
1237.537623,-9622.677246,-444.123565,2068.457845
1237.537944,-9918.759623,-1036.288319,2374.896044
1237.538264,-9030.512492,-1776.494261,995.924147
1237.538585,-8364.327145,-740.205942,-153.219100
1237.538906,-9178.553681,0.000000,919.314598
1237.539226,-9622.677246,1110.308913,1685.410096
1237.539547,-9992.780217,1332.370696,2451.505594
1237.539868,-9770.718434,0.000000,2068.457845
1237.540188,-9326.594869,-740.205942,612.876398
1237.540509,-9252.574275,-518.144159,766.095498
1237.540830,-9770.718434,74.020594,1685.410096
1237.541151,-9844.739029,74.020594,2451.505594
1237.541471,-9474.636058,-962.267725,2374.896044
1237.541792,-9326.594869,-2072.576638,1608.800546
1237.542113,-8808.450710,-2368.659014,383.047749
1237.542433,-8882.471304,-1850.514855,229.828649
1237.542754,-8216.285956,-962.267725,919.314598
1237.543075,-9030.512492,962.267725,1225.752797
1237.543395,-9252.574275,148.041188,995.924147
1237.543716,-9104.533087,-222.061783,919.314598
1237.544037,-9400.615463,-740.205942,-842.705048
1237.544357,-10066.800811,-296.082377,1608.800546
1237.544678,-10436.903782,-296.082377,2604.724693
1237.544999,-10214.842000,-740.205942,2451.505594
1237.545319,-9770.718434,-2294.638420,1608.800546
1237.545640,-9252.574275,-2738.761985,383.047749
1237.545961,-9326.594869,-1776.494261,-229.828649
1237.546281,-9474.636058,74.020594,459.657299
1237.546602,-9844.739029,1554.432478,842.705048
1237.546923,-9622.677246,2516.700203,1149.143247
1237.547243,-9622.677246,592.164754,-383.047749
1237.547564,-9770.718434,0.000000,-459.657299
1237.547885,-10066.800811,74.020594,459.657299
1237.548206,-10658.965565,-148.041188,536.266849
1237.548526,-10584.944971,-888.247130,1838.629195
1237.548847,-9992.780217,-2146.597232,995.924147
1237.549168,-9770.718434,-2442.679609,76.609550
1237.549488,-9548.656652,-1554.432478,-229.828649
1237.549809,-9844.739029,814.226536,0.000000
1237.550130,-9844.739029,2442.679609,919.314598
1237.550450,-9696.697840,2146.597232,1072.533697
1237.550771,-9474.636058,370.102971,689.485948
1237.551092,-8808.450710,-1258.350101,-612.876398
1237.551412,-9622.677246,-1554.432478,995.924147
1237.551733,-10140.821405,-1184.329507,2145.067394
1237.552054,-10066.800811,-1332.370696,2757.943793
1237.552374,-9474.636058,-1184.329507,2145.067394
1237.552695,-8882.471304,-2146.597232,612.876398
1237.553016,-8956.491898,-444.123565,76.609550
1237.553336,-9326.594869,740.205942,1072.533697
1237.553657,-9474.636058,1776.494261,1685.410096
1237.553978,-9178.553681,740.205942,1072.533697
1237.554298,-8882.471304,0.000000,153.219100
1237.554619,-8734.430116,-518.144159,0.000000
1237.554940,-9548.656652,-296.082377,1225.752797
1237.555261,-9622.677246,962.267725,3447.429741
1237.555581,-10066.800811,-1184.329507,2528.115143
1237.555902,-9474.636058,-2072.576638,1915.238745
1237.556223,-9400.615463,-2294.638420,919.314598
1237.556543,-9326.594869,-1258.350101,919.314598
1237.556864,-9326.594869,444.123565,1455.581446
1237.557185,-9622.677246,1702.473667,1532.190996
1237.557505,-9030.512492,1406.391290,1532.190996
1237.557826,-9030.512492,296.082377,536.266849
1237.558147,-9622.677246,0.000000,919.314598
1237.558467,-9622.677246,0.000000,1762.019645
1237.558788,-10214.842000,74.020594,2528.115143
1237.559109,-10288.862594,-592.164754,2451.505594
1237.559429,-9474.636058,-2072.576638,1455.581446
1237.559750,-9400.615463,-2146.597232,689.485948
1237.560071,-9326.594869,-1332.370696,229.828649
1237.560391,-9622.677246,518.144159,766.095498
1237.560712,-10436.903782,1036.288319,1915.238745
1237.561033,-9918.759623,592.164754,1072.533697
1237.561353,-9992.780217,0.000000,459.657299
1237.561674,-9918.759623,-222.061783,0.000000
1237.561995,-9844.739029,296.082377,536.266849
1237.562316,-10436.903782,0.000000,1915.238745
1237.562636,-9918.759623,-592.164754,1685.410096
1237.562957,-9918.759623,-2738.761985,306.438199
1237.563278,-9030.512492,-2886.803174,-459.657299
1237.563598,-8586.388927,-2516.700203,-842.705048
1237.563919,-9104.533087,-296.082377,-383.047749
1237.564240,-9474.636058,1332.370696,459.657299
1237.564560,-9622.677246,1628.453072,1072.533697
1237.564881,-9400.615463,592.164754,1072.533697
1237.565202,-9622.677246,-370.102971,842.705048
1237.565522,-9548.656652,-1036.288319,1302.362347
1237.565843,-9844.739029,-1554.432478,2221.676944
1237.566164,-9992.780217,-1702.473667,2374.896044
1237.566484,-9030.512492,-2072.576638,1608.800546
1237.566805,-8882.471304,-2072.576638,76.609550
1237.567126,-8438.347739,-814.226536,229.828649
1237.567446,-8956.491898,370.102971,842.705048
1237.567767,-10140.821405,1406.391290,1762.019645
1237.568088,-9696.697840,962.267725,1532.190996
1237.568409,-9474.636058,74.020594,842.705048
1237.568729,-9548.656652,370.102971,995.924147
1237.569050,-10140.821405,888.247130,1685.410096
1237.569371,-10140.821405,888.247130,2451.505594
1237.569691,-10066.800811,0.000000,2528.115143
1237.570012,-9844.739029,-1628.453072,1838.629195
1237.570333,-9178.553681,-2294.638420,306.438199
1237.570653,-9548.656652,-962.267725,0.000000
1237.570974,-9548.656652,962.267725,842.705048
1237.571295,-9622.677246,2294.638420,995.924147
1237.571615,-9770.718434,2220.617826,1685.410096
1237.571936,-9104.533087,444.123565,1149.143247
1237.572257,-9844.739029,-296.082377,919.314598
1237.572577,-10362.883188,-518.144159,1762.019645
1237.572898,-10658.965565,-592.164754,2834.553343
1237.573219,-10140.821405,-370.102971,5898.935335
1237.573539,-10066.800811,-2220.617826,2221.676944
