#time,accel_x,accel_y,accel_z
1014.620092,-9622.677246,-444.123565,1072.533697
1014.620412,-9622.677246,-370.102971,919.314598
1014.620733,-9696.697840,-296.082377,842.705048
1014.621054,-9400.615463,-518.144159,919.314598
1014.621375,-9474.636058,-444.123565,1072.533697
1014.621696,-9474.636058,-222.061783,995.924147
1014.622017,-9548.656652,-296.082377,842.705048
1014.622338,-10214.842000,74.020594,612.876398
1014.622659,-9622.677246,-148.041188,1378.971896
1014.622980,-9622.677246,-592.164754,1302.362347
1014.623301,-9548.656652,-296.082377,1149.143247
1014.623622,-9918.759623,-296.082377,995.924147
1014.623943,-9770.718434,-296.082377,995.924147
1014.624264,-9622.677246,-222.061783,766.095498
1014.624585,-9622.677246,-518.144159,536.266849
1014.624906,-9252.574275,-444.123565,612.876398
1014.625227,-9770.718434,-592.164754,-459.657299
1014.625548,-9400.615463,-296.082377,612.876398
1014.625868,-9622.677246,-444.123565,689.485948
1014.626189,-9696.697840,-222.061783,1225.752797
1014.626510,-9622.677246,-592.164754,1302.362347
1014.626831,-9770.718434,-666.185348,1149.143247
1014.627152,-9622.677246,-814.226536,1225.752797
1014.627473,-9548.656652,-370.102971,995.924147
1014.627794,-9474.636058,0.000000,1378.971896
1014.628115,-9474.636058,-740.205942,1685.410096
1014.628436,-9474.636058,-740.205942,1149.143247
1014.628757,-9326.594869,-1110.308913,612.876398
1014.629078,-9400.615463,-1110.308913,153.219100
1014.629399,-9548.656652,-888.247130,0.000000
1014.629720,-9770.718434,-592.164754,383.047749
1014.630041,-9474.636058,-814.226536,459.657299
1014.630362,-9474.636058,-1036.288319,-153.219100
1014.630683,-9770.718434,-814.226536,-306.438199
1014.631004,-9770.718434,-962.267725,-153.219100
1014.631324,-9770.718434,-814.226536,0.000000
1014.631645,-9622.677246,-1036.288319,-153.219100
1014.631966,-9474.636058,-962.267725,-536.266849
1014.632287,-9474.636058,-814.226536,-306.438199
1014.632608,-9474.636058,-1554.432478,-995.924147
1014.632929,-9400.615463,-1628.453072,-1378.971896
1014.633250,-9474.636058,-1850.514855,-1838.629195
1014.633571,-8956.491898,-1850.514855,-1149.143247
1014.633892,-9326.594869,-1924.535449,-2528.115143
1014.634213,-9696.697840,-2220.617826,-2604.724693
1014.634534,-9622.677246,-2516.700203,-3294.210641
1014.634855,-9622.677246,-2812.782580,-3524.039291
1014.635176,-9474.636058,-2738.761985,-3907.087040
1014.635497,-9622.677246,-2960.823768,-4366.744339
1014.635818,-9770.718434,-2516.700203,-3600.648841
1014.636139,-9622.677246,-2886.803174,-2911.162892
1014.636460,-9918.759623,-3330.926739,-4366.744339
1014.636780,-9474.636058,-4219.173869,-2987.772442
1014.637101,-9474.636058,-4737.318029,-2757.943793
1014.637422,-9326.594869,-5107.421000,-2374.896044
1014.637743,-9400.615463,-4885.359217,-2145.067394
1014.638064,-9326.594869,-4737.318029,-2298.286494
1014.638385,-9252.574275,-4663.297435,-2298.286494
1014.638706,-9474.636058,-4219.173869,-1991.848295
1014.639027,-9326.594869,-4071.132681,-2374.896044
1014.639348,-9474.636058,-3923.091493,-2374.896044
1014.639669,-9252.574275,-3997.112087,-1915.238745
1014.639990,-9474.636058,-4219.173869,-2221.676944
1014.640311,-9696.697840,-3775.050304,-1455.581446
1014.640632,-9400.615463,-4145.153275,-1149.143247
1014.640953,-9474.636058,-3775.050304,-306.438199
1014.641274,-9992.780217,-3627.009116,766.095498
1014.641595,-10066.800811,-3330.926739,1455.581446
1014.641916,-9326.594869,-3552.988522,1685.410096
1014.642236,-10066.800811,-3701.029710,1149.143247
1014.642557,-9474.636058,-3627.009116,1072.533697
1014.642878,-9104.533087,-3627.009116,306.438199
1014.643199,-9178.553681,-3627.009116,-153.219100
1014.643520,-9178.553681,-3627.009116,-842.705048
1014.643841,-9178.553681,-3627.009116,-919.314598
1014.644162,-9474.636058,-3330.926739,-1072.533697
1014.644483,-10140.821405,-3034.844362,-612.876398
1014.644804,-10584.944971,-2960.823768,-612.876398
1014.645125,-10732.986159,-3034.844362,-229.828649
1014.645446,-10436.903782,-2886.803174,-306.438199
1014.645767,-10214.842000,-2812.782580,-383.047749
1014.646088,-10214.842000,-2442.679609,-766.095498
1014.646409,-9474.636058,-2516.700203,-306.438199
1014.646730,-9474.636058,-1702.473667,536.266849
1014.647051,-9622.677246,-1036.288319,536.266849
1014.647372,-9770.718434,-888.247130,1149.143247
1014.647692,-9548.656652,-740.205942,1072.533697
1014.648013,-9474.636058,-814.226536,0.000000
1014.648334,-8882.471304,-1184.329507,-1225.752797
1014.648655,-8734.430116,-1702.473667,-1991.848295
1014.648976,-8882.471304,-1924.535449,-2911.162892
1014.649297,-8734.430116,-2072.576638,-3140.991542
1014.649618,-9474.636058,-2516.700203,-3217.601092
1014.649939,-10066.800811,-2960.823768,-4060.306139
1014.650260,-8882.471304,-3330.926739,-2911.162892
1014.650581,-10436.903782,-1924.535449,-3830.477490
1014.650902,-9844.739029,-962.267725,-2374.896044
1014.651223,-10288.862594,-1554.432478,-1455.581446
1014.651544,-10214.842000,-1554.432478,1455.581446
1014.651865,-9474.636058,-2516.700203,-1532.190996
1014.652186,-9474.636058,-1998.556043,-1608.800546
1014.652507,-8734.430116,-814.226536,-1685.410096
1014.652828,-8586.388927,666.185348,-1915.238745
1014.653148,-8734.430116,666.185348,-2221.676944
1014.653469,-7994.224174,74.020594,-2987.772442
1014.653790,-8290.306550,-1702.473667,-3753.867940
1014.654111,-9474.636058,-2812.782580,-2987.772442
1014.654432,-9474.636058,-1998.556043,-2221.676944
1014.654753,-10436.903782,-666.185348,-459.657299
1014.655074,-11695.253884,-222.061783,919.314598
1014.655395,-11399.171507,-296.082377,1455.581446
1014.655716,-12139.377449,-1554.432478,1378.971896
1014.656037,-10658.965565,-2442.679609,0.000000
1014.656358,-9622.677246,-3256.906145,-842.705048
1014.656679,-9104.533087,-2220.617826,-612.876398
1014.657000,-9252.574275,-3108.864956,-1225.752797
1014.657321,-7328.038826,-1554.432478,-1838.629195
1014.657642,-8586.388927,-2812.782580,-2221.676944
1014.657963,-7994.224174,-2220.617826,-1378.971896
1014.658284,-9400.615463,-2220.617826,0.000000
1014.658604,-10362.883188,-2146.597232,2298.286494
1014.658925,-11177.109724,-4145.153275,1685.410096
1014.659246,-10584.944971,-4293.194464,842.705048
1014.659567,-10732.986159,-3330.926739,612.876398
1014.659888,-10066.800811,-3256.906145,612.876398
1014.660209,-10288.862594,-3478.967927,229.828649
1014.660530,-8882.471304,-3182.885551,-1532.190996
1014.660851,-8290.306550,-2516.700203,-2298.286494
1014.661172,-8734.430116,-1850.514855,-1072.533697
1014.661493,-9770.718434,-1702.473667,1149.143247
1014.661814,-9696.697840,-2516.700203,0.000000
1014.662135,-9326.594869,-2812.782580,-1608.800546
1014.662456,-8586.388927,-2812.782580,-1532.190996
1014.662777,-8808.450710,-3997.112087,-1302.362347
1014.663098,-10362.883188,-4219.173869,-536.266849
1014.663419,-10140.821405,-4663.297435,-2451.505594
1014.663740,-9474.636058,-3775.050304,-3524.039291
1014.664060,-9622.677246,-1480.411884,-1685.410096
1014.664381,-10807.006753,-1776.494261,-1455.581446
1014.664702,-10658.965565,-3627.009116,-2681.334243
1014.665023,-8512.368333,-4145.153275,-4213.525239
1014.665344,-8660.409521,-3923.091493,-5056.230287
1014.665665,-8216.285956,-3997.112087,-3600.648841
1014.665986,-9400.615463,-2664.741391,-1915.238745
1014.666307,-9696.697840,-888.247130,0.000000
1014.666628,-10510.924376,-666.185348,-153.219100
1014.666949,-10066.800811,-814.226536,153.219100
1014.667270,-9696.697840,-1850.514855,-459.657299
1014.667591,-9326.594869,-1924.535449,-1838.629195
1014.667912,-8956.491898,-2368.659014,-1991.848295
1014.668233,-7994.224174,-2886.803174,-2834.553343
1014.668554,-7550.100608,-2886.803174,-3677.258390
1014.668875,-9400.615463,-2072.576638,-2221.676944
1014.669196,-10436.903782,-2442.679609,-1072.533697
1014.669516,-11251.130318,-3034.844362,-612.876398
1014.669837,-11399.171507,-2738.761985,-995.924147
1014.670158,-11029.068536,-1998.556043,-1072.533697
1014.670479,-10362.883188,-2294.638420,-306.438199
1014.670800,-9770.718434,-1850.514855,919.314598
1014.671121,-9622.677246,-1702.473667,1685.410096
1014.671442,-9400.615463,-1554.432478,229.828649
1014.671763,-8364.327145,-1554.432478,459.657299
1014.672084,-8956.491898,-2368.659014,-612.876398
1014.672405,-8290.306550,-1110.308913,-383.047749
1014.672726,-7772.162391,222.061783,2145.067394
1014.673047,-9844.739029,-3330.926739,-1072.533697
1014.673368,-6143.709319,-1110.308913,0.000000
1014.673689,-12287.418637,-4441.235652,-306.438199
1014.674009,-8512.368333,-2368.659014,1608.800546
1014.674330,-10732.986159,-4293.194464,-612.876398
1014.674651,-11473.192101,-1554.432478,689.485948
1014.674972,-8216.285956,-1702.473667,-3064.381992
1014.675293,-10955.047942,-1258.350101,-229.828649
1014.675614,-10140.821405,-296.082377,766.095498
1014.675935,-9474.636058,-3627.009116,-1991.848295
1014.676256,-8734.430116,-1850.514855,-1532.190996
1014.676577,-6883.915261,-3330.926739,-3064.381992
1014.676898,-9178.553681,-1406.391290,-1762.019645
1014.677218,-10140.821405,-518.144159,1149.143247
1014.677539,-8068.244768,-2146.597232,-919.314598
1014.677860,-9104.533087,-3034.844362,-1302.362347
1014.678181,-9104.533087,-3552.988522,-2451.505594
1014.678502,-10881.027347,-1776.494261,-229.828649
1014.678823,-10214.842000,-888.247130,459.657299
1014.679144,-11843.295072,-962.267725,1455.581446
1014.679465,-10658.965565,-2368.659014,0.000000
1014.679786,-9992.780217,-4737.318029,-2681.334243
1014.680107,-9474.636058,-3478.967927,-3064.381992
1014.680428,-9844.739029,-2072.576638,-2604.724693
1014.680748,-9178.553681,-1406.391290,-2451.505594
1014.681069,-9474.636058,-1554.432478,-2451.505594
1014.681390,-6957.935855,-1924.535449,-5745.716235
1014.681711,-8364.327145,-2146.597232,-5439.278036
1014.682032,-9030.512492,-666.185348,-3140.991542
1014.682353,-9400.615463,296.082377,-1608.800546
1014.682674,-10955.047942,-1036.288319,-229.828649
1014.682995,-10362.883188,-2294.638420,-229.828649
1014.683316,-9252.574275,-3330.926739,-1072.533697
1014.683637,-11843.295072,-4145.153275,536.266849
1014.683957,-9918.759623,-2146.597232,919.314598
1014.684278,-9622.677246,-1924.535449,689.485948
1014.684599,-9622.677246,-2590.720797,-383.047749
1014.684920,-8364.327145,-2368.659014,-3677.258390
1014.685241,-9104.533087,-3552.988522,-2528.115143
1014.685562,-9252.574275,-1924.535449,-306.438199
1014.685883,-8956.491898,-1184.329507,612.876398
1014.686204,-9770.718434,-1702.473667,1455.581446
1014.686525,-9622.677246,-3182.885551,766.095498
1014.686846,-9326.594869,-2516.700203,-536.266849
1014.687167,-9844.739029,-1702.473667,459.657299
1014.687487,-9400.615463,-1110.308913,1608.800546
1014.687808,-9696.697840,-962.267725,1685.410096
1014.688129,-8956.491898,-2442.679609,0.000000
1014.688450,-8586.388927,-1702.473667,-1225.752797
1014.688771,-9252.574275,888.247130,-229.828649
1014.689092,-9696.697840,1998.556043,3983.696590
1014.689413,-10881.027347,222.061783,2451.505594
1014.689734,-8882.471304,-1110.308913,842.705048
1014.690055,-10288.862594,-2664.741391,-919.314598
1014.690376,-10362.883188,-1110.308913,1302.362347
1014.690696,-9400.615463,0.000000,2681.334243
1014.691017,-11695.253884,-592.164754,3677.258390
1014.691338,-9030.512492,-740.205942,1455.581446
1014.691659,-8956.491898,-1184.329507,-1225.752797
1014.691980,-9918.759623,-1258.350101,0.000000
1014.692301,-8956.491898,-148.041188,1608.800546
1014.692622,-10658.965565,-296.082377,3217.601092
1014.692943,-9992.780217,-888.247130,2068.457845
1014.693264,-9326.594869,148.041188,-153.219100
1014.693585,-8734.430116,1702.473667,306.438199
1014.693906,-10658.965565,1184.329507,1991.848295
1014.694226,-11029.068536,1258.350101,3677.258390
1014.694547,-10510.924376,0.000000,2298.286494
1014.694868,-9474.636058,-2664.741391,-766.095498
1014.695189,-8956.491898,-1554.432478,229.828649
1014.695510,-11177.109724,-592.164754,2451.505594
1014.695831,-10436.903782,148.041188,2604.724693
1014.696152,-9326.594869,-814.226536,-459.657299
1014.696473,-7476.080014,-888.247130,-2757.943793
1014.696794,-9326.594869,-592.164754,-1455.581446
1014.697115,-8364.327145,74.020594,-536.266849
1014.697435,-11029.068536,370.102971,3677.258390
1014.697756,-10140.821405,-1258.350101,306.438199
1014.698077,-8216.285956,-962.267725,-2298.286494
1014.698398,-10436.903782,-222.061783,76.609550
1014.698719,-9400.615463,1110.308913,2298.286494
1014.699040,-10584.944971,592.164754,3217.601092
1014.699361,-9918.759623,-740.205942,1455.581446
1014.699682,-7846.182985,-1480.411884,-1915.238745
1014.700003,-9844.739029,-1110.308913,0.000000
1014.700324,-10510.924376,592.164754,3370.820191
1014.700645,-10362.883188,-962.267725,2221.676944
1014.700965,-9030.512492,-592.164754,-153.219100
1014.701286,-8808.450710,-1110.308913,-1072.533697
1014.701607,-8808.450710,0.000000,-1225.752797
1014.701928,-10732.986159,0.000000,1915.238745
1014.702249,-12065.356855,0.000000,2451.505594
1014.702570,-9622.677246,518.144159,229.828649
1014.702891,-9474.636058,-444.123565,-919.314598
1014.703212,-9030.512492,370.102971,1225.752797
1014.703533,-9474.636058,222.061783,2528.115143
1014.703854,-10955.047942,-296.082377,3370.820191
1014.704174,-8660.409521,-962.267725,1378.971896
1014.704495,-8586.388927,-1702.473667,-1149.143247
1014.704816,-8956.491898,0.000000,1762.019645
1014.705137,-9918.759623,74.020594,3217.601092
1014.705458,-10362.883188,-444.123565,3370.820191
1014.705779,-8512.368333,-444.123565,306.438199
1014.706100,-8512.368333,-296.082377,-1225.752797
1014.706421,-8586.388927,2146.597232,689.485948
1014.706742,-11177.109724,888.247130,3294.210641
1014.707063,-11251.130318,-444.123565,3294.210641
1014.707384,-10140.821405,-1924.535449,-1072.533697
1014.707704,-7920.203579,-1406.391290,-842.705048
1014.708025,-11547.212695,-962.267725,2757.943793
1014.708346,-11769.274478,2072.576638,5898.935335
1014.708667,-11917.315666,-740.205942,4826.401637
1014.708988,-7179.997637,-1628.453072,-2145.067394
1014.709309,-6217.729913,-1184.329507,-4979.620737
1014.709630,-7328.038826,518.144159,-2145.067394
1014.709951,-7550.100608,1702.473667,459.657299
1014.710272,-8660.409521,296.082377,1302.362347
1014.710593,-7846.182985,-740.205942,0.000000
1014.710913,-9548.656652,-2590.720797,229.828649
1014.711234,-13027.624579,-1184.329507,4903.011187
1014.711555,-14582.057057,-888.247130,7967.393179
1014.711876,-11547.212695,-296.082377,4903.011187
1014.712197,-9178.553681,-592.164754,383.047749
1014.712518,-6587.832884,222.061783,-1608.800546
1014.712839,-7476.080014,296.082377,0.000000
1014.713160,-9474.636058,-740.205942,0.000000
1014.713481,-7624.121203,-1924.535449,-1149.143247
1014.713802,-7105.977043,-2664.741391,-3830.477490
1014.714123,-9030.512492,-1036.288319,76.609550
1014.714443,-11473.192101,1924.535449,3524.039291
1014.714764,-13397.727550,1702.473667,5975.544884
1014.715085,-11177.109724,-222.061783,3140.991542
1014.715406,-8808.450710,-296.082377,-1072.533697
1014.715727,-10584.944971,-1036.288319,536.266849
1014.716048,-10214.842000,-518.144159,2145.067394
1014.716369,-11103.089130,-814.226536,3064.381992
1014.716690,-7994.224174,-888.247130,-766.095498
1014.717011,-7031.956449,222.061783,-3370.820191
1014.717332,-8882.471304,1998.556043,-919.314598
1014.717652,-11029.068536,370.102971,2221.676944
1014.717973,-11843.295072,222.061783,4213.525239
1014.718294,-10436.903782,-2220.617826,1991.848295
1014.718615,-9326.594869,-2072.576638,-1455.581446
1014.718936,-10584.944971,-296.082377,1915.238745
1014.719257,-11029.068536,-222.061783,4366.744339
1014.719578,-10807.006753,0.000000,3524.039291
1014.719899,-7772.162391,-962.267725,-306.438199
1014.720220,-7698.141797,0.000000,-1915.238745
1014.720541,-10066.800811,740.205942,2145.067394
1014.720862,-10584.944971,1406.391290,3753.867940
1014.721182,-10955.047942,1332.370696,5975.544884
1014.721503,-8438.347739,-148.041188,-229.828649
1014.721824,-8364.327145,-518.144159,-919.314598
1014.722145,-10140.821405,-592.164754,1225.752797
1014.722466,-9992.780217,-1184.329507,3370.820191
1014.722787,-10732.986159,-1184.329507,2221.676944
1014.723108,-8290.306550,222.061783,-766.095498
1014.723429,-8882.471304,0.000000,-1302.362347
1014.723750,-9548.656652,1110.308913,2145.067394
1014.724071,-11103.089130,-148.041188,3907.087040
1014.724391,-9326.594869,-2294.638420,1532.190996
1014.724712,-8142.265362,-2812.782580,-1685.410096
1014.725033,-8438.347739,-666.185348,-459.657299
1014.725354,-9844.739029,-296.082377,3217.601092
1014.725675,-9918.759623,518.144159,3983.696590
1014.725996,-8956.491898,-814.226536,612.876398
1014.726317,-6957.935855,-444.123565,-2604.724693
1014.726638,-8438.347739,-1110.308913,-2374.896044
1014.726959,-9104.533087,-592.164754,1608.800546
1014.727280,-10955.047942,-518.144159,2757.943793
1014.727600,-10140.821405,-296.082377,2221.676944
1014.727921,-8512.368333,-962.267725,-995.924147
1014.728242,-9548.656652,-1258.350101,-383.047749
1014.728563,-9844.739029,-1406.391290,842.705048
1014.728884,-10140.821405,444.123565,1455.581446
1014.729205,-10288.862594,518.144159,612.876398
1014.729526,-9030.512492,-296.082377,-1838.629195
1014.729847,-9326.594869,888.247130,76.609550
1014.730168,-9992.780217,666.185348,2681.334243
1014.730489,-11547.212695,-740.205942,3677.258390
1014.730810,-10140.821405,-1332.370696,1991.848295
1014.731130,-9104.533087,-1480.411884,-1532.190996
1014.731451,-9622.677246,814.226536,536.266849
1014.731772,-9844.739029,1998.556043,2221.676944
1014.732093,-12065.356855,962.267725,3983.696590
1014.732414,-9622.677246,-296.082377,306.438199
1014.732735,-7994.224174,-1850.514855,-3370.820191
1014.733056,-9400.615463,-370.102971,383.047749
1014.733377,-10510.924376,-222.061783,3064.381992
1014.733698,-11621.233289,148.041188,4443.353888
1014.734019,-9844.739029,74.020594,1838.629195
1014.734339,-7105.977043,0.000000,-1378.971896
1014.734660,-9844.739029,0.000000,2221.676944
1014.734981,-11029.068536,-740.205942,6205.373534
1014.735302,-10732.986159,-518.144159,3677.258390
1014.735623,-8586.388927,-888.247130,306.438199
1014.735944,-7105.977043,0.000000,-1608.800546
1014.736265,-8586.388927,666.185348,1532.190996
1014.736586,-10214.842000,-444.123565,3447.429741
1014.736907,-9918.759623,-740.205942,3294.210641
1014.737228,-7402.059420,-1480.411884,-306.438199
1014.737549,-8364.327145,-2146.597232,-612.876398
1014.737869,-9548.656652,-370.102971,2604.724693
1014.738190,-10881.027347,296.082377,3830.477490
1014.738511,-10732.986159,0.000000,2911.162892
1014.738832,-8216.285956,-814.226536,-306.438199
1014.739153,-8068.244768,148.041188,459.657299
1014.739474,-10584.944971,74.020594,2068.457845
1014.739795,-10584.944971,1184.329507,4519.963438
1014.740116,-9918.759623,666.185348,3064.381992
1014.740437,-8586.388927,-1036.288319,-1149.143247
1014.740758,-7698.141797,-518.144159,-1378.971896
1014.741078,-9992.780217,-1776.494261,842.705048
1014.741399,-11621.233289,-1776.494261,2451.505594
1014.741720,-9696.697840,-370.102971,995.924147
1014.742041,-10066.800811,-222.061783,-1685.410096
1014.742362,-9696.697840,962.267725,-919.314598
1014.742683,-12065.356855,1554.432478,2834.553343
1014.743004,-13249.686362,-518.144159,3983.696590
1014.743325,-9104.533087,-1924.535449,-153.219100
1014.743646,-7550.100608,-3330.926739,-3983.696590
1014.743967,-8882.471304,-1184.329507,-3907.087040
1014.744288,-8734.430116,518.144159,-1225.752797
1014.744608,-9030.512492,1702.473667,76.609550
1014.744929,-8586.388927,370.102971,-1685.410096
1014.745250,-7550.100608,518.144159,-2757.943793
1014.745571,-11103.089130,-1332.370696,919.314598
1014.745892,-12731.542202,-962.267725,5209.449386
1014.746213,-13841.851115,-740.205942,6435.202183
1014.746534,-10732.986159,-2220.617826,3447.429741
1014.746855,-8956.491898,-1554.432478,-1608.800546
1014.747176,-8068.244768,296.082377,0.000000
1014.747497,-9326.594869,148.041188,229.828649
1014.747817,-8216.285956,1332.370696,1378.971896
1014.748138,-7105.977043,-888.247130,-1838.629195
1014.748459,-7328.038826,-1036.288319,-3140.991542
1014.748780,-9548.656652,-296.082377,0.000000
1014.749101,-10288.862594,814.226536,4979.620737
1014.749422,-11769.274478,-444.123565,5515.887586
1014.749743,-9622.677246,-1258.350101,2451.505594
1014.750064,-9696.697840,-1258.350101,459.657299
1014.750385,-9474.636058,-666.185348,1991.848295
1014.750706,-9548.656652,962.267725,3370.820191
1014.751027,-10436.903782,1850.514855,3370.820191
1014.751347,-7846.182985,1258.350101,-612.876398
1014.751668,-8142.265362,1258.350101,-2911.162892
1014.751989,-9474.636058,740.205942,1072.533697
1014.752310,-10066.800811,-962.267725,3140.991542
1014.752631,-10584.944971,-2294.638420,2681.334243
1014.752952,-9548.656652,-1850.514855,229.828649
1014.753273,-8438.347739,-1332.370696,-766.095498
1014.753594,-10066.800811,74.020594,2451.505594
1014.753915,-10955.047942,148.041188,3907.087040
1014.754236,-9844.739029,148.041188,2221.676944
1014.754556,-7698.141797,-1480.411884,153.219100
1014.754877,-8142.265362,-1406.391290,-842.705048
1014.755198,-9992.780217,-962.267725,2451.505594
1014.755519,-11399.171507,-962.267725,4903.011187
1014.755840,-10288.862594,0.000000,2987.772442
1014.756161,-9326.594869,-1480.411884,-459.657299
1014.756482,-8290.306550,148.041188,0.000000
1014.756803,-9252.574275,666.185348,1762.019645
1014.757124,-11251.130318,518.144159,3294.210641
1014.757445,-9622.677246,-888.247130,689.485948
1014.757766,-7476.080014,-1480.411884,-2451.505594
1014.758086,-9178.553681,-1036.288319,-1455.581446
1014.758407,-9474.636058,444.123565,1915.238745
1014.758728,-10955.047942,148.041188,5362.668486
1014.759049,-10584.944971,74.020594,2068.457845
1014.759370,-8290.306550,-592.164754,-1991.848295
1014.759691,-9104.533087,-1332.370696,-1378.971896
1014.760012,-9622.677246,-740.205942,612.876398
1014.760333,-10584.944971,518.144159,1455.581446
1014.760654,-9326.594869,666.185348,0.000000
1014.760975,-7328.038826,-518.144159,-2757.943793
1014.761295,-7920.203579,-666.185348,-1532.190996
1014.761616,-10955.047942,-740.205942,689.485948
1014.761937,-11769.274478,-148.041188,2221.676944
1014.762258,-10584.944971,888.247130,1302.362347
1014.762579,-9030.512492,296.082377,-1149.143247
1014.762900,-9696.697840,518.144159,0.000000
1014.763221,-11103.089130,148.041188,2987.772442
1014.763542,-11399.171507,-1332.370696,3447.429741
1014.763863,-8882.471304,-2146.597232,-306.438199
1014.764184,-7772.162391,-2442.679609,-3140.991542
1014.764505,-7920.203579,222.061783,-306.438199
1014.764825,-10658.965565,1480.411884,2757.943793
1014.765146,-11769.274478,2220.617826,4366.744339
1014.765467,-9252.574275,-592.164754,995.924147
1014.765788,-7994.224174,-1480.411884,0.000000
1014.766109,-10288.862594,-592.164754,1915.238745
1014.766430,-11769.274478,-666.185348,4213.525239
1014.766751,-11251.130318,518.144159,4136.915689
1014.767072,-8808.450710,0.000000,459.657299
1014.767393,-7698.141797,-740.205942,-1532.190996
1014.767714,-8956.491898,-444.123565,1762.019645
1014.768034,-10658.965565,-1258.350101,3753.867940
1014.768355,-10584.944971,-740.205942,3140.991542
1014.768676,-7402.059420,-666.185348,1072.533697
1014.768997,-8808.450710,-444.123565,306.438199
1014.769318,-9030.512492,1480.411884,2757.943793
1014.769639,-11029.068536,814.226536,4519.963438
1014.769960,-11103.089130,-740.205942,6281.983084
1014.770281,-6143.709319,-962.267725,-919.314598
1014.770602,-8882.471304,-888.247130,-536.266849
1014.770923,-9104.533087,1776.494261,2604.724693
1014.771244,-11917.315666,1036.288319,4979.620737
1014.771564,-9992.780217,370.102971,2145.067394
1014.771885,-7031.956449,-666.185348,-1762.019645
1014.772206,-8290.306550,-1036.288319,-842.705048
1014.772527,-9548.656652,-1110.308913,1838.629195
1014.772848,-11251.130318,148.041188,2987.772442
1014.773169,-10214.842000,222.061783,2451.505594
1014.773490,-7402.059420,-666.185348,-1685.410096
1014.773811,-9030.512492,-296.082377,0.000000
1014.774132,-9696.697840,-1406.391290,2834.553343
1014.774453,-10807.006753,-1110.308913,1762.019645
1014.774773,-9252.574275,-518.144159,995.924147
1014.775094,-8882.471304,-2072.576638,-1991.848295
1014.775415,-9326.594869,296.082377,76.609550
1014.775736,-9992.780217,962.267725,1915.238745
1014.776057,-11695.253884,74.020594,2145.067394
1014.776378,-10658.965565,222.061783,459.657299
1014.776699,-8438.347739,-2294.638420,-2911.162892
1014.777020,-7846.182985,-1258.350101,-536.266849
1014.777341,-10732.986159,-592.164754,153.219100
1014.777662,-11695.253884,-222.061783,2298.286494
1014.777983,-9844.739029,-1554.432478,229.828649
1014.778303,-9548.656652,-2590.720797,-306.438199
1014.778624,-10658.965565,-1480.411884,995.924147
1014.778945,-11917.315666,-740.205942,3064.381992
1014.779266,-11399.171507,740.205942,2681.334243
1014.779587,-8808.450710,1554.432478,-459.657299
1014.779908,-7920.203579,0.000000,-2757.943793
1014.780229,-7698.141797,1628.453072,-689.485948
1014.780550,-10658.965565,-370.102971,1455.581446
1014.780871,-10140.821405,444.123565,2911.162892
1014.781192,-9622.677246,-1554.432478,1685.410096
1014.781512,-9844.739029,-1184.329507,0.000000
1014.781833,-10955.047942,666.185348,3524.039291
1014.782154,-9770.718434,1332.370696,4136.915689
1014.782475,-11991.336260,1850.514855,5822.325785
1014.782796,-7402.059420,1036.288319,1455.581446
1014.783117,-8142.265362,-1850.514855,-383.047749
1014.783438,-8290.306550,-814.226536,1455.581446
1014.783759,-9326.594869,-1036.288319,3677.258390
1014.784080,-9474.636058,-1406.391290,3753.867940
1014.784401,-8290.306550,-888.247130,919.314598
1014.784721,-8068.244768,-222.061783,-919.314598
1014.785042,-9770.718434,1184.329507,3524.039291
1014.785363,-10584.944971,666.185348,3830.477490
1014.785684,-9770.718434,1332.370696,4673.182538
1014.786005,-9770.718434,-2812.782580,995.924147
1014.786326,-7105.977043,-1184.329507,-1225.752797
1014.786647,-9992.780217,-370.102971,1762.019645
1014.786968,-9992.780217,-444.123565,3064.381992
1014.787289,-9104.533087,0.000000,1915.238745
1014.787610,-8586.388927,-1036.288319,-1072.533697
1014.787931,-8660.409521,-222.061783,-1378.971896
1014.788251,-9770.718434,814.226536,2068.457845
1014.788572,-12583.501014,0.000000,3983.696590
1014.788893,-10214.842000,0.000000,2757.943793
1014.789214,-8808.450710,-1480.411884,-995.924147
1014.789535,-8956.491898,-370.102971,0.000000
1014.789856,-9992.780217,-518.144159,1225.752797
1014.790177,-9696.697840,2442.679609,2145.067394
1014.790498,-9474.636058,1998.556043,-229.828649
1014.790819,-7550.100608,962.267725,-3064.381992
1014.791140,-9178.553681,0.000000,-1302.362347
1014.791460,-10658.965565,-740.205942,1378.971896
1014.791781,-11991.336260,-1036.288319,2681.334243
1014.792102,-11325.150913,-666.185348,2221.676944
1014.792423,-9696.697840,-1258.350101,229.828649
1014.792744,-10584.944971,-814.226536,842.705048
1014.793065,-11103.089130,-444.123565,2221.676944
1014.793386,-10436.903782,-740.205942,1302.362347
1014.793707,-8364.327145,-1184.329507,-2221.676944
1014.794028,-7402.059420,-1406.391290,-4213.525239
1014.794349,-8142.265362,-1332.370696,-2374.896044
1014.794669,-8142.265362,-1924.535449,-1532.190996
1014.794990,-9770.718434,-1184.329507,842.705048
1014.795311,-9474.636058,-1184.329507,0.000000
1014.795632,-9548.656652,-370.102971,-459.657299
1014.795953,-10510.924376,592.164754,2911.162892
1014.796274,-11399.171507,1628.453072,3983.696590
1014.796595,-12213.398043,1110.308913,5132.839837
1014.796916,-8586.388927,-592.164754,0.000000
1014.797237,-7328.038826,-2146.597232,-2451.505594
1014.797558,-8808.450710,1406.391290,-383.047749
1014.797878,-8808.450710,296.082377,1532.190996
1014.798199,-9844.739029,-222.061783,1915.238745
1014.798520,-10955.047942,592.164754,1455.581446
1014.798841,-8142.265362,-1258.350101,-459.657299
1014.799162,-10807.006753,-518.144159,3524.039291
1014.799483,-10510.924376,-222.061783,4443.353888
1014.799804,-12361.439231,0.000000,4136.915689
1014.800125,-7994.224174,-444.123565,1608.800546
1014.800446,-7846.182985,-814.226536,-153.219100
1014.800767,-8956.491898,-1332.370696,1532.190996
1014.801088,-11177.109724,-888.247130,3217.601092
1014.801408,-9474.636058,-1036.288319,2451.505594
1014.801729,-8882.471304,-1110.308913,0.000000
1014.802050,-9252.574275,-1184.329507,229.828649
1014.802371,-9622.677246,74.020594,2911.162892
1014.802692,-11177.109724,0.000000,4290.134789
1014.803013,-10955.047942,-148.041188,3294.210641
1014.803334,-8364.327145,-1628.453072,229.828649
1014.803655,-7994.224174,-2220.617826,0.000000
1014.803976,-9844.739029,-1406.391290,1532.190996
1014.804297,-10436.903782,-518.144159,2528.115143
1014.804617,-10214.842000,0.000000,1532.190996
1014.804938,-8882.471304,740.205942,-1838.629195
1014.805259,-8290.306550,814.226536,-1225.752797
1014.805580,-10066.800811,592.164754,1685.410096
1014.805901,-10955.047942,-222.061783,2374.896044
1014.806222,-9696.697840,-296.082377,383.047749
1014.806543,-8512.368333,-888.247130,-2451.505594
1014.806864,-8438.347739,0.000000,-1378.971896
1014.807185,-9622.677246,1480.411884,1685.410096
1014.807506,-11547.212695,-444.123565,2145.067394
1014.807826,-8068.244768,444.123565,-459.657299
1014.808147,-8660.409521,-1480.411884,-2757.943793
1014.808468,-9474.636058,-1036.288319,-995.924147
1014.808789,-10436.903782,888.247130,1991.848295
1014.809110,-11695.253884,1258.350101,5056.230287
1014.809431,-9474.636058,-370.102971,153.219100
1014.809752,-7698.141797,-296.082377,-2757.943793
1014.810073,-9548.656652,-888.247130,-536.266849
1014.810394,-9770.718434,-592.164754,1762.019645
1014.810715,-10955.047942,-592.164754,3217.601092
1014.811036,-8660.409521,-1036.288319,919.314598
1014.811356,-7994.224174,-1480.411884,-2068.457845
1014.811677,-9474.636058,518.144159,1149.143247
1014.811998,-11843.295072,1480.411884,4366.744339
1014.812319,-10955.047942,2220.617826,4596.572988
1014.812640,-9548.656652,-148.041188,1608.800546
1014.812961,-8512.368333,-1702.473667,-612.876398
1014.813282,-9030.512492,-1110.308913,1378.971896
1014.813603,-9474.636058,-148.041188,2145.067394
1014.813924,-11251.130318,444.123565,3370.820191
1014.814245,-7624.121203,444.123565,306.438199
1014.814565,-8586.388927,-592.164754,-536.266849
1014.814886,-8512.368333,-518.144159,1149.143247
1014.815207,-10288.862594,-1332.370696,2145.067394
1014.815528,-9474.636058,666.185348,2757.943793
1014.815849,-8216.285956,222.061783,-766.095498
1014.816170,-6883.915261,962.267725,-1149.143247
1014.816491,-10807.006753,888.247130,3600.648841
1014.816812,-10881.027347,0.000000,5439.278036
1014.817133,-11917.315666,-1258.350101,4903.011187
1014.817454,-10214.842000,-2368.659014,1455.581446
1014.817774,-8882.471304,-2442.679609,383.047749
1014.818095,-9918.759623,-296.082377,2451.505594
1014.818416,-11473.192101,74.020594,3830.477490
1014.818737,-8660.409521,296.082377,1685.410096
1014.819058,-7698.141797,-814.226536,-1991.848295
1014.819379,-8290.306550,-962.267725,-1838.629195
1014.819700,-9400.615463,-592.164754,459.657299
1014.820021,-10807.006753,370.102971,2528.115143
1014.820342,-10807.006753,296.082377,1225.752797
1014.820663,-8882.471304,-814.226536,-536.266849
1014.820984,-9696.697840,-370.102971,229.828649
1014.821304,-11103.089130,-1110.308913,2221.676944
1014.821625,-11325.150913,0.000000,3370.820191
1014.821946,-9622.677246,0.000000,612.876398
1014.822267,-8068.244768,-666.185348,-2451.505594
1014.822588,-8734.430116,-888.247130,-1608.800546
1014.822909,-9030.512492,-1628.453072,0.000000
1014.823230,-10140.821405,-518.144159,306.438199
1014.823551,-9918.759623,-888.247130,229.828649
1014.823872,-9474.636058,-2072.576638,-2068.457845
1014.824193,-9252.574275,-518.144159,-459.657299
1014.824513,-11325.150913,74.020594,2681.334243
1014.824834,-11177.109724,296.082377,3140.991542
1014.825155,-10066.800811,148.041188,1455.581446
1014.825476,-7550.100608,-444.123565,-2451.505594
1014.825797,-7994.224174,666.185348,-1225.752797
1014.826118,-9030.512492,0.000000,306.438199
1014.826439,-9474.636058,-296.082377,995.924147
1014.826760,-8216.285956,0.000000,459.657299
1014.827081,-9474.636058,-1998.556043,-612.876398
1014.827402,-9770.718434,-222.061783,3524.039291
1014.827722,-14285.974681,-1406.391290,5515.887586
1014.828043,-13249.686362,0.000000,5515.887586
1014.828364,-11177.109724,296.082377,3140.991542
1014.828685,-9030.512492,740.205942,612.876398
1014.829006,-9548.656652,1406.391290,459.657299
1014.829327,-9474.636058,592.164754,1072.533697
1014.829648,-8068.244768,0.000000,76.609550
1014.829969,-6587.832884,-592.164754,-2834.553343
1014.830290,-6809.894666,-666.185348,-3447.429741
1014.830611,-8808.450710,-74.020594,1302.362347
1014.830932,-11695.253884,222.061783,4979.620737
1014.831252,-12435.459826,222.061783,5822.325785
1014.831573,-10214.842000,-148.041188,3447.429741
1014.831894,-8956.491898,-1332.370696,1532.190996
1014.832215,-10510.924376,-888.247130,2757.943793
1014.832536,-9918.759623,-444.123565,4366.744339
1014.832857,-8956.491898,-740.205942,2298.286494
1014.833178,-6143.709319,-592.164754,-1455.581446
1014.833499,-8734.430116,-1258.350101,-1838.629195
1014.833820,-7846.182985,0.000000,1915.238745
1014.834141,-11769.274478,-444.123565,4060.306139
1014.834461,-10362.883188,-1702.473667,4136.915689
1014.834782,-7772.162391,-1184.329507,-306.438199
1014.835103,-9696.697840,-518.144159,0.000000
1014.835424,-8586.388927,666.185348,1838.629195
1014.835745,-11251.130318,-296.082377,3217.601092
1014.836066,-9474.636058,-518.144159,1685.410096
1014.836387,-7402.059420,-518.144159,-2221.676944
1014.836708,-9622.677246,-888.247130,-1378.971896
1014.837029,-8586.388927,296.082377,1838.629195
1014.837350,-12583.501014,814.226536,3370.820191
1014.837670,-10436.903782,888.247130,1532.190996
1014.837991,-9252.574275,-666.185348,-1149.143247
1014.838312,-9252.574275,-1184.329507,229.828649
1014.838633,-10066.800811,-1924.535449,1072.533697
1014.838954,-11251.130318,-518.144159,1915.238745
1014.839275,-9844.739029,222.061783,459.657299
1014.839596,-7920.203579,148.041188,-2834.553343
1014.839917,-8364.327145,1924.535449,-536.266849
1014.840238,-11251.130318,962.267725,1455.581446
1014.840559,-11621.233289,1110.308913,2451.505594
1014.840880,-10140.821405,-814.226536,306.438199
1014.841200,-8882.471304,-1924.535449,-2221.676944
1014.841521,-10436.903782,-1036.288319,-536.266849
1014.841842,-10288.862594,-1036.288319,1608.800546
1014.842163,-10881.027347,-740.205942,2298.286494
1014.842484,-8068.244768,-1110.308913,-306.438199
1014.842805,-7920.203579,-2294.638420,-2987.772442
1014.843126,-9770.718434,-888.247130,153.219100
1014.843447,-10881.027347,-296.082377,2604.724693
1014.843768,-10955.047942,962.267725,3447.429741
1014.844089,-9770.718434,74.020594,689.485948
1014.844409,-7698.141797,222.061783,-766.095498
1014.844730,-10066.800811,0.000000,1532.190996
1014.845051,-10214.842000,-1332.370696,2911.162892
1014.845372,-9474.636058,-296.082377,2451.505594
1014.845693,-9326.594869,-2146.597232,-229.828649
1014.846014,-7105.977043,-888.247130,-2145.067394
1014.846335,-8808.450710,1776.494261,1378.971896
1014.846656,-9992.780217,2146.597232,3983.696590
1014.846977,-9548.656652,666.185348,3907.087040
1014.847298,-8586.388927,-1406.391290,612.876398
1014.847618,-8512.368333,-2368.659014,229.828649
1014.847939,-9474.636058,-2220.617826,2528.115143
1014.848260,-11769.274478,-666.185348,4979.620737
1014.848581,-10658.965565,888.247130,4673.182538
1014.848902,-9178.553681,148.041188,919.314598
1014.849223,-8364.327145,666.185348,1072.533697
1014.849544,-10214.842000,296.082377,3524.039291
1014.849865,-11251.130318,-1702.473667,4673.182538
1014.850186,-9770.718434,-1184.329507,2221.676944
1014.850507,-7772.162391,-1850.514855,-2068.457845
1014.850828,-7031.956449,-740.205942,-3140.991542
1014.851148,-7772.162391,740.205942,766.095498
1014.851469,-10436.903782,1702.473667,1378.971896
1014.851790,-10140.821405,962.267725,766.095498
1014.852111,-9030.512492,-592.164754,-919.314598
1014.852432,-10436.903782,-1110.308913,919.314598
1014.852753,-12583.501014,-1406.391290,3830.477490
1014.853074,-13323.706956,-1184.329507,6052.154434
1014.853395,-10584.944971,-1924.535449,3064.381992
1014.853716,-7624.121203,-2442.679609,-1302.362347
1014.854037,-7550.100608,-222.061783,-1532.190996
1014.854357,-9474.636058,-148.041188,229.828649
1014.854678,-8290.306550,1184.329507,766.095498
1014.854999,-8586.388927,-370.102971,-1378.971896
1014.855320,-6957.935855,-1036.288319,-4213.525239
1014.855641,-8660.409521,1628.453072,459.657299
1014.855962,-13249.686362,-518.144159,766.095498
1014.856283,-8142.265362,1332.370696,4443.353888
1014.856604,-10510.924376,-592.164754,153.219100
1014.856925,-7994.224174,0.000000,0.000000
1014.857246,-9326.594869,-1332.370696,-536.266849
1014.857566,-11843.295072,962.267725,3600.648841
1014.857887,-9474.636058,-222.061783,459.657299
1014.858208,-8512.368333,-518.144159,-1608.800546
1014.858529,-7328.038826,-888.247130,-1838.629195
1014.858850,-9252.574275,-888.247130,0.000000
1014.859171,-11473.192101,-888.247130,3294.210641
1014.859492,-10362.883188,-148.041188,2834.553343
1014.859813,-9548.656652,-888.247130,-612.876398
1014.860134,-11325.150913,-592.164754,76.609550
1014.860455,-9400.615463,1406.391290,2068.457845
1014.860776,-10140.821405,814.226536,2681.334243
1014.861096,-9178.553681,2442.679609,2298.286494
1014.861417,-7994.224174,0.000000,-1455.581446
1014.861738,-8882.471304,-370.102971,-1378.971896
1014.862059,-9918.759623,148.041188,2068.457845
1014.862380,-10584.944971,-222.061783,3830.477490
1014.862701,-11695.253884,-592.164754,4213.525239
1014.863022,-10214.842000,-1628.453072,1915.238745
1014.863343,-10807.006753,-888.247130,1915.238745
1014.863664,-9918.759623,-444.123565,2681.334243
1014.863985,-9474.636058,148.041188,4290.134789
1014.864305,-9252.574275,-1480.411884,2221.676944
1014.864626,-7698.141797,-1628.453072,-459.657299
1014.864947,-7105.977043,-518.144159,-153.219100
1014.865268,-8512.368333,-666.185348,1838.629195
1014.865589,-10510.924376,666.185348,3907.087040
1014.865910,-11399.171507,370.102971,2987.772442
1014.866231,-8068.244768,962.267725,153.219100
1014.866552,-9918.759623,888.247130,1149.143247
1014.866873,-8956.491898,0.000000,2528.115143
1014.867194,-10510.924376,-1110.308913,2834.553343
1014.867514,-9030.512492,-1850.514855,459.657299
1014.867835,-7031.956449,-1258.350101,-2068.457845
1014.868156,-7328.038826,296.082377,-919.314598
1014.868477,-9992.780217,0.000000,3217.601092
1014.868798,-11547.212695,-370.102971,3677.258390
1014.869119,-10140.821405,-666.185348,1532.190996
1014.869440,-8438.347739,-1406.391290,-2068.457845
1014.869761,-9770.718434,0.000000,0.000000
1014.870082,-11029.068536,148.041188,2604.724693
1014.870403,-11843.295072,296.082377,3064.381992
1014.870724,-9104.533087,0.000000,-536.266849
1014.871044,-6809.894666,-1554.432478,-3524.039291
1014.871365,-8586.388927,-962.267725,-1915.238745
1014.871686,-10362.883188,148.041188,1225.752797
1014.872007,-11843.295072,666.185348,2451.505594
1014.872328,-9104.533087,1480.411884,1225.752797
1014.872649,-9474.636058,-444.123565,-1608.800546
1014.872970,-10436.903782,-666.185348,612.876398
1014.873291,-11769.274478,-2368.659014,2451.505594
1014.873612,-10436.903782,-740.205942,2604.724693
1014.873933,-8956.491898,-3034.844362,0.000000
1014.874253,-7179.997637,-1332.370696,-2221.676944
1014.874574,-10214.842000,1258.350101,1072.533697
1014.874895,-11029.068536,1184.329507,3524.039291
1014.875216,-11399.171507,518.144159,2987.772442
1014.875536,-8438.347739,74.020594,0.000000
1014.875857,-9326.594869,-1258.350101,-1455.581446
1014.876178,-9400.615463,-740.205942,306.438199
1014.876498,-10066.800811,666.185348,2834.553343
1014.876819,-10066.800811,1184.329507,3753.867940
1014.877140,-8956.491898,-74.020594,-306.438199
1014.877460,-8068.244768,-148.041188,-842.705048
1014.877781,-9400.615463,-592.164754,1378.971896
1014.878102,-9992.780217,-1332.370696,3524.039291
1014.878422,-9178.553681,-148.041188,3064.381992
1014.878743,-8956.491898,-1480.411884,1915.238745
1014.879064,-8068.244768,-1184.329507,536.266849
1014.879384,-9400.615463,-666.185348,2987.772442
1014.879705,-11695.253884,-296.082377,4749.792088
1014.880026,-9474.636058,518.144159,2604.724693
1014.880346,-8956.491898,-592.164754,-383.047749
1014.880667,-7846.182985,222.061783,459.657299
1014.880988,-8956.491898,-666.185348,2145.067394
1014.881308,-11251.130318,-2664.741391,2834.553343
1014.881629,-8956.491898,-1850.514855,1378.971896
1014.881950,-8364.327145,-3108.864956,-2068.457845
1014.882270,-8586.388927,-592.164754,-536.266849
1014.882591,-10436.903782,-666.185348,1991.848295
1014.882912,-11843.295072,814.226536,3600.648841
1014.883232,-10214.842000,370.102971,1685.410096
1014.883553,-9252.574275,-888.247130,-536.266849
1014.883874,-9400.615463,-1184.329507,0.000000
1014.884194,-10955.047942,-444.123565,2528.115143
1014.884515,-11621.233289,-740.205942,3524.039291
1014.884836,-8660.409521,0.000000,0.000000
1014.885156,-8586.388927,0.000000,-2451.505594
1014.885477,-9030.512492,1406.391290,-842.705048
1014.885798,-10584.944971,1998.556043,1838.629195
1014.886118,-10955.047942,1406.391290,2374.896044
1014.886439,-9030.512492,296.082377,-2451.505594
1014.886760,-8142.265362,-888.247130,-5975.544884
1014.887080,-8512.368333,1036.288319,-2451.505594
1014.887401,-10140.821405,2368.659014,1149.143247
1014.887722,-12583.501014,4145.153275,6205.373534
1014.888042,-12287.418637,-1776.494261,3064.381992
1014.888363,-8364.327145,-2146.597232,-689.485948
1014.888684,-12435.459826,-3404.947333,1302.362347
1014.889004,-11251.130318,-1776.494261,2757.943793
1014.889325,-9474.636058,148.041188,3140.991542
1014.889646,-7846.182985,-296.082377,-689.485948
1014.889966,-5033.400406,-592.164754,-4290.134789
1014.890287,-7105.977043,-962.267725,-1532.190996
1014.890608,-10658.965565,-1258.350101,2145.067394
1014.890928,-10362.883188,0.000000,2374.896044
1014.891249,-10288.862594,444.123565,1532.190996
1014.891570,-9252.574275,740.205942,536.266849
1014.891890,-10214.842000,2960.823768,2451.505594
1014.892211,-11621.233289,-666.185348,4749.792088
1014.892532,-9326.594869,74.020594,2604.724693
1014.892852,-8734.430116,-2072.576638,-459.657299
1014.893173,-7550.100608,-1998.556043,-2298.286494
1014.893494,-9104.533087,740.205942,1991.848295
1014.893814,-10214.842000,1036.288319,4290.134789
1014.894135,-8956.491898,962.267725,3370.820191
1014.894456,-9400.615463,-1258.350101,459.657299
1014.894776,-8290.306550,-2072.576638,229.828649
1014.895097,-9622.677246,-1480.411884,2911.162892
1014.895418,-12139.377449,-1184.329507,5439.278036
1014.895738,-9992.780217,0.000000,3830.477490
1014.896059,-8660.409521,296.082377,459.657299
1014.896380,-7624.121203,0.000000,-919.314598
1014.896700,-7920.203579,666.185348,612.876398
1014.897021,-10140.821405,148.041188,2987.772442
1014.897342,-9770.718434,-814.226536,536.266849
1014.897662,-8364.327145,-1036.288319,-1225.752797
1014.897983,-9474.636058,-740.205942,689.485948
1014.898304,-10955.047942,370.102971,4060.306139
1014.898624,-13841.851115,-1184.329507,5209.449386
1014.898945,-9622.677246,-1184.329507,3217.601092
1014.899266,-9030.512492,-2664.741391,-1991.848295
1014.899586,-8142.265362,-370.102971,-1149.143247
1014.899907,-10584.944971,148.041188,1685.410096
1014.900228,-11029.068536,666.185348,2911.162892
1014.900548,-8512.368333,-444.123565,153.219100
1014.900869,-8216.285956,-1332.370696,-1762.019645
1014.901190,-9770.718434,-1406.391290,0.000000
1014.901510,-11843.295072,-814.226536,3447.429741
1014.901831,-12583.501014,370.102971,3524.039291
1014.902152,-9474.636058,296.082377,76.609550
1014.902472,-6957.935855,-518.144159,-5056.230287
1014.902793,-7254.018232,-370.102971,-3447.429741
1014.903114,-8512.368333,74.020594,-536.266849
1014.903434,-8808.450710,444.123565,536.266849
1014.903755,-8068.244768,-1258.350101,-1455.581446
1014.904076,-7846.182985,-1110.308913,-2911.162892
1014.904396,-10955.047942,-962.267725,1455.581446
1014.904717,-11843.295072,-222.061783,4443.353888
1014.905038,-11991.336260,-962.267725,5132.839837
1014.905358,-9252.574275,-2368.659014,689.485948
1014.905679,-8808.450710,-2442.679609,-2145.067394
1014.906000,-8586.388927,-444.123565,-229.828649
1014.906320,-10066.800811,1702.473667,2221.676944
1014.906641,-9844.739029,2072.576638,2374.896044
1014.906961,-8068.244768,1258.350101,-536.266849
1014.907282,-8808.450710,-814.226536,-229.828649
1014.907603,-9400.615463,-592.164754,1149.143247
1014.907923,-11547.212695,-962.267725,3294.210641
1014.908244,-12065.356855,1036.288319,4903.011187
1014.908565,-9548.656652,74.020594,919.314598
1014.908885,-8586.388927,1036.288319,-153.219100
1014.909206,-9918.759623,444.123565,2757.943793
1014.909527,-10066.800811,74.020594,3677.258390
1014.909847,-10807.006753,-888.247130,4213.525239
1014.910168,-7994.224174,-2368.659014,76.609550
1014.910489,-7994.224174,-962.267725,-76.609550
1014.910809,-10066.800811,296.082377,3294.210641
1014.911130,-10955.047942,1554.432478,5439.278036
1014.911451,-11325.150913,740.205942,4903.011187
1014.911771,-9474.636058,-1554.432478,766.095498
1014.912092,-8586.388927,-814.226536,153.219100
1014.912413,-10214.842000,-666.185348,2451.505594
1014.912733,-10214.842000,0.000000,4136.915689
1014.913054,-9770.718434,0.000000,3064.381992
1014.913375,-7772.162391,-1554.432478,-1225.752797
1014.913695,-7254.018232,-1258.350101,-1838.629195
1014.914016,-10288.862594,-592.164754,2757.943793
1014.914337,-11769.274478,-444.123565,4519.963438
1014.914657,-10436.903782,-370.102971,2374.896044
1014.914978,-8512.368333,-370.102971,-842.705048
1014.915299,-8290.306550,0.000000,-995.924147
1014.915619,-11251.130318,296.082377,3064.381992
1014.915940,-10510.924376,-222.061783,3064.381992
1014.916261,-8808.450710,-1628.453072,-306.438199
1014.916581,-7920.203579,-1850.514855,-3447.429741
1014.916902,-7846.182985,-296.082377,-1532.190996
1014.917223,-9474.636058,518.144159,459.657299
1014.917543,-11843.295072,1332.370696,2145.067394
1014.917864,-9326.594869,666.185348,-153.219100
1014.918185,-8586.388927,-814.226536,-2834.553343
1014.918505,-9326.594869,1554.432478,-766.095498
1014.918826,-11399.171507,-148.041188,2528.115143
1014.919147,-11621.233289,148.041188,3217.601092
1014.919467,-9474.636058,-1184.329507,-153.219100
1014.919788,-7846.182985,-592.164754,-2374.896044
1014.920109,-9326.594869,74.020594,-995.924147
1014.920429,-10066.800811,2294.638420,2451.505594
1014.920750,-12213.398043,370.102971,2987.772442
1014.921071,-7994.224174,-296.082377,-1149.143247
1014.921391,-7179.997637,-2294.638420,-4136.915689
1014.921712,-7994.224174,-1850.514855,-2451.505594
1014.922033,-10362.883188,592.164754,2145.067394
1014.922353,-13101.645173,592.164754,4290.134789
1014.922674,-9696.697840,1406.391290,2451.505594
1014.922995,-10658.965565,-1628.453072,1149.143247
1014.923315,-10066.800811,-666.185348,4136.915689
1014.923636,-13175.665768,-1406.391290,4749.792088
1014.923957,-10584.944971,1554.432478,4826.401637
1014.924277,-8808.450710,148.041188,153.219100
1014.924598,-5847.626942,-1110.308913,-2987.772442
1014.924919,-6143.709319,-518.144159,-919.314598
1014.925239,-9770.718434,-1184.329507,2298.286494
1014.925560,-9622.677246,296.082377,3140.991542
1014.925881,-9696.697840,-1036.288319,1455.581446
1014.926201,-9178.553681,0.000000,1991.848295
1014.926522,-10807.006753,296.082377,4826.401637
1014.926843,-11917.315666,-814.226536,6894.859482
1014.927163,-9918.759623,1258.350101,6128.763984
1014.927484,-8290.306550,-2960.823768,0.000000
1014.927805,-7698.141797,-1702.473667,-689.485948
1014.928125,-8068.244768,-518.144159,1225.752797
1014.928446,-10510.924376,-1332.370696,2834.553343
1014.928767,-8660.409521,962.267725,1991.848295
1014.929087,-7846.182985,-1184.329507,-919.314598
1014.929408,-7254.018232,-222.061783,-919.314598
1014.929729,-10881.027347,-1110.308913,2757.943793
1014.930049,-11843.295072,-1628.453072,4519.963438
1014.930370,-10140.821405,-666.185348,2681.334243
1014.930691,-8734.430116,-2812.782580,-1991.848295
1014.931011,-6957.935855,518.144159,0.000000
1014.931332,-10732.986159,888.247130,1608.800546
1014.931653,-10658.965565,1480.411884,2911.162892
1014.931973,-7994.224174,518.144159,-1302.362347
1014.932294,-7624.121203,-1702.473667,-3370.820191
1014.932615,-8734.430116,-740.205942,-1991.848295
1014.932935,-12509.480420,666.185348,2604.724693
1014.933256,-13471.748144,814.226536,4213.525239
1014.933577,-10658.965565,444.123565,1608.800546
1014.933897,-9844.739029,-1258.350101,-2145.067394
1014.934218,-9252.574275,222.061783,-1532.190996
1014.934539,-10807.006753,592.164754,153.219100
1014.934859,-10066.800811,1924.535449,1378.971896
1014.935180,-8068.244768,740.205942,-1762.019645
1014.935501,-7476.080014,-444.123565,-3753.867940
1014.935821,-9178.553681,-888.247130,-1762.019645
1014.936142,-11399.171507,-444.123565,1762.019645
1014.936463,-11177.109724,888.247130,5209.449386
1014.936783,-9474.636058,-962.267725,383.047749
1014.937104,-8512.368333,-1554.432478,-1915.238745
1014.937425,-9326.594869,0.000000,383.047749
1014.937745,-11399.171507,370.102971,3677.258390
1014.938066,-11251.130318,444.123565,4060.306139
1014.938387,-8438.347739,-1850.514855,919.314598
1014.938707,-8438.347739,-1628.453072,229.828649
1014.939028,-9992.780217,-1924.535449,2145.067394
1014.939349,-9326.594869,-814.226536,3447.429741
1014.939669,-10732.986159,962.267725,3907.087040
1014.939990,-7328.038826,0.000000,-842.705048
1014.940311,-6957.935855,370.102971,-1991.848295
1014.940631,-8882.471304,0.000000,919.314598
1014.940952,-10214.842000,-370.102971,3140.991542
1014.941273,-10066.800811,0.000000,3370.820191
1014.941593,-8660.409521,-1924.535449,919.314598
1014.941914,-8364.327145,-1258.350101,919.314598
1014.942235,-10288.862594,-1332.370696,3907.087040
1014.942555,-11399.171507,-666.185348,5362.668486
1014.942876,-10066.800811,296.082377,4213.525239
1014.943197,-8660.409521,-740.205942,0.000000
1014.943517,-8512.368333,0.000000,1915.238745
1014.943838,-8660.409521,888.247130,2068.457845
1014.944159,-11251.130318,-518.144159,3370.820191
1014.944479,-9548.656652,-1554.432478,1685.410096
1014.944800,-7846.182985,-2146.597232,-1685.410096
1014.945121,-9548.656652,-1332.370696,536.266849
1014.945441,-10288.862594,-592.164754,2528.115143
1014.945762,-11251.130318,1036.288319,3294.210641
1014.946083,-10955.047942,740.205942,1762.019645
1014.946403,-8364.327145,740.205942,-2068.457845
1014.946724,-8586.388927,444.123565,-842.705048
1014.947045,-11399.171507,-2072.576638,1685.410096
1014.947365,-9474.636058,-518.144159,1608.800546
1014.947686,-10066.800811,-1998.556043,-1072.533697
1014.948007,-7846.182985,-2072.576638,-3677.258390
1014.948327,-8586.388927,814.226536,-612.876398
1014.948648,-11251.130318,1332.370696,1915.238745
1014.948969,-11103.089130,1258.350101,2911.162892
1014.949289,-10362.883188,444.123565,536.266849
1014.949610,-8882.471304,-2146.597232,-2145.067394
1014.949931,-9696.697840,-1628.453072,-1149.143247
1014.950251,-10584.944971,296.082377,2451.505594
1014.950572,-9918.759623,518.144159,2528.115143
1014.950893,-9030.512492,-148.041188,-919.314598
1014.951213,-7328.038826,-370.102971,-3524.039291
1014.951534,-8734.430116,-740.205942,-1455.581446
1014.951855,-10288.862594,74.020594,1149.143247
1014.952175,-11325.150913,888.247130,2681.334243
1014.952496,-9474.636058,-888.247130,0.000000
1014.952817,-7772.162391,-888.247130,-1455.581446
1014.953137,-10066.800811,-1776.494261,1685.410096
1014.953458,-11251.130318,-1850.514855,4519.963438
1014.953779,-10807.006753,-1850.514855,3677.258390
1014.954099,-9104.533087,-2146.597232,229.828649
1014.954420,-8364.327145,-740.205942,-995.924147
1014.954741,-9104.533087,1258.350101,1455.581446
1014.955061,-11177.109724,1850.514855,4290.134789
1014.955382,-10510.924376,1480.411884,3370.820191
1014.955703,-8660.409521,0.000000,-383.047749
1014.956023,-7698.141797,-962.267725,-842.705048
1014.956344,-9104.533087,-1258.350101,919.314598
1014.956665,-10288.862594,-740.205942,3140.991542
1014.956985,-9474.636058,0.000000,2528.115143
1014.957306,-8290.306550,148.041188,-1149.143247
1014.957627,-9474.636058,962.267725,842.705048
1014.957947,-12139.377449,592.164754,4749.792088
1014.958268,-13175.665768,0.000000,6894.859482
1014.958589,-11029.068536,-1776.494261,5132.839837
1014.958909,-7254.018232,-1628.453072,-229.828649
1014.959230,-11029.068536,-592.164754,2298.286494
1014.959551,-8364.327145,-518.144159,2374.896044
1014.959871,-8882.471304,1036.288319,3600.648841
1014.960192,-10732.986159,1332.370696,3524.039291
1014.960513,-3923.091493,-888.247130,-3524.039291
1014.960833,-9178.553681,-518.144159,-536.266849
1014.961154,-10066.800811,74.020594,2681.334243
1014.961475,-9548.656652,-296.082377,2834.553343
1014.961795,-12731.542202,-1332.370696,3677.258390
1014.962116,-6513.812290,296.082377,-1302.362347
1014.962437,-10955.047942,814.226536,919.314598
1014.962757,-10510.924376,-740.205942,4366.744339
1014.963078,-9918.759623,-296.082377,2145.067394
1014.963399,-10288.862594,-1184.329507,0.000000
1014.963719,-7254.018232,-1850.514855,-2987.772442
1014.964040,-7624.121203,-518.144159,-1762.019645
1014.964361,-11547.212695,74.020594,2451.505594
1014.964681,-11177.109724,-148.041188,1149.143247
1014.965002,-9252.574275,740.205942,0.000000
1014.965323,-9400.615463,-1850.514855,-2757.943793
1014.965643,-9992.780217,666.185348,-229.828649
1014.965964,-11251.130318,666.185348,2451.505594
1014.966285,-10584.944971,666.185348,995.924147
1014.966605,-8512.368333,666.185348,-1532.190996
1014.966926,-7254.018232,-296.082377,-4826.401637
1014.967247,-8586.388927,-74.020594,-1915.238745
1014.967567,-10214.842000,592.164754,766.095498
1014.967888,-10807.006753,-814.226536,1455.581446
1014.968208,-10214.842000,-1776.494261,306.438199
1014.968529,-9918.759623,-2072.576638,612.876398
1014.968850,-11177.109724,-1628.453072,2911.162892
1014.969170,-13323.706956,-962.267725,5132.839837
1014.969491,-10436.903782,148.041188,3600.648841
1014.969812,-8808.450710,-962.267725,-459.657299
1014.970132,-6735.874072,148.041188,-2374.896044
1014.970453,-7994.224174,370.102971,-383.047749
1014.970774,-9474.636058,0.000000,1838.629195
1014.971094,-9178.553681,296.082377,1532.190996
1014.971415,-8290.306550,-1480.411884,-306.438199
1014.971736,-9252.574275,-1110.308913,-459.657299
1014.972056,-10288.862594,666.185348,3907.087040
1014.972377,-12583.501014,0.000000,6511.811733
1014.972698,-10658.965565,0.000000,7048.078582
1014.973018,-9104.533087,-1850.514855,1072.533697
1014.973339,-8512.368333,-2368.659014,459.657299
1014.973660,-9104.533087,-1406.391290,2451.505594
1014.973980,-10140.821405,-222.061783,4519.963438
1014.974301,-9622.677246,0.000000,2681.334243
1014.974622,-6957.935855,148.041188,-1302.362347
1014.974942,-8290.306550,74.020594,-459.657299
1014.975263,-9770.718434,814.226536,3370.820191
1014.975584,-11843.295072,-592.164754,4903.011187
1014.975904,-9770.718434,-1036.288319,3217.601092
1014.976225,-8512.368333,-2072.576638,-153.219100
1014.976546,-8956.491898,-666.185348,-229.828649
1014.976866,-10288.862594,296.082377,3753.867940
1014.977187,-10362.883188,0.000000,3600.648841
1014.977508,-8586.388927,222.061783,689.485948
1014.977829,-8364.327145,-888.247130,-2681.334243
1014.978149,-9030.512492,1036.288319,-459.657299
1014.978470,-10510.924376,888.247130,2604.724693
1014.978791,-12583.501014,74.020594,3524.039291
1014.979112,-9178.553681,-814.226536,919.314598
1014.979432,-8068.244768,-1776.494261,-2374.896044
1014.979753,-9252.574275,-962.267725,-919.314598
1014.980074,-10955.047942,0.000000,2298.286494
1014.980395,-11103.089130,666.185348,2298.286494
1014.980715,-8364.327145,370.102971,-919.314598
1014.981036,-7846.182985,-518.144159,-4366.744339
1014.981357,-8438.347739,1036.288319,-1302.362347
1014.981677,-11399.171507,222.061783,1685.410096
1014.981998,-10436.903782,1036.288319,2681.334243
1014.982319,-9696.697840,-962.267725,0.000000
1014.982640,-8216.285956,-1110.308913,-1378.971896
1014.982960,-10288.862594,0.000000,459.657299
1014.983281,-10732.986159,-592.164754,1608.800546
1014.983602,-9844.739029,0.000000,1685.410096
1014.983923,-8734.430116,370.102971,-1762.019645
1014.984243,-8956.491898,-666.185348,-3447.429741
1014.984564,-9178.553681,1480.411884,306.438199
1014.984885,-11695.253884,-962.267725,3064.381992
1014.985206,-9844.739029,-444.123565,2451.505594
1014.985526,-9844.739029,-1110.308913,-306.438199
1014.985847,-8216.285956,-962.267725,-1072.533697
1014.986168,-9696.697840,148.041188,1225.752797
1014.986489,-10658.965565,444.123565,3140.991542
1014.986809,-9030.512492,1036.288319,2528.115143
1014.987130,-8364.327145,-592.164754,-536.266849
1014.987451,-8586.388927,148.041188,76.609550
1014.987772,-10584.944971,-1184.329507,2834.553343
1014.988092,-10214.842000,-814.226536,4213.525239
1014.988413,-10140.821405,-666.185348,3370.820191
1014.988734,-9474.636058,-1406.391290,612.876398
1014.989055,-8290.306550,0.000000,689.485948
1014.989375,-9622.677246,-888.247130,2145.067394
1014.989696,-9918.759623,222.061783,3753.867940
1014.990017,-9548.656652,-888.247130,2374.896044
1014.990337,-8364.327145,-2072.576638,0.000000
1014.990658,-7920.203579,-444.123565,229.828649
1014.990979,-10955.047942,-888.247130,2604.724693
1014.991300,-10288.862594,-740.205942,3753.867940
1014.991620,-7846.182985,148.041188,1302.362347
1014.991941,-7402.059420,-1480.411884,-2068.457845
1014.992262,-8660.409521,1998.556043,1608.800546
1014.992583,-12139.377449,0.000000,3907.087040
1014.992903,-10214.842000,-222.061783,3983.696590
1014.993224,-11991.336260,-1184.329507,3677.258390
1014.993545,-9770.718434,-3108.864956,612.876398
1014.993866,-9770.718434,518.144159,1608.800546
1014.994186,-11917.315666,-1776.494261,2911.162892
1014.994507,-6883.915261,592.164754,536.266849
1014.994828,-8512.368333,740.205942,-1685.410096
1014.995149,-7698.141797,-222.061783,-3064.381992
1014.995469,-7402.059420,0.000000,-1378.971896
1014.995790,-10658.965565,-1258.350101,1838.629195
1014.996111,-9400.615463,-1554.432478,229.828649
1014.996432,-8956.491898,666.185348,459.657299
1014.996752,-11843.295072,74.020594,-383.047749
1014.997073,-9770.718434,1406.391290,2528.115143
1014.997394,-11621.233289,222.061783,2221.676944
1014.997715,-9770.718434,296.082377,2374.896044
1014.998035,-9696.697840,-888.247130,-1608.800546
1014.998356,-8142.265362,222.061783,-2374.896044
1014.998677,-9326.594869,518.144159,-689.485948
1014.998998,-9474.636058,1258.350101,1149.143247
1014.999318,-9770.718434,-148.041188,842.705048
1014.999639,-9770.718434,-1184.329507,-612.876398
1014.999960,-9030.512492,-1924.535449,-1915.238745
1015.000280,-9326.594869,-592.164754,1149.143247
1015.000601,-11473.192101,-1998.556043,4596.572988
1015.000922,-11029.068536,-444.123565,2987.772442
1015.001243,-9252.574275,-1702.473667,-383.047749
1015.001563,-7624.121203,222.061783,-1915.238745
1015.001884,-7402.059420,1924.535449,459.657299
1015.002205,-10584.944971,1258.350101,2681.334243
1015.002526,-8586.388927,444.123565,1532.190996
1015.002846,-8068.244768,-2072.576638,-1302.362347
1015.003167,-9030.512492,-1332.370696,229.828649
1015.003488,-10214.842000,-962.267725,4136.915689
1015.003809,-12509.480420,296.082377,6588.421283
1015.004129,-12213.398043,74.020594,6435.202183
1015.004450,-8808.450710,-2368.659014,383.047749
1015.004771,-7772.162391,-1776.494261,-1149.143247
1015.005092,-8808.450710,-1258.350101,842.705048
1015.005412,-9474.636058,-296.082377,2528.115143
1015.005733,-8808.450710,74.020594,1915.238745
1015.006054,-7402.059420,-814.226536,-1302.362347
1015.006375,-8364.327145,148.041188,-536.266849
1015.006695,-11399.171507,-370.102971,3370.820191
1015.007016,-12583.501014,592.164754,6435.202183
1015.007337,-11473.192101,-814.226536,4060.306139
1015.007658,-8586.388927,-1924.535449,1072.533697
1015.007978,-8808.450710,-1332.370696,536.266849
1015.008299,-9474.636058,-814.226536,3064.381992
1015.008620,-11029.068536,-1110.308913,4290.134789
1015.008940,-10362.883188,-1110.308913,3447.429741
1015.009261,-7254.018232,-2072.576638,-2451.505594
1015.009582,-8512.368333,-666.185348,-1762.019645
1015.009903,-10140.821405,666.185348,919.314598
1015.010223,-10214.842000,1406.391290,2834.553343
1015.010544,-10362.883188,0.000000,-153.219100
1015.010865,-7846.182985,-592.164754,-3140.991542
1015.011186,-9252.574275,-1332.370696,-1455.581446
1015.011506,-10362.883188,-2368.659014,612.876398
1015.011827,-11843.295072,-1036.288319,2298.286494
1015.012148,-8882.471304,0.000000,-229.828649
1015.012469,-8290.306550,-888.247130,-2604.724693
1015.012789,-8660.409521,1776.494261,-306.438199
1015.013110,-11399.171507,-296.082377,1991.848295
1015.013431,-10658.965565,-370.102971,2145.067394
1015.013752,-8290.306550,-1332.370696,-1302.362347
1015.014072,-8660.409521,-814.226536,-3140.991542
1015.014393,-10214.842000,814.226536,-153.219100
1015.014714,-10510.924376,0.000000,1991.848295
1015.015035,-10362.883188,0.000000,1915.238745
1015.015355,-8808.450710,-1332.370696,-1532.190996
1015.015676,-8882.471304,962.267725,-1991.848295
1015.015997,-10807.006753,1554.432478,2374.896044
1015.016318,-10140.821405,1406.391290,3600.648841
1015.016638,-10732.986159,592.164754,3677.258390
1015.016959,-7994.224174,-2220.617826,-689.485948
1015.017280,-8216.285956,-888.247130,-995.924147
1015.017600,-10584.944971,-1924.535449,2451.505594
1015.017921,-10584.944971,-740.205942,3600.648841
1015.018242,-9844.739029,296.082377,2681.334243
1015.018563,-8808.450710,1036.288319,1685.410096
1015.018883,-8660.409521,1406.391290,1302.362347
1015.019204,-10140.821405,222.061783,3370.820191
1015.019525,-11399.171507,-1332.370696,4826.401637
1015.019846,-9622.677246,-1406.391290,2834.553343
1015.020166,-8364.327145,-3182.885551,-995.924147
1015.020487,-8142.265362,-1110.308913,153.219100
1015.020808,-9918.759623,814.226536,2221.676944
1015.021129,-9844.739029,2516.700203,4290.134789
1015.021449,-9474.636058,0.000000,1532.190996
1015.021770,-8142.265362,-1110.308913,-229.828649
1015.022091,-8660.409521,-1480.411884,-383.047749
1015.022412,-10807.006753,-1184.329507,3447.429741
1015.022732,-11325.150913,296.082377,5439.278036
1015.023053,-9770.718434,0.000000,2834.553343
1015.023374,-8216.285956,-2220.617826,-1302.362347
1015.023695,-7476.080014,1850.514855,-306.438199
1015.024015,-11029.068536,148.041188,2528.115143
1015.024336,-9918.759623,888.247130,3294.210641
1015.024657,-9548.656652,-444.123565,1685.410096
1015.024978,-8808.450710,-2442.679609,-1991.848295
1015.025298,-8142.265362,444.123565,0.000000
1015.025619,-11029.068536,0.000000,2528.115143
1015.025940,-9992.780217,296.082377,4060.306139
1015.026260,-9474.636058,-888.247130,153.219100
1015.026581,-7772.162391,-666.185348,-3294.210641
1015.026902,-8586.388927,-518.144159,-2298.286494
1015.027223,-9918.759623,444.123565,0.000000
1015.027543,-10807.006753,444.123565,919.314598
1015.027864,-10140.821405,1998.556043,0.000000
1015.028185,-11473.192101,-592.164754,0.000000
1015.028506,-10955.047942,-1998.556043,1915.238745
1015.028826,-13397.727550,0.000000,3983.696590
1015.029147,-11843.295072,-2442.679609,1838.629195
1015.029468,-7550.100608,222.061783,0.000000
1015.029789,-8068.244768,2812.782580,-1991.848295
1015.030109,-10510.924376,-1776.494261,-689.485948
1015.030430,-5995.668130,740.205942,-1608.800546
1015.030751,-12213.398043,370.102971,-229.828649
1015.031072,-9696.697840,-1184.329507,-1302.362347
1015.031392,-7624.121203,-962.267725,-1072.533697
1015.031713,-11695.253884,518.144159,3294.210641
1015.032034,-11547.212695,-962.267725,3907.087040
1015.032355,-9326.594869,-740.205942,2451.505594
1015.032675,-12213.398043,-1776.494261,3064.381992
1015.032996,-5921.647536,-2220.617826,-306.438199
1015.033317,-10362.883188,-518.144159,1455.581446
1015.033638,-10362.883188,-814.226536,4443.353888
1015.033958,-7179.997637,444.123565,153.219100
1015.034279,-9030.512492,-888.247130,-995.924147
1015.034600,-7920.203579,-444.123565,766.095498
1015.034920,-8808.450710,370.102971,2451.505594
1015.035241,-12361.439231,-666.185348,5056.230287
1015.035562,-11029.068536,-592.164754,3217.601092
1015.035883,-8068.244768,0.000000,76.609550
1015.036203,-9030.512492,-1036.288319,153.219100
1015.036524,-8512.368333,888.247130,2451.505594
1015.036845,-9622.677246,518.144159,3524.039291
1015.037166,-8660.409521,-296.082377,536.266849
1015.037486,-7772.162391,0.000000,-612.876398
1015.037807,-7772.162391,-1110.308913,-306.438199
1015.038128,-10732.986159,0.000000,2374.896044
1015.038449,-11991.336260,222.061783,5898.935335
1015.038769,-10510.924376,-962.267725,3370.820191
1015.039090,-9918.759623,-1924.535449,1149.143247
1015.039411,-9622.677246,-2442.679609,2528.115143
1015.039732,-9474.636058,-2368.659014,919.314598
1015.040052,-11769.274478,518.144159,2145.067394
1015.040373,-7328.038826,1036.288319,-459.657299
1015.040694,-7402.059420,74.020594,-3600.648841
1015.041015,-9252.574275,222.061783,-1072.533697
1015.041335,-9474.636058,592.164754,1149.143247
1015.041656,-11547.212695,222.061783,2451.505594
1015.041977,-11769.274478,-1850.514855,1455.581446
1015.042298,-8586.388927,-1628.453072,153.219100
1015.042618,-10066.800811,-1554.432478,76.609550
1015.042939,-10807.006753,-592.164754,1915.238745
1015.043260,-11325.150913,888.247130,2834.553343
1015.043580,-9770.718434,370.102971,459.657299
1015.043901,-8068.244768,-1258.350101,-2911.162892
1015.044222,-8438.347739,370.102971,-1762.019645
1015.044543,-10807.006753,-666.185348,459.657299
1015.044863,-10214.842000,-592.164754,1225.752797
1015.045184,-7031.956449,0.000000,-1762.019645
1015.045505,-8438.347739,-148.041188,-2374.896044
1015.045826,-10214.842000,1332.370696,1072.533697
1015.046146,-11251.130318,592.164754,3140.991542
1015.046467,-11991.336260,-1184.329507,3370.820191
1015.046788,-8438.347739,-1332.370696,-153.219100
1015.047109,-8882.471304,-1554.432478,-1915.238745
1015.047429,-9474.636058,740.205942,1149.143247
1015.047750,-10066.800811,1998.556043,3140.991542
1015.048071,-9622.677246,1850.514855,3294.210641
1015.048392,-8438.347739,-444.123565,0.000000
1015.048712,-9326.594869,-1776.494261,-306.438199
1015.049033,-10288.862594,-1258.350101,1225.752797
1015.049354,-11621.233289,-740.205942,4749.792088
1015.049675,-10066.800811,1258.350101,3217.601092
1015.049995,-8734.430116,518.144159,229.828649
1015.050316,-8734.430116,370.102971,0.000000
1015.050637,-9622.677246,296.082377,2068.457845
1015.050958,-10955.047942,-740.205942,3677.258390
1015.051278,-9770.718434,-1480.411884,2757.943793
1015.051599,-8290.306550,-2072.576638,-766.095498
1015.051920,-9252.574275,-666.185348,0.000000
1015.052241,-9918.759623,1036.288319,1838.629195
1015.052561,-9844.739029,1480.411884,4136.915689
1015.052882,-9844.739029,-370.102971,3830.477490
1015.053203,-9474.636058,-3182.885551,-153.219100
1015.053523,-6883.915261,-2146.597232,1378.971896
1015.053844,-12065.356855,-2072.576638,3907.087040
1015.054165,-11843.295072,-518.144159,5515.887586
1015.054486,-9030.512492,296.082377,3294.210641
1015.054806,-9326.594869,-2590.720797,-153.219100
1015.055127,-6439.791695,1406.391290,-919.314598
1015.055448,-10732.986159,-1036.288319,2604.724693
1015.055769,-10362.883188,222.061783,1991.848295
1015.056089,-8364.327145,1184.329507,-153.219100
1015.056410,-9030.512492,-296.082377,-2911.162892
1015.056731,-8586.388927,2294.638420,1072.533697
1015.057052,-10955.047942,-1332.370696,2451.505594
1015.057372,-10140.821405,-1110.308913,3677.258390
1015.057693,-9770.718434,-3182.885551,2528.115143
1015.058014,-8660.409521,-2516.700203,-1532.190996
1015.058335,-9548.656652,74.020594,536.266849
1015.058655,-10066.800811,666.185348,2528.115143
1015.058976,-9992.780217,1184.329507,1608.800546
1015.059297,-9548.656652,-148.041188,-995.924147
1015.059618,-8586.388927,-962.267725,-2911.162892
1015.059938,-8734.430116,0.000000,-1072.533697
1015.060259,-11399.171507,370.102971,2681.334243
1015.060580,-10510.924376,0.000000,2911.162892
1015.060901,-9770.718434,-888.247130,-383.047749
1015.061221,-8808.450710,-518.144159,-1455.581446
1015.061542,-9104.533087,1036.288319,229.828649
1015.061863,-11769.274478,0.000000,2987.772442
1015.062183,-10214.842000,592.164754,1991.848295
1015.062504,-8808.450710,-2146.597232,-2528.115143
1015.062825,-6957.935855,-2590.720797,-5132.839837
1015.063146,-8290.306550,-1184.329507,-1455.581446
1015.063466,-11547.212695,148.041188,2911.162892
1015.063787,-12139.377449,740.205942,5286.058936
1015.064108,-9770.718434,-592.164754,2221.676944
1015.064429,-10658.965565,-2146.597232,1072.533697
1015.064749,-10955.047942,-1332.370696,842.705048
1015.065070,-11769.274478,-296.082377,4749.792088
1015.065391,-9326.594869,370.102971,2757.943793
1015.065712,-6587.832884,-814.226536,-1302.362347
1015.066032,-6143.709319,-1776.494261,-1991.848295
1015.066353,-8586.388927,-296.082377,612.876398
1015.066674,-10510.924376,-370.102971,2757.943793
1015.066995,-11547.212695,296.082377,3983.696590
1015.067315,-9030.512492,-222.061783,1302.362347
1015.067636,-9030.512492,-518.144159,689.485948
1015.067957,-10362.883188,-592.164754,3524.039291
1015.068278,-11399.171507,-814.226536,5822.325785
1015.068598,-9326.594869,-740.205942,3447.429741
1015.068919,-8512.368333,-962.267725,-1225.752797
1015.069240,-8438.347739,296.082377,-306.438199
1015.069561,-9548.656652,1702.473667,3217.601092
1015.069881,-11547.212695,740.205942,5056.230287
1015.070202,-9474.636058,148.041188,1838.629195
1015.070523,-8142.265362,-2368.659014,-1225.752797
1015.070843,-8734.430116,-888.247130,0.000000
1015.071164,-9844.739029,-740.205942,1838.629195
1015.071485,-11325.150913,-592.164754,3294.210641
1015.071806,-8660.409521,0.000000,0.000000
1015.072126,-8142.265362,-1258.350101,-3140.991542
1015.072447,-7698.141797,296.082377,-1991.848295
1015.072768,-10362.883188,74.020594,1838.629195
1015.073089,-12139.377449,592.164754,3064.381992
1015.073409,-11473.192101,370.102971,2681.334243
1015.073730,-9696.697840,-1036.288319,612.876398
1015.074051,-9918.759623,-1554.432478,1149.143247
1015.074372,-11695.253884,-2294.638420,2451.505594
1015.074692,-10732.986159,-296.082377,1532.190996
1015.075013,-7328.038826,0.000000,-2374.896044
1015.075334,-7105.977043,148.041188,-4673.182538
1015.075655,-7920.203579,1184.329507,-2145.067394
1015.075975,-9770.718434,740.205942,306.438199
1015.076296,-10807.006753,518.144159,1991.848295
1015.076617,-9400.615463,-296.082377,0.000000
1015.076937,-10584.944971,-666.185348,-766.095498
1015.077258,-11473.192101,1036.288319,1685.410096
1015.077579,-11547.212695,1036.288319,3907.087040
1015.077899,-10955.047942,1184.329507,4136.915689
1015.078220,-8882.471304,-370.102971,0.000000
1015.078541,-7994.224174,-592.164754,-3064.381992
1015.078861,-8882.471304,296.082377,-612.876398
1015.079182,-9252.574275,-592.164754,1762.019645
1015.079503,-8882.471304,-740.205942,0.000000
1015.079823,-7698.141797,74.020594,-1532.190996
1015.080144,-8364.327145,-148.041188,-2068.457845
1015.080465,-10140.821405,1406.391290,3217.601092
1015.080785,-13101.645173,-740.205942,5132.839837
1015.081106,-11177.109724,-148.041188,4136.915689
1015.081427,-9844.739029,-1554.432478,153.219100
1015.081747,-9696.697840,-962.267725,-229.828649
1015.082068,-9104.533087,592.164754,2834.553343
1015.082389,-10732.986159,-814.226536,2987.772442
1015.082709,-7772.162391,0.000000,1608.800546
1015.083030,-7994.224174,-1332.370696,-2068.457845
1015.083351,-9178.553681,-1258.350101,153.219100
1015.083671,-9992.780217,-1332.370696,3294.210641
1015.083992,-11399.171507,-1258.350101,5132.839837
1015.084312,-9992.780217,-1036.288319,3983.696590
1015.084633,-9770.718434,-1924.535449,0.000000
1015.084954,-8512.368333,888.247130,1762.019645
1015.085274,-11103.089130,-1036.288319,3140.991542
1015.085595,-8882.471304,962.267725,3600.648841
1015.085916,-9474.636058,-666.185348,1762.019645
1015.086236,-7179.997637,-888.247130,-1762.019645
1015.086557,-7994.224174,1184.329507,383.047749
1015.086878,-10807.006753,-888.247130,2528.115143
1015.087198,-9696.697840,1258.350101,4060.306139
1015.087519,-7476.080014,-1036.288319,1991.848295
1015.087840,-8956.491898,-2368.659014,-1455.581446
1015.088160,-8808.450710,-740.205942,459.657299
1015.088481,-9844.739029,-1776.494261,2145.067394
1015.088802,-9770.718434,666.185348,2604.724693
1015.089122,-9178.553681,0.000000,612.876398
1015.089443,-8512.368333,-370.102971,-1455.581446
1015.089764,-8438.347739,-222.061783,-306.438199
1015.090084,-10362.883188,-814.226536,1302.362347
1015.090405,-10288.862594,148.041188,2987.772442
1015.090726,-9548.656652,0.000000,-689.485948
1015.091046,-9252.574275,222.061783,-2757.943793
1015.091367,-9770.718434,518.144159,-842.705048
1015.091687,-9400.615463,370.102971,1302.362347
1015.092008,-10362.883188,0.000000,1302.362347
1015.092329,-9918.759623,-666.185348,-689.485948
1015.092649,-8660.409521,-1110.308913,-2068.457845
1015.092970,-9104.533087,-370.102971,-1302.362347
1015.093291,-11547.212695,518.144159,3064.381992
1015.093611,-10288.862594,222.061783,2757.943793
1015.093932,-9548.656652,-1110.308913,0.000000
1015.094253,-8586.388927,-740.205942,-1378.971896
1015.094573,-9030.512492,-888.247130,-689.485948
1015.094894,-11029.068536,-666.185348,2145.067394
1015.095215,-10214.842000,888.247130,2604.724693
1015.095535,-9030.512492,-962.267725,-766.095498
1015.095856,-9104.533087,-814.226536,-1225.752797
1015.096177,-9548.656652,74.020594,1225.752797
1015.096497,-11251.130318,444.123565,3370.820191
1015.096818,-11177.109724,444.123565,3907.087040
1015.097139,-9326.594869,-518.144159,0.000000
1015.097459,-8438.347739,-1110.308913,-1225.752797
1015.097780,-8956.491898,0.000000,0.000000
1015.098101,-10955.047942,1332.370696,2987.772442
1015.098421,-9474.636058,2072.576638,2987.772442
1015.098742,-9252.574275,0.000000,0.000000
1015.099063,-7846.182985,-148.041188,0.000000
1015.099383,-8808.450710,-2516.700203,919.314598
1015.099704,-11547.212695,-1628.453072,4290.134789
1015.100024,-10436.903782,0.000000,3830.477490
1015.100345,-8734.430116,-1258.350101,995.924147
1015.100666,-8216.285956,0.000000,229.828649
1015.100986,-9474.636058,222.061783,2374.896044
1015.101307,-11325.150913,222.061783,4903.011187
1015.101628,-9992.780217,-296.082377,2911.162892
1015.101948,-8068.244768,-2368.659014,0.000000
1015.102269,-7920.203579,-2146.597232,-383.047749
1015.102590,-9918.759623,-1258.350101,2451.505594
1015.102910,-10436.903782,74.020594,4673.182538
1015.103231,-9474.636058,74.020594,3217.601092
1015.103552,-8882.471304,-1998.556043,-306.438199
1015.103872,-8068.244768,-222.061783,0.000000
1015.104193,-10955.047942,222.061783,1455.581446
1015.104514,-10881.027347,814.226536,3830.477490
1015.104834,-10584.944971,-222.061783,1532.190996
1015.105155,-8216.285956,-666.185348,-1762.019645
1015.105476,-8734.430116,-962.267725,-1532.190996
1015.105796,-10288.862594,-666.185348,459.657299
1015.106117,-11473.192101,-666.185348,2604.724693
1015.106438,-9252.574275,-148.041188,-383.047749
1015.106758,-8290.306550,-148.041188,-3370.820191
1015.107079,-8512.368333,1258.350101,-919.314598
1015.107399,-10510.924376,592.164754,1302.362347
1015.107720,-11251.130318,814.226536,2757.943793
1015.108041,-9548.656652,-888.247130,383.047749
1015.108361,-8660.409521,-740.205942,-2068.457845
1015.108682,-10732.986159,74.020594,1608.800546
1015.109003,-12065.356855,-1036.288319,3447.429741
1015.109323,-10140.821405,-296.082377,2757.943793
1015.109644,-9030.512492,-888.247130,-842.705048
1015.109965,-8438.347739,-1258.350101,-2528.115143
1015.110285,-7698.141797,1036.288319,229.828649
1015.110606,-11547.212695,370.102971,2528.115143
1015.110927,-10658.965565,0.000000,2221.676944
1015.111247,-8512.368333,-740.205942,-1149.143247
1015.111568,-9104.533087,-2812.782580,-1762.019645
1015.111889,-9474.636058,222.061783,1685.410096
1015.112209,-13175.665768,0.000000,6052.154434
1015.112530,-10732.986159,888.247130,5898.935335
1015.112851,-8660.409521,-370.102971,153.219100
1015.113171,-8512.368333,74.020594,-995.924147
1015.113492,-9178.553681,2220.617826,1532.190996
1015.113813,-10436.903782,1406.391290,3294.210641
1015.114133,-8512.368333,0.000000,1685.410096
1015.114454,-6587.832884,-1628.453072,-2374.896044
1015.114774,-8512.368333,-1554.432478,-2221.676944
1015.115095,-9770.718434,-518.144159,1915.238745
1015.115416,-11843.295072,222.061783,4749.792088
1015.115736,-10732.986159,-592.164754,4443.353888
1015.116057,-9326.594869,-2590.720797,0.000000
1015.116378,-9252.574275,-1332.370696,306.438199
1015.116698,-10436.903782,-888.247130,2145.067394
1015.117019,-9696.697840,2368.659014,4903.011187
1015.117340,-11177.109724,-1258.350101,2834.553343
1015.117660,-6365.771101,-888.247130,-1762.019645
1015.117981,-8068.244768,-1110.308913,-1608.800546
1015.118302,-9474.636058,-2812.782580,1991.848295
1015.118622,-10066.800811,-222.061783,3294.210641
1015.118943,-11325.150913,-296.082377,2604.724693
1015.119264,-7920.203579,222.061783,-1225.752797
1015.119584,-8660.409521,148.041188,842.705048
1015.119905,-10881.027347,-740.205942,3294.210641
1015.120226,-10955.047942,-74.020594,3830.477490
1015.120546,-9326.594869,-1258.350101,0.000000
1015.120867,-6587.832884,-592.164754,-1762.019645
1015.121188,-9400.615463,-1184.329507,-1532.190996
1015.121508,-9918.759623,0.000000,1455.581446
1015.121829,-10658.965565,222.061783,1532.190996
1015.122150,-9252.574275,370.102971,-766.095498
1015.122470,-8142.265362,-814.226536,-2068.457845
1015.122791,-10436.903782,-1110.308913,-536.266849
1015.123111,-10732.986159,518.144159,3064.381992
1015.123432,-11769.274478,1184.329507,3983.696590
1015.123753,-9252.574275,222.061783,306.438199
1015.124073,-7698.141797,-1702.473667,-1455.581446
1015.124394,-8882.471304,-222.061783,-1762.019645
1015.124715,-10732.986159,222.061783,1302.362347
1015.125035,-10066.800811,1258.350101,2298.286494
1015.125356,-9252.574275,666.185348,1302.362347
1015.125677,-8956.491898,-962.267725,-1685.410096
1015.125997,-10066.800811,-296.082377,76.609550
1015.126318,-12139.377449,-740.205942,3064.381992
1015.126639,-10584.944971,296.082377,3447.429741
1015.126959,-8734.430116,-1406.391290,0.000000
1015.127280,-9030.512492,0.000000,-842.705048
1015.127601,-8956.491898,1628.453072,536.266849
1015.127921,-10732.986159,0.000000,3907.087040
1015.128242,-9326.594869,222.061783,1838.629195
1015.128563,-8882.471304,-592.164754,76.609550
1015.128883,-9622.677246,-1924.535449,-1072.533697
1015.129204,-9474.636058,-148.041188,2911.162892
1015.129525,-11029.068536,518.144159,4903.011187
1015.129845,-9844.739029,370.102971,3753.867940
1015.130166,-8364.327145,296.082377,-306.438199
1015.130486,-8512.368333,518.144159,-229.828649
1015.130807,-8956.491898,592.164754,2374.896044
1015.131128,-10436.903782,296.082377,3370.820191
1015.131448,-8808.450710,-370.102971,2145.067394
1015.131769,-8364.327145,-1924.535449,-1608.800546
1015.132090,-7476.080014,0.000000,-612.876398
1015.132410,-10214.842000,814.226536,3064.381992
1015.132731,-12879.583391,962.267725,5822.325785
1015.133052,-11177.109724,222.061783,3983.696590
1015.133372,-9400.615463,-1924.535449,0.000000
1015.133693,-8068.244768,-1036.288319,689.485948
1015.134014,-7920.203579,-1702.473667,-536.266849
1015.134334,-8438.347739,0.000000,0.000000
1015.134655,-7994.224174,1036.288319,-383.047749
1015.134976,-7105.977043,222.061783,-3294.210641
1015.135296,-9622.677246,-222.061783,0.000000
1015.135617,-12435.459826,-1332.370696,2911.162892
1015.135938,-13027.624579,-1258.350101,5439.278036
1015.136258,-12287.418637,-2220.617826,4290.134789
1015.136579,-8364.327145,-1110.308913,383.047749
1015.136900,-10362.883188,-1036.288319,-383.047749
1015.137220,-8882.471304,-518.144159,1149.143247
1015.137541,-8290.306550,-592.164754,229.828649
1015.137862,-7254.018232,-2072.576638,-2834.553343
1015.138182,-7476.080014,-1776.494261,-4213.525239
1015.138503,-8808.450710,296.082377,-995.924147
1015.138823,-11325.150913,888.247130,2757.943793
1015.139144,-12657.521608,962.267725,5132.839837
1015.139465,-10066.800811,-444.123565,2298.286494
1015.139785,-10214.842000,-2590.720797,-536.266849
1015.140106,-9696.697840,-1332.370696,459.657299
1015.140427,-10214.842000,-1036.288319,2374.896044
1015.140747,-9474.636058,0.000000,2757.943793
1015.141068,-6513.812290,2220.617826,-689.485948
1015.141389,-9178.553681,-296.082377,-3217.601092
1015.141709,-6439.791695,2590.720797,-536.266849
1015.142030,-10066.800811,444.123565,1532.190996
1015.142351,-11029.068536,1480.411884,4060.306139
1015.142671,-9252.574275,0.000000,1302.362347
1015.142992,-10510.924376,-666.185348,1225.752797
1015.143313,-8660.409521,-888.247130,1455.581446
1015.143633,-11029.068536,-1702.473667,3830.477490
1015.143954,-12731.542202,444.123565,6128.763984
1015.144275,-9104.533087,-370.102971,1149.143247
1015.144595,-10732.986159,-592.164754,0.000000
1015.144916,-7920.203579,1480.411884,842.705048
1015.145237,-11177.109724,1480.411884,1685.410096
1015.145557,-12139.377449,1628.453072,4673.182538
1015.145878,-7920.203579,-740.205942,-689.485948
1015.146198,-7328.038826,148.041188,-612.876398
1015.146519,-9548.656652,-888.247130,536.266849
1015.146840,-10214.842000,74.020594,3064.381992
1015.147160,-10955.047942,222.061783,3524.039291
1015.147481,-8586.388927,-1776.494261,-536.266849
1015.147802,-8142.265362,592.164754,0.000000
1015.148122,-11325.150913,-1184.329507,2145.067394
1015.148443,-9696.697840,296.082377,3600.648841
1015.148764,-10436.903782,518.144159,3064.381992
1015.149084,-8660.409521,444.123565,1608.800546
1015.149405,-9474.636058,-666.185348,459.657299
1015.149726,-9992.780217,0.000000,2681.334243
1015.150046,-10362.883188,-962.267725,3447.429741
1015.150367,-9178.553681,-592.164754,0.000000
1015.150688,-7772.162391,-1850.514855,-3140.991542
1015.151008,-7402.059420,-296.082377,-2834.553343
1015.151329,-8512.368333,1258.350101,0.000000
1015.151650,-10288.862594,592.164754,2145.067394
1015.151970,-10066.800811,-740.205942,612.876398
1015.152291,-7624.121203,-2146.597232,-2221.676944
1015.152612,-9474.636058,-888.247130,-689.485948
1015.152932,-10807.006753,-148.041188,2987.772442
1015.153253,-12287.418637,-666.185348,3140.991542
1015.153573,-9622.677246,-1036.288319,306.438199
1015.153894,-6513.812290,296.082377,-3600.648841
1015.154215,-9326.594869,-518.144159,-1225.752797
1015.154535,-10807.006753,-296.082377,1455.581446
1015.154856,-11103.089130,0.000000,2374.896044
1015.155177,-8956.491898,-2738.761985,-1225.752797
1015.155497,-7846.182985,0.000000,-1608.800546
1015.155818,-10881.027347,0.000000,1685.410096
1015.156139,-11695.253884,-222.061783,3447.429741
1015.156459,-10732.986159,-370.102971,2834.553343
1015.156780,-8512.368333,-962.267725,-1608.800546
1015.157101,-7920.203579,-1110.308913,-1608.800546
1015.157421,-9400.615463,-962.267725,766.095498
1015.157742,-10807.006753,-370.102971,2987.772442
1015.158063,-10510.924376,-1480.411884,2528.115143
1015.158383,-6957.935855,-1480.411884,-536.266849
1015.158704,-9400.615463,-1628.453072,-1149.143247
1015.159025,-9622.677246,370.102971,2451.505594
1015.159345,-11325.150913,222.061783,4366.744339
1015.159666,-10214.842000,-222.061783,3217.601092
1015.159987,-7920.203579,-740.205942,-459.657299
1015.160307,-9104.533087,-1332.370696,-1378.971896
1015.160628,-9770.718434,444.123565,2604.724693
1015.160949,-11695.253884,148.041188,4290.134789
1015.161269,-9844.739029,-592.164754,3753.867940
1015.161590,-8364.327145,-1480.411884,306.438199
1015.161910,-9474.636058,-1184.329507,-306.438199
1015.162231,-10066.800811,74.020594,2681.334243
1015.162552,-10881.027347,814.226536,4903.011187
1015.162872,-10066.800811,666.185348,1915.238745
1015.163193,-7994.224174,-1184.329507,-1072.533697
1015.163514,-8216.285956,296.082377,0.000000
1015.163834,-10066.800811,74.020594,2528.115143
1015.164155,-11251.130318,518.144159,4673.182538
1015.164476,-10214.842000,-222.061783,2681.334243
1015.164796,-7698.141797,-2590.720797,-1762.019645
1015.165117,-8734.430116,-962.267725,-919.314598
1015.165438,-10881.027347,-222.061783,2834.553343
1015.165758,-11547.212695,1406.391290,3830.477490
1015.166079,-9622.677246,-370.102971,1302.362347
1015.166400,-8364.327145,-592.164754,-2068.457845
1015.166720,-8364.327145,1184.329507,-995.924147
1015.167041,-10807.006753,1036.288319,2451.505594
1015.167362,-11695.253884,518.144159,4290.134789
1015.167682,-8956.491898,-222.061783,995.924147
1015.168003,-8586.388927,-2812.782580,-2604.724693
1015.168324,-8364.327145,-814.226536,-536.266849
1015.168644,-10436.903782,-1628.453072,2451.505594
1015.168965,-10658.965565,-148.041188,2681.334243
1015.169285,-9178.553681,444.123565,0.000000
1015.169606,-8364.327145,370.102971,-3140.991542
1015.169927,-9474.636058,1702.473667,842.705048
1015.170247,-11621.233289,148.041188,2528.115143
1015.170568,-10510.924376,0.000000,2834.553343
1015.170889,-9104.533087,-1998.556043,-1072.533697
1015.171209,-7476.080014,222.061783,-1149.143247
1015.171530,-9400.615463,0.000000,229.828649
1015.171851,-11695.253884,148.041188,2987.772442
1015.172171,-10732.986159,-296.082377,2681.334243
1015.172492,-8512.368333,-2368.659014,-1762.019645
1015.172813,-8586.388927,-1184.329507,-2757.943793
1015.173133,-9844.739029,1184.329507,1378.971896
1015.173454,-13323.706956,296.082377,4826.401637
1015.173775,-11029.068536,1480.411884,4519.963438
1015.174095,-7624.121203,-1480.411884,-995.924147
1015.174416,-7698.141797,-2146.597232,-3677.258390
1015.174737,-8216.285956,-518.144159,-1302.362347
1015.175057,-9548.656652,814.226536,1608.800546
1015.175378,-8142.265362,1554.432478,0.000000
1015.175699,-6217.729913,148.041188,-3294.210641
1015.176019,-7846.182985,1036.288319,-1762.019645
1015.176340,-12731.542202,370.102971,3907.087040
1015.176661,-12361.439231,148.041188,7277.907231
1015.176981,-13027.624579,-370.102971,7584.345430
1015.177302,-9992.780217,-3256.906145,2145.067394
1015.177623,-8586.388927,-518.144159,1072.533697
1015.177943,-11399.171507,148.041188,4596.572988
1015.178264,-9326.594869,666.185348,4290.134789
1015.178585,-8216.285956,1332.370696,2911.162892
1015.178905,-7846.182985,-1258.350101,-842.705048
1015.179226,-6439.791695,-74.020594,-689.485948
1015.179547,-11547.212695,-1110.308913,4213.525239
1015.179868,-11547.212695,-1110.308913,5745.716235
1015.180188,-9474.636058,-444.123565,3753.867940
1015.180509,-10066.800811,-1554.432478,919.314598
1015.180830,-9622.677246,444.123565,2068.457845
1015.181150,-11251.130318,-296.082377,2911.162892
1015.181471,-11029.068536,370.102971,5056.230287
1015.181792,-8142.265362,888.247130,1685.410096
1015.182112,-8142.265362,-666.185348,-1149.143247
1015.182433,-9104.533087,1184.329507,1072.533697
1015.182754,-9770.718434,2072.576638,3447.429741
1015.183075,-10362.883188,370.102971,4443.353888
1015.183395,-9400.615463,-592.164754,3064.381992
1015.183716,-9104.533087,-2294.638420,-306.438199
1015.184037,-9918.759623,-296.082377,-306.438199
1015.184357,-9696.697840,2442.679609,2604.724693
1015.184678,-10658.965565,1480.411884,2681.334243
1015.184999,-6883.915261,3404.947333,0.000000
1015.185319,-9696.697840,-2220.617826,-2681.334243
1015.185640,-9326.594869,666.185348,-383.047749
1015.185961,-11473.192101,888.247130,4596.572988
1015.186281,-13619.789333,-962.267725,7124.688131
1015.186602,-11399.171507,1776.494261,5975.544884
1015.186923,-12583.501014,-814.226536,4290.134789
1015.187244,-9178.553681,222.061783,2604.724693
1015.187564,-8882.471304,1924.535449,2757.943793
1015.187885,-8586.388927,1258.350101,1149.143247
1015.188206,-5625.565159,3997.112087,-459.657299
1015.188526,-6587.832884,1776.494261,-2604.724693
1015.188847,-6217.729913,1924.535449,-995.924147
1015.189168,-8956.491898,2072.576638,3064.381992
1015.189488,-10955.047942,2590.720797,5362.668486
1015.189809,-12509.480420,2664.741391,6511.811733
1015.190130,-11473.192101,518.144159,5209.449386
1015.190451,-9474.636058,-1110.308913,2068.457845
1015.190771,-10584.944971,1924.535449,2834.553343
1015.191092,-9474.636058,2590.720797,2834.553343
1015.191413,-7772.162391,4811.338623,2681.334243
1015.191733,-8512.368333,3552.988522,2451.505594
1015.192054,-7846.182985,518.144159,842.705048
1015.192375,-9622.677246,2072.576638,2757.943793
1015.192695,-10881.027347,2368.659014,5515.887586
1015.193016,-9400.615463,3849.070898,5669.106685
1015.193337,-11177.109724,4811.338623,7584.345430
1015.193658,-10214.842000,1406.391290,6971.469032
1015.193978,-9696.697840,1554.432478,4596.572988
1015.194299,-11177.109724,2146.597232,4673.182538
1015.194620,-9474.636058,2220.617826,3140.991542
1015.194940,-7994.224174,4145.153275,3983.696590
1015.195261,-9178.553681,2072.576638,3983.696590
1015.195582,-9178.553681,1480.411884,3370.820191
1015.195902,-10214.842000,1554.432478,3524.039291
1015.196223,-10288.862594,296.082377,4213.525239
1015.196544,-10510.924376,1184.329507,4366.744339
1015.196864,-10288.862594,1554.432478,5286.058936
1015.197185,-10658.965565,2664.741391,5975.544884
1015.197506,-10436.903782,2812.782580,5209.449386
1015.197827,-9104.533087,1184.329507,3370.820191
1015.198147,-8882.471304,962.267725,2068.457845
1015.198468,-7846.182985,1924.535449,1532.190996
1015.198789,-9548.656652,592.164754,1991.848295
1015.199109,-8808.450710,2368.659014,4136.915689
1015.199430,-9030.512492,1480.411884,3294.210641
1015.199751,-10436.903782,-222.061783,2987.772442
1015.200071,-10066.800811,1776.494261,3983.696590
1015.200392,-10066.800811,1850.514855,3294.210641
1015.200713,-10658.965565,1924.535449,2604.724693
1015.201034,-8364.327145,3552.988522,2681.334243
1015.201354,-8438.347739,2886.803174,2604.724693
1015.201675,-10362.883188,888.247130,3064.381992
1015.201996,-9252.574275,0.000000,2221.676944
1015.202316,-8586.388927,-1184.329507,536.266849
1015.202637,-8290.306550,518.144159,153.219100
1015.202958,-9400.615463,1998.556043,1838.629195
1015.203278,-9770.718434,1554.432478,3294.210641
1015.203599,-9400.615463,1998.556043,2298.286494
1015.203920,-9844.739029,1332.370696,2145.067394
1015.204241,-10732.986159,222.061783,2604.724693
1015.204561,-10140.821405,-296.082377,3064.381992
1015.204882,-11103.089130,0.000000,2604.724693
1015.205203,-10288.862594,1184.329507,2451.505594
1015.205523,-9030.512492,1406.391290,1378.971896
1015.205844,-8586.388927,2294.638420,2221.676944
1015.206165,-10732.986159,3108.864956,2834.553343
1015.206485,-10436.903782,2368.659014,4290.134789
1015.206806,-10288.862594,1628.453072,3830.477490
1015.207127,-9400.615463,1110.308913,2451.505594
1015.207447,-9178.553681,814.226536,2374.896044
1015.207768,-9918.759623,2220.617826,4366.744339
1015.208089,-9474.636058,1628.453072,4136.915689
1015.208410,-9400.615463,666.185348,2834.553343
1015.208730,-9104.533087,1036.288319,3140.991542
1015.209051,-9918.759623,296.082377,3983.696590
1015.209372,-11103.089130,1332.370696,5822.325785
1015.209692,-11621.233289,1924.535449,5362.668486
1015.210013,-9326.594869,3182.885551,4519.963438
1015.210334,-9400.615463,3182.885551,3753.867940
1015.210654,-9622.677246,2294.638420,4366.744339
1015.210975,-9178.553681,1702.473667,4060.306139
1015.211296,-9622.677246,962.267725,3677.258390
1015.211617,-8438.347739,1850.514855,4290.134789
1015.211937,-9474.636058,1110.308913,4903.011187
1015.212258,-9474.636058,1184.329507,5056.230287
1015.212579,-9770.718434,1554.432478,3983.696590
1015.212899,-9252.574275,2960.823768,3447.429741
1015.213220,-9030.512492,2516.700203,2298.286494
1015.213541,-8956.491898,2590.720797,2757.943793
1015.213861,-9696.697840,1110.308913,2757.943793
1015.214182,-9622.677246,814.226536,1915.238745
1015.214503,-9326.594869,1850.514855,2987.772442
1015.214824,-9104.533087,2368.659014,3140.991542
1015.215144,-10584.944971,2812.782580,4826.401637
1015.215465,-10362.883188,2516.700203,5439.278036
1015.215786,-9992.780217,2072.576638,4060.306139
1015.216106,-9178.553681,2368.659014,3677.258390
1015.216427,-9400.615463,2590.720797,4136.915689
1015.216748,-9474.636058,2220.617826,3830.477490
1015.217068,-8808.450710,1998.556043,2834.553343
1015.217389,-8512.368333,1998.556043,766.095498
1015.217710,-8364.327145,2072.576638,306.438199
1015.218030,-9474.636058,3552.988522,1838.629195
1015.218351,-11177.109724,3034.844362,4136.915689
1015.218672,-11251.130318,3923.091493,4826.401637
1015.218993,-11029.068536,2368.659014,3753.867940
1015.219313,-10955.047942,1924.535449,2604.724693
1015.219634,-10881.027347,2072.576638,2834.553343
1015.219955,-10436.903782,1850.514855,5286.058936
1015.220275,-9474.636058,1406.391290,2604.724693
1015.220596,-9030.512492,1258.350101,1072.533697
1015.220917,-8586.388927,814.226536,306.438199
1015.221237,-9178.553681,1036.288319,1149.143247
1015.221558,-9992.780217,1184.329507,2145.067394
1015.221879,-9548.656652,1184.329507,2987.772442
1015.222200,-9178.553681,1406.391290,3447.429741
1015.222520,-9548.656652,1258.350101,3983.696590
1015.222841,-9992.780217,1184.329507,5592.497135
1015.223162,-10732.986159,814.226536,5822.325785
1015.223482,-9770.718434,1554.432478,4979.620737
1015.223803,-9474.636058,2072.576638,3524.039291
1015.224124,-9400.615463,1702.473667,2834.553343
1015.224444,-8660.409521,1480.411884,2451.505594
1015.224765,-9400.615463,814.226536,2451.505594
1015.225086,-8438.347739,296.082377,2451.505594
1015.225407,-8882.471304,-814.226536,1915.238745
1015.225727,-9252.574275,-444.123565,2451.505594
1015.226048,-9696.697840,-370.102971,3217.601092
1015.226369,-9918.759623,814.226536,4213.525239
1015.226689,-9992.780217,1554.432478,4826.401637
1015.227010,-9622.677246,1924.535449,4443.353888
1015.227331,-10140.821405,1554.432478,5286.058936
1015.227651,-9992.780217,1406.391290,5822.325785
1015.227972,-9844.739029,1406.391290,5975.544884
1015.228293,-9696.697840,1184.329507,5669.106685
1015.228613,-9104.533087,2072.576638,4903.011187
1015.228934,-8660.409521,1924.535449,3983.696590
1015.229255,-8882.471304,1776.494261,2604.724693
1015.229576,-8586.388927,1332.370696,1685.410096
1015.229896,-8956.491898,888.247130,842.705048
1015.230217,-9474.636058,814.226536,153.219100
1015.230538,-10066.800811,518.144159,459.657299
1015.230858,-10510.924376,814.226536,1225.752797
1015.231179,-10807.006753,1332.370696,1455.581446
1015.231500,-10807.006753,1332.370696,2298.286494
1015.231820,-10955.047942,1332.370696,2834.553343
1015.232141,-10881.027347,1036.288319,3524.039291
1015.232462,-10288.862594,1332.370696,3753.867940
1015.232783,-9844.739029,1554.432478,3983.696590
1015.233103,-9400.615463,2072.576638,4213.525239
1015.233424,-8734.430116,2072.576638,3217.601092
1015.233745,-8660.409521,1702.473667,2911.162892
1015.234065,-8512.368333,2294.638420,2911.162892
1015.234386,-9252.574275,2368.659014,2451.505594
1015.234707,-9770.718434,2368.659014,2604.724693
1015.235027,-9844.739029,2516.700203,2451.505594
1015.235348,-10510.924376,2738.761985,3677.258390
1015.235669,-10362.883188,2738.761985,3064.381992
1015.235990,-10658.965565,3034.844362,2987.772442
1015.236310,-10288.862594,2812.782580,3140.991542
1015.236631,-9696.697840,2886.803174,2451.505594
1015.236952,-9474.636058,2442.679609,3524.039291
1015.237272,-9326.594869,2590.720797,3677.258390
1015.237593,-9326.594869,2368.659014,4136.915689
1015.237914,-9104.533087,2368.659014,4136.915689
1015.238234,-8956.491898,1998.556043,3677.258390
1015.238555,-9326.594869,1332.370696,3753.867940
1015.238876,-9326.594869,1110.308913,3830.477490
1015.239196,-9400.615463,1406.391290,3677.258390
1015.239517,-9770.718434,1776.494261,2528.115143
1015.239838,-9474.636058,1998.556043,2604.724693
1015.240159,-9548.656652,1776.494261,2451.505594
1015.240479,-9844.739029,1998.556043,2451.505594
1015.240800,-9844.739029,1480.411884,1072.533697
1015.241121,-9844.739029,1850.514855,2451.505594
1015.241441,-9844.739029,1554.432478,2911.162892
1015.241762,-9770.718434,1258.350101,3064.381992
1015.242083,-9326.594869,1628.453072,3140.991542
1015.242403,-9326.594869,1184.329507,3370.820191
1015.242724,-9252.574275,1184.329507,3217.601092
1015.243045,-9474.636058,592.164754,3140.991542
1015.243366,-9326.594869,0.000000,1762.019645
1015.243686,-9326.594869,814.226536,1225.752797
1015.244007,-9474.636058,370.102971,995.924147
1015.244328,-9400.615463,222.061783,1072.533697
1015.244648,-9992.780217,444.123565,995.924147
1015.244969,-10510.924376,1258.350101,1991.848295
1015.245290,-10658.965565,814.226536,1455.581446
1015.245610,-10955.047942,1258.350101,2298.286494
1015.245931,-10658.965565,1110.308913,1838.629195
1015.246252,-9770.718434,1036.288319,1225.752797
1015.246573,-9474.636058,1036.288319,689.485948
1015.246893,-8808.450710,1036.288319,766.095498
1015.247214,-8882.471304,1110.308913,1072.533697
1015.247535,-9326.594869,1110.308913,1838.629195
1015.247855,-8586.388927,74.020594,3907.087040
1015.248176,-9474.636058,1184.329507,2528.115143
1015.248497,-10066.800811,1110.308913,2681.334243
1015.248817,-10140.821405,814.226536,3140.991542
1015.249138,-10066.800811,1110.308913,3217.601092
1015.249459,-9770.718434,888.247130,3677.258390
1015.249779,-9770.718434,1036.288319,3064.381992
1015.250100,-9696.697840,1036.288319,3524.039291
1015.250421,-9844.739029,1406.391290,3677.258390
1015.250742,-9474.636058,1702.473667,4366.744339
1015.251062,-9918.759623,1702.473667,4749.792088
1015.251383,-9770.718434,1850.514855,4903.011187
1015.251704,-9622.677246,1554.432478,5669.106685
1015.252024,-9474.636058,1110.308913,7354.516781
1015.252345,-9474.636058,1184.329507,6358.592633
1015.252666,-9252.574275,1110.308913,5975.544884
1015.252986,-9326.594869,1110.308913,6052.154434
1015.253307,-9326.594869,1850.514855,5592.497135
1015.253628,-9178.553681,2146.597232,5822.325785
1015.253949,-9252.574275,2220.617826,5898.935335
1015.254269,-9400.615463,2294.638420,5822.325785
1015.254590,-9400.615463,2442.679609,6128.763984
1015.254911,-9474.636058,2368.659014,6205.373534
1015.255231,-9770.718434,2886.803174,6818.249932
1015.255552,-9918.759623,3256.906145,6741.640382
1015.255873,-9844.739029,3256.906145,6741.640382
1015.256193,-9030.512492,4515.256246,7354.516781
1015.256514,-9622.677246,3330.926739,5439.278036
1015.256835,-9474.636058,3478.967927,4673.182538
1015.257156,-9104.533087,3552.988522,4290.134789
1015.257476,-9326.594869,3552.988522,3907.087040
1015.257797,-9474.636058,3256.906145,3677.258390
1015.258118,-9474.636058,3034.844362,3370.820191
1015.258438,-9770.718434,2442.679609,2528.115143
1015.258759,-9844.739029,2738.761985,1991.848295
1015.259080,-9770.718434,2590.720797,1685.410096
1015.259400,-9548.656652,2590.720797,306.438199
1015.259721,-9326.594869,2442.679609,-459.657299
1015.260042,-9178.553681,2442.679609,-1149.143247
1015.260362,-9548.656652,2738.761985,-459.657299
1015.260683,-9622.677246,2368.659014,-229.828649
1015.261004,-10140.821405,2368.659014,919.314598
1015.261325,-10214.842000,2590.720797,1991.848295
1015.261645,-10510.924376,2442.679609,2681.334243
1015.261966,-10214.842000,2516.700203,3370.820191
1015.262287,-9992.780217,2220.617826,2681.334243
1015.262607,-9474.636058,2368.659014,2451.505594
1015.262928,-9104.533087,2368.659014,1991.848295
1015.263249,-8586.388927,1998.556043,1378.971896
1015.263569,-8808.450710,2294.638420,1455.581446
1015.263890,-9326.594869,2146.597232,1149.143247
1015.264211,-9548.656652,1184.329507,1072.533697
1015.264532,-9548.656652,1036.288319,612.876398
1015.264852,-9696.697840,666.185348,766.095498
1015.265173,-9770.718434,814.226536,1302.362347
1015.265494,-10436.903782,592.164754,2757.943793
1015.265814,-10066.800811,1036.288319,4213.525239
1015.266135,-10362.883188,814.226536,4903.011187
1015.266456,-10881.027347,1036.288319,5669.106685
1015.266776,-10807.006753,592.164754,6435.202183
1015.267097,-9622.677246,1850.514855,7354.516781
1015.267418,-9548.656652,1110.308913,7660.954980
1015.267739,-8882.471304,2072.576638,7890.783629
1015.268059,-9622.677246,0.000000,6435.202183
1015.268380,-8882.471304,-666.185348,4979.620737
1015.268701,-8956.491898,-1258.350101,2681.334243
1015.269021,-8734.430116,370.102971,2145.067394
1015.269342,-9030.512492,740.205942,2681.334243
1015.269663,-9474.636058,0.000000,2451.505594
1015.269983,-10288.862594,296.082377,2681.334243
1015.270304,-10066.800811,-592.164754,1532.190996
1015.270625,-10436.903782,518.144159,2757.943793
1015.270945,-11325.150913,962.267725,5362.668486
1015.271266,-10436.903782,1776.494261,6741.640382
1015.271587,-11177.109724,1258.350101,6971.469032
1015.271908,-9770.718434,370.102971,6205.373534
1015.272228,-9474.636058,-518.144159,4443.353888
1015.272549,-9104.533087,148.041188,4673.182538
1015.272870,-9992.780217,1998.556043,5209.449386
1015.273190,-8660.409521,2220.617826,4519.963438
1015.273511,-8956.491898,1776.494261,3447.429741
1015.273832,-8734.430116,1110.308913,2068.457845
1015.274152,-9622.677246,1036.288319,1838.629195
1015.274473,-10362.883188,1628.453072,2451.505594
1015.274794,-10510.924376,1924.535449,1838.629195
1015.275115,-9770.718434,2590.720797,459.657299
1015.275435,-9326.594869,3108.864956,-459.657299
1015.275756,-9770.718434,2812.782580,536.266849
1015.276077,-9474.636058,2368.659014,1532.190996
1015.276398,-9474.636058,888.247130,1149.143247
1015.276718,-8734.430116,1184.329507,306.438199
1015.277039,-8660.409521,1850.514855,2911.162892
1015.277360,-9474.636058,1998.556043,3524.039291
1015.277681,-9918.759623,1628.453072,4290.134789
1015.278002,-9474.636058,1850.514855,3677.258390
1015.278322,-9326.594869,1702.473667,1915.238745
1015.278643,-8882.471304,3108.864956,2374.896044
1015.278964,-9918.759623,3552.988522,3753.867940
1015.279285,-10658.965565,3923.091493,4366.744339
1015.279606,-10362.883188,3627.009116,3217.601092
1015.279926,-10658.965565,4367.215058,2757.943793
1015.280247,-10584.944971,3182.885551,2911.162892
1015.280568,-10362.883188,3108.864956,3524.039291
1015.280889,-9844.739029,3701.029710,3294.210641
1015.281209,-9400.615463,3404.947333,2374.896044
1015.281530,-9104.533087,2442.679609,3064.381992
1015.281851,-8882.471304,1554.432478,3753.867940
1015.282172,-9844.739029,814.226536,4290.134789
1015.282493,-10362.883188,1406.391290,5209.449386
1015.282813,-10436.903782,1036.288319,6358.592633
1015.283134,-9770.718434,1332.370696,5209.449386
1015.283455,-9252.574275,1110.308913,5056.230287
1015.283776,-10436.903782,370.102971,4979.620737
1015.284097,-9474.636058,1406.391290,4290.134789
1015.284417,-9770.718434,962.267725,5132.839837
1015.284738,-8734.430116,2368.659014,3830.477490
1015.285059,-10140.821405,3256.906145,4443.353888
1015.285380,-9918.759623,2812.782580,4060.306139
1015.285701,-8808.450710,3849.070898,3907.087040
1015.286021,-9252.574275,3701.029710,3677.258390
1015.286342,-8808.450710,1850.514855,3370.820191
1015.286663,-8956.491898,74.020594,3217.601092
1015.286984,-9178.553681,-370.102971,4290.134789
1015.287305,-9918.759623,-1036.288319,2604.724693
1015.287625,-9030.512492,-666.185348,2298.286494
1015.287946,-8068.244768,1332.370696,1149.143247
1015.288267,-9696.697840,2368.659014,2604.724693
1015.288588,-9992.780217,3627.009116,2911.162892
1015.288908,-10288.862594,2368.659014,4060.306139
1015.289229,-9770.718434,222.061783,3140.991542
1015.289550,-10362.883188,-814.226536,2068.457845
1015.289871,-9844.739029,74.020594,2834.553343
1015.290192,-9474.636058,1628.453072,3140.991542
1015.290512,-9474.636058,2516.700203,3140.991542
1015.290833,-8586.388927,2886.803174,2374.896044
1015.291154,-9844.739029,3552.988522,995.924147
1015.291475,-10140.821405,1406.391290,383.047749
1015.291796,-9104.533087,1554.432478,153.219100
1015.292116,-9178.553681,2368.659014,1685.410096
1015.292437,-10362.883188,1554.432478,1991.848295
1015.292758,-10362.883188,1850.514855,2987.772442
1015.293079,-10214.842000,814.226536,3830.477490
1015.293400,-10510.924376,-592.164754,2451.505594
1015.293720,-10288.862594,740.205942,2221.676944
1015.294041,-10807.006753,1332.370696,3217.601092
1015.294362,-9622.677246,2220.617826,3294.210641
1015.294683,-9474.636058,2220.617826,3294.210641
1015.295004,-9770.718434,1184.329507,3217.601092
1015.295324,-9326.594869,-444.123565,2145.067394
1015.295645,-8734.430116,-1406.391290,1302.362347
1015.295966,-9474.636058,0.000000,3294.210641
1015.296287,-9770.718434,444.123565,4136.915689
1015.296607,-9622.677246,1702.473667,4443.353888
1015.296928,-10584.944971,1702.473667,5439.278036
1015.297249,-9252.574275,518.144159,2681.334243
1015.297570,-8660.409521,1702.473667,2451.505594
1015.297891,-10288.862594,1406.391290,4213.525239
1015.298211,-8586.388927,1628.453072,4443.353888
1015.298532,-9474.636058,0.000000,3447.429741
1015.298853,-9178.553681,-740.205942,1991.848295
1015.299174,-7105.977043,148.041188,459.657299
1015.299495,-9326.594869,1554.432478,3064.381992
1015.299815,-10140.821405,3775.050304,7124.688131
1015.300136,-9918.759623,1850.514855,6818.249932
1015.300457,-12435.459826,814.226536,7967.393179
1015.300778,-11473.192101,-1406.391290,5209.449386
1015.301099,-10955.047942,-1332.370696,6052.154434
1015.301419,-10436.903782,-148.041188,5669.106685
1015.301740,-8956.491898,-666.185348,1991.848295
1015.302061,-5773.606348,4737.318029,-1225.752797
1015.302382,-7402.059420,1480.411884,-2681.334243
1015.302703,-5329.482782,3552.988522,-1915.238745
1015.303023,-9400.615463,5329.482782,1608.800546
1015.303344,-11991.336260,-1036.288319,1302.362347
1015.303665,-7105.977043,3849.070898,4213.525239
1015.303986,-16136.489536,962.267725,4903.011187
1015.304306,-10732.986159,444.123565,5439.278036
1015.304627,-11325.150913,-222.061783,4213.525239
1015.304948,-10807.006753,-962.267725,5515.887586
1015.305269,-7920.203579,-1036.288319,-2145.067394
1015.305590,-9030.512492,222.061783,-1378.971896
1015.305910,-7624.121203,0.000000,-2451.505594
1015.306231,-7105.977043,2072.576638,-2528.115143
1015.306552,-10510.924376,1332.370696,229.828649
1015.306873,-10732.986159,-296.082377,0.000000
1015.307194,-10955.047942,1776.494261,1302.362347
1015.307514,-12731.542202,-888.247130,2145.067394
1015.307835,-11843.295072,3108.864956,4749.792088
1015.308156,-11251.130318,1628.453072,3983.696590
1015.308477,-9770.718434,-1554.432478,-919.314598
1015.308798,-6809.894666,222.061783,-2757.943793
1015.309118,-5107.421000,-962.267725,-5515.887586
1015.309439,-8512.368333,1480.411884,-2221.676944
1015.309760,-8438.347739,1924.535449,-536.266849
1015.310081,-8956.491898,-962.267725,-766.095498
1015.310402,-10584.944971,-1036.288319,842.705048
1015.310722,-10584.944971,-1628.453072,1225.752797
1015.311043,-11695.253884,0.000000,4136.915689
1015.311364,-12657.521608,2072.576638,7354.516781
1015.311685,-10214.842000,0.000000,3983.696590
1015.312005,-8512.368333,-1036.288319,689.485948
1015.312326,-7920.203579,-666.185348,0.000000
1015.312647,-8364.327145,-74.020594,1915.238745
1015.312968,-9326.594869,-222.061783,3217.601092
1015.313289,-9400.615463,-1258.350101,1532.190996
1015.313609,-6735.874072,-1554.432478,-76.609550
1015.313930,-9400.615463,-1406.391290,0.000000
1015.314251,-10584.944971,-222.061783,4136.915689
1015.314572,-10362.883188,-1480.411884,3600.648841
1015.314893,-10140.821405,-1998.556043,1378.971896
1015.315213,-8882.471304,-740.205942,-995.924147
1015.315534,-7550.100608,-296.082377,-2145.067394
1015.315855,-10214.842000,518.144159,1072.533697
1015.316176,-8734.430116,962.267725,2911.162892
1015.316497,-10510.924376,-888.247130,995.924147
1015.316817,-9770.718434,-1850.514855,1225.752797
1015.317138,-11325.150913,-2886.803174,3753.867940
1015.317459,-11769.274478,-2516.700203,7201.297681
1015.317780,-12213.398043,-3923.091493,5822.325785
1015.318101,-9992.780217,-2886.803174,2757.943793
1015.318421,-7698.141797,-2516.700203,-1455.581446
1015.318742,-7328.038826,-592.164754,-2145.067394
1015.319063,-8586.388927,1036.288319,766.095498
1015.319384,-9252.574275,0.000000,0.000000
1015.319704,-9252.574275,-370.102971,-1378.971896
1015.320025,-9474.636058,-296.082377,-1378.971896
1015.320346,-10584.944971,-740.205942,766.095498
1015.320667,-12509.480420,-222.061783,3677.258390
1015.320988,-11695.253884,-592.164754,2911.162892
1015.321308,-9474.636058,-2368.659014,536.266849
1015.321629,-7476.080014,-1480.411884,-2451.505594
1015.321950,-8586.388927,296.082377,-383.047749
1015.322271,-9992.780217,0.000000,612.876398
1015.322592,-9326.594869,0.000000,0.000000
1015.322912,-8290.306550,-814.226536,-1685.410096
1015.323233,-5773.606348,-1036.288319,-2068.457845
1015.323554,-10658.965565,222.061783,1149.143247
1015.323875,-11843.295072,1258.350101,4519.963438
1015.324196,-11843.295072,-962.267725,2987.772442
1015.324516,-9252.574275,-444.123565,-1532.190996
1015.324837,-7179.997637,814.226536,-1608.800546
1015.325158,-10881.027347,444.123565,-153.219100
1015.325479,-9770.718434,2886.803174,2911.162892
1015.325800,-11547.212695,-1110.308913,1149.143247
1015.326120,-6217.729913,370.102971,-1225.752797
1015.326441,-9770.718434,-370.102971,-1762.019645
1015.326762,-11547.212695,888.247130,2681.334243
1015.327083,-11103.089130,2220.617826,5132.839837
1015.327403,-10140.821405,-74.020594,2145.067394
1015.327724,-7846.182985,-222.061783,0.000000
1015.328045,-9622.677246,-2368.659014,-1225.752797
1015.328366,-10807.006753,-370.102971,2451.505594
1015.328687,-10658.965565,740.205942,4136.915689
1015.329007,-10955.047942,518.144159,2681.334243
1015.329328,-7846.182985,0.000000,306.438199
1015.329649,-9992.780217,-370.102971,76.609550
1015.329970,-11547.212695,1110.308913,4136.915689
1015.330291,-10955.047942,0.000000,4366.744339
1015.330611,-10584.944971,74.020594,2221.676944
1015.330932,-7476.080014,222.061783,-1225.752797
1015.331253,-8290.306550,518.144159,-459.657299
1015.331574,-9400.615463,1702.473667,4903.011187
1015.331895,-9548.656652,-740.205942,2757.943793
1015.332215,-8882.471304,-666.185348,995.924147
1015.332536,-7698.141797,-1850.514855,-842.705048
1015.332857,-9400.615463,-2146.597232,383.047749
1015.333178,-10881.027347,222.061783,4903.011187
1015.333499,-10584.944971,0.000000,4979.620737
1015.333819,-9030.512492,-962.267725,1685.410096
1015.334140,-7994.224174,-740.205942,-612.876398
1015.334461,-9474.636058,-740.205942,76.609550
1015.334782,-9622.677246,148.041188,2528.115143
1015.335102,-9474.636058,-592.164754,1532.190996
1015.335423,-8586.388927,-1702.473667,-1149.143247
1015.335744,-6661.853478,-444.123565,-2068.457845
1015.336065,-9474.636058,-2072.576638,-1915.238745
1015.336386,-9400.615463,962.267725,2528.115143
1015.336706,-11473.192101,888.247130,2374.896044
1015.337027,-11399.171507,444.123565,1762.019645
1015.337348,-8068.244768,-1480.411884,-1455.581446
1015.337669,-10584.944971,-1776.494261,689.485948
1015.337990,-11547.212695,-1628.453072,3140.991542
1015.338310,-10510.924376,-1628.453072,842.705048
1015.338631,-8956.491898,0.000000,-459.657299
1015.338952,-6883.915261,-518.144159,-3217.601092
1015.339273,-9178.553681,-592.164754,-1378.971896
1015.339594,-11621.233289,-1776.494261,2681.334243
1015.339914,-9844.739029,-1554.432478,1455.581446
1015.340235,-11103.089130,-2516.700203,-1762.019645
1015.340556,-7254.018232,2072.576638,-2757.943793
1015.340877,-10881.027347,2294.638420,2068.457845
1015.341198,-11991.336260,0.000000,4903.011187
1015.341518,-9030.512492,-814.226536,2068.457845
1015.341839,-9326.594869,-2072.576638,-1685.410096
1015.342160,-9326.594869,-1628.453072,-1455.581446
1015.342481,-9474.636058,0.000000,306.438199
1015.342801,-13693.809927,1628.453072,6818.249932
1015.343122,-8808.450710,-1332.370696,2604.724693
1015.343443,-9030.512492,-2146.597232,-1838.629195
1015.343764,-7179.997637,-2960.823768,-766.095498
1015.344085,-9252.574275,-1480.411884,2374.896044
1015.344405,-11177.109724,0.000000,3983.696590
1015.344726,-9918.759623,-518.144159,2298.286494
1015.345047,-5551.544565,666.185348,-1072.533697
1015.345368,-9030.512492,-444.123565,-1608.800546
1015.345689,-11103.089130,962.267725,3600.648841
1015.346009,-11325.150913,0.000000,5132.839837
1015.346330,-10288.862594,-1998.556043,2298.286494
1015.346651,-8216.285956,-1110.308913,-689.485948
1015.346972,-8586.388927,-444.123565,612.876398
1015.347293,-10436.903782,1332.370696,4519.963438
1015.347613,-11325.150913,962.267725,5132.839837
1015.347934,-8290.306550,1258.350101,1608.800546
1015.348255,-7550.100608,-740.205942,-1838.629195
1015.348576,-9400.615463,518.144159,0.000000
1015.348897,-11325.150913,1036.288319,4826.401637
1015.349217,-11843.295072,222.061783,6128.763984
1015.349538,-9770.718434,-370.102971,2987.772442
1015.349859,-8290.306550,-1036.288319,-1378.971896
1015.350180,-9326.594869,814.226536,0.000000
1015.350500,-9252.574275,888.247130,1378.971896
1015.350821,-9252.574275,2072.576638,612.876398
1015.351142,-7402.059420,2516.700203,-1225.752797
1015.351463,-7402.059420,1258.350101,-2145.067394
1015.351784,-9474.636058,370.102971,612.876398
1015.352104,-12805.562797,-518.144159,5592.497135
1015.352425,-12805.562797,-2664.741391,4596.572988
1015.352746,-10436.903782,-1628.453072,1838.629195
1015.353067,-9696.697840,-2368.659014,-689.485948
1015.353388,-8364.327145,1406.391290,306.438199
1015.353708,-10066.800811,1332.370696,1838.629195
1015.354029,-8290.306550,1776.494261,459.657299
1015.354350,-7698.141797,-222.061783,-3064.381992
1015.354671,-6513.812290,-1480.411884,-4903.011187
1015.354992,-9770.718434,-148.041188,-306.438199
1015.355312,-11325.150913,592.164754,2528.115143
1015.355633,-10214.842000,1184.329507,2298.286494
1015.355954,-9918.759623,-222.061783,766.095498
1015.356275,-8216.285956,-1924.535449,-1532.190996
1015.356596,-9104.533087,-222.061783,2681.334243
1015.356916,-12065.356855,-1036.288319,3753.867940
1015.357237,-8956.491898,0.000000,1072.533697
1015.357558,-7920.203579,1110.308913,-995.924147
1015.357879,-7031.956449,592.164754,-2145.067394
1015.358199,-8364.327145,1702.473667,766.095498
1015.358520,-11029.068536,296.082377,4136.915689
1015.358841,-9474.636058,-1258.350101,1455.581446
1015.359162,-8808.450710,-1924.535449,153.219100
1015.359483,-9770.718434,-3775.050304,-842.705048
1015.359803,-11103.089130,518.144159,3447.429741
1015.360124,-12287.418637,-296.082377,4596.572988
1015.360445,-9844.739029,814.226536,2757.943793
1015.360766,-7624.121203,0.000000,-383.047749
1015.361087,-8438.347739,-2146.597232,-1685.410096
1015.361407,-10510.924376,74.020594,2374.896044
1015.361728,-11325.150913,-222.061783,4366.744339
1015.362049,-9918.759623,0.000000,1532.190996
1015.362370,-9104.533087,-592.164754,-153.219100
1015.362691,-8290.306550,-1480.411884,-459.657299
1015.363011,-11103.089130,-740.205942,4060.306139
1015.363332,-12139.377449,-1110.308913,5362.668486
1015.363653,-10955.047942,-2294.638420,2451.505594
1015.363974,-8438.347739,-2146.597232,-612.876398
1015.364295,-9474.636058,-666.185348,-536.266849
1015.364615,-10288.862594,1776.494261,3370.820191
1015.364936,-11029.068536,962.267725,5056.230287
1015.365257,-8586.388927,0.000000,919.314598
1015.365578,-8068.244768,-1258.350101,-2374.896044
1015.365898,-9104.533087,-1702.473667,-689.485948
1015.366219,-11621.233289,-1406.391290,3370.820191
1015.366540,-10732.986159,-1480.411884,3524.039291
1015.366861,-9030.512492,-814.226536,0.000000
1015.367182,-7105.977043,-814.226536,-1838.629195
1015.367502,-9622.677246,-1036.288319,-919.314598
1015.367823,-10362.883188,0.000000,3524.039291
1015.368144,-10436.903782,-1258.350101,1762.019645
1015.368465,-8142.265362,-888.247130,-842.705048
1015.368786,-7920.203579,-2516.700203,-2834.553343
1015.369106,-8586.388927,-1406.391290,153.219100
1015.369427,-9918.759623,0.000000,3140.991542
1015.369748,-10510.924376,-592.164754,2451.505594
1015.370069,-8660.409521,-148.041188,229.828649
1015.370390,-9030.512492,-1924.535449,-1838.629195
1015.370710,-9548.656652,-222.061783,76.609550
1015.371031,-10362.883188,222.061783,3370.820191
1015.371352,-9844.739029,-296.082377,1991.848295
1015.371673,-8068.244768,0.000000,-1378.971896
1015.371994,-7846.182985,148.041188,-2911.162892
1015.372314,-8438.347739,1776.494261,229.828649
1015.372635,-11399.171507,1480.411884,3217.601092
1015.372956,-10436.903782,740.205942,2451.505594
1015.373277,-8364.327145,296.082377,-919.314598
1015.373597,-9474.636058,0.000000,-2145.067394
1015.373918,-10140.821405,666.185348,2834.553343
1015.374239,-12065.356855,-1406.391290,4979.620737
1015.374560,-11177.109724,-888.247130,4519.963438
1015.374881,-9770.718434,-1628.453072,-612.876398
1015.375201,-9030.512492,-666.185348,-229.828649
1015.375522,-10066.800811,1554.432478,2604.724693
1015.375843,-10288.862594,1258.350101,4366.744339
1015.376164,-9844.739029,1036.288319,1991.848295
1015.376485,-7846.182985,444.123565,-536.266849
1015.376805,-9104.533087,-1110.308913,-995.924147
1015.377126,-10658.965565,-148.041188,2528.115143
1015.377447,-11769.274478,518.144159,4673.182538
1015.377768,-11917.315666,1776.494261,3983.696590
1015.378089,-8882.471304,888.247130,612.876398
1015.378409,-9622.677246,0.000000,1455.581446
1015.378730,-11177.109724,0.000000,4826.401637
1015.379051,-11177.109724,-1480.411884,3753.867940
1015.379371,-9770.718434,222.061783,459.657299
1015.379692,-5773.606348,1406.391290,-1991.848295
1015.380013,-7402.059420,1184.329507,-1685.410096
1015.380334,-9992.780217,2812.782580,3140.991542
1015.380654,-10955.047942,-1036.288319,3753.867940
1015.380975,-8808.450710,-1554.432478,536.266849
1015.381296,-9104.533087,-2886.803174,-1149.143247
1015.381616,-10362.883188,-1480.411884,919.314598
1015.381937,-10658.965565,888.247130,6741.640382
1015.382258,-11473.192101,444.123565,4519.963438
1015.382578,-8290.306550,444.123565,0.000000
1015.382899,-7179.997637,-1924.535449,-3370.820191
1015.383220,-8660.409521,-1776.494261,-2451.505594
1015.383541,-9696.697840,0.000000,995.924147
1015.383861,-10584.944971,-740.205942,689.485948
1015.384182,-8290.306550,-444.123565,-1455.581446
1015.384503,-7772.162391,-2368.659014,-3600.648841
1015.384823,-9474.636058,-1776.494261,-383.047749
1015.385144,-11473.192101,-592.164754,2834.553343
1015.385465,-11251.130318,-1406.391290,2987.772442
1015.385786,-9770.718434,-2590.720797,-612.876398
1015.386106,-7698.141797,-1406.391290,-1991.848295
1015.386427,-10288.862594,-1480.411884,306.438199
1015.386748,-10807.006753,-296.082377,1838.629195
1015.387068,-11251.130318,0.000000,1915.238745
1015.387389,-6439.791695,-148.041188,-2374.896044
1015.387710,-7994.224174,-962.267725,-5515.887586
1015.388030,-9844.739029,1258.350101,-689.485948
1015.388351,-11473.192101,1110.308913,3830.477490
1015.388672,-11621.233289,-1628.453072,2987.772442
1015.388993,-8808.450710,-2368.659014,229.828649
1015.389313,-8586.388927,-3034.844362,-229.828649
1015.389634,-11103.089130,-1184.329507,2528.115143
1015.389955,-10881.027347,740.205942,5975.544884
1015.390275,-10658.965565,296.082377,3217.601092
1015.390596,-6883.915261,740.205942,-306.438199
1015.390917,-8512.368333,-888.247130,-1532.190996
1015.391238,-10510.924376,518.144159,2911.162892
1015.391558,-11473.192101,-1184.329507,4826.401637
1015.391879,-10066.800811,-814.226536,2068.457845
1015.392200,-7846.182985,-296.082377,76.609550
1015.392520,-9992.780217,-1184.329507,306.438199
1015.392841,-10584.944971,592.164754,4749.792088
1015.393162,-11621.233289,-370.102971,5362.668486
1015.393483,-8956.491898,-296.082377,1532.190996
1015.393803,-8216.285956,-222.061783,-1225.752797
1015.394124,-8364.327145,740.205942,-919.314598
1015.394445,-10584.944971,1554.432478,3064.381992
1015.394765,-10436.903782,370.102971,4290.134789
1015.395086,-9252.574275,-962.267725,1378.971896
1015.395407,-7846.182985,-2294.638420,76.609550
1015.395727,-10436.903782,-3627.009116,0.000000
1015.396048,-10362.883188,-666.185348,4060.306139
1015.396369,-10807.006753,-1110.308913,3524.039291
1015.396690,-8512.368333,888.247130,536.266849
1015.397010,-8364.327145,0.000000,-1532.190996
1015.397331,-8660.409521,-222.061783,-383.047749
1015.397652,-9992.780217,222.061783,2911.162892
1015.397972,-10807.006753,-1110.308913,2528.115143
1015.398293,-8512.368333,-1110.308913,-612.876398
1015.398614,-7846.182985,-1924.535449,-1991.848295
1015.398935,-9770.718434,740.205942,229.828649
1015.399255,-10807.006753,1036.288319,3370.820191
1015.399576,-10066.800811,74.020594,1685.410096
1015.399897,-8586.388927,370.102971,-1225.752797
1015.400217,-7994.224174,-1110.308913,-3064.381992
1015.400538,-9474.636058,-370.102971,-229.828649
1015.400859,-10362.883188,370.102971,2145.067394
1015.401179,-10510.924376,-222.061783,1302.362347
1015.401500,-8216.285956,74.020594,-1378.971896
1015.401821,-8660.409521,444.123565,-1455.581446
1015.402142,-10584.944971,444.123565,1608.800546
1015.402462,-11103.089130,370.102971,3677.258390
