#time,accel_x,accel_y,accel_z
1230.477237,-9030.512492,-2146.597232,2528.115143
1230.477558,-9474.636058,-1702.473667,2145.067394
1230.477878,-9400.615463,-888.247130,1685.410096
1230.478199,-9622.677246,-1258.350101,1532.190996
1230.478520,-9326.594869,-518.144159,2374.896044
1230.478841,-9918.759623,-148.041188,1378.971896
1230.479162,-10140.821405,-222.061783,1685.410096
1230.479482,-9918.759623,-518.144159,1608.800546
1230.479803,-9030.512492,-1702.473667,2145.067394
1230.480124,-9474.636058,-1480.411884,842.705048
1230.480445,-9622.677246,-1184.329507,842.705048
1230.480765,-9548.656652,-1036.288319,995.924147
1230.481086,-9548.656652,-666.185348,2911.162892
1230.481407,-9474.636058,-1258.350101,1149.143247
1230.481728,-9474.636058,-962.267725,1149.143247
1230.482049,-9918.759623,-1110.308913,842.705048
1230.482369,-9770.718434,-1036.288319,1608.800546
1230.482690,-9770.718434,-1184.329507,1302.362347
1230.483011,-9696.697840,-1554.432478,1225.752797
1230.483332,-9770.718434,-1554.432478,1762.019645
1230.483653,-10066.800811,-1850.514855,2221.676944
1230.483973,-9548.656652,-1480.411884,3217.601092
1230.484294,-9770.718434,-1850.514855,3294.210641
1230.484615,-9770.718434,-2368.659014,3294.210641
1230.484936,-9400.615463,-2738.761985,2987.772442
1230.485256,-9326.594869,-3182.885551,2757.943793
1230.485577,-9178.553681,-3108.864956,4136.915689
1230.485898,-8882.471304,-3404.947333,4290.134789
1230.486219,-8808.450710,-3404.947333,4979.620737
1230.486540,-8882.471304,-3330.926739,5209.449386
1230.486860,-8660.409521,-3775.050304,5745.716235
1230.487181,-9030.512492,-3849.070898,6588.421283
1230.487502,-9178.553681,-4441.235652,6741.640382
1230.487823,-9030.512492,-4959.379811,6894.859482
1230.488144,-9030.512492,-4959.379811,6665.030833
1230.488464,-9178.553681,-5107.421000,6818.249932
1230.488785,-8882.471304,-4811.338623,6588.421283
1230.489106,-9104.533087,-4589.276840,6128.763984
1230.489427,-9104.533087,-3701.029710,6818.249932
1230.489747,-9178.553681,-3849.070898,5362.668486
1230.490068,-9400.615463,-3182.885551,5132.839837
1230.490389,-9326.594869,-3256.906145,5362.668486
1230.490710,-9770.718434,-3478.967927,5439.278036
1230.491031,-9844.739029,-3701.029710,5898.935335
1230.491351,-9992.780217,-4515.256246,5898.935335
1230.491672,-9918.759623,-4885.359217,5209.449386
1230.491993,-9918.759623,-5551.544565,4903.011187
1230.492314,-9696.697840,-6143.709319,4213.525239
1230.492635,-9474.636058,-5699.585753,2911.162892
1230.492955,-9400.615463,-4515.256246,1991.848295
1230.493276,-9474.636058,-3552.988522,1302.362347
1230.493597,-9844.739029,-1998.556043,2221.676944
1230.493918,-10214.842000,-1184.329507,919.314598
1230.494238,-10658.965565,-592.164754,1149.143247
1230.494559,-10658.965565,-592.164754,1225.752797
1230.494880,-11029.068536,-962.267725,1838.629195
1230.495201,-10584.944971,-2294.638420,1915.238745
1230.495522,-10362.883188,-3923.091493,2068.457845
1230.495842,-9696.697840,-5329.482782,2068.457845
1230.496163,-8660.409521,-5773.606348,1225.752797
1230.496484,-8808.450710,-5995.668130,919.314598
1230.496805,-8586.388927,-4959.379811,1225.752797
1230.497126,-8142.265362,-4145.153275,1149.143247
1230.497446,-8364.327145,-3182.885551,1149.143247
1230.497767,-9252.574275,-2516.700203,459.657299
1230.498088,-9252.574275,-1924.535449,306.438199
1230.498409,-9622.677246,-1036.288319,-459.657299
1230.498729,-9474.636058,444.123565,-689.485948
1230.499050,-9696.697840,1776.494261,-536.266849
1230.499371,-10066.800811,2738.761985,842.705048
1230.499692,-9992.780217,2368.659014,1302.362347
1230.500013,-9992.780217,1036.288319,1915.238745
1230.500333,-10066.800811,-1110.308913,2451.505594
1230.500654,-8364.327145,-2072.576638,3064.381992
1230.500975,-9104.533087,-4071.132681,3294.210641
1230.501296,-8956.491898,-3108.864956,3907.087040
1230.501616,-8586.388927,-2368.659014,4596.572988
1230.501937,-8808.450710,-2220.617826,4136.915689
1230.502258,-8586.388927,-2368.659014,3524.039291
1230.502579,-8660.409521,-1998.556043,2068.457845
1230.502899,-9104.533087,-444.123565,995.924147
1230.503220,-9474.636058,1998.556043,766.095498
1230.503541,-10066.800811,4293.194464,1762.019645
1230.503862,-10658.965565,5403.503377,2681.334243
1230.504183,-11251.130318,5403.503377,3983.696590
1230.504503,-11843.295072,3701.029710,5132.839837
1230.504824,-11769.274478,814.226536,5745.716235
1230.505145,-10955.047942,-1110.308913,5745.716235
1230.505466,-10140.821405,-2442.679609,6052.154434
1230.505786,-9178.553681,-3701.029710,6281.983084
1230.506107,-8586.388927,-4885.359217,5898.935335
1230.506428,-7920.203579,-6291.750507,4443.353888
1230.506749,-7476.080014,-6143.709319,2451.505594
1230.507070,-7698.141797,-4293.194464,1072.533697
1230.507390,-8586.388927,-814.226536,1225.752797
1230.507711,-9326.594869,2220.617826,1915.238745
1230.508032,-9844.739029,3997.112087,1072.533697
1230.508353,-10510.924376,4367.215058,306.438199
1230.508673,-10955.047942,4293.194464,0.000000
1230.508994,-11621.233289,3775.050304,-1532.190996
1230.509315,-10955.047942,2886.803174,383.047749
1230.509636,-10881.027347,1184.329507,766.095498
1230.509956,-9992.780217,-444.123565,995.924147
1230.510277,-9178.553681,-2960.823768,536.266849
1230.510598,-8512.368333,-4959.379811,0.000000
1230.510919,-8734.430116,-5699.585753,-842.705048
1230.511240,-8660.409521,-5181.441594,-1149.143247
1230.511560,-8438.347739,-1850.514855,-459.657299
1230.511881,-8956.491898,-296.082377,766.095498
1230.512202,-9030.512492,148.041188,459.657299
1230.512523,-9252.574275,74.020594,-229.828649
1230.512843,-9918.759623,888.247130,-689.485948
1230.513164,-11399.171507,1628.453072,1532.190996
1230.513485,-10955.047942,1036.288319,536.266849
1230.513806,-10288.862594,0.000000,383.047749
1230.514127,-9622.677246,-1924.535449,-612.876398
1230.514447,-8956.491898,-1850.514855,-1608.800546
1230.514768,-9400.615463,-2146.597232,-383.047749
1230.515089,-9252.574275,-1702.473667,0.000000
1230.515410,-9030.512492,-1036.288319,1072.533697
1230.515730,-9622.677246,-1628.453072,1838.629195
1230.516051,-9326.594869,-2294.638420,1762.019645
1230.516372,-9474.636058,-3701.029710,2145.067394
1230.516693,-9474.636058,-2738.761985,2451.505594
1230.517013,-9622.677246,-2072.576638,3140.991542
1230.517334,-9844.739029,-1184.329507,2911.162892
1230.517655,-9844.739029,-370.102971,2145.067394
1230.517976,-9030.512492,-814.226536,229.828649
1230.518297,-8512.368333,444.123565,-919.314598
1230.518617,-9696.697840,1554.432478,-766.095498
1230.518938,-9770.718434,3627.009116,0.000000
1230.519259,-10510.924376,3552.988522,306.438199
1230.519580,-10510.924376,2664.741391,1991.848295
1230.519900,-10362.883188,518.144159,2145.067394
1230.520221,-10214.842000,-1258.350101,2757.943793
1230.520542,-10658.965565,-2960.823768,3983.696590
1230.520863,-9918.759623,-2960.823768,3983.696590
1230.521184,-9252.574275,-3108.864956,4136.915689
1230.521504,-8512.368333,-3701.029710,3140.991542
1230.521825,-7550.100608,-3182.885551,1072.533697
1230.522146,-8364.327145,-1924.535449,306.438199
1230.522467,-8512.368333,962.267725,995.924147
1230.522787,-9030.512492,2442.679609,689.485948
1230.523108,-9622.677246,3478.967927,919.314598
1230.523429,-9992.780217,2812.782580,995.924147
1230.523750,-10362.883188,2516.700203,229.828649
1230.524070,-10658.965565,2072.576638,919.314598
1230.524391,-11103.089130,1406.391290,2068.457845
1230.524712,-10955.047942,0.000000,2068.457845
1230.525033,-10658.965565,-888.247130,2451.505594
1230.525354,-9844.739029,-2294.638420,1149.143247
1230.525674,-8216.285956,-1628.453072,0.000000
1230.525995,-9104.533087,-1554.432478,-536.266849
1230.526316,-8216.285956,814.226536,-689.485948
1230.526637,-8734.430116,2146.597232,-306.438199
1230.526957,-9178.553681,1406.391290,229.828649
1230.527278,-8956.491898,1702.473667,153.219100
1230.527599,-10066.800811,1110.308913,-229.828649
1230.527920,-10362.883188,1702.473667,0.000000
1230.528241,-10510.924376,1406.391290,1149.143247
1230.528561,-9918.759623,740.205942,383.047749
1230.528882,-10066.800811,-296.082377,689.485948
1230.529203,-9770.718434,-1258.350101,-1072.533697
1230.529524,-7698.141797,-1702.473667,-612.876398
1230.529844,-9548.656652,-518.144159,76.609550
1230.530165,-9474.636058,814.226536,842.705048
1230.530486,-9104.533087,888.247130,1072.533697
1230.530807,-9770.718434,0.000000,1455.581446
1230.531127,-8512.368333,-1184.329507,459.657299
1230.531448,-9844.739029,-1850.514855,1072.533697
1230.531769,-9326.594869,-1406.391290,1838.629195
1230.532090,-9770.718434,-1628.453072,1838.629195
1230.532411,-9326.594869,-1036.288319,2528.115143
1230.532731,-9622.677246,-1998.556043,1455.581446
1230.533052,-9178.553681,-1702.473667,383.047749
1230.533373,-9844.739029,-888.247130,383.047749
1230.533694,-9696.697840,666.185348,1149.143247
1230.534014,-10140.821405,2146.597232,1762.019645
1230.534335,-10510.924376,2220.617826,2145.067394
1230.534656,-10584.944971,1184.329507,2068.457845
1230.534977,-10140.821405,-444.123565,2298.286494
1230.535298,-10214.842000,-740.205942,2451.505594
1230.535618,-10214.842000,-1628.453072,3677.258390
1230.535939,-9326.594869,-2664.741391,3140.991542
1230.536260,-8956.491898,-3849.070898,2528.115143
1230.536581,-8512.368333,-4515.256246,1455.581446
1230.536901,-7846.182985,-3552.988522,-76.609550
1230.537222,-8586.388927,-1480.411884,383.047749
1230.537543,-9178.553681,1258.350101,1149.143247
1230.537864,-9918.759623,2294.638420,1685.410096
1230.538185,-9844.739029,1554.432478,2528.115143
1230.538505,-9992.780217,888.247130,1302.362347
1230.538826,-10658.965565,0.000000,1532.190996
1230.539147,-11029.068536,-592.164754,1762.019645
1230.539468,-10584.944971,-1258.350101,2528.115143
1230.539788,-9992.780217,-2442.679609,1915.238745
1230.540109,-9400.615463,-2960.823768,1378.971896
1230.540430,-8364.327145,-3404.947333,0.000000
1230.540751,-8364.327145,-3182.885551,-842.705048
1230.541071,-8586.388927,-1554.432478,-919.314598
1230.541392,-8882.471304,0.000000,-612.876398
1230.541713,-9400.615463,1184.329507,459.657299
1230.542034,-10288.862594,1110.308913,1149.143247
1230.542355,-10436.903782,888.247130,995.924147
1230.542675,-11103.089130,-148.041188,1991.848295
1230.542996,-10658.965565,0.000000,2298.286494
1230.543317,-10214.842000,-740.205942,1455.581446
1230.543638,-9474.636058,-1036.288319,995.924147
1230.543958,-8956.491898,-1776.494261,229.828649
1230.544279,-8142.265362,-1702.473667,-995.924147
1230.544600,-8882.471304,-592.164754,-919.314598
1230.544921,-9030.512492,1184.329507,-153.219100
1230.545242,-9548.656652,1406.391290,383.047749
1230.545562,-9918.759623,666.185348,1225.752797
1230.545883,-10066.800811,0.000000,1608.800546
1230.546204,-9992.780217,-962.267725,1149.143247
1230.546525,-10510.924376,-888.247130,1762.019645
1230.546845,-10140.821405,-370.102971,2451.505594
1230.547166,-9770.718434,-444.123565,2068.457845
1230.547487,-9474.636058,-1036.288319,1455.581446
1230.547808,-8586.388927,-1110.308913,76.609550
1230.548128,-8586.388927,-370.102971,-153.219100
1230.548449,-9400.615463,1110.308913,0.000000
1230.548770,-9252.574275,2368.659014,229.828649
1230.549091,-9844.739029,2664.741391,1149.143247
1230.549412,-10658.965565,2220.617826,1762.019645
1230.549732,-10362.883188,1036.288319,1762.019645
1230.550053,-10436.903782,-222.061783,1991.848295
1230.550374,-10510.924376,-296.082377,2604.724693
1230.550695,-10436.903782,-1036.288319,2834.553343
1230.551015,-9400.615463,-1554.432478,2604.724693
1230.551336,-9178.553681,-2664.741391,1532.190996
1230.551657,-8068.244768,-2516.700203,229.828649
1230.551978,-8734.430116,-1924.535449,0.000000
1230.552299,-8956.491898,370.102971,1149.143247
1230.552619,-9622.677246,1480.411884,1149.143247
1230.552940,-9696.697840,1628.453072,1455.581446
1230.553261,-10288.862594,1258.350101,1225.752797
1230.553582,-10436.903782,1480.411884,153.219100
1230.553902,-10881.027347,518.144159,1072.533697
1230.554223,-10510.924376,0.000000,1838.629195
1230.554544,-10140.821405,-592.164754,1991.848295
1230.554865,-9696.697840,-2146.597232,1302.362347
1230.555185,-8808.450710,-2590.720797,-153.219100
1230.555506,-8290.306550,-2368.659014,-1302.362347
1230.555827,-8586.388927,-962.267725,-1378.971896
1230.556148,-8660.409521,1258.350101,-612.876398
1230.556469,-8956.491898,1924.535449,0.000000
1230.556789,-9918.759623,1628.453072,459.657299
1230.557110,-10140.821405,444.123565,536.266849
1230.557431,-10214.842000,-370.102971,842.705048
1230.557752,-11621.233289,74.020594,2681.334243
1230.558072,-10362.883188,-370.102971,2298.286494
1230.558393,-9770.718434,-1110.308913,2145.067394
1230.558714,-9474.636058,-2072.576638,1225.752797
1230.559035,-8216.285956,-2368.659014,-229.828649
1230.559356,-8364.327145,-1184.329507,-842.705048
1230.559676,-8956.491898,592.164754,-153.219100
1230.559997,-9474.636058,1628.453072,383.047749
1230.560318,-9474.636058,1110.308913,842.705048
1230.560639,-9918.759623,-370.102971,1072.533697
1230.560959,-9474.636058,-592.164754,995.924147
1230.561280,-10362.883188,-888.247130,1532.190996
1230.561601,-10140.821405,-148.041188,2451.505594
1230.561922,-9548.656652,-1776.494261,2221.676944
1230.562242,-9474.636058,-2294.638420,1915.238745
1230.562563,-8808.450710,-2960.823768,995.924147
1230.562884,-8734.430116,-2812.782580,229.828649
1230.563205,-9326.594869,-1628.453072,766.095498
1230.563526,-9622.677246,0.000000,995.924147
1230.563846,-9474.636058,1184.329507,1378.971896
1230.564167,-10362.883188,1480.411884,2451.505594
1230.564488,-10658.965565,592.164754,2757.943793
1230.564809,-9992.780217,-888.247130,2451.505594
1230.565129,-10436.903782,-1110.308913,2451.505594
1230.565450,-9992.780217,-888.247130,3140.991542
1230.565771,-9252.574275,-1406.391290,2374.896044
1230.566092,-9104.533087,-1850.514855,2298.286494
1230.566413,-8068.244768,-2146.597232,1149.143247
1230.566733,-8734.430116,-1776.494261,229.828649
1230.567054,-9030.512492,0.000000,689.485948
1230.567375,-9474.636058,962.267725,1225.752797
1230.567696,-8956.491898,1184.329507,2451.505594
1230.568016,-10214.842000,814.226536,1378.971896
1230.568337,-9770.718434,444.123565,536.266849
1230.568658,-10362.883188,74.020594,1225.752797
1230.568979,-10288.862594,666.185348,2374.896044
1230.569299,-10436.903782,0.000000,2221.676944
1230.569620,-9770.718434,-814.226536,2298.286494
1230.569941,-9622.677246,-1850.514855,1072.533697
1230.570262,-9030.512492,-2516.700203,536.266849
1230.570583,-9770.718434,-1554.432478,0.000000
1230.570903,-9178.553681,-962.267725,536.266849
1230.571224,-9474.636058,592.164754,536.266849
1230.571545,-9474.636058,1184.329507,536.266849
1230.571866,-9844.739029,1184.329507,383.047749
1230.572186,-9696.697840,814.226536,689.485948
1230.572507,-10362.883188,592.164754,536.266849
1230.572828,-9992.780217,444.123565,842.705048
1230.573149,-9474.636058,0.000000,459.657299
1230.573470,-9844.739029,-1554.432478,153.219100
1230.573790,-8290.306550,-1702.473667,-229.828649
1230.574111,-9326.594869,-1480.411884,-383.047749
1230.574432,-9252.574275,-148.041188,-383.047749
1230.574753,-9326.594869,888.247130,-1149.143247
1230.575073,-10288.862594,814.226536,919.314598
1230.575394,-9844.739029,1184.329507,1302.362347
1230.575715,-11103.089130,148.041188,1302.362347
1230.576036,-9770.718434,74.020594,1072.533697
1230.576356,-9918.759623,148.041188,1225.752797
1230.576677,-10362.883188,74.020594,1762.019645
1230.576998,-9696.697840,-296.082377,1991.848295
1230.577319,-9918.759623,-1554.432478,1532.190996
1230.577640,-9030.512492,-1924.535449,0.000000
1230.577960,-8586.388927,-1110.308913,-766.095498
1230.578281,-9400.615463,814.226536,76.609550
1230.578602,-9474.636058,2664.741391,612.876398
1230.578923,-10214.842000,3330.926739,1302.362347
1230.579243,-9992.780217,1850.514855,1455.581446
1230.579564,-9844.739029,592.164754,1302.362347
1230.579885,-10584.944971,-814.226536,1915.238745
1230.580206,-9918.759623,-962.267725,3140.991542
1230.580527,-9918.759623,-1184.329507,2911.162892
1230.580847,-9178.553681,-2072.576638,2681.334243
1230.581168,-8882.471304,-2664.741391,2068.457845
1230.581489,-8364.327145,-2368.659014,766.095498
1230.581810,-8364.327145,-1554.432478,766.095498
1230.582130,-9178.553681,148.041188,842.705048
1230.582451,-9400.615463,1184.329507,1302.362347
1230.582772,-9474.636058,1110.308913,1225.752797
1230.583093,-10140.821405,74.020594,919.314598
1230.583413,-9918.759623,0.000000,1685.410096
1230.583734,-10436.903782,-148.041188,1685.410096
1230.584055,-10214.842000,-518.144159,2298.286494
1230.584376,-9844.739029,-1332.370696,2145.067394
1230.584697,-9696.697840,-2220.617826,1532.190996
1230.585017,-8808.450710,-2664.741391,536.266849
1230.585338,-8512.368333,-2368.659014,-766.095498
1230.585659,-8956.491898,-296.082377,-612.876398
1230.585980,-9252.574275,1258.350101,-153.219100
1230.586300,-9474.636058,1554.432478,612.876398
1230.586621,-10066.800811,518.144159,919.314598
1230.586942,-9992.780217,-148.041188,1072.533697
1230.587263,-10436.903782,-666.185348,306.438199
1230.587584,-10658.965565,-592.164754,1762.019645
1230.587904,-10288.862594,-814.226536,2145.067394
1230.588225,-9474.636058,-1036.288319,1685.410096
1230.588546,-9474.636058,-1776.494261,536.266849
1230.588867,-8290.306550,-1850.514855,-383.047749
1230.589187,-9326.594869,-1702.473667,-536.266849
1230.589508,-9104.533087,-148.041188,-306.438199
1230.589829,-9770.718434,592.164754,229.828649
1230.590150,-9622.677246,1332.370696,612.876398
1230.590470,-10140.821405,444.123565,536.266849
1230.590791,-10436.903782,296.082377,1072.533697
1230.591112,-10510.924376,0.000000,1302.362347
1230.591433,-10732.986159,0.000000,2451.505594
1230.591754,-10436.903782,-1036.288319,2528.115143
1230.592074,-9696.697840,-2072.576638,1532.190996
1230.592395,-9252.574275,-2368.659014,612.876398
1230.592716,-8660.409521,-2072.576638,-612.876398
1230.593037,-8660.409521,-370.102971,0.000000
1230.593357,-9622.677246,1480.411884,766.095498
1230.593678,-9770.718434,2220.617826,1072.533697
1230.593999,-10362.883188,1998.556043,1762.019645
1230.594320,-10732.986159,370.102971,536.266849
1230.594641,-10510.924376,222.061783,1685.410096
1230.594961,-10658.965565,0.000000,2221.676944
1230.595282,-9918.759623,-296.082377,2068.457845
1230.595603,-9252.574275,-1480.411884,1149.143247
1230.595924,-8586.388927,-2072.576638,612.876398
1230.596244,-8142.265362,-2664.741391,-306.438199
1230.596565,-8438.347739,-1110.308913,-383.047749
1230.596886,-8882.471304,148.041188,306.438199
1230.597207,-9326.594869,1406.391290,919.314598
1230.597527,-9622.677246,1628.453072,1455.581446
1230.597848,-10066.800811,1036.288319,1378.971896
1230.598169,-9918.759623,518.144159,1302.362347
1230.598490,-10436.903782,0.000000,1532.190996
1230.598811,-10140.821405,-148.041188,2451.505594
1230.599131,-9918.759623,-1184.329507,2221.676944
1230.599452,-9326.594869,-1924.535449,1915.238745
1230.599773,-8956.491898,-2220.617826,1225.752797
1230.600094,-8364.327145,-2146.597232,76.609550
1230.600414,-8438.347739,-740.205942,-229.828649
1230.600735,-8882.471304,888.247130,612.876398
1230.601056,-9178.553681,1850.514855,919.314598
1230.601377,-10066.800811,1850.514855,1762.019645
1230.601698,-10066.800811,222.061783,1532.190996
1230.602018,-10066.800811,-740.205942,1302.362347
1230.602339,-10214.842000,-518.144159,1378.971896
1230.602660,-10732.986159,222.061783,1608.800546
1230.602981,-9992.780217,-222.061783,2221.676944
1230.603302,-9548.656652,-1184.329507,1225.752797
1230.603622,-9030.512492,-1924.535449,153.219100
1230.603943,-8660.409521,-1924.535449,-766.095498
1230.604264,-9178.553681,-962.267725,-306.438199
1230.604585,-9770.718434,518.144159,306.438199
1230.604905,-9622.677246,1036.288319,1072.533697
1230.605226,-10214.842000,222.061783,1149.143247
1230.605547,-10362.883188,-222.061783,1685.410096
1230.605868,-10362.883188,-666.185348,919.314598
1230.606189,-10658.965565,0.000000,1608.800546
1230.606509,-10362.883188,-222.061783,1838.629195
1230.606830,-9474.636058,-1480.411884,1838.629195
1230.607151,-9474.636058,-2220.617826,612.876398
1230.607472,-8808.450710,-2072.576638,-229.828649
1230.607792,-8956.491898,-1480.411884,-306.438199
1230.608113,-9178.553681,0.000000,76.609550
1230.608434,-9252.574275,1036.288319,0.000000
1230.608755,-9548.656652,1406.391290,612.876398
1230.609076,-10066.800811,1184.329507,1378.971896
1230.609396,-9992.780217,518.144159,1532.190996
1230.609717,-10584.944971,-518.144159,1838.629195
1230.610038,-10288.862594,-518.144159,2834.553343
1230.610359,-10140.821405,-1332.370696,2987.772442
1230.610679,-9474.636058,-2368.659014,2604.724693
1230.611000,-8660.409521,-3775.050304,306.438199
1230.611321,-7920.203579,-2886.803174,0.000000
1230.611642,-8438.347739,-1332.370696,-689.485948
1230.611963,-8808.450710,2516.700203,1225.752797
1230.612283,-9992.780217,1480.411884,1302.362347
1230.612604,-9252.574275,1850.514855,2068.457845
1230.612925,-10214.842000,-444.123565,919.314598
1230.613246,-9992.780217,-888.247130,1225.752797
1230.613567,-10214.842000,-444.123565,1762.019645
1230.613887,-11621.233289,740.205942,2911.162892
1230.614208,-9474.636058,-444.123565,2374.896044
1230.614529,-9104.533087,-1406.391290,1302.362347
1230.614850,-8882.471304,-1554.432478,536.266849
1230.615170,-8512.368333,-1554.432478,-459.657299
1230.615491,-9178.553681,-222.061783,0.000000
1230.615812,-9548.656652,1258.350101,612.876398
1230.616133,-9474.636058,2146.597232,1149.143247
1230.616454,-10510.924376,1184.329507,1685.410096
1230.616774,-10140.821405,296.082377,1532.190996
1230.617095,-10658.965565,0.000000,1838.629195
1230.617416,-10955.047942,-518.144159,2374.896044
1230.617737,-10362.883188,-592.164754,2298.286494
1230.618057,-9474.636058,-1332.370696,1685.410096
1230.618378,-9178.553681,-1554.432478,612.876398
1230.618699,-8142.265362,-1554.432478,-459.657299
1230.619020,-8660.409521,-296.082377,-536.266849
1230.619341,-9400.615463,1184.329507,459.657299
1230.619661,-9696.697840,1924.535449,919.314598
1230.619982,-9622.677246,1110.308913,1225.752797
1230.620303,-10214.842000,74.020594,689.485948
1230.620624,-9918.759623,0.000000,919.314598
1230.620945,-10362.883188,-370.102971,1532.190996
1230.621265,-10140.821405,-148.041188,2298.286494
1230.621586,-9918.759623,-1110.308913,1915.238745
1230.621907,-9400.615463,-1924.535449,1072.533697
1230.622228,-9104.533087,-1406.391290,-229.828649
1230.622548,-9030.512492,-1110.308913,-383.047749
1230.622869,-9030.512492,74.020594,76.609550
1230.623190,-8956.491898,1110.308913,383.047749
1230.623511,-9474.636058,1258.350101,459.657299
1230.623832,-9844.739029,518.144159,1455.581446
1230.624152,-9770.718434,-222.061783,1455.581446
1230.624473,-10288.862594,-740.205942,1991.848295
1230.624794,-10140.821405,-962.267725,2374.896044
1230.625115,-9622.677246,-1184.329507,2374.896044
1230.625435,-9474.636058,-1480.411884,2451.505594
1230.625756,-9104.533087,-2590.720797,1378.971896
1230.626077,-8290.306550,-2368.659014,0.000000
1230.626398,-7698.141797,-1332.370696,0.000000
1230.626719,-9252.574275,814.226536,612.876398
1230.627039,-9548.656652,2072.576638,1149.143247
1230.627360,-9770.718434,2294.638420,1072.533697
1230.627681,-10288.862594,1036.288319,1455.581446
1230.628002,-10510.924376,-740.205942,459.657299
1230.628322,-10436.903782,-148.041188,1532.190996
1230.628643,-10732.986159,-1332.370696,1838.629195
1230.628964,-9178.553681,-74.020594,2145.067394
1230.629285,-10140.821405,-1184.329507,2451.505594
1230.629606,-8882.471304,-1776.494261,766.095498
1230.629926,-8364.327145,-1850.514855,153.219100
1230.630247,-9474.636058,-1110.308913,76.609550
1230.630568,-8068.244768,222.061783,0.000000
1230.630889,-9844.739029,1776.494261,1149.143247
1230.631210,-9844.739029,1702.473667,1838.629195
1230.631530,-10066.800811,1036.288319,1455.581446
1230.631851,-10584.944971,-222.061783,76.609550
1230.632172,-10214.842000,-740.205942,1685.410096
1230.632493,-10214.842000,-740.205942,1915.238745
1230.632813,-9918.759623,-1702.473667,1838.629195
1230.633134,-9400.615463,-1850.514855,1149.143247
1230.633455,-8734.430116,-1628.453072,0.000000
1230.633776,-8512.368333,-1332.370696,-459.657299
1230.634097,-9104.533087,888.247130,153.219100
1230.634417,-9622.677246,1036.288319,1149.143247
1230.634738,-9252.574275,1258.350101,766.095498
1230.635059,-10140.821405,0.000000,766.095498
1230.635380,-9622.677246,-814.226536,612.876398
1230.635700,-10214.842000,-1036.288319,1149.143247
1230.636021,-10214.842000,-1036.288319,1608.800546
1230.636342,-9770.718434,-296.082377,1762.019645
1230.636663,-9474.636058,-740.205942,1762.019645
1230.636984,-9326.594869,-2072.576638,919.314598
1230.637304,-8660.409521,-2368.659014,-459.657299
1230.637625,-9178.553681,-1554.432478,-842.705048
1230.637946,-9030.512492,296.082377,0.000000
1230.638267,-9548.656652,1628.453072,536.266849
1230.638588,-9918.759623,1628.453072,1532.190996
1230.638908,-9918.759623,-148.041188,1378.971896
1230.639229,-9696.697840,-444.123565,1225.752797
1230.639550,-10584.944971,-962.267725,1455.581446
1230.639871,-10288.862594,-814.226536,2451.505594
1230.640191,-10214.842000,-1628.453072,2528.115143
1230.640512,-9252.574275,-2220.617826,2374.896044
1230.640833,-8586.388927,-2368.659014,76.609550
1230.641154,-8586.388927,-1998.556043,-306.438199
1230.641475,-8956.491898,-222.061783,0.000000
1230.641795,-9548.656652,1406.391290,919.314598
1230.642116,-9696.697840,2368.659014,1378.971896
1230.642437,-10362.883188,1850.514855,842.705048
1230.642758,-10066.800811,1036.288319,689.485948
1230.643078,-10066.800811,0.000000,306.438199
1230.643399,-10584.944971,222.061783,1838.629195
1230.643720,-10362.883188,-296.082377,2374.896044
1230.644041,-9400.615463,-1258.350101,1608.800546
1230.644362,-8808.450710,-2146.597232,1838.629195
1230.644682,-8438.347739,-1998.556043,-842.705048
1230.645003,-8512.368333,-1184.329507,-919.314598
1230.645324,-8734.430116,444.123565,-306.438199
1230.645645,-9252.574275,1184.329507,689.485948
1230.645965,-9622.677246,666.185348,1302.362347
1230.646286,-10436.903782,148.041188,1991.848295
1230.646607,-10881.027347,-666.185348,2451.505594
1230.646928,-10881.027347,-740.205942,2604.724693
1230.647249,-10510.924376,-962.267725,3140.991542
1230.647569,-9548.656652,-1332.370696,2298.286494
1230.647890,-8512.368333,-1332.370696,2145.067394
1230.648211,-9030.512492,-2072.576638,689.485948
1230.648532,-7624.121203,-1554.432478,-383.047749
1230.648853,-8512.368333,-888.247130,-459.657299
1230.649173,-9178.553681,888.247130,0.000000
1230.649494,-9400.615463,1332.370696,766.095498
1230.649815,-10288.862594,962.267725,1762.019645
1230.650136,-10140.821405,444.123565,1455.581446
1230.650456,-10140.821405,-370.102971,995.924147
1230.650777,-10955.047942,296.082377,2068.457845
1230.651098,-10658.965565,148.041188,2068.457845
1230.651419,-9770.718434,0.000000,1378.971896
1230.651740,-9326.594869,-1776.494261,1072.533697
1230.652060,-8216.285956,-1702.473667,-459.657299
1230.652381,-8882.471304,-1184.329507,-919.314598
1230.652702,-8956.491898,518.144159,1149.143247
1230.653023,-9622.677246,2072.576638,766.095498
1230.653343,-10362.883188,2368.659014,2068.457845
1230.653664,-10881.027347,1332.370696,2451.505594
1230.653985,-10436.903782,148.041188,2451.505594
1230.654306,-10658.965565,-962.267725,2681.334243
1230.654627,-10584.944971,-1036.288319,2757.943793
1230.654947,-9770.718434,-1184.329507,2451.505594
1230.655268,-9104.533087,-2146.597232,1608.800546
1230.655589,-8364.327145,-1924.535449,0.000000
1230.655910,-8142.265362,-2220.617826,-995.924147
1230.656231,-8512.368333,-592.164754,-842.705048
1230.656551,-9252.574275,962.267725,536.266849
1230.656872,-9474.636058,1258.350101,1378.971896
1230.657193,-10214.842000,740.205942,995.924147
1230.657514,-10288.862594,-296.082377,1149.143247
1230.657834,-10436.903782,-1480.411884,842.705048
1230.658155,-10658.965565,-666.185348,1225.752797
1230.658476,-10732.986159,-592.164754,2145.067394
1230.658797,-9918.759623,-296.082377,1838.629195
1230.659118,-9696.697840,-1184.329507,1762.019645
1230.659438,-8364.327145,-2146.597232,-153.219100
1230.659759,-7846.182985,-1480.411884,-1149.143247
1230.660080,-9104.533087,-296.082377,-383.047749
1230.660401,-8660.409521,1258.350101,-153.219100
1230.660721,-9918.759623,1480.411884,842.705048
1230.661042,-9992.780217,962.267725,766.095498
1230.661363,-10362.883188,222.061783,1225.752797
1230.661684,-10214.842000,-592.164754,1378.971896
1230.662005,-10732.986159,-666.185348,2681.334243
1230.662325,-10214.842000,-740.205942,2604.724693
1230.662646,-9770.718434,-1628.453072,2145.067394
1230.662967,-9030.512492,-2294.638420,919.314598
1230.663288,-8438.347739,-2294.638420,229.828649
1230.663608,-8660.409521,-1628.453072,-306.438199
1230.663929,-9548.656652,888.247130,-1149.143247
1230.664250,-9474.636058,1850.514855,766.095498
1230.664571,-10066.800811,1776.494261,842.705048
1230.664892,-10140.821405,1184.329507,766.095498
1230.665212,-10362.883188,296.082377,1072.533697
1230.665533,-10214.842000,74.020594,1072.533697
1230.665854,-10584.944971,74.020594,2451.505594
1230.666175,-10362.883188,-296.082377,2451.505594
1230.666496,-9770.718434,-1036.288319,2145.067394
1230.666816,-9474.636058,-1628.453072,383.047749
1230.667137,-8660.409521,-1480.411884,0.000000
1230.667458,-9178.553681,-888.247130,-306.438199
1230.667779,-8956.491898,888.247130,459.657299
1230.668099,-9918.759623,2072.576638,-383.047749
1230.668420,-9992.780217,1110.308913,1149.143247
1230.668741,-10140.821405,296.082377,1685.410096
1230.669062,-10214.842000,-814.226536,1685.410096
1230.669383,-10362.883188,-888.247130,2298.286494
1230.669703,-10066.800811,-1184.329507,3140.991542
1230.670024,-9992.780217,-1554.432478,2757.943793
1230.670345,-9326.594869,-2442.679609,1915.238745
1230.670666,-8438.347739,-2516.700203,689.485948
1230.670986,-8512.368333,-1776.494261,0.000000
1230.671307,-8734.430116,0.000000,0.000000
1230.671628,-9400.615463,1036.288319,536.266849
1230.671949,-9400.615463,888.247130,995.924147
1230.672270,-9548.656652,1258.350101,0.000000
1230.672590,-9770.718434,0.000000,459.657299
1230.672911,-10066.800811,296.082377,1072.533697
1230.673232,-10807.006753,370.102971,2298.286494
1230.673553,-10362.883188,222.061783,3524.039291
1230.673874,-9474.636058,-888.247130,1838.629195
1230.674194,-9474.636058,-1628.453072,842.705048
1230.674515,-8808.450710,-1924.535449,76.609550
1230.674836,-9178.553681,-1924.535449,-153.219100
1230.675157,-8438.347739,-296.082377,459.657299
1230.675477,-9400.615463,814.226536,306.438199
1230.675798,-10140.821405,1480.411884,1455.581446
1230.676119,-10732.986159,592.164754,2068.457845
1230.676440,-10436.903782,-518.144159,995.924147
1230.676761,-10955.047942,-74.020594,1762.019645
1230.677081,-10436.903782,-518.144159,2068.457845
1230.677402,-9844.739029,-1184.329507,2068.457845
1230.677723,-9474.636058,-2368.659014,919.314598
1230.678044,-8438.347739,-2664.741391,0.000000
1230.678364,-8142.265362,-1924.535449,-842.705048
1230.678685,-8808.450710,0.000000,0.000000
1230.679006,-9622.677246,1406.391290,766.095498
1230.679327,-9770.718434,1332.370696,1685.410096
1230.679648,-10066.800811,74.020594,1685.410096
1230.679968,-9992.780217,-518.144159,1225.752797
1230.680289,-10436.903782,-740.205942,1608.800546
1230.680610,-10881.027347,0.000000,1838.629195
1230.680931,-10288.862594,-148.041188,2834.553343
1230.681251,-9400.615463,-592.164754,2221.676944
1230.681572,-8808.450710,-1480.411884,1302.362347
1230.681893,-8586.388927,-1406.391290,229.828649
1230.682214,-9104.533087,-1184.329507,-76.609550
1230.682535,-8956.491898,0.000000,229.828649
1230.682855,-9030.512492,1184.329507,842.705048
1230.683176,-9474.636058,1110.308913,1532.190996
1230.683497,-10066.800811,592.164754,2068.457845
1230.683818,-10066.800811,-666.185348,1838.629195
1230.684139,-10288.862594,-962.267725,1915.238745
1230.684459,-9770.718434,-814.226536,1991.848295
1230.684780,-10066.800811,0.000000,3294.210641
1230.685101,-9326.594869,-1406.391290,2145.067394
1230.685422,-8586.388927,-2072.576638,229.828649
1230.685742,-8216.285956,-1702.473667,-306.438199
1230.686063,-8734.430116,-518.144159,-459.657299
1230.686384,-9030.512492,592.164754,383.047749
1230.686705,-10214.842000,1480.411884,1149.143247
1230.687026,-10214.842000,888.247130,919.314598
1230.687346,-9992.780217,592.164754,919.314598
1230.687667,-9770.718434,1554.432478,689.485948
1230.687988,-10436.903782,222.061783,1685.410096
1230.688309,-10140.821405,0.000000,1915.238745
1230.688629,-9918.759623,-740.205942,1378.971896
1230.688950,-9474.636058,-1924.535449,842.705048
1230.689271,-8808.450710,-2146.597232,-153.219100
1230.689592,-8808.450710,-1406.391290,-612.876398
1230.689913,-9326.594869,0.000000,0.000000
1230.690233,-9326.594869,1554.432478,153.219100
1230.690554,-9474.636058,1110.308913,1302.362347
1230.690875,-10288.862594,962.267725,1762.019645
1230.691196,-10362.883188,370.102971,2221.676944
1230.691517,-10584.944971,-518.144159,2451.505594
1230.691837,-11399.171507,370.102971,2298.286494
1230.692158,-9770.718434,-1184.329507,2451.505594
1230.692479,-9326.594869,-1628.453072,1915.238745
1230.692800,-9030.512492,-2220.617826,1225.752797
1230.693120,-8660.409521,-2072.576638,612.876398
1230.693441,-8882.471304,-888.247130,153.219100
1230.693762,-9400.615463,592.164754,612.876398
1230.694083,-9770.718434,1776.494261,1302.362347
1230.694404,-10066.800811,1628.453072,1072.533697
1230.694724,-10510.924376,1480.411884,229.828649
1230.695045,-9770.718434,444.123565,-76.609550
1230.695366,-9474.636058,1184.329507,842.705048
1230.695687,-10881.027347,0.000000,1685.410096
1230.696007,-9696.697840,-888.247130,1072.533697
1230.696328,-9474.636058,-1850.514855,689.485948
1230.696649,-9178.553681,-2442.679609,229.828649
1230.696970,-8364.327145,-2294.638420,-536.266849
1230.697291,-9178.553681,-592.164754,76.609550
1230.697611,-9178.553681,1036.288319,612.876398
1230.697932,-9252.574275,1184.329507,842.705048
1230.698253,-10066.800811,740.205942,2298.286494
1230.698574,-9474.636058,-740.205942,689.485948
1230.698894,-10066.800811,-1184.329507,919.314598
1230.699215,-10510.924376,-1184.329507,2298.286494
1230.699536,-9844.739029,-666.185348,2604.724693
1230.699857,-9918.759623,-1110.308913,2374.896044
1230.700177,-9548.656652,-2738.761985,1532.190996
1230.700498,-8290.306550,-1184.329507,306.438199
1230.700819,-9400.615463,-1184.329507,0.000000
1230.701140,-8956.491898,1184.329507,0.000000
1230.701460,-9696.697840,1702.473667,612.876398
1230.701781,-9474.636058,1850.514855,306.438199
1230.702102,-10362.883188,1480.411884,919.314598
1230.702422,-10066.800811,148.041188,995.924147
1230.702743,-10140.821405,-148.041188,766.095498
1230.703064,-10066.800811,-444.123565,2145.067394
1230.703385,-9696.697840,-740.205942,1762.019645
1230.703705,-9770.718434,-1036.288319,1838.629195
1230.704026,-9622.677246,-2220.617826,1302.362347
1230.704347,-8734.430116,-1850.514855,0.000000
1230.704667,-9104.533087,-888.247130,-306.438199
1230.704988,-8808.450710,814.226536,0.000000
1230.705309,-9622.677246,2146.597232,995.924147
1230.705630,-10362.883188,1480.411884,2068.457845
1230.705950,-9622.677246,518.144159,1149.143247
1230.706271,-9622.677246,74.020594,1072.533697
1230.706592,-10807.006753,-296.082377,2298.286494
1230.706912,-9992.780217,-296.082377,2757.943793
1230.707233,-9844.739029,-1406.391290,3064.381992
1230.707554,-9400.615463,-2368.659014,1915.238745
1230.707875,-8438.347739,-2516.700203,0.000000
1230.708195,-8660.409521,-2072.576638,0.000000
1230.708516,-8956.491898,-740.205942,459.657299
1230.708837,-9178.553681,962.267725,995.924147
1230.709157,-9548.656652,1110.308913,1378.971896
1230.709478,-9844.739029,296.082377,1072.533697
1230.709799,-9622.677246,0.000000,612.876398
1230.710120,-9474.636058,-370.102971,1378.971896
1230.710440,-10066.800811,0.000000,2298.286494
1230.710761,-10066.800811,-444.123565,2298.286494
1230.711082,-9474.636058,-1480.411884,1915.238745
1230.711402,-9030.512492,-2738.761985,2298.286494
1230.711723,-8660.409521,-1924.535449,76.609550
1230.712044,-9252.574275,-1258.350101,0.000000
1230.712365,-8956.491898,370.102971,229.828649
1230.712685,-9252.574275,1110.308913,229.828649
1230.713006,-9992.780217,740.205942,919.314598
1230.713327,-10066.800811,222.061783,1762.019645
1230.713647,-10066.800811,-666.185348,1455.581446
1230.713968,-10436.903782,-814.226536,1991.848295
1230.714289,-9770.718434,-592.164754,2221.676944
1230.714610,-10066.800811,-1110.308913,2451.505594
1230.714930,-9474.636058,-1998.556043,1915.238745
1230.715251,-8956.491898,-2738.761985,536.266849
1230.715572,-8068.244768,-2294.638420,0.000000
1230.715892,-8882.471304,-1110.308913,-153.219100
1230.716213,-9326.594869,888.247130,459.657299
1230.716534,-9844.739029,1406.391290,919.314598
1230.716855,-9992.780217,1258.350101,1225.752797
1230.717175,-9844.739029,740.205942,919.314598
1230.717496,-10436.903782,222.061783,1149.143247
1230.717817,-10881.027347,-148.041188,1838.629195
1230.718137,-10362.883188,-518.144159,2528.115143
1230.718458,-10362.883188,-1258.350101,1455.581446
1230.718779,-9326.594869,-2368.659014,995.924147
1230.719100,-8512.368333,-2368.659014,-306.438199
1230.719420,-8512.368333,-1628.453072,-766.095498
1230.719741,-8734.430116,1406.391290,-612.876398
1230.720062,-9252.574275,2220.617826,-229.828649
1230.720382,-9844.739029,2590.720797,612.876398
1230.720703,-10288.862594,1406.391290,1455.581446
1230.721024,-10214.842000,222.061783,1378.971896
1230.721345,-10288.862594,-1110.308913,1762.019645
1230.721665,-9992.780217,-1332.370696,2298.286494
1230.721986,-9770.718434,-1406.391290,2298.286494
1230.722307,-9252.574275,-1776.494261,2145.067394
1230.722627,-8512.368333,-2294.638420,459.657299
1230.722948,-7772.162391,-1480.411884,0.000000
1230.723269,-8734.430116,-296.082377,-76.609550
1230.723590,-8882.471304,1184.329507,612.876398
1230.723910,-9548.656652,1480.411884,1149.143247
1230.724231,-9770.718434,962.267725,1685.410096
1230.724552,-10066.800811,-222.061783,1072.533697
1230.724872,-9992.780217,-518.144159,1072.533697
1230.725193,-10658.965565,-222.061783,1991.848295
1230.725514,-10658.965565,222.061783,2911.162892
1230.725835,-10140.821405,-296.082377,2451.505594
1230.726155,-9474.636058,-1332.370696,1608.800546
1230.726476,-8734.430116,-1998.556043,0.000000
1230.726797,-8512.368333,-1332.370696,-1455.581446
1230.727117,-8586.388927,370.102971,-383.047749
1230.727438,-8956.491898,1480.411884,0.000000
1230.727759,-9400.615463,2072.576638,766.095498
1230.728080,-10362.883188,888.247130,919.314598
1230.728400,-10436.903782,888.247130,1838.629195
1230.728721,-11621.233289,-370.102971,2451.505594
1230.729042,-11103.089130,-518.144159,2757.943793
1230.729362,-10288.862594,-1036.288319,3370.820191
1230.729683,-10214.842000,-2072.576638,2604.724693
1230.730004,-8882.471304,-2738.761985,1838.629195
1230.730325,-8142.265362,-2368.659014,612.876398
1230.730645,-8882.471304,-1554.432478,-536.266849
1230.730966,-8364.327145,1480.411884,-689.485948
1230.731287,-9474.636058,1998.556043,689.485948
1230.731608,-9474.636058,2072.576638,1455.581446
1230.731928,-10066.800811,740.205942,842.705048
1230.732249,-8364.327145,-518.144159,1991.848295
1230.732570,-10362.883188,-740.205942,1302.362347
1230.732890,-9992.780217,-1184.329507,1762.019645
1230.733211,-10066.800811,-1554.432478,1915.238745
1230.733532,-9030.512492,-1924.535449,1302.362347
1230.733853,-8586.388927,-2738.761985,-306.438199
1230.734173,-8438.347739,-2220.617826,-995.924147
1230.734494,-8142.265362,-1036.288319,-1225.752797
1230.734815,-9178.553681,740.205942,-306.438199
1230.735135,-9918.759623,1702.473667,689.485948
1230.735456,-9992.780217,1184.329507,2068.457845
1230.735777,-10140.821405,-296.082377,1455.581446
1230.736098,-10658.965565,-1110.308913,1838.629195
1230.736418,-11325.150913,-592.164754,2834.553343
1230.736739,-10807.006753,-592.164754,3677.258390
1230.737060,-10214.842000,-1406.391290,2987.772442
1230.737380,-9030.512492,-1998.556043,1762.019645
1230.737701,-8216.285956,-2886.803174,229.828649
1230.738022,-8068.244768,-1258.350101,-919.314598
1230.738343,-9178.553681,148.041188,-383.047749
1230.738663,-9326.594869,1702.473667,153.219100
1230.738984,-9474.636058,1998.556043,229.828649
1230.739305,-9474.636058,1184.329507,76.609550
1230.739625,-10362.883188,444.123565,459.657299
1230.739946,-10658.965565,370.102971,1302.362347
1230.740267,-11251.130318,222.061783,2528.115143
1230.740588,-10510.924376,-888.247130,3447.429741
1230.740908,-9992.780217,-1998.556043,2145.067394
1230.741229,-9474.636058,-2812.782580,689.485948
1230.741550,-8808.450710,-2516.700203,-459.657299
1230.741870,-8808.450710,-740.205942,1149.143247
1230.742191,-9104.533087,1036.288319,-76.609550
1230.742512,-9252.574275,1998.556043,153.219100
1230.742833,-9770.718434,1480.411884,842.705048
1230.743153,-9770.718434,222.061783,919.314598
1230.743474,-9844.739029,-444.123565,919.314598
1230.743795,-10807.006753,-370.102971,1915.238745
1230.744115,-10436.903782,0.000000,2987.772442
1230.744436,-10066.800811,-592.164754,3217.601092
1230.744757,-9918.759623,-2368.659014,1838.629195
1230.745078,-8290.306550,-2664.741391,383.047749
1230.745398,-8512.368333,-1702.473667,0.000000
1230.745719,-9030.512492,222.061783,383.047749
1230.746040,-9178.553681,1776.494261,1532.190996
1230.746360,-9326.594869,1998.556043,1532.190996
1230.746681,-9474.636058,1110.308913,1378.971896
1230.747002,-9548.656652,0.000000,383.047749
1230.747323,-10214.842000,-370.102971,1302.362347
1230.747643,-10658.965565,-222.061783,2451.505594
1230.747964,-10288.862594,-666.185348,2757.943793
1230.748285,-9326.594869,-1258.350101,1838.629195
1230.748605,-9178.553681,-2072.576638,766.095498
1230.748926,-8216.285956,-2368.659014,-1378.971896
1230.749247,-9178.553681,-1110.308913,0.000000
1230.749568,-9252.574275,296.082377,0.000000
1230.749888,-9252.574275,1184.329507,153.219100
1230.750209,-9844.739029,1480.411884,689.485948
1230.750530,-9992.780217,370.102971,1455.581446
1230.750850,-10288.862594,-296.082377,1608.800546
1230.751171,-10658.965565,-740.205942,1532.190996
1230.751492,-10066.800811,-1184.329507,1532.190996
1230.751813,-9770.718434,-1850.514855,1608.800546
1230.752133,-9474.636058,-2368.659014,1838.629195
1230.752454,-8956.491898,-2368.659014,612.876398
1230.752775,-8586.388927,-1924.535449,-153.219100
1230.753095,-8882.471304,-592.164754,-1685.410096
1230.753416,-9474.636058,592.164754,612.876398
1230.753737,-9622.677246,1110.308913,1225.752797
1230.754058,-10362.883188,740.205942,1378.971896
1230.754378,-10288.862594,0.000000,995.924147
1230.754699,-10362.883188,74.020594,689.485948
1230.755020,-10732.986159,592.164754,2068.457845
1230.755340,-10214.842000,148.041188,1991.848295
1230.755661,-9918.759623,-666.185348,1762.019645
1230.755982,-9400.615463,-1924.535449,1225.752797
1230.756303,-8660.409521,-2368.659014,229.828649
1230.756623,-8660.409521,-2146.597232,-459.657299
1230.756944,-9030.512492,296.082377,306.438199
1230.757265,-8808.450710,666.185348,1149.143247
1230.757585,-9474.636058,1702.473667,1225.752797
1230.757906,-10140.821405,962.267725,1455.581446
1230.758227,-10214.842000,74.020594,1455.581446
1230.758548,-10955.047942,-222.061783,1685.410096
1230.758868,-10436.903782,-370.102971,2374.896044
1230.759189,-9992.780217,-1036.288319,2145.067394
1230.759510,-9252.574275,-1924.535449,1685.410096
1230.759830,-8660.409521,-2442.679609,0.000000
1230.760151,-8216.285956,-1702.473667,-766.095498
1230.760472,-8660.409521,-444.123565,-766.095498
1230.760793,-8660.409521,1406.391290,536.266849
1230.761113,-9474.636058,2294.638420,1608.800546
1230.761434,-10214.842000,1184.329507,689.485948
1230.761755,-9844.739029,518.144159,1072.533697
1230.762075,-9992.780217,-148.041188,1532.190996
1230.762396,-10658.965565,-592.164754,2298.286494
1230.762717,-10214.842000,-222.061783,2987.772442
1230.763038,-9918.759623,-1036.288319,2528.115143
1230.763358,-9326.594869,-1628.453072,1915.238745
1230.763679,-8808.450710,-1924.535449,0.000000
1230.764000,-8956.491898,-1110.308913,0.000000
1230.764320,-9252.574275,370.102971,1072.533697
1230.764641,-9474.636058,1776.494261,919.314598
1230.764962,-9474.636058,1924.535449,1608.800546
1230.765283,-10140.821405,814.226536,1608.800546
1230.765603,-10288.862594,-740.205942,1149.143247
1230.765924,-10584.944971,-1110.308913,1762.019645
1230.766245,-10140.821405,-962.267725,1915.238745
1230.766565,-10066.800811,-740.205942,2298.286494
1230.766886,-9622.677246,-888.247130,1991.848295
1230.767207,-8956.491898,-1554.432478,766.095498
1230.767528,-8364.327145,-1554.432478,-229.828649
1230.767848,-8956.491898,-814.226536,-612.876398
1230.768169,-9400.615463,814.226536,383.047749
1230.768490,-9622.677246,888.247130,1378.971896
1230.768810,-10066.800811,1110.308913,1378.971896
1230.769131,-9992.780217,444.123565,689.485948
1230.769452,-10140.821405,74.020594,842.705048
1230.769773,-10140.821405,444.123565,2451.505594
1230.770093,-10066.800811,-296.082377,1915.238745
1230.770414,-9770.718434,-888.247130,1302.362347
1230.770735,-9252.574275,-2146.597232,1072.533697
1230.771055,-8882.471304,-3182.885551,306.438199
1230.771376,-8216.285956,-2738.761985,-153.219100
1230.771697,-8586.388927,-1184.329507,-306.438199
1230.772018,-8956.491898,740.205942,229.828649
1230.772338,-9252.574275,1702.473667,1072.533697
1230.772659,-9918.759623,740.205942,842.705048
1230.772980,-9474.636058,74.020594,1149.143247
1230.773300,-10066.800811,-370.102971,1149.143247
1230.773621,-10362.883188,0.000000,1991.848295
1230.773942,-9992.780217,-518.144159,1838.629195
1230.774263,-9474.636058,-962.267725,2298.286494
1230.774583,-9104.533087,-2072.576638,1455.581446
1230.774904,-8660.409521,-2590.720797,-76.609550
1230.775225,-8882.471304,-1258.350101,-229.828649
1230.775545,-9252.574275,740.205942,229.828649
1230.775866,-9622.677246,1998.556043,919.314598
1230.776187,-9326.594869,1406.391290,1225.752797
1230.776508,-10140.821405,1036.288319,1149.143247
1230.776828,-10288.862594,0.000000,689.485948
1230.777149,-10362.883188,0.000000,842.705048
1230.777470,-10288.862594,814.226536,1915.238745
1230.777790,-10881.027347,-370.102971,1915.238745
1230.778111,-9030.512492,74.020594,1302.362347
1230.778432,-9474.636058,-1998.556043,536.266849
1230.778753,-8438.347739,-1184.329507,-689.485948
1230.779073,-9474.636058,-740.205942,-383.047749
1230.779394,-9474.636058,962.267725,153.219100
1230.779715,-9474.636058,1850.514855,1072.533697
1230.780035,-9844.739029,1332.370696,1072.533697
1230.780356,-9770.718434,740.205942,1302.362347
1230.780677,-10436.903782,-296.082377,1455.581446
1230.780998,-10436.903782,-962.267725,1915.238745
1230.781318,-9992.780217,-1258.350101,2528.115143
1230.781639,-9474.636058,-2072.576638,2145.067394
1230.781960,-9474.636058,-2442.679609,1455.581446
1230.782281,-7994.224174,-2738.761985,1762.019645
1230.782601,-8586.388927,-1036.288319,0.000000
1230.782922,-9474.636058,444.123565,229.828649
1230.783243,-9548.656652,2146.597232,536.266849
1230.783563,-9548.656652,1850.514855,1072.533697
1230.783884,-10214.842000,1036.288319,1149.143247
1230.784205,-9622.677246,148.041188,766.095498
1230.784526,-10288.862594,-296.082377,612.876398
1230.784846,-10066.800811,148.041188,1685.410096
1230.785167,-9844.739029,-148.041188,2068.457845
1230.785488,-9252.574275,-1406.391290,2145.067394
1230.785808,-9252.574275,-2442.679609,1225.752797
1230.786129,-8882.471304,-2664.741391,459.657299
1230.786450,-9252.574275,-962.267725,153.219100
1230.786771,-9252.574275,-296.082377,995.924147
1230.787091,-9252.574275,740.205942,1302.362347
1230.787412,-9474.636058,444.123565,1685.410096
1230.787733,-9918.759623,0.000000,1455.581446
1230.788053,-9992.780217,-222.061783,1685.410096
1230.788374,-10584.944971,-148.041188,1838.629195
1230.788695,-10510.924376,296.082377,2604.724693
1230.789016,-10288.862594,-148.041188,2374.896044
1230.789336,-10066.800811,-1554.432478,1455.581446
1230.789657,-8882.471304,-2812.782580,229.828649
1230.789978,-8660.409521,-2516.700203,-153.219100
1230.790298,-9178.553681,-962.267725,-306.438199
1230.790619,-9622.677246,74.020594,1225.752797
1230.790940,-9622.677246,666.185348,1225.752797
1230.791261,-9992.780217,222.061783,842.705048
1230.791581,-10140.821405,-370.102971,842.705048
1230.791902,-10214.842000,-518.144159,842.705048
1230.792223,-10658.965565,0.000000,2145.067394
1230.792543,-10288.862594,-222.061783,1991.848295
1230.792864,-9622.677246,-814.226536,1455.581446
1230.793185,-9474.636058,-1850.514855,995.924147
1230.793506,-8882.471304,-1850.514855,0.000000
1230.793826,-8956.491898,-814.226536,-766.095498
1230.794147,-9252.574275,1110.308913,0.000000
1230.794468,-9326.594869,2072.576638,76.609550
1230.794788,-9622.677246,1776.494261,919.314598
1230.795109,-10214.842000,888.247130,1072.533697
1230.795430,-9770.718434,-222.061783,689.485948
1230.795751,-10362.883188,-962.267725,1072.533697
1230.796071,-10214.842000,-888.247130,1685.410096
1230.796392,-9844.739029,-1036.288319,2451.505594
1230.796713,-9474.636058,-1702.473667,1915.238745
1230.797033,-8956.491898,-2368.659014,1072.533697
1230.797354,-8068.244768,-2294.638420,-229.828649
1230.797675,-8956.491898,-296.082377,-306.438199
1230.797996,-9326.594869,518.144159,0.000000
1230.798316,-9178.553681,2220.617826,612.876398
1230.798637,-9918.759623,2294.638420,1225.752797
1230.798958,-10288.862594,2590.720797,536.266849
1230.799278,-9918.759623,444.123565,766.095498
1230.799599,-10658.965565,-148.041188,1915.238745
1230.799920,-9844.739029,-740.205942,2221.676944
1230.800241,-9770.718434,-1036.288319,2068.457845
1230.800561,-10066.800811,-1776.494261,2451.505594
1230.800882,-9030.512492,-1924.535449,689.485948
1230.801203,-8734.430116,-888.247130,306.438199
1230.801523,-9252.574275,-444.123565,-229.828649
1230.801844,-8216.285956,2442.679609,459.657299
1230.802165,-10807.006753,1110.308913,1149.143247
1230.802486,-9474.636058,2146.597232,2604.724693
1230.802806,-10066.800811,74.020594,1838.629195
1230.803127,-10881.027347,814.226536,4136.915689
1230.803448,-9992.780217,0.000000,2221.676944
1230.803768,-10658.965565,-296.082377,3140.991542
1230.804089,-9844.739029,-1184.329507,2987.772442
1230.804410,-8660.409521,-2590.720797,229.828649
1230.804731,-8586.388927,-1924.535449,-229.828649
1230.805051,-8364.327145,-888.247130,-766.095498
1230.805372,-9252.574275,1702.473667,383.047749
1230.805693,-9992.780217,2220.617826,1608.800546
1230.806013,-9992.780217,666.185348,842.705048
1230.806334,-10288.862594,0.000000,995.924147
1230.806655,-10140.821405,-740.205942,842.705048
1230.806976,-10658.965565,-814.226536,1991.848295
1230.807296,-10436.903782,-962.267725,2987.772442
1230.807617,-9770.718434,-962.267725,2145.067394
1230.807938,-9400.615463,-1924.535449,1302.362347
1230.808258,-8586.388927,-2664.741391,153.219100
1230.808579,-8586.388927,-2368.659014,-536.266849
1230.808900,-8438.347739,-518.144159,-536.266849
1230.809221,-8438.347739,888.247130,-919.314598
1230.809541,-9030.512492,2294.638420,0.000000
1230.809862,-9474.636058,1702.473667,306.438199
1230.810183,-9326.594869,518.144159,1762.019645
1230.810503,-10288.862594,-444.123565,1455.581446
1230.810824,-10288.862594,-1184.329507,1838.629195
1230.811145,-10732.986159,-1702.473667,2604.724693
1230.811466,-10140.821405,-2442.679609,3140.991542
1230.811786,-9030.512492,-2738.761985,1685.410096
1230.812107,-8956.491898,-1998.556043,766.095498
1230.812428,-8660.409521,-1776.494261,-306.438199
1230.812748,-8660.409521,444.123565,76.609550
1230.813069,-9474.636058,222.061783,306.438199
1230.813390,-8734.430116,2072.576638,459.657299
1230.813711,-10732.986159,592.164754,842.705048
1230.814031,-9844.739029,740.205942,536.266849
1230.814352,-10584.944971,666.185348,2451.505594
1230.814673,-10955.047942,518.144159,2145.067394
1230.814993,-10288.862594,444.123565,2298.286494
1230.815314,-10362.883188,-1110.308913,2145.067394
1230.815635,-9844.739029,-2146.597232,1149.143247
1230.815956,-8290.306550,-2590.720797,-842.705048
1230.816276,-9178.553681,-592.164754,-459.657299
1230.816597,-9030.512492,962.267725,0.000000
1230.816918,-9474.636058,2294.638420,383.047749
1230.817238,-9548.656652,2368.659014,1838.629195
1230.817559,-10066.800811,888.247130,995.924147
1230.817880,-10436.903782,222.061783,1455.581446
1230.818201,-11251.130318,-370.102971,2604.724693
1230.818521,-10881.027347,-222.061783,3677.258390
1230.818842,-10955.047942,-1036.288319,3217.601092
1230.819163,-9548.656652,-2664.741391,2528.115143
1230.819483,-8438.347739,-2516.700203,1302.362347
1230.819804,-8882.471304,-1776.494261,536.266849
1230.820125,-9104.533087,0.000000,1149.143247
1230.820446,-9104.533087,222.061783,1302.362347
1230.820766,-8882.471304,518.144159,1072.533697
1230.821087,-9474.636058,-444.123565,612.876398
1230.821408,-9326.594869,-148.041188,229.828649
1230.821728,-9696.697840,-148.041188,1608.800546
1230.822049,-9622.677246,148.041188,1915.238745
1230.822370,-9696.697840,0.000000,2068.457845
1230.822691,-9474.636058,-1332.370696,1532.190996
1230.823011,-9770.718434,-222.061783,842.705048
1230.823332,-8956.491898,-2368.659014,306.438199
1230.823653,-9178.553681,-1184.329507,0.000000
1230.823973,-9474.636058,148.041188,306.438199
1230.824294,-9030.512492,1998.556043,766.095498
1230.824615,-9770.718434,1184.329507,919.314598
1230.824936,-9992.780217,888.247130,1302.362347
1230.825256,-9622.677246,-666.185348,919.314598
1230.825577,-10807.006753,-1332.370696,1608.800546
1230.825898,-10436.903782,-962.267725,2451.505594
1230.826218,-9918.759623,-2220.617826,2068.457845
1230.826539,-9474.636058,-1924.535449,1915.238745
1230.826860,-8956.491898,-2590.720797,612.876398
1230.827181,-8216.285956,-3108.864956,-383.047749
1230.827501,-9252.574275,-296.082377,0.000000
1230.827822,-9400.615463,1258.350101,0.000000
1230.828143,-9992.780217,1480.411884,536.266849
1230.828463,-10362.883188,1184.329507,459.657299
1230.828784,-10140.821405,814.226536,0.000000
1230.829105,-10510.924376,444.123565,459.657299
1230.829426,-10807.006753,0.000000,1685.410096
1230.829746,-10066.800811,-666.185348,1838.629195
1230.830067,-9844.739029,-1850.514855,1532.190996
1230.830388,-9252.574275,-2664.741391,536.266849
1230.830708,-8734.430116,-2220.617826,-153.219100
1230.831029,-9030.512492,-1406.391290,0.000000
1230.831350,-8586.388927,296.082377,-229.828649
1230.831671,-9326.594869,1332.370696,766.095498
1230.831991,-9622.677246,1258.350101,1072.533697
1230.832312,-9918.759623,814.226536,995.924147
1230.832633,-10214.842000,518.144159,1149.143247
1230.832953,-10584.944971,0.000000,1532.190996
1230.833274,-10214.842000,0.000000,2528.115143
1230.833595,-10140.821405,-740.205942,2987.772442
1230.833916,-9400.615463,-2294.638420,2374.896044
1230.834236,-8956.491898,-3330.926739,1378.971896
1230.834557,-8290.306550,-2812.782580,0.000000
1230.834878,-8216.285956,-1184.329507,0.000000
1230.835198,-9104.533087,1332.370696,919.314598
1230.835519,-9770.718434,2812.782580,536.266849
1230.835840,-10066.800811,1850.514855,1685.410096
1230.836161,-10214.842000,666.185348,1378.971896
1230.836481,-10362.883188,296.082377,1378.971896
1230.836802,-10955.047942,0.000000,2221.676944
1230.837123,-10436.903782,592.164754,2528.115143
1230.837443,-9992.780217,370.102971,2451.505594
1230.837764,-9474.636058,-296.082377,1685.410096
1230.838085,-8512.368333,-888.247130,383.047749
1230.838406,-8660.409521,0.000000,-153.219100
1230.838726,-9178.553681,0.000000,0.000000
1230.839047,-9104.533087,1332.370696,229.828649
1230.839368,-9622.677246,1702.473667,1225.752797
1230.839688,-9548.656652,962.267725,2374.896044
1230.840009,-10140.821405,0.000000,1455.581446
1230.840330,-10732.986159,-1110.308913,1378.971896
1230.840651,-10510.924376,-1184.329507,2145.067394
1230.840971,-10732.986159,-814.226536,3294.210641
1230.841292,-9770.718434,-1554.432478,2145.067394
1230.841613,-9252.574275,-2368.659014,842.705048
1230.841933,-7994.224174,-2368.659014,-1072.533697
1230.842254,-7846.182985,-1110.308913,-1532.190996
1230.842575,-8586.388927,740.205942,-459.657299
1230.842896,-9474.636058,1776.494261,459.657299
1230.843216,-9918.759623,1406.391290,1149.143247
1230.843537,-10436.903782,444.123565,1072.533697
1230.843858,-11029.068536,-296.082377,689.485948
1230.844178,-10732.986159,370.102971,1838.629195
1230.844499,-10955.047942,444.123565,2834.553343
1230.844820,-10362.883188,0.000000,2987.772442
1230.845141,-9474.636058,-1184.329507,2528.115143
1230.845461,-9030.512492,-2664.741391,689.485948
1230.845782,-8290.306550,-2960.823768,-459.657299
1230.846103,-8882.471304,-1702.473667,-229.828649
1230.846423,-8660.409521,518.144159,76.609550
1230.846744,-9326.594869,1776.494261,766.095498
1230.847065,-9770.718434,814.226536,1378.971896
1230.847386,-9622.677246,0.000000,1455.581446
1230.847706,-10140.821405,-666.185348,1608.800546
1230.848027,-10732.986159,-962.267725,1378.971896
1230.848348,-10214.842000,-1258.350101,2987.772442
1230.848668,-9622.677246,-2368.659014,2604.724693
1230.848989,-9104.533087,-3478.967927,1149.143247
1230.849310,-7994.224174,-3330.926739,-153.219100
1230.849631,-8290.306550,-2220.617826,-536.266849
1230.849951,-9104.533087,0.000000,0.000000
1230.850272,-9474.636058,1924.535449,612.876398
1230.850593,-10288.862594,1554.432478,1072.533697
1230.850913,-10140.821405,1628.453072,612.876398
1230.851234,-10066.800811,-518.144159,0.000000
1230.851555,-10066.800811,148.041188,689.485948
1230.851876,-11029.068536,-296.082377,1991.848295
1230.852196,-10436.903782,888.247130,1532.190996
1230.852517,-9770.718434,-518.144159,1685.410096
1230.852838,-9252.574275,-1480.411884,766.095498
1230.853158,-8660.409521,-1332.370696,-306.438199
1230.853479,-9696.697840,-518.144159,-536.266849
1230.853800,-8882.471304,888.247130,0.000000
1230.854121,-9474.636058,1332.370696,153.219100
1230.854441,-9992.780217,888.247130,842.705048
1230.854762,-10140.821405,148.041188,689.485948
1230.855083,-10436.903782,-74.020594,689.485948
1230.855403,-10510.924376,74.020594,1762.019645
1230.855724,-10510.924376,666.185348,2528.115143
1230.856045,-10066.800811,296.082377,2451.505594
1230.856366,-9770.718434,-1258.350101,2221.676944
1230.856686,-8808.450710,-1924.535449,229.828649
1230.857007,-8438.347739,-2072.576638,-689.485948
1230.857328,-9030.512492,-444.123565,-153.219100
1230.857648,-9474.636058,1332.370696,1072.533697
1230.857969,-9622.677246,1406.391290,1608.800546
1230.858290,-9696.697840,1406.391290,1302.362347
1230.858611,-9844.739029,296.082377,842.705048
1230.858931,-10140.821405,0.000000,1378.971896
1230.859252,-10436.903782,-518.144159,1915.238745
1230.859573,-9992.780217,-814.226536,2374.896044
1230.859893,-9474.636058,-1480.411884,2221.676944
1230.860214,-9030.512492,-2294.638420,1455.581446
1230.860535,-8364.327145,-1702.473667,153.219100
1230.860856,-9030.512492,-1110.308913,153.219100
1230.861176,-9178.553681,740.205942,459.657299
1230.861497,-9400.615463,1924.535449,842.705048
1230.861818,-9918.759623,1628.453072,1685.410096
1230.862138,-9918.759623,296.082377,2068.457845
1230.862459,-9992.780217,-444.123565,1838.629195
1230.862780,-10658.965565,-1184.329507,2298.286494
1230.863101,-10066.800811,-1184.329507,2681.334243
1230.863421,-9622.677246,-2146.597232,2298.286494
1230.863742,-9474.636058,-2516.700203,2221.676944
1230.864063,-8882.471304,-2664.741391,689.485948
1230.864383,-8512.368333,-1554.432478,76.609550
1230.864704,-9178.553681,-518.144159,536.266849
1230.865025,-9474.636058,1036.288319,919.314598
1230.865346,-9622.677246,1332.370696,766.095498
1230.865666,-10362.883188,148.041188,689.485948
1230.865987,-9918.759623,0.000000,306.438199
1230.866308,-10436.903782,-222.061783,612.876398
1230.866628,-10955.047942,222.061783,1838.629195
1230.866949,-10362.883188,148.041188,1915.238745
1230.867270,-9992.780217,-444.123565,1915.238745
1230.867590,-9326.594869,-1480.411884,689.485948
1230.867911,-8734.430116,-2220.617826,-306.438199
1230.868232,-9030.512492,-1628.453072,-766.095498
1230.868553,-8956.491898,-370.102971,-459.657299
1230.868873,-8068.244768,296.082377,612.876398
1230.869194,-9326.594869,1184.329507,459.657299
1230.869515,-9844.739029,0.000000,766.095498
1230.869835,-9992.780217,-518.144159,689.485948
1230.870156,-10436.903782,-666.185348,919.314598
1230.870477,-10140.821405,-814.226536,1762.019645
1230.870798,-9992.780217,-962.267725,1838.629195
1230.871118,-9548.656652,-1850.514855,1685.410096
1230.871439,-9030.512492,-1998.556043,766.095498
1230.871760,-8586.388927,-1998.556043,-459.657299
1230.872080,-9252.574275,-592.164754,0.000000
1230.872401,-9474.636058,740.205942,995.924147
1230.872722,-9474.636058,888.247130,1072.533697
1230.873043,-8882.471304,1332.370696,2298.286494
1230.873363,-9844.739029,148.041188,1072.533697
1230.873684,-9844.739029,0.000000,995.924147
1230.874005,-10510.924376,518.144159,2068.457845
1230.874325,-10584.944971,518.144159,2681.334243
1230.874646,-9992.780217,-518.144159,2451.505594
1230.874967,-9400.615463,-1998.556043,1991.848295
1230.875288,-8956.491898,-2442.679609,766.095498
1230.875608,-8586.388927,-1554.432478,536.266849
1230.875929,-8882.471304,370.102971,1072.533697
1230.876250,-9400.615463,2368.659014,1149.143247
1230.876570,-9548.656652,3701.029710,1532.190996
1230.876891,-10955.047942,1776.494261,2451.505594
1230.877212,-9326.594869,444.123565,3983.696590
1230.877533,-10732.986159,-962.267725,2374.896044
1230.877853,-10214.842000,-1332.370696,2451.505594
1230.878174,-9992.780217,-1332.370696,2987.772442
1230.878495,-9474.636058,-1924.535449,2834.553343
1230.878815,-8290.306550,-2368.659014,1608.800546
1230.879136,-8216.285956,-2220.617826,229.828649
1230.879457,-8438.347739,-1110.308913,-306.438199
1230.879778,-8956.491898,518.144159,383.047749
1230.880098,-10066.800811,1776.494261,1838.629195
1230.880419,-10140.821405,1776.494261,2068.457845
1230.880740,-10436.903782,296.082377,1532.190996
1230.881060,-10214.842000,0.000000,842.705048
1230.881381,-11029.068536,222.061783,536.266849
1230.881702,-10584.944971,0.000000,1762.019645
1230.882023,-9622.677246,0.000000,1915.238745
1230.882343,-9770.718434,-1184.329507,689.485948
1230.882664,-8808.450710,-1554.432478,-1378.971896
1230.882985,-8512.368333,-1406.391290,-1302.362347
1230.883305,-9104.533087,-740.205942,-766.095498
1230.883626,-8660.409521,296.082377,0.000000
1230.883947,-9252.574275,592.164754,459.657299
1230.884268,-9548.656652,0.000000,1302.362347
1230.884588,-9474.636058,-1036.288319,153.219100
1230.884909,-9770.718434,-740.205942,612.876398
1230.885230,-9770.718434,-592.164754,1455.581446
1230.885550,-10140.821405,-370.102971,2681.334243
1230.885871,-9844.739029,-962.267725,1915.238745
1230.886192,-9178.553681,-2368.659014,842.705048
1230.886513,-8586.388927,-2664.741391,-766.095498
1230.886833,-8956.491898,-1258.350101,-1149.143247
1230.887154,-9400.615463,148.041188,0.000000
1230.887475,-9326.594869,1776.494261,383.047749
1230.887795,-9992.780217,1480.411884,766.095498
1230.888116,-9844.739029,1110.308913,612.876398
1230.888437,-10066.800811,370.102971,1302.362347
1230.888758,-11103.089130,0.000000,1302.362347
1230.889078,-10436.903782,370.102971,1915.238745
1230.889399,-10140.821405,148.041188,2145.067394
1230.889720,-10362.883188,-222.061783,1915.238745
1230.890040,-9474.636058,-1332.370696,919.314598
1230.890361,-9178.553681,-1776.494261,-229.828649
1230.890682,-9030.512492,-518.144159,-919.314598
1230.891003,-9252.574275,1406.391290,-306.438199
1230.891323,-9474.636058,2220.617826,995.924147
1230.891644,-10288.862594,2220.617826,1838.629195
1230.891965,-10288.862594,888.247130,2221.676944
1230.892285,-10362.883188,-222.061783,2145.067394
1230.892606,-10584.944971,-1332.370696,2757.943793
1230.892927,-10362.883188,-1850.514855,3524.039291
1230.893248,-9770.718434,-2368.659014,3677.258390
1230.893568,-9030.512492,-2812.782580,2681.334243
1230.893889,-8290.306550,-4145.153275,153.219100
1230.894210,-7846.182985,-2590.720797,0.000000
1230.894530,-8586.388927,-592.164754,459.657299
1230.894851,-9400.615463,1036.288319,1225.752797
1230.895172,-9400.615463,1850.514855,1608.800546
1230.895493,-9770.718434,962.267725,1378.971896
1230.895813,-9696.697840,-296.082377,842.705048
1230.896134,-10140.821405,-296.082377,1838.629195
1230.896455,-10881.027347,-592.164754,2221.676944
1230.896775,-9696.697840,-592.164754,2451.505594
1230.897096,-9400.615463,-1628.453072,1378.971896
1230.897417,-9030.512492,-2072.576638,766.095498
1230.897738,-8438.347739,-1924.535449,-842.705048
1230.898058,-8882.471304,-518.144159,-1532.190996
1230.898379,-8586.388927,1554.432478,0.000000
1230.898700,-9326.594869,1332.370696,0.000000
1230.899020,-9918.759623,1628.453072,1532.190996
1230.899341,-9992.780217,-592.164754,2911.162892
1230.899662,-9918.759623,-1258.350101,689.485948
1230.899983,-10732.986159,-1036.288319,995.924147
1230.900303,-9918.759623,-222.061783,1378.971896
1230.900624,-10436.903782,-148.041188,2221.676944
1230.900945,-9622.677246,-740.205942,1838.629195
1230.901265,-9104.533087,-1702.473667,689.485948
1230.901586,-9104.533087,-2220.617826,0.000000
1230.901907,-9474.636058,-962.267725,536.266849
1230.902228,-10658.965565,814.226536,229.828649
1230.902549,-10214.842000,518.144159,2145.067394
1230.902869,-10214.842000,444.123565,2221.676944
1230.903190,-10584.944971,-666.185348,1532.190996
1230.903511,-9844.739029,-740.205942,459.657299
1230.903832,-10288.862594,0.000000,842.705048
1230.904153,-10510.924376,370.102971,1455.581446
1230.904473,-9474.636058,-518.144159,1302.362347
1230.904794,-9252.574275,-1258.350101,995.924147
1230.905115,-7698.141797,-1850.514855,-306.438199
1230.905436,-8808.450710,-1850.514855,-842.705048
1230.905757,-8734.430116,-444.123565,0.000000
1230.906077,-9252.574275,666.185348,229.828649
1230.906398,-9252.574275,1924.535449,1608.800546
1230.906719,-9918.759623,296.082377,1455.581446
1230.907040,-10140.821405,148.041188,1455.581446
1230.907361,-10436.903782,-592.164754,1838.629195
1230.907682,-10140.821405,-666.185348,2145.067394
1230.908002,-9770.718434,-888.247130,2911.162892
1230.908323,-9104.533087,-1776.494261,1838.629195
1230.908644,-8808.450710,-2368.659014,842.705048
1230.908965,-7920.203579,-1924.535449,-306.438199
1230.909286,-8364.327145,-296.082377,-1455.581446
1230.909606,-9326.594869,1332.370696,689.485948
1230.909927,-9918.759623,2072.576638,1762.019645
1230.910248,-10066.800811,1480.411884,1378.971896
1230.910569,-10214.842000,148.041188,2298.286494
1230.910890,-10214.842000,-370.102971,995.924147
1230.911210,-10584.944971,148.041188,1455.581446
1230.911531,-10584.944971,592.164754,2374.896044
1230.911852,-9992.780217,-296.082377,1685.410096
1230.912173,-9252.574275,-1332.370696,1225.752797
1230.912494,-9400.615463,-2146.597232,-459.657299
1230.912814,-8660.409521,-1406.391290,-1225.752797
1230.913135,-9400.615463,0.000000,-689.485948
1230.913456,-9474.636058,1332.370696,0.000000
1230.913777,-9844.739029,2220.617826,689.485948
1230.914098,-10436.903782,1110.308913,1225.752797
1230.914418,-10214.842000,0.000000,1225.752797
1230.914739,-10510.924376,-1036.288319,1685.410096
1230.915060,-10436.903782,-1036.288319,1455.581446
1230.915381,-9844.739029,-592.164754,1838.629195
1230.915702,-8808.450710,-518.144159,1225.752797
1230.916022,-8808.450710,-1702.473667,689.485948
1230.916343,-8438.347739,-1332.370696,0.000000
1230.916664,-8586.388927,-888.247130,-306.438199
1230.916985,-9474.636058,148.041188,842.705048
1230.917306,-10362.883188,1332.370696,1915.238745
1230.917626,-9770.718434,592.164754,2451.505594
1230.917947,-10732.986159,666.185348,2451.505594
1230.918268,-9770.718434,0.000000,1685.410096
1230.918589,-9992.780217,-74.020594,1838.629195
1230.918910,-10214.842000,148.041188,1532.190996
1230.919230,-9474.636058,-592.164754,2451.505594
1230.919551,-8808.450710,-1406.391290,2068.457845
1230.919872,-8364.327145,-2146.597232,459.657299
1230.920193,-8364.327145,-1850.514855,0.000000
1230.920514,-8438.347739,-962.267725,229.828649
1230.920834,-8956.491898,518.144159,689.485948
1230.921155,-9474.636058,962.267725,1149.143247
1230.921476,-10436.903782,296.082377,1455.581446
1230.921797,-10214.842000,-222.061783,612.876398
1230.922118,-10584.944971,-888.247130,1455.581446
1230.922438,-10584.944971,-518.144159,1762.019645
1230.922759,-10362.883188,-296.082377,2451.505594
1230.923080,-9326.594869,-740.205942,2834.553343
1230.923401,-9104.533087,-2368.659014,766.095498
1230.923722,-8216.285956,-3034.844362,-383.047749
1230.924042,-8290.306550,-2146.597232,-1608.800546
1230.924363,-8808.450710,74.020594,-536.266849
1230.924684,-9178.553681,1776.494261,459.657299
1230.925005,-9696.697840,1850.514855,1455.581446
1230.925326,-10807.006753,370.102971,1072.533697
1230.925646,-9770.718434,-148.041188,612.876398
1230.925967,-11251.130318,-1036.288319,766.095498
1230.926288,-10288.862594,0.000000,1915.238745
1230.926609,-10510.924376,-296.082377,2681.334243
1230.926930,-9844.739029,-740.205942,1991.848295
1230.927250,-9104.533087,-1332.370696,1302.362347
1230.927571,-8808.450710,-1628.453072,-306.438199
1230.927892,-9252.574275,-1110.308913,-153.219100
1230.928213,-9548.656652,0.000000,76.609550
1230.928534,-9326.594869,1184.329507,612.876398
1230.928854,-10066.800811,1628.453072,842.705048
1230.929175,-10214.842000,518.144159,1072.533697
1230.929496,-10066.800811,370.102971,995.924147
1230.929817,-10510.924376,148.041188,1762.019645
1230.930138,-10584.944971,222.061783,1915.238745
1230.930458,-9992.780217,-296.082377,2757.943793
1230.930779,-9400.615463,-2220.617826,2451.505594
1230.931100,-8438.347739,-2738.761985,766.095498
1230.931421,-8364.327145,-1998.556043,-536.266849
1230.931742,-8808.450710,-370.102971,459.657299
1230.932062,-9030.512492,1036.288319,1149.143247
1230.932383,-9326.594869,814.226536,1302.362347
1230.932704,-9696.697840,518.144159,1072.533697
1230.933025,-9622.677246,370.102971,1302.362347
1230.933346,-10066.800811,0.000000,1072.533697
1230.933666,-9992.780217,444.123565,2298.286494
1230.933987,-10214.842000,0.000000,2681.334243
1230.934308,-10066.800811,-592.164754,2451.505594
1230.934629,-9474.636058,-2294.638420,1149.143247
1230.934950,-8364.327145,-2516.700203,383.047749
1230.935270,-8660.409521,-1924.535449,-76.609550
1230.935591,-9178.553681,0.000000,0.000000
1230.935912,-9474.636058,1702.473667,383.047749
1230.936233,-9770.718434,1480.411884,1072.533697
1230.936554,-9918.759623,740.205942,1149.143247
1230.936874,-10066.800811,-148.041188,1378.971896
1230.937195,-10658.965565,-592.164754,1915.238745
1230.937516,-10362.883188,-814.226536,2221.676944
1230.937837,-9770.718434,-1110.308913,2374.896044
1230.938158,-9548.656652,-1924.535449,1608.800546
1230.938478,-9252.574275,-2960.823768,612.876398
1230.938799,-8956.491898,-2294.638420,153.219100
1230.939120,-9030.512492,-1184.329507,-383.047749
1230.939441,-9474.636058,444.123565,612.876398
1230.939762,-9696.697840,1554.432478,1302.362347
1230.940082,-10436.903782,1110.308913,1762.019645
1230.940403,-9992.780217,0.000000,919.314598
1230.940724,-9622.677246,0.000000,383.047749
1230.941045,-10288.862594,444.123565,1455.581446
1230.941366,-10362.883188,444.123565,2911.162892
1230.941686,-9770.718434,0.000000,2451.505594
1230.942007,-9474.636058,-1628.453072,1685.410096
1230.942328,-8586.388927,-2220.617826,-229.828649
1230.942649,-8734.430116,-2220.617826,-919.314598
1230.942970,-9104.533087,0.000000,0.000000
1230.943290,-9474.636058,1184.329507,689.485948
1230.943611,-9548.656652,1332.370696,1225.752797
1230.943932,-9696.697840,740.205942,612.876398
1230.944253,-9770.718434,0.000000,919.314598
1230.944574,-10288.862594,-222.061783,1149.143247
1230.944894,-10436.903782,-148.041188,2374.896044
1230.945215,-10214.842000,-370.102971,2451.505594
1230.945536,-9400.615463,-1332.370696,1378.971896
1230.945857,-8660.409521,-1850.514855,459.657299
1230.946178,-8586.388927,-2072.576638,0.000000
1230.946498,-8512.368333,-814.226536,-383.047749
1230.946819,-9104.533087,592.164754,842.705048
1230.947140,-9326.594869,1406.391290,1149.143247
1230.947461,-9918.759623,370.102971,1455.581446
1230.947782,-10140.821405,-296.082377,1225.752797
1230.948102,-10066.800811,-740.205942,306.438199
1230.948423,-10288.862594,0.000000,1762.019645
1230.948744,-10510.924376,592.164754,2528.115143
1230.949065,-9844.739029,0.000000,2068.457845
1230.949386,-9474.636058,-1480.411884,1532.190996
1230.949706,-8808.450710,-2442.679609,0.000000
1230.950027,-8660.409521,-1776.494261,-689.485948
1230.950348,-9104.533087,444.123565,0.000000
1230.950669,-10066.800811,1924.535449,536.266849
1230.950990,-9918.759623,3404.947333,1225.752797
1230.951310,-9918.759623,1702.473667,1149.143247
1230.951631,-9918.759623,740.205942,995.924147
1230.951952,-10362.883188,-592.164754,919.314598
1230.952273,-10436.903782,-666.185348,1378.971896
1230.952594,-10066.800811,-518.144159,1838.629195
1230.952914,-9474.636058,-1036.288319,1915.238745
1230.953235,-9178.553681,-1850.514855,1225.752797
1230.953556,-9030.512492,-1702.473667,306.438199
1230.953877,-8882.471304,-666.185348,0.000000
1230.954198,-9104.533087,518.144159,229.828649
1230.954518,-9622.677246,1184.329507,689.485948
1230.954839,-9992.780217,814.226536,1072.533697
1230.955160,-10066.800811,-370.102971,1991.848295
1230.955481,-9844.739029,-888.247130,1149.143247
1230.955802,-10436.903782,-1110.308913,1455.581446
1230.956123,-10658.965565,-222.061783,2451.505594
1230.956443,-10066.800811,-296.082377,2987.772442
1230.956764,-9622.677246,-888.247130,2068.457845
1230.957085,-8660.409521,-1850.514855,689.485948
1230.957406,-8512.368333,-2072.576638,-229.828649
1230.957727,-8734.430116,-1332.370696,0.000000
1230.958047,-8734.430116,74.020594,536.266849
1230.958368,-9104.533087,888.247130,1532.190996
1230.958689,-9548.656652,444.123565,1838.629195
1230.959010,-9918.759623,-592.164754,1378.971896
1230.959331,-9252.574275,-1554.432478,2757.943793
1230.959651,-10288.862594,-888.247130,2221.676944
1230.959972,-10066.800811,-962.267725,2834.553343
1230.960293,-9548.656652,-1924.535449,2681.334243
1230.960614,-8882.471304,-2960.823768,1225.752797
1230.960935,-8364.327145,-2516.700203,76.609550
1230.961255,-8438.347739,-1258.350101,-306.438199
1230.961576,-8956.491898,1036.288319,0.000000
1230.961897,-9844.739029,2368.659014,842.705048
1230.962218,-9548.656652,2072.576638,1455.581446
1230.962539,-10288.862594,1554.432478,1225.752797
1230.962859,-10362.883188,-222.061783,229.828649
1230.963180,-10066.800811,-296.082377,766.095498
1230.963501,-10732.986159,-370.102971,995.924147
1230.963822,-9992.780217,-148.041188,1455.581446
1230.964143,-9844.739029,-444.123565,1455.581446
1230.964463,-9400.615463,-1850.514855,383.047749
1230.964784,-8882.471304,-2146.597232,-536.266849
1230.965105,-9474.636058,-1406.391290,-766.095498
1230.965426,-9104.533087,1110.308913,-383.047749
1230.965747,-9548.656652,1850.514855,229.828649
1230.966067,-10214.842000,1332.370696,995.924147
1230.966388,-9326.594869,222.061783,612.876398
1230.966709,-10288.862594,-814.226536,383.047749
1230.967030,-10066.800811,-666.185348,689.485948
1230.967351,-10214.842000,-296.082377,1532.190996
1230.967671,-10510.924376,0.000000,2451.505594
1230.967992,-9326.594869,-1036.288319,1072.533697
1230.968313,-9104.533087,-1332.370696,229.828649
1230.968634,-8438.347739,-1406.391290,-383.047749
1230.968955,-8364.327145,222.061783,-612.876398
1230.969275,-9474.636058,1702.473667,1455.581446
1230.969596,-9474.636058,1628.453072,1455.581446
1230.969917,-9474.636058,814.226536,1072.533697
1230.970238,-9770.718434,0.000000,1072.533697
1230.970559,-9622.677246,0.000000,995.924147
1230.970879,-10510.924376,296.082377,2451.505594
1230.971200,-10436.903782,222.061783,3064.381992
1230.971521,-9696.697840,-740.205942,2681.334243
1230.971842,-9030.512492,-1628.453072,1915.238745
1230.972163,-8808.450710,-2220.617826,383.047749
1230.972483,-9030.512492,-1702.473667,229.828649
1230.972804,-8512.368333,222.061783,766.095498
1230.973125,-9326.594869,1036.288319,1225.752797
1230.973446,-9474.636058,1850.514855,1455.581446
1230.973767,-9918.759623,444.123565,1532.190996
1230.974087,-9992.780217,-296.082377,1915.238745
1230.974408,-10510.924376,-666.185348,2374.896044
1230.974729,-9622.677246,-592.164754,3907.087040
1230.975050,-10288.862594,-1406.391290,3447.429741
1230.975371,-9474.636058,-2886.803174,2911.162892
1230.975691,-8734.430116,-3701.029710,1455.581446
1230.976012,-8734.430116,-3108.864956,766.095498
1230.976333,-8660.409521,-1554.432478,0.000000
1230.976654,-9548.656652,814.226536,766.095498
1230.976975,-9844.739029,1480.411884,1685.410096
1230.977295,-9770.718434,814.226536,1302.362347
1230.977616,-9992.780217,0.000000,1685.410096
1230.977937,-10362.883188,-1258.350101,1302.362347
1230.978258,-10288.862594,-1554.432478,1302.362347
1230.978579,-9992.780217,-518.144159,1915.238745
1230.978899,-10214.842000,-1480.411884,1685.410096
1230.979220,-8734.430116,-2220.617826,766.095498
1230.979541,-8364.327145,-3404.947333,-383.047749
1230.979862,-8586.388927,-2368.659014,-1378.971896
1230.980183,-8808.450710,-444.123565,-1225.752797
1230.980503,-9400.615463,1110.308913,-229.828649
1230.980824,-9474.636058,1776.494261,1072.533697
1230.981145,-10362.883188,444.123565,1225.752797
1230.981466,-10658.965565,-814.226536,1072.533697
1230.981787,-9992.780217,-1554.432478,536.266849
1230.982107,-10288.862594,-1332.370696,1532.190996
1230.982428,-10214.842000,-1036.288319,1991.848295
1230.982749,-9474.636058,-962.267725,1762.019645
1230.983070,-8660.409521,-1850.514855,1455.581446
1230.983391,-8512.368333,-1406.391290,-766.095498
1230.983711,-8734.430116,-666.185348,-536.266849
1230.984032,-9400.615463,296.082377,612.876398
1230.984353,-10140.821405,1036.288319,1685.410096
1230.984674,-9918.759623,1110.308913,1915.238745
1230.984995,-10658.965565,148.041188,2374.896044
1230.985315,-10436.903782,74.020594,1838.629195
1230.985636,-10658.965565,0.000000,2528.115143
1230.985957,-10436.903782,74.020594,3983.696590
1230.986278,-9770.718434,0.000000,2757.943793
1230.986599,-9326.594869,-1776.494261,1838.629195
1230.986919,-8512.368333,-2442.679609,536.266849
1230.987240,-8364.327145,-1776.494261,-76.609550
1230.987561,-8364.327145,444.123565,0.000000
1230.987882,-9178.553681,2220.617826,229.828649
1230.988203,-9326.594869,2960.823768,1302.362347
1230.988523,-9918.759623,2368.659014,1915.238745
1230.988844,-10510.924376,1184.329507,1915.238745
1230.989165,-10066.800811,-148.041188,1532.190996
1230.989486,-10658.965565,-222.061783,2298.286494
1230.989807,-10510.924376,-296.082377,2987.772442
1230.990127,-10214.842000,-1036.288319,1991.848295
1230.990448,-9400.615463,-1184.329507,1302.362347
1230.990769,-8216.285956,-592.164754,229.828649
1230.991090,-8586.388927,296.082377,0.000000
1230.991411,-9696.697840,1776.494261,995.924147
1230.991731,-9770.718434,2220.617826,1149.143247
1230.992052,-9918.759623,1554.432478,1302.362347
1230.992373,-10140.821405,740.205942,1072.533697
1230.992694,-9844.739029,-148.041188,612.876398
1230.993015,-10066.800811,-222.061783,1762.019645
1230.993335,-10288.862594,0.000000,1838.629195
1230.993656,-9696.697840,0.000000,1915.238745
1230.993977,-9474.636058,-1406.391290,1072.533697
1230.994298,-7920.203579,-1776.494261,-383.047749
1230.994619,-8734.430116,-2220.617826,-689.485948
1230.994939,-8882.471304,-740.205942,-919.314598
1230.995260,-8882.471304,888.247130,0.000000
1230.995581,-9252.574275,1406.391290,0.000000
1230.995902,-9696.697840,1480.411884,612.876398
1230.996223,-10436.903782,-222.061783,766.095498
1230.996543,-9992.780217,-592.164754,459.657299
1230.996864,-10732.986159,-666.185348,1149.143247
1230.997185,-9844.739029,0.000000,1608.800546
1230.997506,-9474.636058,-962.267725,1455.581446
1230.997827,-8586.388927,-1258.350101,689.485948
1230.998147,-8216.285956,-2294.638420,-842.705048
1230.998468,-7772.162391,-1110.308913,-919.314598
1230.998789,-8956.491898,-296.082377,153.219100
1230.999110,-9474.636058,814.226536,842.705048
1230.999431,-10140.821405,1036.288319,1532.190996
1230.999751,-10584.944971,1184.329507,1838.629195
1231.000072,-10140.821405,74.020594,1608.800546
1231.000393,-10732.986159,-592.164754,2068.457845
1231.000714,-10510.924376,-592.164754,2528.115143
1231.001035,-10807.006753,-962.267725,2834.553343
1231.001355,-8956.491898,-1406.391290,2221.676944
1231.001676,-9474.636058,-3034.844362,919.314598
1231.001997,-7698.141797,-1776.494261,0.000000
1231.002317,-8734.430116,-1332.370696,-229.828649
1231.002638,-8068.244768,1628.453072,459.657299
1231.002959,-9548.656652,1924.535449,1149.143247
1231.003280,-9992.780217,1036.288319,1455.581446
1231.003600,-10214.842000,592.164754,1455.581446
1231.003921,-11177.109724,-370.102971,1915.238745
1231.004242,-11177.109724,-666.185348,2451.505594
1231.004563,-11103.089130,-1110.308913,3140.991542
1231.004883,-10288.862594,-1480.411884,2681.334243
1231.005204,-9548.656652,-2590.720797,2068.457845
1231.005525,-8882.471304,-3256.906145,919.314598
1231.005845,-8438.347739,-2590.720797,-919.314598
1231.006166,-8290.306550,-592.164754,-766.095498
1231.006487,-9104.533087,962.267725,0.000000
1231.006808,-9622.677246,2368.659014,76.609550
1231.007128,-9918.759623,814.226536,306.438199
1231.007449,-9326.594869,0.000000,153.219100
1231.007770,-10066.800811,0.000000,766.095498
1231.008090,-10658.965565,518.144159,2451.505594
1231.008411,-10436.903782,222.061783,2834.553343
1231.008732,-9622.677246,-444.123565,2757.943793
1231.009053,-9252.574275,-1924.535449,1149.143247
1231.009373,-8438.347739,-2368.659014,76.609550
1231.009694,-8734.430116,-2368.659014,-689.485948
1231.010015,-8438.347739,-962.267725,-306.438199
1231.010335,-9104.533087,592.164754,229.828649
1231.010656,-9474.636058,1258.350101,1225.752797
1231.010977,-9548.656652,740.205942,3217.601092
1231.011298,-10140.821405,-592.164754,1762.019645
1231.011618,-10362.883188,-814.226536,2451.505594
1231.011939,-10658.965565,-1184.329507,2451.505594
1231.012260,-9770.718434,-1036.288319,2604.724693
1231.012581,-9548.656652,-1850.514855,1991.848295
1231.012901,-8586.388927,-2146.597232,383.047749
1231.013222,-8364.327145,-1998.556043,-459.657299
1231.013543,-8882.471304,-370.102971,-383.047749
1231.013863,-9622.677246,962.267725,459.657299
1231.014184,-9548.656652,1554.432478,1532.190996
1231.014505,-10288.862594,666.185348,1225.752797
1231.014826,-9992.780217,-148.041188,1149.143247
1231.015146,-9844.739029,-518.144159,2451.505594
1231.015467,-10807.006753,-222.061783,2374.896044
1231.015788,-10584.944971,-74.020594,2911.162892
1231.016108,-9992.780217,-370.102971,2221.676944
1231.016429,-9622.677246,-1110.308913,1225.752797
1231.016750,-9252.574275,-1110.308913,612.876398
1231.017071,-9178.553681,-740.205942,0.000000
1231.017391,-9474.636058,370.102971,383.047749
1231.017712,-9474.636058,1184.329507,689.485948
1231.018033,-9400.615463,1554.432478,766.095498
1231.018353,-10140.821405,518.144159,1072.533697
1231.018674,-9844.739029,222.061783,1225.752797
1231.018995,-10140.821405,-148.041188,1302.362347
1231.019316,-10362.883188,-592.164754,1225.752797
1231.019636,-9918.759623,-296.082377,1915.238745
1231.019957,-9622.677246,-1480.411884,1838.629195
1231.020278,-9104.533087,-2146.597232,1072.533697
1231.020599,-8068.244768,-2368.659014,-229.828649
1231.020919,-8364.327145,-1480.411884,-459.657299
1231.021240,-8808.450710,518.144159,76.609550
1231.021561,-9474.636058,1776.494261,766.095498
1231.021881,-9474.636058,1110.308913,766.095498
1231.022202,-9918.759623,962.267725,76.609550
1231.022523,-9770.718434,148.041188,153.219100
1231.022844,-10140.821405,666.185348,1225.752797
1231.023164,-10214.842000,666.185348,1838.629195
1231.023485,-8586.388927,222.061783,1685.410096
1231.023806,-8512.368333,-1332.370696,1302.362347
1231.024126,-8734.430116,-2368.659014,0.000000
1231.024447,-8586.388927,-2294.638420,-612.876398
1231.024768,-8512.368333,0.000000,-459.657299
1231.025089,-9252.574275,1480.411884,229.828649
1231.025409,-9474.636058,2516.700203,995.924147
1231.025730,-10214.842000,1480.411884,1532.190996
1231.026051,-10214.842000,0.000000,1302.362347
1231.026371,-9770.718434,-962.267725,995.924147
1231.026692,-11103.089130,-444.123565,2451.505594
1231.027013,-10732.986159,0.000000,2911.162892
1231.027334,-9992.780217,-592.164754,2528.115143
1231.027654,-9622.677246,-1554.432478,2068.457845
1231.027975,-8438.347739,-1850.514855,76.609550
1231.028296,-8882.471304,-888.247130,-229.828649
1231.028617,-9474.636058,666.185348,536.266849
1231.028937,-9770.718434,1628.453072,1378.971896
1231.029258,-10066.800811,1332.370696,1685.410096
1231.029579,-10288.862594,74.020594,1532.190996
1231.029899,-10288.862594,-444.123565,1532.190996
1231.030220,-10362.883188,-962.267725,1532.190996
1231.030541,-10362.883188,-666.185348,2145.067394
1231.030862,-10214.842000,-888.247130,2757.943793
1231.031182,-9474.636058,-2072.576638,2298.286494
1231.031503,-9178.553681,-2368.659014,1302.362347
1231.031824,-8734.430116,-2516.700203,-153.219100
1231.032144,-8512.368333,-1184.329507,-306.438199
1231.032465,-9252.574275,296.082377,689.485948
1231.032786,-9104.533087,1110.308913,995.924147
1231.033107,-9474.636058,592.164754,1149.143247
1231.033427,-9548.656652,0.000000,1685.410096
1231.033748,-9992.780217,-148.041188,1915.238745
1231.034069,-10436.903782,-444.123565,2221.676944
1231.034389,-10214.842000,-666.185348,2681.334243
1231.034710,-8882.471304,-1406.391290,2757.943793
1231.035031,-8734.430116,-2368.659014,995.924147
1231.035352,-8216.285956,-2886.803174,-153.219100
1231.035672,-8068.244768,-2368.659014,-919.314598
1231.035993,-8808.450710,-888.247130,-383.047749
1231.036314,-9252.574275,592.164754,306.438199
1231.036635,-9918.759623,1036.288319,1072.533697
1231.036955,-10140.821405,74.020594,766.095498
1231.037276,-10288.862594,-666.185348,612.876398
1231.037597,-9992.780217,-592.164754,229.828649
1231.037917,-10510.924376,444.123565,995.924147
1231.038238,-10362.883188,444.123565,1838.629195
1231.038559,-9992.780217,370.102971,1838.629195
1231.038880,-9992.780217,-1554.432478,1225.752797
1231.039200,-8586.388927,-1332.370696,-919.314598
1231.039521,-9104.533087,-1110.308913,-1149.143247
1231.039842,-8956.491898,1184.329507,-689.485948
1231.040162,-9770.718434,2294.638420,-459.657299
1231.040483,-10140.821405,2146.597232,919.314598
1231.040804,-10510.924376,1702.473667,1532.190996
1231.041125,-10288.862594,370.102971,1455.581446
1231.041445,-11177.109724,-148.041188,2068.457845
1231.041766,-10510.924376,-814.226536,2834.553343
1231.042087,-10066.800811,-1036.288319,2911.162892
1231.042407,-9400.615463,-2368.659014,1915.238745
1231.042728,-8364.327145,-2442.679609,459.657299
1231.043049,-8142.265362,-1924.535449,0.000000
1231.043370,-8734.430116,0.000000,76.609550
1231.043690,-9178.553681,2368.659014,1072.533697
1231.044011,-9770.718434,2590.720797,1685.410096
1231.044332,-9992.780217,1998.556043,2528.115143
1231.044653,-9992.780217,0.000000,1838.629195
1231.044973,-9844.739029,-1258.350101,1685.410096
1231.045294,-9770.718434,-962.267725,2145.067394
1231.045615,-10214.842000,-814.226536,2681.334243
1231.045935,-9326.594869,-518.144159,2834.553343
1231.046256,-9178.553681,-1554.432478,1685.410096
1231.046577,-8290.306550,-1258.350101,612.876398
1231.046898,-8882.471304,-1184.329507,-306.438199
1231.047218,-9326.594869,0.000000,229.828649
1231.047539,-9474.636058,814.226536,1225.752797
1231.047860,-9770.718434,1480.411884,1455.581446
1231.048180,-10066.800811,296.082377,1685.410096
1231.048501,-9918.759623,-518.144159,1608.800546
1231.048822,-10362.883188,-666.185348,1685.410096
1231.049143,-9992.780217,-962.267725,1915.238745
1231.049463,-9992.780217,-666.185348,2221.676944
1231.049784,-9770.718434,-1924.535449,2221.676944
1231.050105,-8586.388927,-2516.700203,153.219100
1231.050425,-8586.388927,-2146.597232,0.000000
1231.050746,-8882.471304,-740.205942,0.000000
1231.051067,-9326.594869,592.164754,612.876398
1231.051388,-9474.636058,518.144159,2068.457845
1231.051708,-9844.739029,518.144159,842.705048
1231.052029,-10140.821405,-148.041188,-76.609550
1231.052350,-10362.883188,-296.082377,0.000000
1231.052671,-10658.965565,0.000000,1149.143247
1231.052991,-10807.006753,74.020594,1915.238745
1231.053312,-10140.821405,-814.226536,1225.752797
1231.053633,-9696.697840,-1554.432478,1225.752797
1231.053953,-9400.615463,-2368.659014,153.219100
1231.054274,-9474.636058,-1924.535449,-459.657299
1231.054595,-9326.594869,-740.205942,-306.438199
1231.054916,-9326.594869,740.205942,-306.438199
1231.055236,-9400.615463,1628.453072,536.266849
1231.055557,-8808.450710,1036.288319,1072.533697
1231.055878,-9918.759623,0.000000,919.314598
1231.056198,-10288.862594,-666.185348,1225.752797
1231.056519,-9992.780217,-740.205942,2145.067394
1231.056840,-10288.862594,296.082377,2987.772442
1231.057161,-9622.677246,-1258.350101,3140.991542
1231.057481,-9474.636058,-2442.679609,2298.286494
1231.057802,-8586.388927,-2516.700203,919.314598
1231.058123,-8512.368333,-1480.411884,-383.047749
1231.058443,-8586.388927,370.102971,229.828649
1231.058764,-9622.677246,1258.350101,995.924147
1231.059085,-8956.491898,2886.803174,2068.457845
1231.059406,-10807.006753,0.000000,689.485948
1231.059726,-8364.327145,444.123565,1378.971896
1231.060047,-10510.924376,-1036.288319,1072.533697
1231.060368,-10584.944971,0.000000,3064.381992
1231.060688,-9770.718434,-370.102971,2451.505594
1231.061009,-9696.697840,-740.205942,2451.505594
1231.061330,-8660.409521,-1332.370696,536.266849
1231.061651,-7920.203579,-1776.494261,-1225.752797
1231.061971,-9104.533087,0.000000,-76.609550
1231.062292,-8808.450710,814.226536,0.000000
1231.062613,-9326.594869,1924.535449,689.485948
1231.062934,-10362.883188,1036.288319,1685.410096
1231.063254,-9474.636058,592.164754,1072.533697
1231.063575,-10807.006753,-1036.288319,1762.019645
1231.063896,-10807.006753,518.144159,2451.505594
1231.064216,-10066.800811,-888.247130,2451.505594
1231.064537,-10066.800811,-1036.288319,2451.505594
1231.064858,-9178.553681,-1702.473667,1149.143247
1231.065179,-8512.368333,-814.226536,76.609550
1231.065499,-9104.533087,148.041188,0.000000
1231.065820,-8808.450710,1036.288319,-383.047749
1231.066141,-9992.780217,2072.576638,612.876398
1231.066461,-9918.759623,740.205942,1149.143247
1231.066782,-10362.883188,592.164754,766.095498
1231.067103,-10436.903782,-518.144159,536.266849
1231.067424,-10658.965565,-148.041188,689.485948
1231.067744,-10362.883188,666.185348,1685.410096
1231.068065,-10732.986159,518.144159,2298.286494
1231.068386,-10288.862594,-148.041188,1915.238745
1231.068706,-9252.574275,-1702.473667,919.314598
1231.069027,-9252.574275,-2368.659014,-306.438199
1231.069348,-9178.553681,-1480.411884,383.047749
1231.069669,-9400.615463,74.020594,842.705048
1231.069989,-9770.718434,888.247130,1685.410096
1231.070310,-9548.656652,962.267725,2374.896044
1231.070631,-9548.656652,0.000000,1685.410096
1231.070952,-10140.821405,-962.267725,1685.410096
1231.071272,-9918.759623,-1110.308913,1608.800546
1231.071593,-9622.677246,-592.164754,1991.848295
1231.071914,-9400.615463,-814.226536,2145.067394
1231.072234,-8290.306550,-1850.514855,1072.533697
1231.072555,-7550.100608,-3330.926739,-1838.629195
1231.072876,-8290.306550,-2220.617826,-612.876398
1231.073197,-8068.244768,0.000000,-76.609550
1231.073517,-9770.718434,888.247130,1532.190996
1231.073838,-9622.677246,1702.473667,1838.629195
1231.074159,-10214.842000,592.164754,1915.238745
1231.074479,-10140.821405,-518.144159,1072.533697
1231.074800,-9992.780217,-814.226536,919.314598
1231.075121,-10288.862594,-888.247130,1915.238745
1231.075442,-9696.697840,-1258.350101,1455.581446
1231.075762,-8882.471304,-1998.556043,1072.533697
1231.076083,-8882.471304,-2146.597232,76.609550
1231.076404,-8586.388927,-1776.494261,-995.924147
1231.076724,-8216.285956,-962.267725,919.314598
1231.077045,-9622.677246,888.247130,153.219100
1231.077366,-9918.759623,1554.432478,766.095498
1231.077687,-10066.800811,1998.556043,1072.533697
1231.078007,-10807.006753,666.185348,2834.553343
1231.078328,-10807.006753,148.041188,1072.533697
1231.078649,-10288.862594,444.123565,1762.019645
1231.078970,-10881.027347,0.000000,2145.067394
1231.079290,-9030.512492,370.102971,2451.505594
1231.079611,-9770.718434,-1554.432478,1915.238745
1231.079932,-8438.347739,-2368.659014,0.000000
1231.080252,-8734.430116,-1924.535449,-459.657299
1231.080573,-8586.388927,-222.061783,-612.876398
1231.080894,-9326.594869,1184.329507,1072.533697
1231.081215,-9992.780217,1480.411884,1532.190996
1231.081535,-10066.800811,592.164754,1455.581446
1231.081856,-10510.924376,-444.123565,1072.533697
1231.082177,-10510.924376,-518.144159,1991.848295
1231.082497,-10436.903782,-296.082377,2374.896044
1231.082818,-10807.006753,-296.082377,2451.505594
1231.083139,-9326.594869,-518.144159,2145.067394
1231.083460,-8956.491898,-1628.453072,995.924147
1231.083780,-8586.388927,-2294.638420,-536.266849
1231.084101,-8290.306550,-1628.453072,-995.924147
1231.084422,-8660.409521,0.000000,-689.485948
1231.084742,-8808.450710,1406.391290,0.000000
1231.085063,-9474.636058,3034.844362,1302.362347
1231.085384,-10214.842000,888.247130,1838.629195
1231.085705,-9770.718434,-518.144159,1838.629195
1231.086025,-10658.965565,-1628.453072,2374.896044
1231.086346,-10732.986159,-1924.535449,2757.943793
1231.086667,-10510.924376,-962.267725,3217.601092
1231.086988,-10140.821405,-1110.308913,2681.334243
1231.087308,-9178.553681,-1850.514855,1149.143247
1231.087629,-8512.368333,-1628.453072,-459.657299
1231.087950,-8364.327145,-444.123565,-689.485948
1231.088270,-9030.512492,444.123565,76.609550
1231.088591,-9178.553681,1036.288319,919.314598
1231.088912,-9918.759623,370.102971,995.924147
1231.089233,-10140.821405,-962.267725,1455.581446
1231.089553,-9844.739029,-370.102971,1225.752797
1231.089874,-10807.006753,0.000000,2298.286494
1231.090195,-10807.006753,0.000000,3370.820191
1231.090515,-9918.759623,-222.061783,3294.210641
1231.090836,-9696.697840,-1406.391290,1991.848295
1231.091157,-8808.450710,-2442.679609,612.876398
1231.091478,-8660.409521,-2072.576638,-306.438199
1231.091798,-8808.450710,-1184.329507,-229.828649
1231.092119,-9030.512492,1480.411884,0.000000
1231.092440,-9696.697840,1998.556043,1302.362347
1231.092760,-10436.903782,1258.350101,2145.067394
1231.093081,-10436.903782,0.000000,1838.629195
1231.093402,-9918.759623,-740.205942,1685.410096
1231.093723,-10510.924376,-962.267725,1685.410096
1231.094043,-9992.780217,-592.164754,2298.286494
1231.094364,-9474.636058,-1036.288319,1838.629195
1231.094685,-8660.409521,-1628.453072,842.705048
1231.095006,-7920.203579,-1776.494261,-536.266849
1231.095326,-8290.306550,-740.205942,-766.095498
1231.095647,-8660.409521,592.164754,0.000000
1231.095968,-9326.594869,1702.473667,919.314598
1231.096288,-9696.697840,1036.288319,1991.848295
1231.096609,-9474.636058,518.144159,1072.533697
1231.096930,-9622.677246,-962.267725,536.266849
1231.097251,-11103.089130,-370.102971,1762.019645
1231.097571,-9918.759623,-1036.288319,2068.457845
1231.097892,-9548.656652,-296.082377,2221.676944
1231.098213,-9252.574275,-962.267725,1532.190996
1231.098533,-8438.347739,-1332.370696,-306.438199
1231.098854,-8956.491898,-1480.411884,-766.095498
1231.099175,-8660.409521,148.041188,-536.266849
1231.099496,-9474.636058,1554.432478,153.219100
1231.099816,-9696.697840,2294.638420,459.657299
1231.100137,-9992.780217,1184.329507,995.924147
1231.100458,-10214.842000,0.000000,1532.190996
1231.100778,-10214.842000,-888.247130,919.314598
1231.101099,-10436.903782,-518.144159,2068.457845
1231.101420,-10214.842000,-148.041188,2451.505594
1231.101741,-9992.780217,-296.082377,2834.553343
1231.102061,-9474.636058,-1554.432478,1608.800546
1231.102382,-8808.450710,-1924.535449,153.219100
1231.102703,-8956.491898,-962.267725,0.000000
1231.103024,-9400.615463,148.041188,-689.485948
1231.103344,-9400.615463,1554.432478,689.485948
1231.103665,-9696.697840,1258.350101,995.924147
1231.103986,-10140.821405,444.123565,1225.752797
1231.104306,-10288.862594,0.000000,766.095498
1231.104627,-10658.965565,888.247130,1455.581446
1231.104948,-10658.965565,518.144159,2604.724693
1231.105269,-10140.821405,0.000000,3064.381992
1231.105589,-9474.636058,-1110.308913,2451.505594
1231.105910,-8956.491898,-1702.473667,842.705048
1231.106231,-8808.450710,-2516.700203,0.000000
1231.106551,-8808.450710,-1554.432478,0.000000
1231.106872,-8734.430116,0.000000,459.657299
1231.107193,-9104.533087,1184.329507,1149.143247
1231.107514,-9622.677246,1628.453072,1455.581446
1231.107834,-9992.780217,518.144159,1762.019645
1231.108155,-10140.821405,-444.123565,1762.019645
1231.108476,-10732.986159,-962.267725,2528.115143
1231.108796,-10214.842000,-370.102971,3907.087040
1231.109117,-9622.677246,-1924.535449,2757.943793
1231.109438,-9030.512492,-3108.864956,1608.800546
1231.109759,-8290.306550,-3478.967927,76.609550
1231.110079,-8068.244768,-1850.514855,-1762.019645
1231.110400,-8734.430116,74.020594,-383.047749
1231.110721,-9178.553681,1776.494261,306.438199
1231.111041,-9770.718434,2294.638420,1225.752797
1231.111362,-10066.800811,592.164754,1225.752797
1231.111683,-9918.759623,-962.267725,1225.752797
1231.112004,-10066.800811,-1702.473667,689.485948
1231.112324,-10214.842000,-1554.432478,1455.581446
1231.112645,-10066.800811,-1184.329507,2145.067394
1231.112966,-9400.615463,-1332.370696,2451.505594
1231.113287,-9030.512492,-2146.597232,459.657299
1231.113607,-8808.450710,-1332.370696,-153.219100
1231.113928,-9400.615463,-518.144159,-995.924147
1231.114249,-9474.636058,1258.350101,0.000000
1231.114569,-9992.780217,2294.638420,919.314598
1231.114890,-9622.677246,2072.576638,459.657299
1231.115211,-10436.903782,444.123565,919.314598
1231.115532,-10510.924376,0.000000,536.266849
1231.115852,-11029.068536,296.082377,1532.190996
1231.116173,-10732.986159,888.247130,2221.676944
1231.116494,-10288.862594,518.144159,2374.896044
1231.116814,-9770.718434,-666.185348,1608.800546
1231.117135,-7698.141797,-1406.391290,-536.266849
1231.117456,-8364.327145,-2220.617826,-612.876398
1231.117777,-8660.409521,-666.185348,-536.266849
1231.118097,-9474.636058,1258.350101,306.438199
1231.118418,-9622.677246,2368.659014,1455.581446
1231.118739,-10362.883188,1776.494261,1762.019645
1231.119059,-10140.821405,444.123565,1455.581446
1231.119380,-10214.842000,-370.102971,1225.752797
1231.119701,-10658.965565,-444.123565,1915.238745
1231.120022,-10436.903782,-592.164754,2757.943793
1231.120342,-9548.656652,-1628.453072,2145.067394
1231.120663,-8882.471304,-2294.638420,1378.971896
1231.120984,-8142.265362,-2368.659014,153.219100
1231.121304,-8586.388927,-1332.370696,-1225.752797
1231.121625,-8586.388927,222.061783,153.219100
1231.121946,-9104.533087,1406.391290,995.924147
1231.122267,-9178.553681,1480.411884,1532.190996
1231.122587,-9696.697840,370.102971,459.657299
1231.122908,-9844.739029,-592.164754,1991.848295
1231.123229,-10214.842000,-1184.329507,2451.505594
1231.123550,-10214.842000,-666.185348,2681.334243
1231.123870,-9992.780217,-518.144159,3294.210641
1231.124191,-9104.533087,-1702.473667,2757.943793
1231.124512,-9252.574275,-2442.679609,1762.019645
1231.124832,-8438.347739,-2220.617826,536.266849
1231.125153,-8364.327145,-888.247130,0.000000
1231.125474,-9326.594869,666.185348,0.000000
1231.125795,-9474.636058,1628.453072,1532.190996
1231.126115,-9474.636058,1036.288319,1455.581446
1231.126436,-10066.800811,-370.102971,766.095498
1231.126757,-9770.718434,-518.144159,612.876398
1231.127077,-11029.068536,-666.185348,1762.019645
1231.127398,-11103.089130,296.082377,2911.162892
1231.127719,-10510.924376,-148.041188,2451.505594
1231.128040,-9844.739029,-1406.391290,1608.800546
1231.128360,-9474.636058,-2220.617826,-689.485948
1231.128681,-8808.450710,-1554.432478,-1072.533697
1231.129002,-9474.636058,-444.123565,-612.876398
1231.129322,-9474.636058,666.185348,-153.219100
1231.129643,-9326.594869,592.164754,-306.438199
1231.129964,-9992.780217,888.247130,383.047749
1231.130285,-10510.924376,148.041188,766.095498
1231.130605,-10584.944971,-888.247130,1225.752797
1231.130926,-10584.944971,-666.185348,1838.629195
1231.131247,-10140.821405,-888.247130,1532.190996
1231.131568,-9548.656652,-1554.432478,1685.410096
1231.131888,-9252.574275,-2516.700203,842.705048
1231.132209,-8290.306550,-2368.659014,-153.219100
1231.132530,-8068.244768,-1332.370696,-995.924147
1231.132850,-8808.450710,222.061783,76.609550
1231.133171,-9474.636058,1480.411884,536.266849
1231.133492,-10066.800811,888.247130,1149.143247
1231.133813,-10066.800811,0.000000,1685.410096
1231.134133,-9474.636058,-518.144159,766.095498
1231.134454,-10288.862594,-444.123565,1532.190996
1231.134775,-10214.842000,0.000000,2604.724693
1231.135095,-9770.718434,222.061783,2604.724693
1231.135416,-9104.533087,-1184.329507,2221.676944
1231.135737,-8290.306550,-2442.679609,76.609550
1231.136058,-8216.285956,-1850.514855,-459.657299
1231.136378,-8660.409521,-370.102971,-153.219100
1231.136699,-9252.574275,2146.597232,229.828649
1231.137020,-9474.636058,2886.803174,1302.362347
1231.137340,-10066.800811,1998.556043,1915.238745
1231.137661,-10140.821405,444.123565,1838.629195
1231.137982,-10288.862594,-370.102971,3753.867940
1231.138303,-10732.986159,-592.164754,2145.067394
1231.138623,-10288.862594,-222.061783,2604.724693
1231.138944,-9992.780217,-444.123565,3064.381992
1231.139265,-9622.677246,-1480.411884,2221.676944
1231.139585,-9030.512492,-1850.514855,1149.143247
1231.139906,-8734.430116,-1776.494261,0.000000
1231.140227,-9104.533087,296.082377,0.000000
1231.140548,-9696.697840,1036.288319,1072.533697
1231.140868,-9622.677246,1776.494261,1685.410096
1231.141189,-10288.862594,592.164754,1225.752797
1231.141510,-9770.718434,0.000000,766.095498
1231.141831,-10510.924376,0.000000,1378.971896
1231.142151,-10658.965565,222.061783,2374.896044
1231.142472,-10658.965565,-148.041188,2681.334243
1231.142793,-9918.759623,-962.267725,2068.457845
1231.143113,-8882.471304,-1850.514855,612.876398
1231.143434,-8660.409521,-2368.659014,-1685.410096
1231.143755,-8586.388927,-1258.350101,-1149.143247
1231.144076,-8808.450710,740.205942,-766.095498
1231.144396,-9400.615463,2294.638420,229.828649
1231.144717,-9770.718434,1924.535449,1072.533697
1231.145038,-10584.944971,518.144159,995.924147
1231.145358,-9844.739029,-888.247130,689.485948
1231.145679,-10658.965565,-1036.288319,766.095498
1231.146000,-10362.883188,-444.123565,1838.629195
1231.146321,-10140.821405,-1110.308913,536.266849
1231.146641,-9474.636058,-1480.411884,1225.752797
1231.146962,-8956.491898,-2368.659014,-612.876398
1231.147283,-7920.203579,-1554.432478,-919.314598
1231.147603,-8512.368333,0.000000,-842.705048
1231.147924,-9474.636058,1258.350101,153.219100
1231.148245,-9252.574275,962.267725,612.876398
1231.148566,-10066.800811,222.061783,1072.533697
1231.148886,-9400.615463,-666.185348,229.828649
1231.149207,-10288.862594,-1110.308913,919.314598
1231.149528,-10066.800811,-518.144159,1991.848295
1231.149848,-10288.862594,-592.164754,2298.286494
1231.150169,-9474.636058,-1628.453072,1991.848295
1231.150490,-8660.409521,-1554.432478,1532.190996
1231.150811,-8364.327145,-2072.576638,-229.828649
1231.151131,-8808.450710,-1258.350101,-229.828649
1231.151452,-9178.553681,740.205942,0.000000
1231.151773,-8956.491898,1998.556043,995.924147
1231.152094,-9992.780217,1850.514855,1838.629195
1231.152414,-9696.697840,1258.350101,2298.286494
1231.152735,-11177.109724,-370.102971,2451.505594
1231.153056,-10584.944971,-444.123565,2451.505594
1231.153376,-10807.006753,-222.061783,3447.429741
1231.153697,-10214.842000,-518.144159,2911.162892
1231.154018,-9622.677246,-814.226536,2911.162892
1231.154339,-9622.677246,-2146.597232,1455.581446
1231.154659,-7254.018232,-1776.494261,-1149.143247
1231.154980,-8882.471304,-296.082377,-766.095498
1231.155301,-8882.471304,1924.535449,0.000000
1231.155621,-9474.636058,2590.720797,229.828649
1231.155942,-9992.780217,2590.720797,689.485948
1231.156263,-9474.636058,814.226536,766.095498
1231.156584,-10436.903782,-518.144159,766.095498
1231.156904,-10510.924376,-666.185348,2145.067394
1231.157225,-10955.047942,-814.226536,3140.991542
1231.157546,-10140.821405,-1406.391290,2757.943793
1231.157866,-9474.636058,-2220.617826,1455.581446
1231.158187,-8808.450710,-2590.720797,229.828649
1231.158508,-8142.265362,-1776.494261,-612.876398
1231.158829,-8586.388927,-666.185348,0.000000
1231.159149,-9252.574275,1702.473667,612.876398
1231.159470,-9030.512492,1406.391290,919.314598
1231.159791,-9770.718434,0.000000,1225.752797
1231.160112,-9992.780217,-1184.329507,1302.362347
1231.160432,-10436.903782,-1036.288319,1685.410096
1231.160753,-11251.130318,-518.144159,2604.724693
1231.161074,-10140.821405,0.000000,3064.381992
1231.161394,-9622.677246,-1184.329507,2298.286494
1231.161715,-9178.553681,-2590.720797,1072.533697
1231.162036,-7920.203579,-2738.761985,-842.705048
1231.162357,-8216.285956,-1184.329507,-1072.533697
1231.162677,-8956.491898,370.102971,0.000000
1231.162998,-8956.491898,1258.350101,536.266849
1231.163319,-9770.718434,222.061783,842.705048
1231.163639,-9918.759623,-1036.288319,689.485948
1231.163960,-9844.739029,-1406.391290,459.657299
1231.164281,-10732.986159,-1332.370696,1532.190996
1231.164602,-10955.047942,-296.082377,2528.115143
1231.164922,-10066.800811,-222.061783,2221.676944
1231.165243,-9474.636058,-1110.308913,995.924147
1231.165564,-8808.450710,-1924.535449,-229.828649
1231.165884,-8290.306550,-1332.370696,-1302.362347
1231.166205,-9474.636058,-518.144159,-689.485948
1231.166526,-8882.471304,1776.494261,-306.438199
1231.166847,-9770.718434,2442.679609,689.485948
1231.167167,-9770.718434,1480.411884,1072.533697
1231.167488,-10214.842000,518.144159,1378.971896
1231.167809,-10658.965565,-296.082377,1915.238745
1231.168129,-10955.047942,-444.123565,2451.505594
1231.168450,-10288.862594,-518.144159,3064.381992
1231.168771,-10066.800811,-1258.350101,3370.820191
1231.169092,-9548.656652,-2368.659014,2221.676944
1231.169412,-8438.347739,-2220.617826,612.876398
1231.169733,-8808.450710,-814.226536,-459.657299
1231.170054,-8956.491898,1332.370696,-229.828649
1231.170375,-9474.636058,2442.679609,1072.533697
1231.170695,-9622.677246,1998.556043,1302.362347
1231.171016,-9548.656652,592.164754,995.924147
1231.171337,-9252.574275,-1258.350101,536.266849
1231.171657,-9918.759623,-592.164754,1532.190996
1231.171978,-10214.842000,-148.041188,2528.115143
1231.172299,-9918.759623,-518.144159,3217.601092
1231.172620,-9104.533087,-1332.370696,1608.800546
1231.172940,-8364.327145,-2294.638420,459.657299
1231.173261,-8290.306550,-1628.453072,0.000000
1231.173582,-8586.388927,-148.041188,383.047749
1231.173902,-9104.533087,1406.391290,842.705048
1231.174223,-9326.594869,1702.473667,1455.581446
1231.174544,-9548.656652,518.144159,1455.581446
1231.174865,-9770.718434,-296.082377,1378.971896
1231.175185,-9992.780217,-740.205942,1762.019645
1231.175506,-10807.006753,222.061783,1915.238745
1231.175827,-9992.780217,74.020594,2911.162892
1231.176147,-9992.780217,-592.164754,2681.334243
1231.176468,-9400.615463,-1628.453072,1915.238745
1231.176789,-8586.388927,-2442.679609,383.047749
1231.177110,-8438.347739,-1480.411884,-612.876398
1231.177430,-9326.594869,-222.061783,-383.047749
1231.177751,-9178.553681,1480.411884,0.000000
1231.178072,-9696.697840,1850.514855,1072.533697
1231.178392,-10436.903782,1110.308913,229.828649
1231.178713,-10214.842000,296.082377,1149.143247
1231.179034,-10732.986159,-296.082377,1149.143247
1231.179355,-10955.047942,0.000000,2145.067394
1231.179675,-10955.047942,-296.082377,2757.943793
1231.179996,-10066.800811,-1628.453072,2145.067394
1231.180317,-9326.594869,-2738.761985,536.266849
1231.180638,-8660.409521,-2368.659014,-1149.143247
1231.180958,-8882.471304,-592.164754,-2221.676944
1231.181279,-8956.491898,1554.432478,-459.657299
1231.181600,-9696.697840,2368.659014,383.047749
1231.181920,-9696.697840,1850.514855,766.095498
1231.182241,-9992.780217,222.061783,689.485948
1231.182562,-10288.862594,-1110.308913,1072.533697
1231.182883,-10510.924376,-1332.370696,1532.190996
1231.183203,-10658.965565,-740.205942,2681.334243
1231.183524,-9844.739029,-888.247130,2911.162892
1231.183845,-8364.327145,-1258.350101,1838.629195
1231.184165,-8660.409521,-2516.700203,229.828649
1231.184486,-8142.265362,-1628.453072,-306.438199
1231.184807,-9030.512492,74.020594,76.609550
1231.185128,-9104.533087,1850.514855,536.266849
1231.185448,-9326.594869,1332.370696,689.485948
1231.185769,-9400.615463,0.000000,842.705048
1231.186090,-9548.656652,-888.247130,383.047749
1231.186410,-9992.780217,-1258.350101,919.314598
1231.186731,-10584.944971,-592.164754,2145.067394
1231.187052,-10288.862594,-962.267725,2528.115143
1231.187373,-9474.636058,-1406.391290,2298.286494
1231.187693,-9030.512492,-2590.720797,1072.533697
1231.188014,-8068.244768,-2960.823768,0.000000
1231.188335,-8512.368333,-1036.288319,-229.828649
1231.188656,-9030.512492,518.144159,0.000000
1231.188976,-9178.553681,1776.494261,766.095498
1231.189297,-9622.677246,1850.514855,1532.190996
1231.189618,-10066.800811,740.205942,1225.752797
1231.189938,-10362.883188,592.164754,1149.143247
1231.190259,-11473.192101,0.000000,842.705048
1231.190580,-9992.780217,2886.803174,2681.334243
1231.190901,-11695.253884,1110.308913,2911.162892
1231.191221,-9252.574275,962.267725,2604.724693
1231.191542,-9622.677246,-1628.453072,0.000000
1231.191863,-9104.533087,-1480.411884,-536.266849
1231.192183,-8438.347739,-1110.308913,-1991.848295
1231.192504,-9918.759623,1776.494261,612.876398
1231.192825,-9918.759623,2442.679609,1608.800546
1231.193146,-9474.636058,1258.350101,612.876398
1231.193466,-10436.903782,814.226536,995.924147
1231.193787,-9992.780217,-666.185348,612.876398
1231.194108,-11029.068536,-592.164754,1762.019645
1231.194428,-11103.089130,-740.205942,3447.429741
1231.194749,-9474.636058,-1184.329507,2145.067394
1231.195070,-9030.512492,-2516.700203,1762.019645
1231.195391,-8512.368333,-3034.844362,766.095498
1231.195711,-8142.265362,-2368.659014,76.609550
1231.196032,-8660.409521,-1036.288319,0.000000
1231.196353,-8956.491898,518.144159,229.828649
1231.196673,-8956.491898,1332.370696,1072.533697
1231.196994,-9548.656652,370.102971,1685.410096
1231.197315,-9622.677246,-296.082377,1838.629195
1231.197636,-10066.800811,-962.267725,1762.019645
1231.197956,-9918.759623,-1036.288319,2681.334243
1231.198277,-10214.842000,-1702.473667,3294.210641
1231.198598,-9474.636058,-2664.741391,3064.381992
1231.198919,-8660.409521,-4293.194464,1608.800546
1231.199239,-7920.203579,-3330.926739,306.438199
1231.199560,-8216.285956,-1628.453072,-306.438199
1231.199881,-8808.450710,888.247130,0.000000
1231.200201,-9474.636058,1998.556043,612.876398
1231.200522,-9622.677246,1258.350101,2757.943793
1231.200843,-9770.718434,0.000000,842.705048
1231.201164,-10214.842000,-1480.411884,383.047749
1231.201484,-10288.862594,-814.226536,1302.362347
1231.201805,-11177.109724,-962.267725,2221.676944
1231.202126,-10140.821405,-1332.370696,2681.334243
1231.202446,-9770.718434,-2294.638420,1532.190996
1231.202767,-9400.615463,-2886.803174,0.000000
1231.203088,-8586.388927,-2294.638420,-689.485948
1231.203409,-9400.615463,-1110.308913,-995.924147
1231.203729,-9326.594869,666.185348,-153.219100
1231.204050,-9474.636058,1628.453072,306.438199
1231.204371,-10214.842000,518.144159,1225.752797
1231.204691,-9622.677246,296.082377,1225.752797
1231.205012,-10881.027347,-1406.391290,2068.457845
1231.205333,-11029.068536,-814.226536,2298.286494
1231.205654,-10807.006753,-222.061783,2987.772442
1231.205974,-10510.924376,-518.144159,2681.334243
1231.206295,-8882.471304,-1628.453072,1608.800546
1231.206616,-8882.471304,-2442.679609,-229.828649
1231.206937,-7698.141797,-1332.370696,-1149.143247
1231.207257,-9030.512492,-148.041188,-383.047749
1231.207578,-8586.388927,518.144159,1149.143247
1231.207899,-9474.636058,1258.350101,1149.143247
1231.208219,-10214.842000,592.164754,919.314598
1231.208540,-9696.697840,148.041188,1072.533697
1231.208861,-10436.903782,222.061783,1685.410096
1231.209182,-10658.965565,370.102971,2987.772442
1231.209502,-10140.821405,0.000000,2987.772442
1231.209823,-9252.574275,-1702.473667,2451.505594
1231.210144,-8364.327145,-2516.700203,306.438199
1231.210464,-7920.203579,-2294.638420,-76.609550
1231.210785,-8142.265362,-740.205942,-459.657299
1231.211106,-8438.347739,1110.308913,-306.438199
1231.211427,-9030.512492,2368.659014,612.876398
1231.211747,-8882.471304,1628.453072,689.485948
1231.212068,-9918.759623,518.144159,1072.533697
1231.212389,-10288.862594,-444.123565,1608.800546
1231.212710,-10807.006753,-1110.308913,2451.505594
1231.213030,-10510.924376,-296.082377,3753.867940
1231.213351,-10214.842000,-740.205942,2987.772442
1231.213672,-9770.718434,-1480.411884,2374.896044
1231.213992,-8660.409521,-1332.370696,383.047749
1231.214313,-8586.388927,0.000000,-383.047749
1231.214634,-8956.491898,1258.350101,-153.219100
1231.214955,-9252.574275,2220.617826,0.000000
1231.215275,-9548.656652,1924.535449,306.438199
1231.215596,-9992.780217,1110.308913,229.828649
1231.215917,-9474.636058,666.185348,0.000000
1231.216237,-11473.192101,1258.350101,1378.971896
1231.216558,-11399.171507,1480.411884,3064.381992
1231.216879,-11473.192101,1110.308913,3370.820191
1231.217200,-10510.924376,0.000000,2451.505594
1231.217520,-9622.677246,-2368.659014,919.314598
1231.217841,-8882.471304,-2590.720797,-612.876398
1231.218162,-8734.430116,-1036.288319,-919.314598
1231.218483,-9178.553681,1110.308913,-536.266849
1231.218803,-8882.471304,2738.761985,0.000000
1231.219124,-9474.636058,2664.741391,0.000000
1231.219445,-9918.759623,1702.473667,995.924147
1231.219765,-10658.965565,74.020594,1302.362347
1231.220086,-10362.883188,-296.082377,2221.676944
1231.220407,-10288.862594,-2442.679609,2374.896044
1231.220728,-9178.553681,-2516.700203,1762.019645
1231.221048,-8882.471304,-3034.844362,1149.143247
1231.221369,-7772.162391,-2220.617826,-1149.143247
1231.221690,-7994.224174,-1258.350101,-1072.533697
1231.222010,-8142.265362,148.041188,-766.095498
1231.222331,-8808.450710,1036.288319,-153.219100
1231.222652,-9622.677246,518.144159,1149.143247
1231.222973,-10066.800811,-370.102971,1378.971896
1231.223293,-9918.759623,-1628.453072,1532.190996
1231.223614,-10066.800811,-1036.288319,1608.800546
1231.223935,-10288.862594,-296.082377,2681.334243
1231.224255,-10288.862594,1036.288319,3217.601092
1231.224576,-9474.636058,-1036.288319,2911.162892
1231.224897,-8586.388927,-2072.576638,1072.533697
1231.225218,-8290.306550,-1850.514855,-306.438199
1231.225538,-8660.409521,-518.144159,-766.095498
1231.225859,-9104.533087,888.247130,689.485948
1231.226180,-9104.533087,1480.411884,842.705048
1231.226501,-9622.677246,1332.370696,1685.410096
1231.226821,-9474.636058,592.164754,1072.533697
1231.227142,-10955.047942,-370.102971,1455.581446
1231.227463,-10732.986159,0.000000,2451.505594
1231.227783,-11473.192101,0.000000,3217.601092
1231.228104,-10732.986159,-962.267725,2834.553343
1231.228425,-9400.615463,-1628.453072,3064.381992
1231.228746,-9844.739029,-3478.967927,919.314598
1231.229066,-8660.409521,-2590.720797,-306.438199
1231.229387,-9622.677246,-888.247130,-229.828649
1231.229708,-9770.718434,1184.329507,0.000000
1231.230028,-9696.697840,3256.906145,1378.971896
1231.230349,-11325.150913,2146.597232,1685.410096
1231.230670,-10288.862594,814.226536,1455.581446
1231.230991,-10436.903782,-1554.432478,1149.143247
1231.231311,-11029.068536,-1406.391290,1532.190996
1231.231632,-10066.800811,-1332.370696,1762.019645
1231.231953,-9918.759623,-1184.329507,1762.019645
1231.232274,-9178.553681,-1480.411884,1225.752797
1231.232594,-8660.409521,-518.144159,-995.924147
1231.232915,-8808.450710,-1332.370696,-612.876398
1231.233236,-8734.430116,-592.164754,-612.876398
1231.233556,-9030.512492,1110.308913,0.000000
1231.233877,-9770.718434,1332.370696,0.000000
1231.234198,-9918.759623,370.102971,1838.629195
1231.234519,-9622.677246,-444.123565,1072.533697
1231.234839,-10066.800811,-1110.308913,1915.238745
1231.235160,-9622.677246,-888.247130,2298.286494
1231.235481,-9474.636058,-370.102971,2451.505594
1231.235801,-9844.739029,-1406.391290,2604.724693
1231.236122,-8512.368333,-1924.535449,1302.362347
1231.236443,-8068.244768,-2220.617826,0.000000
1231.236764,-8142.265362,-888.247130,1378.971896
1231.237084,-8660.409521,518.144159,1149.143247
1231.237405,-9844.739029,888.247130,1838.629195
1231.237726,-9696.697840,888.247130,1762.019645
1231.238047,-9770.718434,666.185348,919.314598
1231.238367,-9918.759623,-814.226536,536.266849
1231.238688,-10436.903782,-370.102971,1072.533697
1231.239009,-10362.883188,222.061783,1838.629195
1231.239329,-9770.718434,222.061783,1532.190996
1231.239650,-9622.677246,-962.267725,1302.362347
1231.239971,-8808.450710,-1924.535449,0.000000
1231.240292,-9104.533087,-1998.556043,-536.266849
1231.240612,-9548.656652,-370.102971,0.000000
1231.240933,-9252.574275,888.247130,229.828649
1231.241254,-9918.759623,1036.288319,919.314598
1231.241574,-10140.821405,666.185348,1302.362347
1231.241895,-10510.924376,-296.082377,1225.752797
1231.242216,-10881.027347,-370.102971,1838.629195
1231.242537,-10436.903782,0.000000,2451.505594
1231.242857,-10807.006753,-370.102971,2528.115143
1231.243178,-10066.800811,-592.164754,2604.724693
1231.243499,-9400.615463,-1924.535449,1532.190996
1231.243820,-9030.512492,-1998.556043,-153.219100
1231.244140,-8438.347739,-1184.329507,-612.876398
1231.244461,-9104.533087,1258.350101,153.219100
1231.244782,-9400.615463,2590.720797,919.314598
1231.245102,-9548.656652,2146.597232,1608.800546
1231.245423,-9474.636058,814.226536,612.876398
1231.245744,-9548.656652,-370.102971,612.876398
1231.246065,-10362.883188,-222.061783,1302.362347
1231.246385,-10140.821405,592.164754,3064.381992
1231.246706,-9622.677246,0.000000,2604.724693
1231.247027,-9178.553681,-814.226536,1915.238745
1231.247347,-8660.409521,-1998.556043,0.000000
1231.247668,-7994.224174,-2072.576638,-1149.143247
1231.247989,-7846.182985,-740.205942,-1149.143247
1231.248310,-8660.409521,1184.329507,-842.705048
1231.248630,-9030.512492,2442.679609,459.657299
1231.248951,-9474.636058,1628.453072,995.924147
1231.249272,-9400.615463,74.020594,2987.772442
1231.249592,-10510.924376,-1258.350101,1762.019645
1231.249913,-10362.883188,-1554.432478,2451.505594
1231.250234,-10510.924376,-1702.473667,3217.601092
1231.250555,-9548.656652,-1554.432478,3370.820191
1231.250875,-9104.533087,-2220.617826,2068.457845
1231.251196,-8660.409521,-2294.638420,306.438199
1231.251517,-8364.327145,-1554.432478,0.000000
1231.251838,-8956.491898,444.123565,0.000000
1231.252158,-9770.718434,1110.308913,1762.019645
1231.252479,-10288.862594,1184.329507,1915.238745
1231.252800,-11251.130318,148.041188,1838.629195
1231.253120,-10510.924376,74.020594,1149.143247
1231.253441,-10955.047942,0.000000,1532.190996
1231.253762,-11029.068536,740.205942,2145.067394
1231.254083,-10881.027347,592.164754,2298.286494
1231.254403,-9992.780217,0.000000,1838.629195
1231.254724,-9400.615463,-1036.288319,-383.047749
1231.255045,-8808.450710,-1258.350101,-459.657299
1231.255365,-9104.533087,-1628.453072,-459.657299
1231.255686,-9030.512492,0.000000,-306.438199
1231.256007,-9400.615463,740.205942,612.876398
1231.256328,-9844.739029,740.205942,1532.190996
1231.256648,-10066.800811,0.000000,1762.019645
1231.256969,-10362.883188,-962.267725,2374.896044
1231.257290,-10140.821405,-1332.370696,2068.457845
1231.257611,-10214.842000,-1184.329507,2681.334243
1231.257931,-9696.697840,-1184.329507,2681.334243
1231.258252,-9326.594869,-2442.679609,2068.457845
1231.258573,-8438.347739,-3182.885551,689.485948
1231.258893,-8216.285956,-2812.782580,-1378.971896
1231.259214,-8068.244768,-814.226536,-153.219100
1231.259535,-9326.594869,814.226536,536.266849
1231.259856,-9400.615463,1702.473667,1225.752797
1231.260176,-9770.718434,296.082377,689.485948
1231.260497,-9104.533087,-148.041188,76.609550
1231.260818,-9918.759623,-814.226536,229.828649
1231.261138,-10140.821405,-444.123565,1225.752797
1231.261459,-9918.759623,-1036.288319,1838.629195
1231.261780,-9178.553681,-1406.391290,919.314598
1231.262101,-9030.512492,-2294.638420,306.438199
1231.262421,-8586.388927,-2220.617826,-383.047749
1231.262742,-9252.574275,-1110.308913,-383.047749
1231.263063,-9252.574275,888.247130,-1072.533697
1231.263384,-9696.697840,2590.720797,76.609550
1231.263704,-9918.759623,2590.720797,1072.533697
1231.264025,-10510.924376,1110.308913,1455.581446
1231.264346,-10732.986159,0.000000,1455.581446
