#time,accel_x,accel_y,accel_z
909.364118,-9548.656652,0.000000,919.314598
909.364438,-9622.677246,-370.102971,1072.533697
909.364759,-9400.615463,-222.061783,1762.019645
909.365079,-9622.677246,-296.082377,1072.533697
909.365400,-9548.656652,-444.123565,1149.143247
909.365721,-9622.677246,-370.102971,766.095498
909.366041,-9474.636058,-518.144159,919.314598
909.366362,-9548.656652,-444.123565,1378.971896
909.366683,-9622.677246,-592.164754,919.314598
909.367003,-9474.636058,-296.082377,1149.143247
909.367324,-9474.636058,-518.144159,1072.533697
909.367645,-9474.636058,0.000000,1838.629195
909.367965,-9548.656652,0.000000,995.924147
909.368286,-9548.656652,-296.082377,995.924147
909.368606,-9474.636058,-518.144159,995.924147
909.368927,-9548.656652,0.000000,766.095498
909.369248,-9474.636058,-888.247130,612.876398
909.369568,-9326.594869,-370.102971,689.485948
909.369889,-9770.718434,-740.205942,612.876398
909.370210,-9474.636058,-148.041188,995.924147
909.370530,-9474.636058,-592.164754,306.438199
909.370851,-9622.677246,-370.102971,1149.143247
909.371172,-9622.677246,-814.226536,1072.533697
909.371492,-9622.677246,-592.164754,1225.752797
909.371813,-9400.615463,-222.061783,1685.410096
909.372133,-9400.615463,-592.164754,689.485948
909.372454,-9474.636058,-148.041188,995.924147
909.372775,-9770.718434,-370.102971,995.924147
909.373095,-9474.636058,-592.164754,995.924147
909.373416,-9474.636058,-1110.308913,612.876398
909.373737,-9326.594869,-1258.350101,229.828649
909.374057,-9622.677246,-740.205942,536.266849
909.374378,-9770.718434,-814.226536,689.485948
909.374699,-9770.718434,-1258.350101,766.095498
909.375019,-9844.739029,-1110.308913,0.000000
909.375340,-9770.718434,-888.247130,0.000000
909.375660,-9770.718434,-740.205942,0.000000
909.375981,-9770.718434,-962.267725,459.657299
909.376302,-9548.656652,-962.267725,-536.266849
909.376622,-9474.636058,-1184.329507,-1149.143247
909.376943,-9474.636058,-1924.535449,-842.705048
909.377264,-9178.553681,-2368.659014,-1302.362347
909.377584,-9030.512492,-2664.741391,-995.924147
909.377905,-9030.512492,-2960.823768,-1762.019645
909.378226,-9252.574275,-2516.700203,-2451.505594
909.378546,-9474.636058,-2368.659014,-2528.115143
909.378867,-9622.677246,-2220.617826,-3064.381992
909.379187,-9622.677246,-2590.720797,-3140.991542
909.379508,-9622.677246,-2960.823768,-3830.477490
909.379829,-9622.677246,-3404.947333,-3753.867940
909.380149,-9548.656652,-3849.070898,-4749.792088
909.380470,-9918.759623,-3849.070898,-3677.258390
909.380791,-9548.656652,-3775.050304,-3294.210641
909.381111,-9548.656652,-3923.091493,-2987.772442
909.381432,-9622.677246,-4293.194464,-2604.724693
909.381753,-9326.594869,-4959.379811,-2681.334243
909.382073,-9400.615463,-5033.400406,-2451.505594
909.382394,-9474.636058,-4811.338623,-2528.115143
909.382714,-9474.636058,-4293.194464,-2298.286494
909.383035,-9178.553681,-4663.297435,-2987.772442
909.383356,-9474.636058,-3552.988522,-2221.676944
909.383676,-9474.636058,-3404.947333,-2451.505594
909.383997,-9622.677246,-3552.988522,-2757.943793
909.384318,-9548.656652,-2886.803174,-612.876398
909.384638,-9918.759623,-3182.885551,-1991.848295
909.384959,-9992.780217,-3552.988522,-1225.752797
909.385280,-10066.800811,-3330.926739,-689.485948
909.385600,-10140.821405,-3330.926739,76.609550
909.385921,-10140.821405,-2664.741391,1225.752797
909.386241,-10658.965565,-3108.864956,1685.410096
909.386562,-9918.759623,-3108.864956,1608.800546
909.386883,-9548.656652,-3108.864956,1378.971896
909.387203,-9918.759623,-2368.659014,689.485948
909.387524,-9178.553681,-3108.864956,76.609550
909.387845,-8882.471304,-3478.967927,-383.047749
909.388165,-8956.491898,-3552.988522,-1302.362347
909.388486,-8882.471304,-3627.009116,-1378.971896
909.388807,-9326.594869,-2960.823768,-1072.533697
909.389127,-9844.739029,-2886.803174,-842.705048
909.389448,-10140.821405,-2738.761985,-536.266849
909.389768,-10510.924376,-2664.741391,-153.219100
909.390089,-10436.903782,-2738.761985,306.438199
909.390410,-10214.842000,-3108.864956,153.219100
909.390730,-9770.718434,-2664.741391,459.657299
909.391051,-9622.677246,-2442.679609,612.876398
909.391372,-9326.594869,-1702.473667,1072.533697
909.391692,-9474.636058,-962.267725,1378.971896
909.392013,-9252.574275,-740.205942,1225.752797
909.392334,-9178.553681,-962.267725,153.219100
909.392654,-9030.512492,-370.102971,-842.705048
909.392975,-9030.512492,-1036.288319,-1532.190996
909.393295,-8586.388927,-1036.288319,-2528.115143
909.393616,-9030.512492,-1554.432478,-3217.601092
909.393937,-8956.491898,-2072.576638,-3600.648841
909.394257,-10214.842000,-2294.638420,-4519.963438
909.394578,-10436.903782,-1998.556043,-4060.306139
909.394899,-10510.924376,-2072.576638,-3907.087040
909.395219,-10584.944971,-1332.370696,-3140.991542
909.395540,-11029.068536,-888.247130,-1915.238745
909.395861,-10288.862594,-1628.453072,-1225.752797
909.396181,-9992.780217,-2072.576638,-1149.143247
909.396502,-9474.636058,-1998.556043,-1455.581446
909.396822,-8216.285956,-1702.473667,-1149.143247
909.397143,-8364.327145,0.000000,-1991.848295
909.397464,-8364.327145,888.247130,-1915.238745
909.397784,-8290.306550,592.164754,-2298.286494
909.398105,-8438.347739,-444.123565,-2834.553343
909.398426,-9178.553681,-2368.659014,-3294.210641
909.398746,-9474.636058,-2664.741391,-2987.772442
909.399067,-10214.842000,-3034.844362,-2604.724693
909.399388,-10658.965565,-1258.350101,-689.485948
909.399708,-11177.109724,-962.267725,919.314598
909.400029,-11399.171507,-1628.453072,383.047749
909.400349,-10807.006753,-2294.638420,153.219100
909.400670,-9992.780217,-3182.885551,-842.705048
909.400991,-9178.553681,-2368.659014,-459.657299
909.401311,-8956.491898,-2886.803174,-153.219100
909.401632,-8364.327145,-3256.906145,-536.266849
909.401953,-8068.244768,-3256.906145,-1225.752797
909.402273,-8216.285956,-3701.029710,-1915.238745
909.402594,-8068.244768,-3330.926739,-1149.143247
909.402915,-9918.759623,-3182.885551,612.876398
909.403235,-10214.842000,-2368.659014,1762.019645
909.403556,-11103.089130,-2960.823768,1302.362347
909.403876,-10807.006753,-2812.782580,995.924147
909.404197,-10362.883188,-2886.803174,1072.533697
909.404518,-10214.842000,-2886.803174,1378.971896
909.404838,-9770.718434,-3182.885551,229.828649
909.405159,-8586.388927,-3330.926739,-995.924147
909.405480,-8512.368333,-1776.494261,-1532.190996
909.405800,-8586.388927,-444.123565,153.219100
909.406121,-9548.656652,-962.267725,1762.019645
909.406442,-9548.656652,-2516.700203,1915.238745
909.406762,-9104.533087,-3775.050304,-229.828649
909.407083,-8586.388927,-3182.885551,-766.095498
909.407403,-9474.636058,-2590.720797,536.266849
909.407724,-9326.594869,-1554.432478,1685.410096
909.408045,-10510.924376,-5477.523971,-1225.752797
909.408365,-8364.327145,-2072.576638,-2834.553343
909.408686,-10436.903782,-3552.988522,-3830.477490
909.409007,-10066.800811,-1332.370696,-1532.190996
909.409327,-11473.192101,-1036.288319,-2221.676944
909.409648,-10510.924376,-1110.308913,-1532.190996
909.409969,-8956.491898,-1702.473667,-3294.210641
909.410289,-8808.450710,-1184.329507,-2298.286494
909.410610,-10955.047942,-1036.288319,-1915.238745
909.410930,-9474.636058,-740.205942,383.047749
909.411251,-9844.739029,592.164754,1302.362347
909.411572,-9992.780217,1110.308913,2451.505594
909.411892,-9474.636058,-222.061783,1225.752797
909.412213,-10436.903782,-518.144159,1225.752797
909.412534,-8808.450710,-296.082377,0.000000
909.412854,-8882.471304,-444.123565,-1149.143247
909.413175,-8808.450710,0.000000,0.000000
909.413496,-9178.553681,-1406.391290,-995.924147
909.413816,-9400.615463,-370.102971,-1149.143247
909.414137,-10214.842000,0.000000,-153.219100
909.414457,-10955.047942,1110.308913,1608.800546
909.414778,-11621.233289,370.102971,1838.629195
909.415099,-11029.068536,888.247130,1455.581446
909.415419,-10510.924376,0.000000,1608.800546
909.415740,-9030.512492,0.000000,1762.019645
909.416061,-9622.677246,-222.061783,2145.067394
909.416381,-9030.512492,1406.391290,3600.648841
909.416702,-8586.388927,1110.308913,3217.601092
909.417023,-8956.491898,444.123565,3447.429741
909.417343,-8660.409521,0.000000,2298.286494
909.417664,-8586.388927,-592.164754,1225.752797
909.417984,-9326.594869,-444.123565,1685.410096
909.418305,-8512.368333,-962.267725,1225.752797
909.418626,-9474.636058,-1480.411884,766.095498
909.418946,-9548.656652,74.020594,2757.943793
909.419267,-10955.047942,740.205942,2068.457845
909.419588,-10732.986159,1110.308913,2987.772442
909.419908,-11325.150913,0.000000,1915.238745
909.420229,-9696.697840,1036.288319,1762.019645
909.420550,-9992.780217,222.061783,1915.238745
909.420870,-9104.533087,74.020594,2451.505594
909.421191,-8808.450710,-592.164754,2145.067394
909.421511,-9030.512492,0.000000,2298.286494
909.421832,-8586.388927,888.247130,2987.772442
909.422152,-9326.594869,-518.144159,2451.505594
909.422473,-9474.636058,0.000000,1455.581446
909.422793,-9178.553681,518.144159,306.438199
909.423114,-9474.636058,444.123565,0.000000
909.423435,-10140.821405,0.000000,-153.219100
909.423755,-9844.739029,-1628.453072,-689.485948
909.424076,-9622.677246,-1998.556043,-1225.752797
909.424396,-10140.821405,-1480.411884,-919.314598
909.424717,-10732.986159,-1110.308913,76.609550
909.425037,-11103.089130,-888.247130,612.876398
909.425358,-10214.842000,74.020594,153.219100
909.425679,-9622.677246,0.000000,-306.438199
909.425999,-8956.491898,-444.123565,-229.828649
909.426320,-8882.471304,-1036.288319,229.828649
909.426640,-9326.594869,-666.185348,1072.533697
909.426961,-8290.306550,0.000000,1762.019645
909.427281,-9178.553681,-740.205942,1915.238745
909.427602,-8734.430116,0.000000,459.657299
909.427922,-9918.759623,0.000000,229.828649
909.428243,-9622.677246,666.185348,689.485948
909.428564,-9400.615463,-444.123565,383.047749
909.428884,-9548.656652,-1406.391290,229.828649
909.429205,-9770.718434,-2368.659014,0.000000
909.429525,-9770.718434,-2146.597232,-229.828649
909.429846,-10510.924376,-2072.576638,612.876398
909.430166,-9696.697840,-1480.411884,536.266849
909.430487,-9622.677246,0.000000,842.705048
909.430807,-9474.636058,148.041188,1149.143247
909.431128,-9474.636058,-666.185348,1378.971896
909.431449,-8956.491898,-1184.329507,2221.676944
909.431769,-9992.780217,0.000000,2757.943793
909.432090,-9622.677246,-962.267725,4136.915689
909.432410,-9548.656652,-1998.556043,4290.134789
909.432731,-9992.780217,-1406.391290,2528.115143
909.433051,-9474.636058,518.144159,689.485948
909.433372,-9252.574275,1258.350101,1302.362347
909.433692,-9474.636058,518.144159,1378.971896
909.434013,-9696.697840,-1184.329507,536.266849
909.434334,-9474.636058,-1850.514855,-612.876398
909.434654,-9696.697840,-1184.329507,536.266849
909.434975,-9844.739029,-888.247130,1762.019645
909.435295,-11621.233289,-296.082377,2298.286494
909.435616,-11103.089130,1258.350101,2298.286494
909.435936,-9104.533087,1110.308913,1838.629195
909.436257,-9400.615463,-592.164754,1762.019645
909.436578,-9326.594869,-1702.473667,1072.533697
909.436898,-9104.533087,-814.226536,1378.971896
909.437219,-9252.574275,518.144159,2451.505594
909.437539,-9104.533087,444.123565,2374.896044
909.437860,-8956.491898,592.164754,1225.752797
909.438180,-9252.574275,666.185348,-306.438199
909.438501,-9474.636058,1184.329507,-766.095498
909.438821,-9178.553681,666.185348,0.000000
909.439142,-9918.759623,-148.041188,-995.924147
909.439463,-9918.759623,592.164754,-1532.190996
909.439783,-10807.006753,1258.350101,-153.219100
909.440104,-11695.253884,962.267725,919.314598
909.440424,-11399.171507,666.185348,1455.581446
909.440745,-10658.965565,1184.329507,459.657299
909.441065,-9918.759623,1258.350101,0.000000
909.441386,-9622.677246,296.082377,-995.924147
909.441706,-8660.409521,-148.041188,-153.219100
909.442027,-8364.327145,0.000000,-229.828649
909.442348,-8216.285956,148.041188,459.657299
909.442668,-8660.409521,-222.061783,1378.971896
909.442989,-9918.759623,-592.164754,1378.971896
909.443309,-9622.677246,370.102971,919.314598
909.443630,-10510.924376,444.123565,2221.676944
909.443950,-10584.944971,-740.205942,2834.553343
909.444271,-9844.739029,-2368.659014,1991.848295
909.444592,-10955.047942,-2368.659014,1762.019645
909.444912,-9548.656652,-2146.597232,1762.019645
909.445233,-9696.697840,-1998.556043,2068.457845
909.445553,-10066.800811,-666.185348,919.314598
909.445874,-8586.388927,0.000000,229.828649
909.446194,-8734.430116,740.205942,612.876398
909.446515,-8512.368333,74.020594,1455.581446
909.446835,-8734.430116,-1332.370696,1991.848295
909.447156,-9030.512492,-962.267725,3294.210641
909.447477,-9622.677246,-666.185348,3830.477490
909.447797,-9696.697840,-222.061783,5132.839837
909.448118,-9844.739029,-666.185348,3753.867940
909.448438,-8956.491898,74.020594,2221.676944
909.448759,-9474.636058,296.082377,459.657299
909.449079,-9178.553681,0.000000,-306.438199
909.449400,-8882.471304,-1406.391290,-1072.533697
909.449720,-9030.512492,-1184.329507,-1762.019645
909.450041,-10288.862594,-962.267725,229.828649
909.450362,-10881.027347,-814.226536,2145.067394
909.450682,-11547.212695,-1554.432478,2757.943793
909.451003,-11695.253884,-962.267725,2528.115143
909.451323,-10807.006753,0.000000,1991.848295
909.451644,-10436.903782,0.000000,1455.581446
909.451964,-9400.615463,-1036.288319,153.219100
909.452285,-7328.038826,740.205942,-459.657299
909.452605,-8068.244768,370.102971,-536.266849
909.452926,-7476.080014,0.000000,153.219100
909.453247,-8956.491898,-2146.597232,-1378.971896
909.453567,-8586.388927,-444.123565,-1378.971896
909.453888,-10214.842000,814.226536,-612.876398
909.454208,-10510.924376,814.226536,1302.362347
909.454529,-10807.006753,-1480.411884,1072.533697
909.454849,-10362.883188,-2368.659014,306.438199
909.455170,-10066.800811,-2590.720797,-306.438199
909.455491,-10288.862594,-2664.741391,995.924147
909.455811,-10362.883188,-1332.370696,919.314598
909.456132,-9770.718434,518.144159,153.219100
909.456452,-9030.512492,1850.514855,-229.828649
909.456773,-7846.182985,1184.329507,306.438199
909.457093,-8808.450710,0.000000,689.485948
909.457414,-9622.677246,-962.267725,1532.190996
909.457734,-9030.512492,-518.144159,2374.896044
909.458055,-9104.533087,-592.164754,1378.971896
909.458376,-9474.636058,-740.205942,1072.533697
909.458696,-9178.553681,888.247130,0.000000
909.459017,-9548.656652,1628.453072,-229.828649
909.459337,-9326.594869,814.226536,459.657299
909.459658,-9178.553681,-518.144159,-383.047749
909.459978,-10066.800811,-1628.453072,-842.705048
909.460299,-9992.780217,-1480.411884,995.924147
909.460619,-10807.006753,-1036.288319,2451.505594
909.460940,-11251.130318,-444.123565,3677.258390
909.461261,-9918.759623,148.041188,2451.505594
909.461581,-9918.759623,592.164754,2528.115143
909.461902,-9030.512492,0.000000,1915.238745
909.462222,-9770.718434,-1184.329507,1608.800546
909.462543,-8882.471304,-370.102971,1762.019645
909.462863,-8882.471304,74.020594,2145.067394
909.463184,-8808.450710,0.000000,2374.896044
909.463504,-9474.636058,296.082377,3600.648841
909.463825,-9770.718434,740.205942,842.705048
909.464146,-9400.615463,1332.370696,536.266849
909.464466,-9918.759623,962.267725,766.095498
909.464787,-10066.800811,-148.041188,766.095498
909.465107,-10362.883188,-296.082377,306.438199
909.465428,-10807.006753,-1036.288319,1762.019645
909.465748,-10732.986159,-1110.308913,2834.553343
909.466069,-10807.006753,-1110.308913,2451.505594
909.466390,-10955.047942,296.082377,842.705048
909.466710,-10140.821405,1480.411884,689.485948
909.467031,-8956.491898,962.267725,842.705048
909.467351,-8808.450710,74.020594,383.047749
909.467672,-8364.327145,0.000000,0.000000
909.467992,-8438.347739,0.000000,0.000000
909.468313,-9326.594869,-740.205942,1225.752797
909.468633,-9696.697840,-962.267725,1149.143247
909.468954,-9844.739029,-666.185348,0.000000
909.469275,-9696.697840,0.000000,-153.219100
909.469595,-9326.594869,-296.082377,-383.047749
909.469916,-9474.636058,-888.247130,0.000000
909.470236,-9844.739029,-1110.308913,153.219100
909.470557,-8808.450710,-74.020594,76.609550
909.470877,-10066.800811,-962.267725,1302.362347
909.471198,-9844.739029,-1110.308913,1455.581446
909.471518,-9696.697840,222.061783,919.314598
909.471839,-9474.636058,814.226536,1915.238745
909.472160,-8438.347739,0.000000,612.876398
909.472480,-9326.594869,-444.123565,919.314598
909.472801,-8734.430116,0.000000,1225.752797
909.473121,-9474.636058,0.000000,2451.505594
909.473442,-9474.636058,962.267725,3217.601092
909.473762,-10658.965565,-148.041188,2987.772442
909.474083,-9622.677246,296.082377,842.705048
909.474404,-10288.862594,370.102971,995.924147
909.474724,-9696.697840,-740.205942,1685.410096
909.475045,-9770.718434,-1258.350101,1302.362347
909.475365,-9770.718434,-2368.659014,383.047749
909.475686,-9178.553681,-1480.411884,612.876398
909.476006,-9844.739029,-1998.556043,1225.752797
909.476327,-9548.656652,-370.102971,2374.896044
909.476647,-10214.842000,0.000000,2145.067394
909.476968,-9548.656652,444.123565,1302.362347
909.477289,-8882.471304,0.000000,1149.143247
909.477609,-9030.512492,-1184.329507,842.705048
909.477930,-7772.162391,0.000000,1532.190996
909.478250,-9474.636058,-814.226536,1455.581446
909.478571,-9326.594869,-296.082377,2681.334243
909.478891,-9474.636058,-2072.576638,2298.286494
909.479212,-9844.739029,-2220.617826,0.000000
909.479532,-9918.759623,-888.247130,-306.438199
909.479853,-9992.780217,-296.082377,76.609550
909.480174,-9696.697840,-518.144159,0.000000
909.480494,-9252.574275,-1332.370696,-612.876398
909.480815,-9770.718434,-1258.350101,689.485948
909.481135,-10140.821405,-1480.411884,1915.238745
909.481456,-10066.800811,-740.205942,1685.410096
909.481776,-9548.656652,148.041188,842.705048
909.482097,-9918.759623,1480.411884,919.314598
909.482417,-9400.615463,2072.576638,1532.190996
909.482738,-9326.594869,666.185348,995.924147
909.483059,-7772.162391,-444.123565,536.266849
909.483379,-9030.512492,-296.082377,766.095498
909.483700,-9474.636058,-592.164754,1685.410096
909.484020,-9918.759623,-1406.391290,1072.533697
909.484341,-9326.594869,444.123565,1072.533697
909.484661,-9918.759623,1184.329507,-383.047749
909.484982,-9474.636058,740.205942,-306.438199
909.485303,-10214.842000,-370.102971,76.609550
909.485623,-9992.780217,-1776.494261,229.828649
909.485944,-9474.636058,-2146.597232,-689.485948
909.486264,-10362.883188,-1998.556043,995.924147
909.486585,-10510.924376,-962.267725,1991.848295
909.486905,-10214.842000,74.020594,1608.800546
909.487226,-9770.718434,1332.370696,1608.800546
909.487546,-9326.594869,1110.308913,1608.800546
909.487867,-8660.409521,0.000000,612.876398
909.488188,-9400.615463,0.000000,1302.362347
909.488508,-8660.409521,222.061783,3370.820191
909.488829,-9400.615463,0.000000,2681.334243
909.489149,-9992.780217,-370.102971,2451.505594
909.489470,-9548.656652,-740.205942,229.828649
909.489790,-9326.594869,74.020594,0.000000
909.490111,-9474.636058,888.247130,536.266849
909.490431,-9474.636058,-148.041188,766.095498
909.490752,-9400.615463,-518.144159,153.219100
909.491073,-9696.697840,-222.061783,842.705048
909.491393,-9474.636058,-740.205942,1225.752797
909.491714,-10066.800811,-888.247130,2987.772442
909.492034,-10288.862594,-222.061783,3140.991542
909.492355,-9548.656652,888.247130,2145.067394
909.492675,-9104.533087,370.102971,2068.457845
909.492996,-8734.430116,296.082377,2068.457845
909.493317,-8586.388927,222.061783,1915.238745
909.493637,-9104.533087,0.000000,2068.457845
909.493958,-9474.636058,-148.041188,2834.553343
909.494278,-9474.636058,-1924.535449,1685.410096
909.494599,-9252.574275,-1406.391290,-153.219100
909.494919,-9474.636058,0.000000,-842.705048
909.495240,-9548.656652,518.144159,-689.485948
909.495560,-9770.718434,-666.185348,-1225.752797
909.495881,-9696.697840,-814.226536,-689.485948
909.496202,-10214.842000,-1184.329507,536.266849
909.496522,-10584.944971,-1628.453072,1302.362347
909.496843,-11325.150913,-1776.494261,3983.696590
909.497163,-9992.780217,-1110.308913,1455.581446
909.497484,-9474.636058,370.102971,995.924147
909.497804,-9326.594869,740.205942,1378.971896
909.498125,-8882.471304,296.082377,766.095498
909.498445,-8364.327145,296.082377,919.314598
909.498766,-9252.574275,592.164754,1532.190996
909.499087,-9622.677246,0.000000,2145.067394
909.499407,-10066.800811,-962.267725,1608.800546
909.499728,-10510.924376,-296.082377,1838.629195
909.500048,-9252.574275,0.000000,-459.657299
909.500369,-9474.636058,-518.144159,-383.047749
909.500689,-9474.636058,-814.226536,153.219100
909.501010,-9918.759623,-2368.659014,-919.314598
909.501330,-9104.533087,-1036.288319,-459.657299
909.501651,-10362.883188,-1110.308913,1378.971896
909.501972,-9992.780217,-518.144159,1532.190996
909.502292,-10140.821405,296.082377,1378.971896
909.502613,-9622.677246,1998.556043,919.314598
909.502933,-9104.533087,962.267725,1225.752797
909.503254,-8808.450710,-666.185348,1915.238745
909.503574,-8734.430116,-1036.288319,1378.971896
909.503895,-9030.512492,-666.185348,1532.190996
909.504216,-9844.739029,-444.123565,2834.553343
909.504536,-9400.615463,-962.267725,2145.067394
909.504857,-9696.697840,-814.226536,-153.219100
909.505177,-9252.574275,518.144159,-153.219100
909.505498,-8734.430116,-148.041188,-1302.362347
909.505818,-9030.512492,-1998.556043,-1532.190996
909.506139,-9030.512492,-2442.679609,-1762.019645
909.506459,-10066.800811,-2220.617826,-306.438199
909.506780,-11103.089130,-1554.432478,1991.848295
909.507101,-12065.356855,-1332.370696,3524.039291
909.507421,-11917.315666,222.061783,3907.087040
909.507742,-11547.212695,444.123565,3217.601092
909.508062,-10288.862594,740.205942,2834.553343
909.508383,-9474.636058,-1184.329507,919.314598
909.508703,-7179.997637,-814.226536,0.000000
909.509024,-6957.935855,0.000000,-536.266849
909.509344,-8586.388927,740.205942,383.047749
909.509665,-9326.594869,-518.144159,766.095498
909.509986,-9030.512492,-592.164754,383.047749
909.510306,-10658.965565,518.144159,459.657299
909.510627,-11399.171507,666.185348,2298.286494
909.510947,-11843.295072,-296.082377,2528.115143
909.511268,-10807.006753,-222.061783,1915.238745
909.511588,-10436.903782,370.102971,1149.143247
909.511909,-9548.656652,-296.082377,1608.800546
909.512230,-9252.574275,-1480.411884,2757.943793
909.512550,-9474.636058,-814.226536,919.314598
909.512871,-8660.409521,444.123565,229.828649
909.513191,-8438.347739,1184.329507,919.314598
909.513512,-9030.512492,518.144159,1378.971896
909.513832,-9326.594869,0.000000,2604.724693
909.514153,-9400.615463,148.041188,3217.601092
909.514473,-9696.697840,-296.082377,3983.696590
909.514794,-10214.842000,-1406.391290,3830.477490
909.515115,-10066.800811,-1332.370696,1685.410096
909.515435,-9696.697840,370.102971,153.219100
909.515756,-9326.594869,1258.350101,-766.095498
909.516076,-8660.409521,666.185348,-919.314598
909.516397,-8438.347739,-666.185348,-1532.190996
909.516717,-9252.574275,-370.102971,-1072.533697
909.517038,-10140.821405,-1184.329507,306.438199
909.517358,-10732.986159,-1554.432478,1455.581446
909.517679,-11177.109724,-518.144159,3370.820191
909.518000,-10066.800811,518.144159,1685.410096
909.518320,-10066.800811,814.226536,1838.629195
909.518641,-8956.491898,74.020594,1838.629195
909.518961,-8956.491898,-666.185348,1608.800546
909.519282,-8956.491898,0.000000,1455.581446
909.519602,-9252.574275,-370.102971,1685.410096
909.519923,-9474.636058,-814.226536,1608.800546
909.520244,-9252.574275,-1184.329507,0.000000
909.520564,-9326.594869,592.164754,-1225.752797
909.520885,-9622.677246,1258.350101,-612.876398
909.521206,-9918.759623,-888.247130,0.000000
909.521526,-9992.780217,-2072.576638,-612.876398
909.521847,-11177.109724,-740.205942,-536.266849
909.522168,-10658.965565,-888.247130,1378.971896
909.522488,-11621.233289,0.000000,2987.772442
909.522809,-11251.130318,444.123565,2604.724693
909.523130,-10288.862594,1036.288319,1762.019645
909.523450,-8956.491898,148.041188,842.705048
909.523771,-8660.409521,-1184.329507,383.047749
909.524092,-8142.265362,-740.205942,919.314598
909.524412,-8808.450710,0.000000,1378.971896
909.524733,-9030.512492,666.185348,1762.019645
909.525054,-9326.594869,-666.185348,2757.943793
909.525374,-8956.491898,518.144159,2068.457845
909.525695,-11695.253884,-2664.741391,1072.533697
909.526016,-8290.306550,-740.205942,766.095498
909.526336,-10288.862594,-2294.638420,-383.047749
909.526657,-9918.759623,-1332.370696,0.000000
909.526978,-8364.327145,-1036.288319,-842.705048
909.527298,-10584.944971,-1110.308913,1762.019645
909.527619,-10214.842000,-1702.473667,1991.848295
909.527940,-9252.574275,-1776.494261,153.219100
909.528260,-11769.274478,370.102971,2374.896044
909.528581,-8364.327145,0.000000,995.924147
909.528902,-9622.677246,0.000000,1838.629195
909.529222,-8882.471304,-296.082377,3140.991542
909.529543,-7772.162391,-740.205942,1838.629195
909.529864,-9844.739029,-814.226536,3140.991542
909.530184,-10214.842000,-444.123565,3294.210641
909.530505,-8956.491898,0.000000,1149.143247
909.530826,-10510.924376,1332.370696,1302.362347
909.531146,-9918.759623,1110.308913,766.095498
909.531467,-9474.636058,444.123565,306.438199
909.531788,-10140.821405,-1480.411884,0.000000
909.532108,-9696.697840,-1480.411884,-1225.752797
909.532429,-10362.883188,-1480.411884,383.047749
909.532750,-10584.944971,-1554.432478,1225.752797
909.533070,-9770.718434,444.123565,919.314598
909.533391,-10140.821405,1258.350101,383.047749
909.533712,-9844.739029,814.226536,76.609550
909.534032,-9178.553681,222.061783,766.095498
909.534353,-9252.574275,-370.102971,-919.314598
909.534674,-9474.636058,-296.082377,1608.800546
909.534994,-9252.574275,-148.041188,2451.505594
909.535315,-9400.615463,-1184.329507,1991.848295
909.535636,-9696.697840,-518.144159,536.266849
909.535956,-8660.409521,1702.473667,0.000000
909.536277,-9622.677246,2072.576638,-383.047749
909.536598,-9474.636058,962.267725,459.657299
909.536918,-9400.615463,-370.102971,-842.705048
909.537239,-10436.903782,-1406.391290,0.000000
909.537560,-9696.697840,-1628.453072,-383.047749
909.537880,-10066.800811,-1110.308913,1072.533697
909.538201,-10658.965565,-592.164754,1225.752797
909.538522,-9622.677246,1258.350101,2528.115143
909.538842,-9474.636058,1702.473667,1225.752797
909.539163,-9178.553681,0.000000,2068.457845
909.539484,-8956.491898,-888.247130,2221.676944
909.539804,-9030.512492,-222.061783,3140.991542
909.540125,-9326.594869,-444.123565,3524.039291
909.540446,-9326.594869,-74.020594,3907.087040
909.540766,-9400.615463,-1110.308913,2374.896044
909.541087,-8660.409521,296.082377,229.828649
909.541408,-8956.491898,740.205942,1072.533697
909.541729,-8882.471304,148.041188,0.000000
909.542049,-9696.697840,-962.267725,-612.876398
909.542370,-9474.636058,-1628.453072,-919.314598
909.542691,-10288.862594,-814.226536,2834.553343
909.543011,-11547.212695,-2072.576638,2681.334243
909.543332,-10436.903782,-1184.329507,2145.067394
909.543653,-11251.130318,666.185348,2298.286494
909.543973,-10140.821405,1628.453072,2451.505594
909.544294,-9622.677246,444.123565,2451.505594
909.544615,-9622.677246,-962.267725,2221.676944
909.544935,-8734.430116,-444.123565,1608.800546
909.545256,-9326.594869,-1184.329507,2145.067394
909.545577,-8068.244768,-1406.391290,2451.505594
909.545897,-9178.553681,-1184.329507,612.876398
909.546218,-9326.594869,444.123565,229.828649
909.546539,-9326.594869,592.164754,0.000000
909.546859,-9548.656652,148.041188,0.000000
909.547180,-10066.800811,-1184.329507,0.000000
909.547501,-9696.697840,-1702.473667,-459.657299
909.547821,-10584.944971,-1110.308913,459.657299
909.548142,-10955.047942,-888.247130,1455.581446
909.548463,-10881.027347,-666.185348,1378.971896
909.548783,-9548.656652,444.123565,689.485948
909.549104,-9844.739029,-148.041188,612.876398
909.549425,-8956.491898,-444.123565,842.705048
909.549745,-9770.718434,-1480.411884,459.657299
909.550066,-8512.368333,-1036.288319,1915.238745
909.550387,-9030.512492,-1332.370696,2604.724693
909.550707,-9252.574275,-1036.288319,2911.162892
909.551028,-9326.594869,-1036.288319,1685.410096
909.551349,-9104.533087,370.102971,229.828649
909.551669,-8956.491898,1110.308913,0.000000
909.551990,-8882.471304,962.267725,0.000000
909.552311,-9844.739029,-1110.308913,-1378.971896
909.552631,-9326.594869,222.061783,-1072.533697
909.552952,-10066.800811,-592.164754,0.000000
909.553273,-9770.718434,-962.267725,1225.752797
909.553593,-11029.068536,-1628.453072,1378.971896
909.553914,-9622.677246,0.000000,383.047749
909.554235,-10214.842000,592.164754,459.657299
909.554555,-8808.450710,0.000000,919.314598
909.554876,-8734.430116,-888.247130,1302.362347
909.555197,-9030.512492,-74.020594,2145.067394
909.555517,-9474.636058,-370.102971,2987.772442
909.555838,-9474.636058,-814.226536,2911.162892
909.556159,-9474.636058,-1258.350101,2068.457845
909.556479,-9622.677246,-592.164754,536.266849
909.556800,-9770.718434,296.082377,612.876398
909.557121,-9104.533087,-74.020594,306.438199
909.557441,-9400.615463,-666.185348,-306.438199
909.557762,-9622.677246,-740.205942,-995.924147
909.558083,-9770.718434,0.000000,229.828649
909.558403,-10955.047942,-666.185348,995.924147
909.558724,-10362.883188,-444.123565,1302.362347
909.559045,-10066.800811,444.123565,919.314598
909.559365,-10140.821405,370.102971,1608.800546
909.559686,-9844.739029,-296.082377,2068.457845
909.560007,-10436.903782,-518.144159,2221.676944
909.560327,-9548.656652,0.000000,2681.334243
909.560648,-9622.677246,-222.061783,2911.162892
909.560969,-9844.739029,-370.102971,3217.601092
909.561289,-9474.636058,0.000000,1838.629195
909.561610,-9400.615463,962.267725,536.266849
909.561931,-9548.656652,1036.288319,76.609550
909.562251,-8660.409521,296.082377,-153.219100
909.562572,-9474.636058,-1554.432478,-1149.143247
909.562893,-9474.636058,-1110.308913,-1915.238745
909.563213,-9548.656652,-1036.288319,-612.876398
909.563534,-9622.677246,-1184.329507,383.047749
909.563855,-10140.821405,-1184.329507,229.828649
909.564175,-10066.800811,444.123565,0.000000
909.564496,-9770.718434,444.123565,1302.362347
909.564817,-9992.780217,296.082377,2528.115143
909.565137,-10732.986159,-888.247130,3064.381992
909.565458,-9326.594869,-444.123565,6588.421283
909.565779,-10214.842000,-1332.370696,3447.429741
909.566099,-9252.574275,-444.123565,3217.601092
909.566420,-9400.615463,-962.267725,1915.238745
909.566741,-8660.409521,1184.329507,383.047749
909.567061,-8512.368333,2072.576638,-612.876398
909.567382,-9030.512492,1110.308913,-383.047749
909.567703,-8660.409521,-296.082377,-612.876398
909.568023,-9178.553681,-518.144159,-306.438199
909.568344,-11251.130318,-370.102971,1149.143247
909.568665,-10584.944971,-1258.350101,2757.943793
909.568985,-11103.089130,-2146.597232,2221.676944
909.569306,-10214.842000,-444.123565,1608.800546
909.569627,-10288.862594,814.226536,383.047749
909.569947,-9400.615463,1110.308913,1838.629195
909.570268,-9992.780217,-296.082377,1838.629195
909.570589,-9104.533087,1036.288319,1991.848295
909.570910,-10436.903782,-888.247130,1991.848295
909.571230,-9326.594869,-1332.370696,2451.505594
909.571551,-9770.718434,-1702.473667,1608.800546
909.571872,-9844.739029,370.102971,536.266849
909.572192,-10362.883188,1554.432478,1072.533697
909.572513,-8660.409521,1258.350101,1608.800546
909.572834,-9844.739029,-370.102971,306.438199
909.573154,-9474.636058,-1184.329507,-919.314598
909.573475,-9844.739029,-1554.432478,-383.047749
909.573796,-9992.780217,-740.205942,2145.067394
909.574116,-10362.883188,-740.205942,1072.533697
909.574437,-9474.636058,518.144159,1225.752797
909.574758,-9918.759623,370.102971,1149.143247
909.575078,-9474.636058,-444.123565,1149.143247
909.575399,-9326.594869,-814.226536,919.314598
909.575720,-9474.636058,-518.144159,1838.629195
909.576040,-9474.636058,-444.123565,2451.505594
909.576361,-9770.718434,-1332.370696,2911.162892
909.576682,-9474.636058,-1258.350101,1378.971896
909.577002,-8586.388927,-888.247130,-306.438199
909.577323,-8290.306550,888.247130,-306.438199
909.577644,-8882.471304,1036.288319,766.095498
909.577964,-9474.636058,-1406.391290,-1302.362347
909.578285,-8364.327145,-592.164754,-1302.362347
909.578606,-9770.718434,-1480.411884,0.000000
909.578926,-9844.739029,-666.185348,1455.581446
909.579247,-11547.212695,-1258.350101,3064.381992
909.579568,-11029.068536,-370.102971,2757.943793
909.579888,-10510.924376,0.000000,2681.334243
909.580209,-10066.800811,-518.144159,2298.286494
909.580530,-9844.739029,-518.144159,2068.457845
909.580850,-8882.471304,-148.041188,1225.752797
909.581171,-8882.471304,296.082377,1378.971896
909.581492,-8068.244768,-518.144159,766.095498
909.581812,-8660.409521,-1332.370696,-306.438199
909.582133,-8586.388927,-296.082377,-2834.553343
909.582454,-9844.739029,518.144159,-612.876398
909.582774,-9770.718434,370.102971,306.438199
909.583095,-10140.821405,-962.267725,229.828649
909.583416,-10658.965565,-740.205942,995.924147
909.583736,-11029.068536,-1332.370696,1378.971896
909.584057,-11177.109724,-666.185348,2298.286494
909.584378,-10807.006753,-666.185348,2681.334243
909.584698,-9474.636058,-296.082377,995.924147
909.585019,-9622.677246,666.185348,229.828649
909.585340,-9104.533087,-666.185348,842.705048
909.585660,-8734.430116,-1702.473667,1072.533697
909.585981,-9474.636058,-1036.288319,1225.752797
909.586302,-9548.656652,-740.205942,1225.752797
909.586622,-9992.780217,-814.226536,2987.772442
909.586943,-10066.800811,-888.247130,2221.676944
909.587264,-9622.677246,222.061783,459.657299
909.587584,-9400.615463,1184.329507,459.657299
909.587905,-9252.574275,444.123565,229.828649
909.588226,-8956.491898,-518.144159,-153.219100
909.588546,-9030.512492,-1036.288319,-689.485948
909.588867,-9326.594869,-296.082377,459.657299
909.589188,-10066.800811,0.000000,1991.848295
909.589508,-10510.924376,296.082377,2298.286494
909.589829,-10288.862594,962.267725,2298.286494
909.590150,-10140.821405,0.000000,1915.238745
909.590470,-9252.574275,-592.164754,1225.752797
909.590791,-9400.615463,-1258.350101,1532.190996
909.591112,-8808.450710,74.020594,1838.629195
909.591432,-9400.615463,740.205942,2145.067394
909.591753,-9178.553681,962.267725,2757.943793
909.592074,-9252.574275,518.144159,1762.019645
909.592394,-9474.636058,592.164754,-306.438199
909.592715,-9400.615463,1332.370696,-612.876398
909.593036,-9030.512492,666.185348,229.828649
909.593356,-8956.491898,-1036.288319,-306.438199
909.593677,-9474.636058,-962.267725,0.000000
909.593998,-10288.862594,-1036.288319,919.314598
909.594318,-10510.924376,-1332.370696,1838.629195
909.594639,-10066.800811,-962.267725,2681.334243
909.594960,-10140.821405,-444.123565,1838.629195
909.595280,-9844.739029,0.000000,766.095498
909.595601,-9030.512492,148.041188,919.314598
909.595922,-9474.636058,-666.185348,1532.190996
909.596242,-9252.574275,-592.164754,1455.581446
909.596563,-9992.780217,-444.123565,1915.238745
909.596884,-10510.924376,-962.267725,2374.896044
909.597204,-10140.821405,-1332.370696,1532.190996
909.597525,-9548.656652,0.000000,76.609550
909.597846,-9622.677246,592.164754,-229.828649
909.598166,-9252.574275,592.164754,76.609550
909.598487,-9622.677246,-740.205942,76.609550
909.598808,-8660.409521,-888.247130,-689.485948
909.599128,-9548.656652,-592.164754,612.876398
909.599449,-10140.821405,-444.123565,2145.067394
909.599770,-10732.986159,-370.102971,2374.896044
909.600091,-10362.883188,740.205942,2834.553343
909.600411,-9770.718434,962.267725,1608.800546
909.600732,-8734.430116,0.000000,1762.019645
909.601053,-9326.594869,-2072.576638,1455.581446
909.601373,-9104.533087,-2146.597232,1072.533697
909.601694,-8956.491898,-1554.432478,1532.190996
909.602015,-9326.594869,-1332.370696,1685.410096
909.602335,-9474.636058,-888.247130,1532.190996
909.602656,-9178.553681,0.000000,-153.219100
909.602977,-9548.656652,1110.308913,-153.219100
909.603297,-9622.677246,1110.308913,459.657299
909.603618,-9770.718434,-222.061783,1149.143247
909.603939,-9548.656652,-814.226536,766.095498
909.604259,-10288.862594,-1628.453072,536.266849
909.604580,-10066.800811,-962.267725,2451.505594
909.604901,-10584.944971,-1924.535449,2451.505594
909.605221,-9104.533087,-518.144159,1072.533697
909.605542,-10140.821405,444.123565,1608.800546
909.605863,-9178.553681,444.123565,612.876398
909.606183,-8734.430116,-592.164754,536.266849
909.606504,-8290.306550,-592.164754,0.000000
909.606825,-9030.512492,74.020594,842.705048
909.607145,-9104.533087,-1110.308913,612.876398
909.607466,-10288.862594,-1332.370696,1532.190996
909.607787,-9918.759623,-962.267725,0.000000
909.608107,-9622.677246,296.082377,153.219100
909.608428,-9992.780217,-444.123565,76.609550
909.608749,-9770.718434,-666.185348,383.047749
909.609069,-9770.718434,-518.144159,0.000000
909.609390,-9622.677246,74.020594,459.657299
909.609711,-9844.739029,148.041188,1608.800546
909.610031,-10510.924376,-962.267725,1302.362347
909.610352,-9622.677246,-370.102971,1378.971896
909.610673,-9992.780217,222.061783,383.047749
909.610993,-9474.636058,0.000000,612.876398
909.611314,-8660.409521,-444.123565,842.705048
909.611635,-9474.636058,222.061783,1225.752797
909.611955,-9770.718434,666.185348,2221.676944
909.612276,-9918.759623,-370.102971,1991.848295
909.612597,-9622.677246,-1480.411884,2528.115143
909.612917,-9622.677246,-814.226536,0.000000
909.613238,-9474.636058,444.123565,-383.047749
909.613559,-9178.553681,1332.370696,306.438199
909.613879,-9918.759623,370.102971,1072.533697
909.614200,-9178.553681,-518.144159,459.657299
909.614521,-9992.780217,-1332.370696,612.876398
909.614841,-10066.800811,-1554.432478,1991.848295
909.615162,-10362.883188,-2072.576638,2068.457845
909.615483,-8882.471304,-592.164754,2221.676944
909.615803,-9622.677246,592.164754,1378.971896
909.616124,-8660.409521,740.205942,1685.410096
909.616445,-9104.533087,-148.041188,1762.019645
909.616765,-8586.388927,-444.123565,0.000000
909.617086,-9178.553681,0.000000,2298.286494
909.617407,-9622.677246,-222.061783,2451.505594
909.617727,-9844.739029,-814.226536,2145.067394
909.618048,-9326.594869,-444.123565,536.266849
909.618369,-9178.553681,518.144159,0.000000
909.618689,-9252.574275,370.102971,229.828649
909.619010,-9474.636058,-740.205942,766.095498
909.619331,-9474.636058,-1184.329507,612.876398
909.619651,-10362.883188,-592.164754,1302.362347
909.619972,-9918.759623,-1110.308913,1991.848295
909.620293,-10510.924376,-1184.329507,2451.505594
909.620613,-9992.780217,-444.123565,2451.505594
909.620934,-9696.697840,370.102971,0.000000
909.621255,-9030.512492,814.226536,1378.971896
909.621575,-9474.636058,370.102971,1378.971896
909.621896,-9326.594869,444.123565,1072.533697
909.622217,-10140.821405,222.061783,1991.848295
909.622537,-9622.677246,0.000000,1991.848295
909.622858,-10214.842000,-1332.370696,1072.533697
909.623179,-10140.821405,-592.164754,76.609550
909.623499,-9474.636058,444.123565,-383.047749
909.623820,-9918.759623,1110.308913,-306.438199
909.624140,-9622.677246,370.102971,-612.876398
909.624461,-8734.430116,-296.082377,-1532.190996
909.624782,-9548.656652,-888.247130,-1072.533697
909.625102,-9770.718434,-962.267725,76.609550
909.625423,-10140.821405,-740.205942,1838.629195
909.625743,-10955.047942,-740.205942,2298.286494
909.626064,-10436.903782,222.061783,2145.067394
909.626384,-9622.677246,518.144159,2681.334243
909.626705,-9918.759623,-1184.329507,2451.505594
909.627026,-8808.450710,-222.061783,2451.505594
909.627346,-9548.656652,-370.102971,2451.505594
909.627667,-8882.471304,-592.164754,2068.457845
909.627987,-8586.388927,-2294.638420,919.314598
909.628308,-8290.306550,-1850.514855,-995.924147
909.628629,-8364.327145,-222.061783,-766.095498
909.628949,-9178.553681,0.000000,0.000000
909.629270,-9252.574275,-518.144159,919.314598
909.629590,-9844.739029,-1480.411884,766.095498
909.629911,-10658.965565,-1110.308913,1762.019645
909.630231,-10955.047942,-814.226536,2298.286494
909.630552,-10436.903782,-1036.288319,2911.162892
909.630873,-9844.739029,0.000000,995.924147
909.631193,-8882.471304,1332.370696,1378.971896
909.631514,-9104.533087,74.020594,1072.533697
909.631834,-7402.059420,0.000000,1149.143247
909.632155,-8882.471304,-888.247130,612.876398
909.632476,-9178.553681,592.164754,1532.190996
909.632796,-10510.924376,296.082377,3370.820191
909.633117,-10658.965565,-592.164754,2374.896044
909.633437,-9844.739029,-888.247130,842.705048
909.633758,-9770.718434,-296.082377,0.000000
909.634078,-8882.471304,74.020594,-536.266849
909.634399,-9992.780217,-444.123565,-306.438199
909.634720,-9918.759623,-1110.308913,-459.657299
909.635040,-9252.574275,-518.144159,-612.876398
909.635361,-10362.883188,-888.247130,0.000000
909.635681,-10140.821405,74.020594,1532.190996
909.636002,-10955.047942,370.102971,1149.143247
909.636323,-10510.924376,740.205942,1685.410096
909.636643,-9474.636058,444.123565,1608.800546
909.636964,-9844.739029,-1110.308913,1915.238745
909.637284,-9400.615463,-1702.473667,2221.676944
909.637605,-9844.739029,0.000000,2911.162892
909.637926,-10140.821405,-1480.411884,3217.601092
909.638246,-8808.450710,-592.164754,1455.581446
909.638567,-8586.388927,148.041188,-766.095498
909.638887,-8512.368333,888.247130,-1302.362347
909.639208,-8290.306550,666.185348,1378.971896
909.639528,-8956.491898,-666.185348,-536.266849
909.639849,-8364.327145,-2294.638420,-1302.362347
909.640170,-9548.656652,-1776.494261,-689.485948
909.640490,-10807.006753,-962.267725,2145.067394
909.640811,-11029.068536,-1258.350101,3064.381992
909.641131,-10140.821405,-592.164754,1838.629195
909.641452,-9252.574275,962.267725,1378.971896
909.641773,-8956.491898,1332.370696,1685.410096
909.642093,-9400.615463,666.185348,2221.676944
909.642414,-8586.388927,222.061783,2374.896044
909.642734,-8586.388927,444.123565,2528.115143
909.643055,-9178.553681,370.102971,2911.162892
909.643375,-9770.718434,296.082377,3677.258390
909.643696,-9474.636058,148.041188,2298.286494
909.644017,-9474.636058,740.205942,842.705048
909.644337,-9104.533087,740.205942,306.438199
909.644658,-9474.636058,-592.164754,0.000000
909.644978,-9252.574275,-814.226536,-1302.362347
909.645299,-9770.718434,-444.123565,-536.266849
909.645620,-9770.718434,444.123565,766.095498
909.645940,-10955.047942,0.000000,2298.286494
909.646261,-10955.047942,0.000000,2374.896044
909.646581,-10955.047942,-518.144159,2298.286494
909.646902,-10288.862594,-1258.350101,1762.019645
909.647222,-9474.636058,-1850.514855,1608.800546
909.647543,-9178.553681,-518.144159,2528.115143
909.647864,-9474.636058,0.000000,1991.848295
909.648184,-9252.574275,0.000000,2451.505594
909.648505,-9030.512492,-592.164754,1608.800546
909.648825,-9474.636058,-962.267725,0.000000
909.649146,-9326.594869,148.041188,-612.876398
909.649467,-9622.677246,518.144159,0.000000
909.649787,-9770.718434,-222.061783,153.219100
909.650108,-9326.594869,-1776.494261,-1149.143247
909.650428,-9770.718434,-1258.350101,-1149.143247
909.650749,-10584.944971,-1258.350101,76.609550
909.651069,-10584.944971,-1036.288319,995.924147
909.651390,-9548.656652,518.144159,2068.457845
909.651711,-11695.253884,-1850.514855,76.609550
909.652031,-6957.935855,2590.720797,612.876398
909.652352,-10584.944971,-592.164754,919.314598
909.652672,-9326.594869,370.102971,3064.381992
909.652993,-7698.141797,222.061783,1762.019645
909.653314,-9918.759623,0.000000,4213.525239
909.653634,-8142.265362,-962.267725,1302.362347
909.653955,-9178.553681,-1036.288319,306.438199
909.654275,-9770.718434,444.123565,995.924147
909.654596,-7994.224174,0.000000,-536.266849
909.654916,-9844.739029,-518.144159,0.000000
909.655237,-9104.533087,-1628.453072,-459.657299
909.655558,-8586.388927,-2368.659014,-1991.848295
909.655878,-11251.130318,-444.123565,536.266849
909.656199,-10214.842000,-1628.453072,1915.238745
909.656519,-10288.862594,-1332.370696,1302.362347
909.656840,-10510.924376,888.247130,1532.190996
909.657161,-9770.718434,740.205942,1838.629195
909.657481,-9030.512492,370.102971,2298.286494
909.657802,-9696.697840,-814.226536,2221.676944
909.658122,-8956.491898,0.000000,2528.115143
909.658443,-9474.636058,-740.205942,2528.115143
909.658764,-9030.512492,-962.267725,2681.334243
909.659084,-9474.636058,-740.205942,1149.143247
909.659405,-9178.553681,592.164754,-383.047749
909.659725,-10140.821405,1258.350101,306.438199
909.660046,-10066.800811,1036.288319,306.438199
909.660366,-9548.656652,-962.267725,-842.705048
909.660687,-10510.924376,-518.144159,-766.095498
909.661008,-10955.047942,-296.082377,612.876398
909.661328,-11325.150913,-1110.308913,1915.238745
909.661649,-10732.986159,-1480.411884,2221.676944
909.661969,-10214.842000,-592.164754,1455.581446
909.662290,-10436.903782,-444.123565,1915.238745
909.662611,-9992.780217,444.123565,2987.772442
909.662931,-9474.636058,1036.288319,2528.115143
909.663252,-9030.512492,444.123565,2451.505594
909.663572,-8512.368333,148.041188,1762.019645
909.663893,-8290.306550,-1110.308913,689.485948
909.664213,-7920.203579,-740.205942,-842.705048
909.664534,-8586.388927,222.061783,-842.705048
909.664855,-9178.553681,1036.288319,76.609550
909.665175,-9474.636058,666.185348,0.000000
909.665496,-9844.739029,-296.082377,0.000000
909.665816,-10436.903782,-740.205942,306.438199
909.666137,-10658.965565,-1628.453072,766.095498
909.666458,-10510.924376,-1184.329507,1915.238745
909.666778,-10732.986159,-1628.453072,1532.190996
909.667099,-9770.718434,222.061783,919.314598
909.667419,-9104.533087,592.164754,1225.752797
909.667740,-8438.347739,148.041188,1762.019645
909.668060,-8956.491898,-222.061783,1685.410096
909.668381,-9104.533087,370.102971,2834.553343
909.668702,-9252.574275,0.000000,2681.334243
909.669022,-9178.553681,74.020594,2834.553343
909.669343,-9326.594869,0.000000,1838.629195
909.669663,-9474.636058,1036.288319,919.314598
909.669984,-9696.697840,666.185348,306.438199
909.670305,-9252.574275,0.000000,536.266849
909.670625,-9326.594869,-1332.370696,-1149.143247
909.670946,-9474.636058,-592.164754,-1608.800546
909.671266,-10510.924376,0.000000,612.876398
909.671587,-11251.130318,-740.205942,2068.457845
909.671907,-10362.883188,-1628.453072,1762.019645
909.672228,-10658.965565,-1406.391290,919.314598
909.672549,-9474.636058,148.041188,1991.848295
909.672869,-9844.739029,-444.123565,1455.581446
909.673190,-9400.615463,222.061783,2757.943793
909.673510,-9030.512492,518.144159,2451.505594
909.673831,-9030.512492,222.061783,2604.724693
909.674152,-9252.574275,-444.123565,1991.848295
909.674472,-9474.636058,-1480.411884,995.924147
909.674793,-9474.636058,0.000000,612.876398
909.675113,-9474.636058,-222.061783,459.657299
909.675434,-9030.512492,-888.247130,-306.438199
909.675754,-9474.636058,-1554.432478,-995.924147
909.676075,-9474.636058,-1036.288319,-1149.143247
909.676396,-10362.883188,-444.123565,459.657299
909.676716,-11029.068536,-1406.391290,1072.533697
909.677037,-10362.883188,-296.082377,1302.362347
909.677357,-10881.027347,222.061783,1455.581446
909.677678,-9918.759623,1110.308913,1225.752797
909.677999,-9622.677246,0.000000,2298.286494
909.678319,-8660.409521,-962.267725,1532.190996
909.678640,-8586.388927,-518.144159,1838.629195
909.678960,-9030.512492,-222.061783,1915.238745
909.679281,-9104.533087,666.185348,2221.676944
909.679602,-9918.759623,-444.123565,1225.752797
909.679922,-8882.471304,740.205942,459.657299
909.680243,-9770.718434,222.061783,76.609550
909.680563,-8290.306550,-444.123565,-766.095498
909.680884,-9622.677246,-2146.597232,153.219100
909.681204,-9104.533087,-1702.473667,-2221.676944
909.681525,-9696.697840,-296.082377,-612.876398
909.681846,-10140.821405,-814.226536,153.219100
909.682166,-9548.656652,-962.267725,306.438199
909.682487,-9844.739029,-592.164754,0.000000
909.682807,-9844.739029,-296.082377,689.485948
909.683128,-9326.594869,-370.102971,1455.581446
909.683449,-10140.821405,-148.041188,3217.601092
909.683769,-10436.903782,0.000000,3370.820191
909.684090,-9474.636058,0.000000,3983.696590
909.684410,-10066.800811,-1036.288319,3753.867940
909.684731,-8956.491898,-814.226536,1838.629195
909.685051,-8808.450710,74.020594,0.000000
909.685372,-9030.512492,1776.494261,459.657299
909.685693,-8734.430116,814.226536,-306.438199
909.686013,-8438.347739,-444.123565,-995.924147
909.686334,-9326.594869,-1036.288319,-1149.143247
909.686654,-9622.677246,-962.267725,536.266849
909.686975,-11917.315666,-2368.659014,2451.505594
909.687296,-11991.336260,-1850.514855,2987.772442
909.687616,-11251.130318,0.000000,2221.676944
909.687937,-9844.739029,-814.226536,1685.410096
909.688257,-9030.512492,518.144159,1991.848295
909.688578,-9918.759623,-444.123565,1838.629195
909.688898,-8216.285956,740.205942,1685.410096
909.689219,-8660.409521,-148.041188,2451.505594
909.689540,-8808.450710,-814.226536,1762.019645
909.689860,-9400.615463,-1332.370696,995.924147
909.690181,-9696.697840,148.041188,229.828649
909.690501,-9474.636058,962.267725,995.924147
909.690822,-9696.697840,222.061783,612.876398
909.691143,-10066.800811,-1184.329507,-459.657299
909.691463,-9178.553681,-1036.288319,-612.876398
909.691784,-10362.883188,-666.185348,153.219100
909.692104,-9326.594869,-962.267725,1072.533697
909.692425,-10436.903782,-444.123565,1225.752797
909.692745,-9622.677246,74.020594,995.924147
909.693066,-9474.636058,370.102971,689.485948
909.693387,-9474.636058,814.226536,1302.362347
909.693707,-9696.697840,148.041188,1991.848295
909.694028,-9030.512492,814.226536,2528.115143
909.694348,-9474.636058,0.000000,2528.115143
909.694669,-9252.574275,-888.247130,2451.505594
909.694990,-9104.533087,-1628.453072,76.609550
909.695310,-8882.471304,-74.020594,153.219100
909.695631,-8956.491898,888.247130,0.000000
909.695951,-9252.574275,888.247130,0.000000
909.696272,-9178.553681,518.144159,-842.705048
909.696593,-9474.636058,518.144159,-1455.581446
909.696913,-10288.862594,-222.061783,229.828649
909.697234,-10881.027347,-1258.350101,1685.410096
909.697554,-10510.924376,-2220.617826,995.924147
909.697875,-9770.718434,-1776.494261,306.438199
909.698195,-10140.821405,-444.123565,919.314598
909.698516,-9770.718434,74.020594,2145.067394
909.698837,-9622.677246,-740.205942,2757.943793
909.699157,-8956.491898,222.061783,3524.039291
909.699478,-9918.759623,-740.205942,3294.210641
909.699798,-9992.780217,-1110.308913,2528.115143
909.700119,-9844.739029,-1776.494261,1838.629195
909.700440,-8956.491898,-370.102971,536.266849
909.700760,-8512.368333,222.061783,0.000000
909.701081,-8734.430116,-444.123565,0.000000
909.701401,-8734.430116,-1480.411884,-383.047749
909.701722,-9622.677246,-2220.617826,-383.047749
909.702042,-9696.697840,-1480.411884,995.924147
909.702363,-10881.027347,-1036.288319,2145.067394
909.702684,-10955.047942,-962.267725,2681.334243
909.703004,-10066.800811,370.102971,2298.286494
909.703325,-8882.471304,888.247130,3217.601092
909.703645,-9474.636058,222.061783,2757.943793
909.703966,-9326.594869,-740.205942,2145.067394
909.704287,-9030.512492,-370.102971,2451.505594
909.704607,-9696.697840,-592.164754,2298.286494
909.704928,-8882.471304,-222.061783,2374.896044
909.705248,-9326.594869,-296.082377,1149.143247
909.705569,-9326.594869,370.102971,-306.438199
909.705889,-9622.677246,1258.350101,612.876398
909.706210,-9474.636058,222.061783,536.266849
909.706531,-9992.780217,-1850.514855,229.828649
909.706851,-9474.636058,-1850.514855,0.000000
909.707172,-10362.883188,-1110.308913,153.219100
909.707492,-10584.944971,-370.102971,1072.533697
909.707813,-9622.677246,0.000000,153.219100
909.708134,-8956.491898,592.164754,-306.438199
909.708454,-9770.718434,0.000000,-459.657299
909.708775,-8290.306550,148.041188,-766.095498
909.709095,-10066.800811,-1184.329507,76.609550
909.709416,-9104.533087,370.102971,1685.410096
909.709736,-10214.842000,-296.082377,2451.505594
909.710057,-10658.965565,-518.144159,3830.477490
909.710378,-9104.533087,-2072.576638,1378.971896
909.710698,-8882.471304,-1036.288319,-459.657299
909.711019,-9474.636058,518.144159,0.000000
909.711339,-8216.285956,0.000000,-919.314598
909.711660,-8364.327145,-74.020594,-1225.752797
909.711981,-9104.533087,0.000000,-1149.143247
909.712301,-9178.553681,222.061783,-229.828649
909.712622,-11177.109724,-370.102971,2681.334243
909.712942,-11399.171507,-888.247130,2681.334243
909.713263,-10214.842000,-592.164754,2451.505594
909.713583,-10584.944971,-518.144159,1991.848295
909.713904,-9252.574275,74.020594,2298.286494
909.714225,-8734.430116,-296.082377,1762.019645
909.714545,-9326.594869,666.185348,1915.238745
909.714866,-8660.409521,0.000000,1991.848295
909.715186,-8586.388927,-444.123565,1149.143247
909.715507,-9178.553681,-962.267725,842.705048
909.715828,-9474.636058,-740.205942,919.314598
909.716148,-9992.780217,370.102971,919.314598
909.716469,-9992.780217,-592.164754,1378.971896
909.716789,-9474.636058,-1406.391290,536.266849
909.717110,-10362.883188,-1258.350101,536.266849
909.717431,-10955.047942,-296.082377,1991.848295
909.717751,-10288.862594,-518.144159,2451.505594
909.718072,-10066.800811,-592.164754,1455.581446
909.718392,-9400.615463,296.082377,612.876398
909.718713,-9104.533087,1332.370696,-459.657299
909.719033,-9622.677246,148.041188,1149.143247
909.719354,-9178.553681,-370.102971,1915.238745
909.719675,-9178.553681,-740.205942,1762.019645
909.719995,-10140.821405,-814.226536,1762.019645
909.720316,-10288.862594,-370.102971,3600.648841
909.720636,-9992.780217,-814.226536,1991.848295
909.720957,-9474.636058,592.164754,229.828649
909.721278,-9474.636058,1036.288319,-383.047749
909.721598,-9104.533087,1110.308913,-306.438199
909.721919,-9474.636058,-444.123565,-689.485948
909.722239,-9104.533087,-592.164754,-459.657299
909.722560,-9770.718434,-740.205942,459.657299
909.722881,-9622.677246,-962.267725,2145.067394
909.723202,-10584.944971,-888.247130,2068.457845
909.723522,-9918.759623,0.000000,1762.019645
909.723843,-9548.656652,74.020594,1685.410096
909.724164,-8364.327145,-370.102971,1149.143247
909.724485,-8808.450710,-592.164754,995.924147
909.724806,-8512.368333,0.000000,1302.362347
909.725126,-8586.388927,0.000000,1991.848295
909.725447,-9474.636058,-740.205942,2298.286494
909.725768,-9400.615463,-592.164754,383.047749
909.726089,-9252.574275,-888.247130,0.000000
909.726409,-9992.780217,222.061783,306.438199
909.726730,-9474.636058,740.205942,766.095498
909.727051,-9622.677246,-592.164754,306.438199
909.727372,-9326.594869,-740.205942,0.000000
909.727692,-9770.718434,-666.185348,153.219100
909.728013,-10732.986159,-370.102971,2374.896044
909.728334,-11029.068536,-1110.308913,2604.724693
909.728655,-10214.842000,-740.205942,1762.019645
909.728975,-10140.821405,0.000000,1762.019645
909.729296,-8956.491898,0.000000,1762.019645
909.729617,-9474.636058,-518.144159,1762.019645
909.729938,-8660.409521,-962.267725,1991.848295
909.730258,-9474.636058,-592.164754,1915.238745
909.730579,-9474.636058,-814.226536,1838.629195
909.730900,-10140.821405,-888.247130,1532.190996
909.731221,-9992.780217,0.000000,612.876398
909.731541,-10288.862594,222.061783,1302.362347
909.731862,-10140.821405,-148.041188,919.314598
909.732183,-10066.800811,-74.020594,766.095498
909.732504,-10436.903782,296.082377,153.219100
909.732825,-10140.821405,1036.288319,1608.800546
909.733145,-10510.924376,666.185348,842.705048
909.733466,-9474.636058,0.000000,919.314598
909.733787,-8586.388927,-1184.329507,-842.705048
909.734108,-8364.327145,888.247130,229.828649
909.734428,-9474.636058,0.000000,919.314598
909.734749,-8364.327145,-814.226536,919.314598
909.735070,-9030.512492,0.000000,1072.533697
909.735391,-8660.409521,-740.205942,1608.800546
909.735711,-9548.656652,-1702.473667,2604.724693
909.736032,-10288.862594,-2220.617826,1378.971896
909.736353,-9548.656652,-1258.350101,-229.828649
909.736674,-8512.368333,370.102971,-1378.971896
909.736994,-9252.574275,148.041188,-766.095498
909.737315,-8142.265362,370.102971,-536.266849
909.737636,-9992.780217,-1924.535449,-1302.362347
909.737957,-8808.450710,-592.164754,-306.438199
909.738277,-10807.006753,-1184.329507,-229.828649
909.738598,-9844.739029,-2220.617826,1378.971896
909.738919,-9548.656652,296.082377,842.705048
909.739240,-9474.636058,1258.350101,1149.143247
909.739560,-8290.306550,888.247130,612.876398
909.739881,-8882.471304,74.020594,766.095498
909.740202,-8882.471304,-222.061783,995.924147
909.740523,-9252.574275,0.000000,1838.629195
909.740844,-10584.944971,-222.061783,2987.772442
909.741164,-10066.800811,-1036.288319,3370.820191
909.741485,-9992.780217,0.000000,1378.971896
909.741806,-11399.171507,370.102971,1608.800546
909.742127,-10140.821405,-148.041188,1915.238745
909.742447,-9622.677246,-1776.494261,229.828649
909.742768,-9622.677246,-1184.329507,76.609550
909.743089,-9622.677246,-518.144159,383.047749
909.743410,-9918.759623,-222.061783,1915.238745
909.743730,-10584.944971,-148.041188,2528.115143
909.744051,-9252.574275,592.164754,2298.286494
909.744372,-10288.862594,518.144159,2298.286494
909.744693,-9474.636058,296.082377,3217.601092
909.745013,-9696.697840,-962.267725,2911.162892
909.745334,-9400.615463,-370.102971,3907.087040
909.745655,-9770.718434,-296.082377,2834.553343
909.745976,-9104.533087,0.000000,2757.943793
909.746296,-9992.780217,-666.185348,1991.848295
909.746617,-9252.574275,-444.123565,229.828649
909.746938,-8734.430116,444.123565,-766.095498
909.747259,-9474.636058,518.144159,-459.657299
909.747579,-9326.594869,148.041188,-536.266849
909.747900,-9252.574275,0.000000,-612.876398
909.748221,-10066.800811,-592.164754,766.095498
909.748542,-10214.842000,-518.144159,2068.457845
909.748862,-10658.965565,-1332.370696,1915.238745
909.749183,-9918.759623,-592.164754,1378.971896
909.749504,-8956.491898,666.185348,1991.848295
909.749825,-8956.491898,666.185348,1378.971896
909.750146,-8438.347739,74.020594,919.314598
909.750466,-7846.182985,148.041188,842.705048
909.750787,-9252.574275,-666.185348,-689.485948
909.751108,-9326.594869,-962.267725,1762.019645
909.751429,-9474.636058,-1184.329507,766.095498
909.751749,-9474.636058,-148.041188,-383.047749
909.752070,-9992.780217,740.205942,-995.924147
909.752391,-9474.636058,296.082377,-306.438199
909.752712,-9326.594869,-1998.556043,-842.705048
909.753032,-9104.533087,-2220.617826,-1532.190996
909.753353,-9844.739029,-1850.514855,-229.828649
909.753674,-9770.718434,-1406.391290,3064.381992
909.753995,-10732.986159,-1184.329507,2604.724693
909.754315,-9770.718434,0.000000,2068.457845
909.754636,-9474.636058,1184.329507,1455.581446
909.754957,-9030.512492,1036.288319,1532.190996
909.755278,-9696.697840,0.000000,1685.410096
909.755598,-8956.491898,74.020594,2374.896044
909.755919,-9474.636058,-814.226536,2834.553343
909.756240,-10140.821405,-1628.453072,3140.991542
909.756561,-10658.965565,-1776.494261,2374.896044
909.756881,-10436.903782,-666.185348,536.266849
909.757202,-10140.821405,1258.350101,306.438199
909.757523,-9770.718434,1258.350101,76.609550
909.757844,-9030.512492,-592.164754,-229.828649
909.758165,-9104.533087,-1258.350101,-1302.362347
909.758485,-9252.574275,-962.267725,-612.876398
909.758806,-9992.780217,-1480.411884,1302.362347
909.759127,-10436.903782,-740.205942,2374.896044
909.759448,-10584.944971,148.041188,1685.410096
909.759768,-10214.842000,1776.494261,2221.676944
909.760089,-9474.636058,740.205942,2604.724693
909.760410,-9474.636058,-222.061783,2681.334243
909.760731,-9326.594869,-1924.535449,2221.676944
909.761051,-8808.450710,-1258.350101,1302.362347
909.761372,-8660.409521,-962.267725,2221.676944
909.761693,-8882.471304,-2294.638420,1378.971896
909.762014,-8438.347739,-1480.411884,-383.047749
909.762334,-9548.656652,-296.082377,-1225.752797
909.762655,-9474.636058,296.082377,-612.876398
909.762976,-9844.739029,-518.144159,-306.438199
909.763297,-10214.842000,-962.267725,76.609550
909.763617,-10955.047942,-444.123565,0.000000
909.763938,-11177.109724,-666.185348,2221.676944
909.764259,-10732.986159,-222.061783,2528.115143
909.764580,-9400.615463,296.082377,1762.019645
909.764900,-9474.636058,444.123565,1762.019645
909.765221,-7994.224174,814.226536,-229.828649
909.765542,-7846.182985,222.061783,-383.047749
909.765863,-7920.203579,444.123565,0.000000
909.766184,-8734.430116,1110.308913,1685.410096
909.766504,-9474.636058,-370.102971,1991.848295
909.766825,-9696.697840,-740.205942,2068.457845
909.767146,-10288.862594,-888.247130,919.314598
909.767467,-10510.924376,592.164754,383.047749
909.767787,-10510.924376,1332.370696,-536.266849
909.768108,-10584.944971,0.000000,76.609550
909.768429,-9400.615463,0.000000,-689.485948
909.768750,-9770.718434,-666.185348,-229.828649
909.769070,-9696.697840,-518.144159,689.485948
909.769391,-10066.800811,-814.226536,995.924147
909.769712,-10436.903782,-444.123565,995.924147
909.770033,-9104.533087,1850.514855,2757.943793
909.770353,-10881.027347,-1924.535449,1455.581446
909.770674,-6291.750507,-148.041188,2298.286494
909.770995,-10732.986159,-296.082377,2298.286494
909.771316,-9400.615463,1406.391290,4903.011187
909.771636,-8364.327145,-148.041188,2757.943793
909.771957,-10436.903782,-296.082377,3600.648841
909.772278,-8364.327145,-1258.350101,-919.314598
909.772599,-9252.574275,222.061783,-766.095498
909.772919,-9696.697840,592.164754,1149.143247
909.773240,-8956.491898,-1554.432478,0.000000
909.773561,-9844.739029,-1036.288319,-536.266849
909.773882,-9992.780217,-1480.411884,0.000000
909.774202,-9622.677246,-962.267725,842.705048
909.774523,-11843.295072,-1406.391290,3140.991542
909.774844,-9696.697840,-814.226536,2145.067394
909.775165,-9400.615463,-370.102971,995.924147
909.775486,-9474.636058,-148.041188,919.314598
909.775806,-8364.327145,0.000000,1532.190996
909.776127,-8068.244768,888.247130,2068.457845
909.776448,-9252.574275,-444.123565,2145.067394
909.776769,-9030.512492,-148.041188,2604.724693
909.777089,-9474.636058,-1480.411884,1302.362347
909.777410,-9474.636058,-518.144159,-459.657299
909.777731,-10214.842000,592.164754,306.438199
909.778052,-9326.594869,-444.123565,-842.705048
909.778372,-9622.677246,-222.061783,-612.876398
909.778693,-9770.718434,-814.226536,-689.485948
909.779014,-9992.780217,-962.267725,-689.485948
909.779335,-10807.006753,-962.267725,1685.410096
909.779655,-10658.965565,-1998.556043,2068.457845
909.779976,-9992.780217,-1554.432478,766.095498
909.780297,-10140.821405,0.000000,1378.971896
909.780618,-8956.491898,0.000000,1685.410096
909.780938,-9252.574275,-1036.288319,1225.752797
909.781259,-8956.491898,0.000000,1762.019645
909.781580,-9030.512492,888.247130,3294.210641
909.781901,-9548.656652,444.123565,2757.943793
909.782221,-9400.615463,-666.185348,2374.896044
909.782542,-9474.636058,-962.267725,459.657299
909.782863,-9622.677246,0.000000,-306.438199
909.783184,-9696.697840,1332.370696,0.000000
909.783505,-9844.739029,444.123565,-383.047749
909.783825,-9696.697840,-74.020594,-1225.752797
909.784146,-9622.677246,-74.020594,-1072.533697
909.784467,-10214.842000,222.061783,1685.410096
909.784788,-10732.986159,-1110.308913,1608.800546
909.785108,-9696.697840,-740.205942,1225.752797
909.785429,-9918.759623,-370.102971,1685.410096
909.785750,-8956.491898,-592.164754,1685.410096
909.786071,-9030.512492,-888.247130,2911.162892
909.786391,-8808.450710,-444.123565,2374.896044
909.786712,-9104.533087,1036.288319,2834.553343
909.787033,-9474.636058,518.144159,3294.210641
909.787354,-9622.677246,222.061783,2987.772442
909.787674,-9474.636058,-592.164754,1378.971896
909.787995,-9474.636058,-370.102971,383.047749
909.788316,-8956.491898,0.000000,0.000000
909.788637,-9104.533087,-1554.432478,153.219100
909.788957,-9474.636058,-888.247130,-1149.143247
909.789278,-9770.718434,370.102971,-383.047749
909.789599,-10214.842000,-888.247130,153.219100
909.789920,-9844.739029,-888.247130,383.047749
909.790240,-10214.842000,-1406.391290,383.047749
909.790561,-9326.594869,-444.123565,229.828649
909.790882,-9622.677246,370.102971,2221.676944
909.791203,-9400.615463,-666.185348,2451.505594
909.791524,-9030.512492,222.061783,2451.505594
909.791844,-9474.636058,222.061783,2451.505594
909.792165,-9400.615463,0.000000,2987.772442
909.792486,-9622.677246,0.000000,2681.334243
909.792807,-9030.512492,518.144159,612.876398
909.793127,-8956.491898,962.267725,-383.047749
909.793448,-9252.574275,1184.329507,-153.219100
909.793769,-9474.636058,0.000000,-306.438199
909.794090,-9548.656652,-740.205942,0.000000
909.794410,-10362.883188,-1258.350101,-153.219100
909.794731,-10881.027347,-1406.391290,995.924147
909.795052,-10658.965565,-1258.350101,1225.752797
909.795373,-10807.006753,-666.185348,459.657299
909.795693,-9400.615463,1184.329507,0.000000
909.796014,-9252.574275,1406.391290,-383.047749
909.796335,-8364.327145,740.205942,689.485948
909.796656,-8734.430116,-296.082377,1072.533697
909.796976,-9548.656652,-296.082377,1991.848295
909.797297,-10066.800811,-74.020594,2911.162892
909.797618,-10214.842000,0.000000,3447.429741
909.797939,-10584.944971,74.020594,2834.553343
909.798259,-10362.883188,1184.329507,2451.505594
909.798580,-9992.780217,444.123565,1225.752797
909.798901,-9252.574275,-888.247130,0.000000
909.799222,-9030.512492,-2146.597232,-1378.971896
909.799542,-9030.512492,-1184.329507,-1378.971896
909.799863,-9400.615463,-222.061783,153.219100
909.800184,-9844.739029,74.020594,1608.800546
909.800505,-9918.759623,-444.123565,1915.238745
909.800826,-9474.636058,-888.247130,1608.800546
909.801146,-9474.636058,-888.247130,1915.238745
909.801467,-9770.718434,-2146.597232,3600.648841
909.801788,-9400.615463,-1554.432478,3524.039291
909.802109,-9326.594869,-370.102971,4213.525239
909.802429,-9326.594869,-444.123565,3600.648841
909.802750,-8956.491898,-1110.308913,2987.772442
909.803071,-8734.430116,-296.082377,689.485948
909.803392,-8956.491898,370.102971,-536.266849
909.803712,-8882.471304,814.226536,-536.266849
909.804033,-8586.388927,-592.164754,-153.219100
909.804354,-9548.656652,-1702.473667,-995.924147
909.804675,-9474.636058,-1184.329507,-383.047749
909.804995,-11103.089130,-1850.514855,1225.752797
909.805316,-10732.986159,-1776.494261,3370.820191
909.805637,-10955.047942,-1776.494261,1685.410096
909.805958,-10362.883188,148.041188,1455.581446
909.806278,-9770.718434,1036.288319,1532.190996
909.806599,-9548.656652,222.061783,1838.629195
909.806920,-8512.368333,0.000000,2221.676944
909.807241,-8956.491898,-296.082377,2068.457845
909.807561,-9030.512492,-814.226536,2451.505594
909.807882,-9622.677246,-1332.370696,2145.067394
909.808203,-8956.491898,0.000000,1838.629195
909.808524,-9548.656652,1554.432478,0.000000
909.808845,-10436.903782,2146.597232,76.609550
909.809165,-9474.636058,962.267725,0.000000
909.809486,-9548.656652,-444.123565,-1302.362347
909.809807,-10214.842000,-666.185348,-1378.971896
909.810128,-10140.821405,-1406.391290,0.000000
909.810448,-10658.965565,-1406.391290,1072.533697
909.810769,-10066.800811,-444.123565,459.657299
909.811090,-9548.656652,2220.617826,2221.676944
909.811411,-9400.615463,444.123565,842.705048
909.811731,-8734.430116,-814.226536,919.314598
909.812052,-9030.512492,-1332.370696,995.924147
909.812373,-9474.636058,-1184.329507,1915.238745
909.812694,-9326.594869,-1850.514855,2757.943793
909.813014,-9400.615463,-2294.638420,2757.943793
909.813335,-9844.739029,-1258.350101,1532.190996
909.813656,-9548.656652,814.226536,919.314598
909.813977,-10658.965565,1406.391290,919.314598
909.814297,-9844.739029,518.144159,766.095498
909.814618,-9622.677246,0.000000,-842.705048
909.814939,-9400.615463,-148.041188,-1532.190996
909.815260,-9178.553681,222.061783,-1072.533697
909.815580,-9252.574275,-1406.391290,0.000000
909.815901,-9178.553681,-1702.473667,-536.266849
909.816222,-9178.553681,-370.102971,-536.266849
909.816543,-9770.718434,518.144159,1149.143247
909.816864,-9918.759623,148.041188,2451.505594
909.817184,-10214.842000,296.082377,3294.210641
909.817505,-10214.842000,592.164754,4290.134789
909.817826,-10066.800811,-666.185348,4136.915689
909.818147,-10066.800811,-1406.391290,3983.696590
909.818467,-8660.409521,-1332.370696,919.314598
909.818788,-8734.430116,444.123565,76.609550
909.819109,-8586.388927,1628.453072,229.828649
909.819430,-9474.636058,1110.308913,612.876398
909.819750,-9400.615463,-296.082377,-612.876398
909.820071,-9548.656652,-222.061783,-766.095498
909.820392,-10732.986159,-444.123565,1302.362347
909.820713,-11547.212695,-962.267725,2757.943793
909.821033,-11029.068536,-1110.308913,2834.553343
909.821354,-9844.739029,-962.267725,1915.238745
909.821675,-9326.594869,-444.123565,1072.533697
909.821996,-9622.677246,-518.144159,1378.971896
909.822316,-9622.677246,592.164754,1072.533697
909.822637,-9474.636058,1702.473667,2834.553343
909.822958,-10066.800811,888.247130,2911.162892
909.823279,-9104.533087,0.000000,2604.724693
909.823599,-10214.842000,-2368.659014,1455.581446
909.823920,-9474.636058,-1036.288319,0.000000
909.824241,-9104.533087,74.020594,0.000000
909.824562,-9474.636058,222.061783,0.000000
909.824882,-9548.656652,74.020594,76.609550
909.825203,-10584.944971,296.082377,0.000000
909.825524,-10658.965565,0.000000,153.219100
909.825845,-10362.883188,-222.061783,842.705048
909.826165,-10436.903782,-1702.473667,229.828649
909.826486,-8882.471304,-444.123565,1072.533697
909.826807,-9400.615463,-814.226536,153.219100
909.827127,-8660.409521,-1850.514855,842.705048
909.827448,-7846.182985,-1850.514855,766.095498
909.827769,-9104.533087,-296.082377,2068.457845
909.828089,-9400.615463,0.000000,3064.381992
909.828410,-9770.718434,-222.061783,3140.991542
909.828731,-10066.800811,-740.205942,1762.019645
909.829052,-8438.347739,-222.061783,0.000000
909.829372,-9622.677246,222.061783,-459.657299
909.829693,-9326.594869,-444.123565,919.314598
909.830014,-9326.594869,-1480.411884,-612.876398
909.830334,-9326.594869,-1184.329507,-612.876398
909.830655,-10066.800811,-1406.391290,76.609550
909.830976,-10066.800811,-1184.329507,1378.971896
909.831296,-11177.109724,-1480.411884,2145.067394
909.831617,-9622.677246,-148.041188,1378.971896
909.831938,-9548.656652,74.020594,919.314598
909.832259,-9400.615463,-666.185348,1608.800546
909.832579,-9252.574275,-296.082377,1838.629195
909.832900,-9844.739029,-370.102971,2757.943793
909.833221,-9918.759623,-814.226536,2681.334243
909.833541,-9474.636058,-370.102971,1608.800546
909.833862,-9918.759623,-888.247130,1072.533697
909.834183,-9548.656652,1184.329507,612.876398
909.834503,-10066.800811,2072.576638,612.876398
909.834824,-9548.656652,1110.308913,0.000000
909.835145,-9622.677246,0.000000,-995.924147
909.835466,-9770.718434,-296.082377,-612.876398
909.835786,-10510.924376,-1554.432478,689.485948
909.836107,-10436.903782,-888.247130,2221.676944
909.836428,-10214.842000,-740.205942,1455.581446
909.836748,-9770.718434,518.144159,1455.581446
909.837069,-10214.842000,444.123565,1532.190996
909.837390,-9548.656652,0.000000,2298.286494
909.837711,-9178.553681,-1480.411884,1455.581446
909.838031,-8586.388927,-370.102971,919.314598
909.838352,-9844.739029,-740.205942,1915.238745
909.838673,-8882.471304,-296.082377,2221.676944
909.838993,-9252.574275,-888.247130,1149.143247
909.839314,-8956.491898,296.082377,-306.438199
909.839635,-9400.615463,1332.370696,-383.047749
909.839955,-8364.327145,592.164754,0.000000
909.840276,-9548.656652,-962.267725,-689.485948
909.840597,-8586.388927,0.000000,-612.876398
909.840918,-9696.697840,-296.082377,383.047749
909.841238,-10140.821405,222.061783,1685.410096
909.841559,-10288.862594,-444.123565,2068.457845
909.841880,-10362.883188,-592.164754,1302.362347
909.842200,-9030.512492,0.000000,1149.143247
909.842521,-9326.594869,-592.164754,766.095498
909.842842,-8808.450710,-222.061783,919.314598
909.843162,-9696.697840,962.267725,2221.676944
909.843483,-9548.656652,444.123565,2298.286494
909.843804,-9474.636058,296.082377,2451.505594
909.844125,-9992.780217,-814.226536,1072.533697
909.844445,-9548.656652,74.020594,-306.438199
909.844766,-10066.800811,814.226536,306.438199
909.845087,-9178.553681,-518.144159,153.219100
909.845407,-9104.533087,-1332.370696,-383.047749
909.845728,-9992.780217,-1184.329507,-459.657299
909.846049,-10658.965565,-148.041188,1149.143247
909.846369,-11177.109724,-148.041188,2451.505594
909.846690,-10955.047942,-296.082377,2451.505594
909.847011,-10436.903782,222.061783,1991.848295
909.847332,-10362.883188,444.123565,2757.943793
909.847652,-9326.594869,444.123565,1991.848295
909.847973,-9622.677246,-1184.329507,919.314598
909.848294,-9104.533087,-666.185348,1991.848295
909.848614,-9474.636058,-740.205942,1915.238745
909.848935,-9474.636058,-1110.308913,2604.724693
909.849256,-9252.574275,-592.164754,1455.581446
909.849576,-9918.759623,222.061783,76.609550
909.849897,-9474.636058,1628.453072,1072.533697
909.850218,-9696.697840,444.123565,2757.943793
909.850539,-9474.636058,-592.164754,919.314598
909.850859,-9622.677246,-1258.350101,612.876398
909.851180,-9844.739029,-1776.494261,766.095498
909.851501,-9252.574275,-814.226536,2068.457845
909.851821,-9844.739029,-592.164754,919.314598
909.852142,-8882.471304,962.267725,383.047749
909.852463,-8364.327145,740.205942,-306.438199
909.852784,-8290.306550,222.061783,76.609550
909.853104,-8512.368333,-1036.288319,0.000000
909.853425,-9030.512492,-814.226536,995.924147
909.853746,-9474.636058,-1332.370696,2451.505594
909.854066,-9622.677246,-1332.370696,2757.943793
909.854387,-10362.883188,-3034.844362,1608.800546
909.854708,-9770.718434,-1702.473667,383.047749
909.855028,-10362.883188,-444.123565,229.828649
909.855349,-9474.636058,-370.102971,612.876398
909.855670,-9104.533087,-1036.288319,-766.095498
909.855991,-9030.512492,-1332.370696,-536.266849
909.856311,-9548.656652,-1036.288319,0.000000
909.856632,-9918.759623,-1258.350101,1225.752797
909.856953,-9918.759623,-1554.432478,1685.410096
909.857273,-9622.677246,-296.082377,1302.362347
909.857594,-10140.821405,444.123565,2298.286494
909.857915,-10214.842000,222.061783,1838.629195
909.858235,-9548.656652,0.000000,2298.286494
909.858556,-9474.636058,962.267725,2681.334243
909.858877,-9622.677246,-222.061783,2221.676944
909.859198,-10288.862594,-1258.350101,2374.896044
909.859518,-9696.697840,-1406.391290,995.924147
909.859839,-9622.677246,-296.082377,1149.143247
909.860160,-9844.739029,444.123565,76.609550
909.860480,-9400.615463,518.144159,536.266849
909.860801,-9992.780217,0.000000,306.438199
909.861122,-10214.842000,444.123565,459.657299
909.861442,-10288.862594,74.020594,1608.800546
909.861763,-10288.862594,0.000000,2528.115143
909.862084,-10436.903782,-592.164754,2298.286494
909.862405,-9918.759623,518.144159,1532.190996
909.862725,-9622.677246,1480.411884,3370.820191
909.863046,-8438.347739,518.144159,995.924147
909.863367,-8364.327145,-444.123565,612.876398
909.863687,-8882.471304,-222.061783,842.705048
909.864008,-9548.656652,-962.267725,1838.629195
909.864329,-9252.574275,-740.205942,1685.410096
909.864649,-9548.656652,-1628.453072,689.485948
909.864970,-9252.574275,-148.041188,0.000000
909.865291,-9918.759623,148.041188,306.438199
909.865612,-8882.471304,-222.061783,1378.971896
909.865932,-9326.594869,-1110.308913,0.000000
909.866253,-9326.594869,-1036.288319,-153.219100
909.866574,-10214.842000,-814.226536,153.219100
909.866894,-10288.862594,666.185348,2145.067394
909.867215,-9918.759623,-148.041188,1608.800546
909.867536,-9104.533087,666.185348,1378.971896
909.867857,-9326.594869,296.082377,1072.533697
909.868177,-9326.594869,148.041188,842.705048
909.868498,-9030.512492,-148.041188,766.095498
909.868819,-8808.450710,0.000000,1072.533697
909.869139,-8956.491898,370.102971,1225.752797
909.869460,-9770.718434,0.000000,2374.896044
909.869781,-9400.615463,-148.041188,995.924147
909.870101,-9474.636058,-296.082377,153.219100
909.870422,-9696.697840,222.061783,0.000000
909.870743,-9992.780217,222.061783,536.266849
909.871064,-11251.130318,222.061783,1915.238745
909.871384,-10584.944971,74.020594,1455.581446
909.871705,-10732.986159,74.020594,1762.019645
909.872026,-10732.986159,0.000000,2451.505594
909.872346,-10658.965565,-592.164754,2374.896044
909.872667,-10066.800811,-74.020594,766.095498
909.872988,-9104.533087,222.061783,1149.143247
909.873308,-8438.347739,-888.247130,153.219100
909.873629,-7994.224174,-888.247130,229.828649
909.873950,-9474.636058,-888.247130,1302.362347
909.874271,-9548.656652,0.000000,2068.457845
909.874591,-10658.965565,-296.082377,2987.772442
909.874912,-10140.821405,-1554.432478,2068.457845
909.875233,-9400.615463,-1332.370696,0.000000
909.875553,-10140.821405,-148.041188,0.000000
909.875874,-9548.656652,-296.082377,306.438199
909.876195,-8660.409521,-1554.432478,0.000000
909.876515,-8808.450710,-2368.659014,919.314598
909.876836,-9104.533087,-1850.514855,0.000000
909.877157,-10066.800811,-1332.370696,2145.067394
909.877478,-9992.780217,-1332.370696,2451.505594
909.877798,-9474.636058,-222.061783,1685.410096
909.878119,-9548.656652,0.000000,1838.629195
909.878440,-8882.471304,-444.123565,1991.848295
909.878760,-9474.636058,-1110.308913,1915.238745
909.879081,-8956.491898,-1184.329507,1991.848295
909.879402,-8734.430116,-962.267725,1302.362347
909.879722,-9474.636058,0.000000,2834.553343
909.880043,-9918.759623,-740.205942,1455.581446
909.880364,-9178.553681,-296.082377,-306.438199
909.880685,-9178.553681,-222.061783,-1072.533697
909.881005,-9104.533087,-444.123565,-919.314598
909.881326,-10066.800811,-1184.329507,-459.657299
909.881647,-10658.965565,-1850.514855,229.828649
909.881967,-10066.800811,-814.226536,1302.362347
909.882288,-11399.171507,-1184.329507,2374.896044
909.882609,-11103.089130,-1184.329507,2681.334243
909.882930,-10658.965565,-222.061783,2298.286494
909.883250,-10362.883188,0.000000,1225.752797
909.883571,-8512.368333,74.020594,306.438199
909.883892,-7994.224174,-444.123565,-536.266849
909.884212,-8364.327145,1036.288319,229.828649
909.884533,-9548.656652,1406.391290,1378.971896
909.884854,-9844.739029,1110.308913,2911.162892
909.885174,-10066.800811,-814.226536,1915.238745
909.885495,-10362.883188,-814.226536,0.000000
909.885816,-10658.965565,0.000000,306.438199
909.886137,-9548.656652,1850.514855,1838.629195
909.886457,-11251.130318,-592.164754,229.828649
909.886778,-7402.059420,1036.288319,-919.314598
909.887099,-9918.759623,-1184.329507,-612.876398
909.887419,-9844.739029,74.020594,1302.362347
909.887740,-9474.636058,-1332.370696,1225.752797
909.888061,-10362.883188,-444.123565,2604.724693
909.888381,-9252.574275,0.000000,919.314598
909.888702,-8586.388927,592.164754,1455.581446
909.889023,-10510.924376,0.000000,3983.696590
909.889344,-7550.100608,222.061783,1915.238745
909.889664,-9992.780217,-370.102971,1991.848295
909.889985,-7772.162391,-444.123565,1915.238745
909.890306,-8808.450710,-1554.432478,-306.438199
909.890626,-9474.636058,-1036.288319,-536.266849
909.890947,-9252.574275,962.267725,-306.438199
909.891268,-8808.450710,1036.288319,-306.438199
909.891588,-9474.636058,148.041188,-383.047749
909.891909,-9548.656652,-1036.288319,306.438199
909.892230,-9474.636058,666.185348,459.657299
909.892551,-11177.109724,-370.102971,2221.676944
909.892871,-10436.903782,518.144159,2987.772442
909.893192,-9696.697840,0.000000,2145.067394
909.893513,-9474.636058,-740.205942,1532.190996
909.893833,-8882.471304,0.000000,2298.286494
909.894154,-9178.553681,-1406.391290,1685.410096
909.894475,-8956.491898,0.000000,1838.629195
909.894795,-10436.903782,962.267725,2145.067394
909.895116,-9992.780217,74.020594,2451.505594
909.895437,-9696.697840,-148.041188,1608.800546
909.895758,-9548.656652,0.000000,-383.047749
909.896078,-9622.677246,962.267725,-612.876398
909.896399,-10066.800811,814.226536,536.266849
909.896720,-9548.656652,-592.164754,536.266849
909.897040,-10066.800811,-1554.432478,-689.485948
909.897361,-10510.924376,-1554.432478,153.219100
909.897682,-9696.697840,-1628.453072,1225.752797
909.898003,-10436.903782,-1924.535449,1762.019645
909.898323,-9918.759623,-222.061783,1378.971896
909.898644,-9622.677246,740.205942,995.924147
909.898965,-9104.533087,1776.494261,459.657299
909.899285,-9400.615463,148.041188,1838.629195
909.899606,-8882.471304,74.020594,1608.800546
909.899927,-9622.677246,74.020594,2374.896044
909.900247,-9770.718434,-370.102971,2757.943793
909.900568,-9696.697840,-1332.370696,1685.410096
909.900889,-9326.594869,-592.164754,612.876398
909.901210,-9400.615463,1110.308913,-306.438199
909.901530,-9696.697840,814.226536,459.657299
909.901851,-9252.574275,296.082377,-766.095498
909.902172,-9474.636058,-592.164754,-995.924147
909.902492,-9474.636058,-592.164754,-383.047749
909.902813,-10066.800811,-1258.350101,1378.971896
909.903134,-9770.718434,-2368.659014,2374.896044
909.903454,-10066.800811,-1258.350101,1838.629195
909.903775,-9474.636058,0.000000,1455.581446
909.904096,-9474.636058,222.061783,2451.505594
909.904417,-9178.553681,-148.041188,2451.505594
909.904737,-9400.615463,-888.247130,2528.115143
909.905058,-9474.636058,-740.205942,2298.286494
909.905379,-9178.553681,-888.247130,2298.286494
909.905699,-9326.594869,-1702.473667,1378.971896
909.906020,-9548.656652,-296.082377,0.000000
909.906341,-9548.656652,444.123565,229.828649
909.906661,-9548.656652,666.185348,842.705048
909.906982,-9992.780217,-1110.308913,536.266849
909.907303,-10288.862594,-1406.391290,-1225.752797
909.907624,-10140.821405,-1554.432478,153.219100
909.907944,-10807.006753,-888.247130,2068.457845
909.908265,-10510.924376,-962.267725,2298.286494
909.908586,-9474.636058,-1184.329507,1455.581446
909.908906,-8956.491898,-518.144159,0.000000
909.909227,-8512.368333,-370.102971,229.828649
909.909548,-8808.450710,-592.164754,536.266849
909.909868,-8660.409521,740.205942,1225.752797
909.910189,-8956.491898,1184.329507,1608.800546
909.910510,-8882.471304,222.061783,1915.238745
909.910831,-9918.759623,-888.247130,2298.286494
909.911151,-10362.883188,-888.247130,995.924147
909.911472,-10807.006753,0.000000,229.828649
909.911793,-9992.780217,518.144159,919.314598
909.912113,-9548.656652,-518.144159,0.000000
909.912434,-10214.842000,-222.061783,-766.095498
909.912755,-10584.944971,0.000000,153.219100
909.913076,-9918.759623,-148.041188,1072.533697
909.913396,-9992.780217,-1406.391290,1302.362347
909.913717,-9474.636058,-592.164754,76.609550
909.914038,-9474.636058,666.185348,536.266849
909.914358,-8808.450710,518.144159,1608.800546
909.914679,-9104.533087,740.205942,2145.067394
909.915000,-9104.533087,370.102971,2145.067394
909.915320,-9992.780217,-222.061783,2911.162892
909.915641,-9844.739029,0.000000,3677.258390
909.915962,-9992.780217,-2146.597232,2681.334243
909.916283,-9178.553681,-1480.411884,766.095498
909.916603,-8660.409521,-222.061783,-306.438199
909.916924,-8956.491898,74.020594,-842.705048
909.917245,-9104.533087,0.000000,-1225.752797
909.917565,-9252.574275,-222.061783,-1455.581446
909.917886,-10066.800811,-592.164754,-153.219100
909.918207,-10658.965565,-592.164754,1608.800546
909.918527,-11325.150913,-1702.473667,1455.581446
909.918848,-10362.883188,-1110.308913,1532.190996
909.919169,-10362.883188,74.020594,1072.533697
909.919490,-9178.553681,296.082377,1838.629195
909.919810,-8882.471304,-592.164754,1991.848295
909.920131,-8660.409521,370.102971,1685.410096
909.920452,-8808.450710,1258.350101,2068.457845
909.920772,-9548.656652,148.041188,2451.505594
909.921093,-9104.533087,-148.041188,2221.676944
909.921414,-9548.656652,-296.082377,536.266849
909.921735,-9770.718434,740.205942,153.219100
909.922056,-9326.594869,592.164754,536.266849
909.922376,-9474.636058,-740.205942,0.000000
909.922697,-8808.450710,-1776.494261,-995.924147
909.923018,-10214.842000,-1554.432478,-306.438199
909.923339,-10436.903782,-814.226536,1072.533697
909.923659,-10510.924376,-888.247130,1608.800546
909.923980,-10362.883188,0.000000,2374.896044
909.924301,-9770.718434,444.123565,1302.362347
909.924622,-9918.759623,0.000000,1685.410096
909.924943,-9326.594869,-814.226536,1532.190996
909.925263,-8438.347739,-370.102971,1685.410096
909.925584,-9474.636058,-740.205942,2757.943793
909.925905,-9178.553681,-222.061783,2451.505594
909.926226,-9400.615463,-222.061783,1378.971896
909.926547,-8808.450710,444.123565,0.000000
909.926867,-7698.141797,1776.494261,459.657299
909.927188,-9844.739029,666.185348,306.438199
909.927509,-9474.636058,-1110.308913,-536.266849
909.927830,-9326.594869,-1776.494261,-1608.800546
909.928150,-10214.842000,-1998.556043,-306.438199
909.928471,-11029.068536,-1554.432478,2145.067394
909.928792,-11547.212695,-1258.350101,3600.648841
909.929113,-10955.047942,-740.205942,1915.238745
909.929434,-9770.718434,1258.350101,1149.143247
909.929754,-9474.636058,370.102971,842.705048
909.930075,-9030.512492,-148.041188,1302.362347
909.930396,-8882.471304,-518.144159,459.657299
909.930717,-7846.182985,0.000000,919.314598
909.931038,-8808.450710,-370.102971,1378.971896
909.931358,-9252.574275,-148.041188,2068.457845
909.931679,-10066.800811,-444.123565,1302.362347
909.932000,-9844.739029,740.205942,919.314598
909.932321,-9474.636058,518.144159,536.266849
909.932641,-9770.718434,-148.041188,229.828649
909.932962,-9548.656652,-592.164754,-536.266849
909.933283,-9770.718434,-1554.432478,-536.266849
909.933604,-9696.697840,-962.267725,229.828649
909.933925,-9918.759623,-1406.391290,689.485948
909.934245,-9474.636058,-814.226536,995.924147
909.934566,-9548.656652,666.185348,1685.410096
909.934887,-10140.821405,0.000000,2451.505594
909.935208,-9400.615463,-518.144159,3294.210641
909.935529,-9252.574275,-518.144159,2451.505594
909.935849,-9622.677246,-1184.329507,3217.601092
909.936170,-9474.636058,-1332.370696,3447.429741
909.936491,-9696.697840,-1998.556043,2068.457845
909.936812,-8660.409521,-1554.432478,153.219100
909.937132,-8734.430116,814.226536,-766.095498
909.937453,-9474.636058,1480.411884,536.266849
909.937774,-9622.677246,370.102971,306.438199
909.938095,-9770.718434,0.000000,0.000000
909.938416,-10140.821405,0.000000,-612.876398
909.938736,-10658.965565,370.102971,919.314598
909.939057,-11843.295072,-222.061783,2374.896044
909.939378,-10288.862594,-370.102971,995.924147
909.939699,-9992.780217,-592.164754,919.314598
909.940020,-9104.533087,-518.144159,306.438199
909.940340,-9178.553681,-296.082377,919.314598
909.940661,-10066.800811,74.020594,1378.971896
909.940982,-9696.697840,666.185348,2298.286494
909.941303,-10140.821405,-222.061783,2911.162892
909.941623,-9474.636058,-1036.288319,2068.457845
909.941944,-9992.780217,-888.247130,919.314598
909.942265,-9770.718434,0.000000,306.438199
909.942586,-8586.388927,-74.020594,-536.266849
909.942907,-7254.018232,-962.267725,-2068.457845
909.943227,-8290.306550,-666.185348,-2681.334243
909.943548,-9252.574275,-148.041188,-842.705048
909.943869,-10436.903782,-518.144159,536.266849
909.944190,-9770.718434,0.000000,1838.629195
909.944511,-10584.944971,-1776.494261,995.924147
909.944831,-8956.491898,148.041188,1838.629195
909.945152,-10288.862594,-370.102971,2681.334243
909.945473,-9474.636058,-1036.288319,2451.505594
909.945794,-9178.553681,-518.144159,2451.505594
909.946114,-9030.512492,-518.144159,2068.457845
909.946435,-9030.512492,0.000000,2221.676944
909.946756,-9474.636058,-1776.494261,1915.238745
909.947077,-8512.368333,-888.247130,229.828649
909.947398,-9400.615463,1036.288319,-383.047749
909.947718,-7550.100608,222.061783,0.000000
909.948039,-9622.677246,1480.411884,1455.581446
909.948360,-10584.944971,148.041188,689.485948
909.948681,-10140.821405,-444.123565,612.876398
909.949002,-10288.862594,-1406.391290,995.924147
909.949322,-10140.821405,-1850.514855,1072.533697
909.949643,-9548.656652,-740.205942,842.705048
909.949964,-10288.862594,0.000000,689.485948
909.950285,-8660.409521,962.267725,689.485948
909.950605,-9178.553681,-296.082377,995.924147
909.950926,-9770.718434,296.082377,1685.410096
909.951247,-10510.924376,74.020594,2757.943793
909.951568,-10658.965565,-592.164754,4060.306139
909.951889,-9844.739029,-2072.576638,3064.381992
909.952209,-9992.780217,-1480.411884,1225.752797
909.952530,-9548.656652,222.061783,995.924147
909.952851,-9474.636058,518.144159,689.485948
909.953172,-9400.615463,0.000000,0.000000
909.953493,-8808.450710,-148.041188,-919.314598
909.953813,-9770.718434,0.000000,-612.876398
909.954134,-10658.965565,-1036.288319,842.705048
909.954455,-10436.903782,-1554.432478,1838.629195
909.954776,-10658.965565,-1998.556043,995.924147
909.955097,-9474.636058,-222.061783,842.705048
909.955417,-9696.697840,-296.082377,1302.362347
909.955738,-9548.656652,0.000000,2298.286494
909.956059,-9178.553681,0.000000,689.485948
909.956380,-9326.594869,814.226536,2298.286494
909.956700,-9400.615463,-222.061783,2451.505594
909.957021,-9030.512492,-962.267725,1838.629195
909.957342,-9400.615463,-1406.391290,229.828649
909.957663,-8956.491898,-148.041188,-153.219100
909.957984,-8734.430116,222.061783,-76.609550
909.958304,-8808.450710,0.000000,-459.657299
909.958625,-8956.491898,0.000000,-536.266849
909.958946,-9622.677246,-370.102971,-383.047749
909.959267,-9770.718434,-740.205942,612.876398
909.959588,-9918.759623,-1628.453072,1225.752797
909.959908,-9548.656652,-1776.494261,612.876398
909.960229,-10362.883188,-592.164754,76.609550
909.960550,-9622.677246,-222.061783,1608.800546
909.960871,-8808.450710,-518.144159,2145.067394
909.961191,-9474.636058,-666.185348,2068.457845
909.961512,-9548.656652,74.020594,2451.505594
909.961833,-9696.697840,0.000000,2681.334243
909.962154,-10288.862594,0.000000,2987.772442
909.962475,-9178.553681,-296.082377,1608.800546
909.962795,-9400.615463,0.000000,229.828649
909.963116,-8660.409521,-222.061783,0.000000
909.963437,-9326.594869,-518.144159,-153.219100
909.963758,-9548.656652,-518.144159,229.828649
909.964079,-10584.944971,-666.185348,1072.533697
909.964399,-11029.068536,-740.205942,1838.629195
909.964720,-10807.006753,-962.267725,2681.334243
909.965041,-10362.883188,-814.226536,1762.019645
909.965362,-10140.821405,74.020594,1991.848295
909.965682,-9622.677246,222.061783,689.485948
909.966003,-8956.491898,0.000000,76.609550
909.966324,-8142.265362,222.061783,-612.876398
909.966645,-8586.388927,666.185348,76.609550
909.966966,-8660.409521,444.123565,919.314598
909.967286,-9622.677246,-592.164754,1915.238745
909.967607,-8808.450710,0.000000,1225.752797
909.967928,-11177.109724,-2960.823768,229.828649
909.968249,-8734.430116,1332.370696,1532.190996
909.968570,-11843.295072,-2220.617826,459.657299
909.968890,-8734.430116,-1998.556043,-1608.800546
909.969211,-9326.594869,-444.123565,-383.047749
909.969532,-10510.924376,-370.102971,1378.971896
909.969853,-9474.636058,-1036.288319,1532.190996
909.970173,-9548.656652,-1258.350101,76.609550
909.970494,-10807.006753,592.164754,1225.752797
909.970815,-7846.182985,-222.061783,306.438199
909.971136,-9622.677246,0.000000,1608.800546
909.971457,-9252.574275,-666.185348,2451.505594
909.971777,-8290.306550,-666.185348,3907.087040
909.972098,-10807.006753,-666.185348,2757.943793
909.972419,-9326.594869,-296.082377,2451.505594
909.972740,-9030.512492,-296.082377,612.876398
909.973061,-9474.636058,518.144159,0.000000
909.973381,-9178.553681,1332.370696,-1072.533697
909.973702,-9030.512492,296.082377,0.000000
909.974023,-9178.553681,-1258.350101,-919.314598
909.974344,-9622.677246,-518.144159,0.000000
909.974664,-11177.109724,-1480.411884,1455.581446
909.974985,-10881.027347,-1480.411884,2528.115143
909.975306,-11177.109724,-740.205942,1838.629195
909.975627,-9548.656652,222.061783,1838.629195
909.975948,-9844.739029,740.205942,1608.800546
909.976268,-9252.574275,888.247130,1915.238745
909.976589,-9548.656652,-444.123565,612.876398
909.976910,-8734.430116,888.247130,2145.067394
909.977231,-9400.615463,-888.247130,2451.505594
909.977552,-9622.677246,-518.144159,1915.238745
909.977872,-10436.903782,-1036.288319,1455.581446
909.978193,-9252.574275,962.267725,536.266849
909.978514,-9844.739029,1258.350101,689.485948
909.978835,-9548.656652,370.102971,1149.143247
909.979155,-9622.677246,-814.226536,-459.657299
909.979476,-9992.780217,-370.102971,-229.828649
909.979797,-10436.903782,-592.164754,689.485948
909.980118,-10140.821405,-888.247130,2528.115143
909.980439,-9548.656652,-666.185348,1608.800546
909.980759,-9548.656652,-592.164754,1378.971896
909.981080,-9178.553681,0.000000,1302.362347
909.981401,-9178.553681,-740.205942,1685.410096
909.981722,-8956.491898,-370.102971,842.705048
909.982043,-9030.512492,-444.123565,1149.143247
909.982363,-9030.512492,-222.061783,1072.533697
909.982684,-9252.574275,0.000000,1838.629195
909.983005,-9474.636058,-1332.370696,612.876398
909.983326,-9178.553681,-148.041188,-842.705048
909.983646,-9178.553681,370.102971,-153.219100
909.983967,-9474.636058,148.041188,0.000000
909.984288,-9104.533087,0.000000,229.828649
909.984609,-9400.615463,-740.205942,0.000000
909.984930,-9548.656652,-1332.370696,919.314598
909.985250,-10362.883188,-1036.288319,1991.848295
909.985571,-10881.027347,-1332.370696,2528.115143
909.985892,-10955.047942,-148.041188,2834.553343
909.986213,-10214.842000,444.123565,2145.067394
909.986534,-9770.718434,0.000000,1838.629195
909.986854,-9400.615463,0.000000,1532.190996
909.987175,-9326.594869,-148.041188,1378.971896
909.987496,-9104.533087,-740.205942,1302.362347
909.987817,-9400.615463,-1332.370696,1149.143247
909.988137,-9400.615463,-1924.535449,-842.705048
909.988458,-9326.594869,0.000000,-766.095498
909.988779,-9474.636058,1110.308913,76.609550
909.989100,-9918.759623,222.061783,383.047749
909.989421,-9844.739029,-370.102971,306.438199
909.989741,-10584.944971,-962.267725,153.219100
909.990062,-10732.986159,-888.247130,766.095498
909.990383,-10955.047942,-666.185348,2757.943793
909.990704,-10066.800811,-814.226536,1838.629195
909.991025,-9474.636058,370.102971,1072.533697
909.991345,-9326.594869,148.041188,383.047749
909.991666,-7846.182985,74.020594,842.705048
909.991987,-8956.491898,-740.205942,766.095498
909.992308,-9400.615463,222.061783,1915.238745
909.992629,-9918.759623,-444.123565,2451.505594
909.992949,-9844.739029,-592.164754,2528.115143
909.993270,-9844.739029,-2072.576638,1302.362347
909.993591,-9400.615463,-666.185348,0.000000
909.993912,-9178.553681,148.041188,459.657299
909.994232,-9400.615463,-1332.370696,153.219100
909.994553,-8734.430116,-148.041188,-536.266849
909.994874,-9548.656652,-740.205942,-459.657299
909.995195,-9252.574275,-1036.288319,0.000000
909.995516,-9992.780217,74.020594,2145.067394
909.995836,-11251.130318,-1554.432478,2451.505594
909.996157,-9770.718434,-888.247130,2145.067394
909.996478,-9474.636058,-962.267725,1455.581446
909.996799,-8956.491898,-1850.514855,1455.581446
909.997120,-8142.265362,740.205942,2221.676944
909.997440,-10140.821405,370.102971,2911.162892
909.997761,-8808.450710,592.164754,1991.848295
909.998082,-9178.553681,296.082377,2298.286494
909.998403,-9844.739029,-1036.288319,612.876398
909.998723,-8882.471304,518.144159,-536.266849
909.999044,-10807.006753,1110.308913,153.219100
909.999365,-9326.594869,814.226536,383.047749
909.999686,-9474.636058,296.082377,76.609550
910.000007,-10658.965565,0.000000,459.657299
910.000327,-10584.944971,-592.164754,1225.752797
910.000648,-10510.924376,-888.247130,2221.676944
910.000969,-9918.759623,-962.267725,2068.457845
910.001290,-9622.677246,74.020594,1149.143247
910.001611,-9992.780217,1258.350101,1532.190996
910.001931,-9474.636058,666.185348,1532.190996
910.002252,-9030.512492,666.185348,1685.410096
910.002573,-9030.512492,666.185348,2145.067394
910.002894,-9992.780217,0.000000,2374.896044
910.003214,-10362.883188,-370.102971,2987.772442
910.003535,-9844.739029,-962.267725,995.924147
910.003856,-9918.759623,-518.144159,-229.828649
910.004177,-9178.553681,1036.288319,-153.219100
910.004498,-9770.718434,-444.123565,-229.828649
910.004818,-9178.553681,-666.185348,-536.266849
910.005139,-9474.636058,-148.041188,-919.314598
910.005460,-10362.883188,-518.144159,459.657299
910.005781,-10066.800811,0.000000,1838.629195
910.006102,-10584.944971,-666.185348,2451.505594
910.006422,-9844.739029,-740.205942,1991.848295
910.006743,-9918.759623,-888.247130,2298.286494
910.007064,-8586.388927,-666.185348,1225.752797
910.007385,-8512.368333,-518.144159,1302.362347
910.007705,-9030.512492,518.144159,1838.629195
910.008026,-9400.615463,0.000000,3524.039291
910.008347,-8956.491898,-740.205942,1838.629195
910.008668,-8734.430116,-1924.535449,153.219100
910.008989,-9622.677246,-1776.494261,-689.485948
910.009309,-9474.636058,-666.185348,-383.047749
910.009630,-9400.615463,74.020594,0.000000
910.009951,-9696.697840,-222.061783,-229.828649
910.010272,-9178.553681,0.000000,0.000000
910.010593,-10214.842000,-518.144159,536.266849
910.010913,-10807.006753,-888.247130,2911.162892
910.011234,-9992.780217,-1628.453072,1991.848295
910.011555,-9918.759623,-1628.453072,1762.019645
910.011876,-9178.553681,-740.205942,1608.800546
910.012196,-9104.533087,-518.144159,1455.581446
910.012517,-9252.574275,444.123565,2757.943793
910.012838,-9326.594869,0.000000,2528.115143
910.013159,-9400.615463,0.000000,2298.286494
910.013480,-10214.842000,-740.205942,2451.505594
910.013800,-9844.739029,-1332.370696,536.266849
910.014121,-9622.677246,0.000000,153.219100
910.014442,-9992.780217,0.000000,-153.219100
910.014763,-9252.574275,74.020594,-153.219100
910.015084,-10066.800811,0.000000,-536.266849
910.015404,-10214.842000,-370.102971,-306.438199
910.015725,-10732.986159,-740.205942,766.095498
910.016046,-10288.862594,-1110.308913,2145.067394
910.016367,-10658.965565,-1480.411884,2374.896044
910.016687,-9622.677246,-222.061783,1378.971896
910.017008,-9844.739029,-444.123565,1455.581446
910.017329,-8364.327145,296.082377,1838.629195
910.017650,-8808.450710,222.061783,1302.362347
910.017971,-9252.574275,666.185348,2068.457845
910.018291,-9548.656652,518.144159,2145.067394
910.018612,-9400.615463,-518.144159,2374.896044
910.018933,-9622.677246,-1702.473667,689.485948
910.019254,-9474.636058,-592.164754,76.609550
910.019575,-9622.677246,-518.144159,-612.876398
910.019895,-9178.553681,-296.082377,0.000000
910.020216,-9030.512492,-1480.411884,-1072.533697
910.020537,-8660.409521,-1332.370696,-1072.533697
910.020858,-9918.759623,-962.267725,-689.485948
910.021178,-10807.006753,0.000000,1685.410096
910.021499,-10807.006753,-814.226536,2068.457845
910.021820,-9918.759623,74.020594,1762.019645
910.022141,-9770.718434,518.144159,2145.067394
910.022462,-9696.697840,-1036.288319,2145.067394
910.022782,-8734.430116,-814.226536,1378.971896
910.023103,-8586.388927,-370.102971,842.705048
910.023424,-7772.162391,-518.144159,0.000000
910.023745,-8364.327145,740.205942,766.095498
910.024065,-9770.718434,222.061783,229.828649
910.024386,-8956.491898,444.123565,-1532.190996
910.024707,-8438.347739,222.061783,-1608.800546
910.025028,-9400.615463,-74.020594,-919.314598
910.025348,-9178.553681,-592.164754,-1072.533697
910.025669,-10658.965565,-296.082377,459.657299
910.025990,-10584.944971,0.000000,1685.410096
910.026310,-11029.068536,-888.247130,3524.039291
910.026631,-10584.944971,-1480.411884,2681.334243
910.026952,-11029.068536,-666.185348,2911.162892
910.027273,-9770.718434,1406.391290,3830.477490
910.027593,-10807.006753,-370.102971,2987.772442
910.027914,-7402.059420,1480.411884,2834.553343
910.028235,-9030.512492,-148.041188,1915.238745
910.028555,-8734.430116,592.164754,2834.553343
910.028876,-9400.615463,-592.164754,2528.115143
910.029197,-10658.965565,444.123565,2681.334243
910.029518,-8956.491898,0.000000,-229.828649
910.029838,-9400.615463,1110.308913,-76.609550
910.030159,-10288.862594,1776.494261,1455.581446
910.030480,-9622.677246,1110.308913,536.266849
910.030800,-10436.903782,296.082377,229.828649
910.031121,-9548.656652,-1480.411884,612.876398
910.031442,-10066.800811,-1480.411884,1378.971896
910.031763,-11325.150913,-2442.679609,2298.286494
910.032083,-9548.656652,-666.185348,1685.410096
910.032404,-9178.553681,518.144159,2528.115143
910.032725,-9104.533087,0.000000,1838.629195
910.033045,-8438.347739,-296.082377,1838.629195
910.033366,-9326.594869,-296.082377,2528.115143
910.033687,-9030.512492,-1554.432478,4290.134789
910.034008,-9474.636058,-962.267725,2911.162892
910.034328,-9696.697840,-2146.597232,1225.752797
910.034649,-9252.574275,-666.185348,-536.266849
910.034970,-9178.553681,962.267725,-1149.143247
910.035290,-9030.512492,444.123565,-842.705048
910.035611,-9400.615463,0.000000,-1762.019645
910.035932,-9178.553681,-444.123565,-2068.457845
910.036253,-10140.821405,-1258.350101,-1302.362347
910.036573,-10658.965565,-296.082377,1455.581446
910.036894,-10658.965565,-1184.329507,1225.752797
910.037215,-10362.883188,-222.061783,1302.362347
910.037535,-9622.677246,0.000000,1991.848295
910.037856,-10066.800811,-666.185348,919.314598
910.038177,-9030.512492,-1480.411884,1608.800546
910.038498,-9252.574275,-1258.350101,1225.752797
910.038818,-8956.491898,-518.144159,1532.190996
910.039139,-9548.656652,0.000000,2451.505594
910.039460,-9178.553681,0.000000,1378.971896
910.039780,-9474.636058,518.144159,-153.219100
910.040101,-10140.821405,592.164754,-536.266849
910.040422,-9622.677246,148.041188,-383.047749
910.040743,-9474.636058,-1184.329507,-919.314598
910.041063,-9992.780217,-1184.329507,-1455.581446
910.041384,-9326.594869,-518.144159,-842.705048
910.041705,-10214.842000,-222.061783,689.485948
910.042025,-10732.986159,-370.102971,1838.629195
910.042346,-9696.697840,-222.061783,1455.581446
910.042667,-10732.986159,-1036.288319,2298.286494
910.042988,-9918.759623,-1406.391290,3217.601092
910.043308,-10066.800811,-1628.453072,3217.601092
910.043629,-10288.862594,-296.082377,4060.306139
910.043950,-9696.697840,0.000000,3753.867940
910.044270,-9548.656652,-444.123565,3447.429741
910.044591,-8956.491898,-1776.494261,1838.629195
910.044912,-8660.409521,-1406.391290,0.000000
910.045233,-8290.306550,-592.164754,-1532.190996
910.045553,-8068.244768,-444.123565,-1225.752797
910.045874,-8734.430116,-814.226536,-1302.362347
910.046195,-8586.388927,-592.164754,76.609550
910.046516,-10288.862594,-740.205942,229.828649
910.046836,-10658.965565,-370.102971,1915.238745
910.047157,-9918.759623,222.061783,2451.505594
910.047478,-10955.047942,-1258.350101,1762.019645
910.047798,-8438.347739,666.185348,1915.238745
910.048119,-9030.512492,0.000000,1685.410096
910.048440,-7920.203579,-296.082377,1302.362347
910.048761,-8808.450710,222.061783,2068.457845
910.049081,-9844.739029,296.082377,2681.334243
910.049402,-8808.450710,814.226536,2987.772442
910.049723,-10362.883188,-814.226536,1915.238745
910.050043,-9474.636058,222.061783,1072.533697
910.050364,-10807.006753,0.000000,383.047749
910.050685,-9548.656652,0.000000,536.266849
910.051006,-9030.512492,444.123565,0.000000
910.051326,-10214.842000,-444.123565,-1608.800546
910.051647,-9696.697840,1554.432478,-612.876398
910.051968,-10214.842000,740.205942,536.266849
910.052288,-10288.862594,296.082377,842.705048
910.052609,-9400.615463,-444.123565,-153.219100
910.052930,-10436.903782,-444.123565,76.609550
910.053251,-10214.842000,74.020594,919.314598
910.053571,-9622.677246,0.000000,2374.896044
910.053892,-9844.739029,296.082377,3370.820191
910.054213,-9992.780217,444.123565,3370.820191
910.054533,-9622.677246,-444.123565,3064.381992
910.054854,-9622.677246,-962.267725,2451.505594
910.055175,-9622.677246,-592.164754,612.876398
910.055496,-9400.615463,222.061783,-383.047749
910.055816,-8882.471304,740.205942,-536.266849
910.056137,-9178.553681,444.123565,-995.924147
910.056458,-9178.553681,444.123565,-612.876398
910.056778,-10362.883188,-444.123565,0.000000
910.057099,-10288.862594,-592.164754,842.705048
910.057420,-10214.842000,-1036.288319,1838.629195
910.057741,-10066.800811,-962.267725,1225.752797
910.058061,-9548.656652,0.000000,1532.190996
910.058382,-9030.512492,0.000000,1455.581446
910.058703,-8734.430116,370.102971,2145.067394
910.059023,-8882.471304,740.205942,2834.553343
910.059344,-9622.677246,0.000000,3600.648841
910.059665,-8882.471304,-592.164754,3753.867940
910.059986,-9178.553681,-1776.494261,2757.943793
910.060306,-8956.491898,-1554.432478,1225.752797
910.060627,-9178.553681,-518.144159,0.000000
910.060948,-8364.327145,148.041188,0.000000
910.061268,-8956.491898,-296.082377,-689.485948
910.061589,-9252.574275,0.000000,-842.705048
910.061910,-10066.800811,-592.164754,-766.095498
910.062231,-10732.986159,-962.267725,536.266849
910.062551,-10140.821405,-1406.391290,1225.752797
910.062872,-9844.739029,-1258.350101,1225.752797
910.063193,-10066.800811,0.000000,1225.752797
910.063513,-9770.718434,-1036.288319,1225.752797
910.063834,-9696.697840,-1184.329507,1991.848295
910.064155,-9030.512492,-814.226536,2451.505594
910.064476,-9474.636058,-666.185348,2834.553343
910.064796,-10288.862594,-666.185348,3370.820191
910.065117,-9474.636058,-1110.308913,1838.629195
910.065438,-9252.574275,-518.144159,0.000000
910.065758,-9474.636058,0.000000,-229.828649
910.066079,-8956.491898,148.041188,0.000000
910.066400,-9992.780217,74.020594,-306.438199
910.066721,-9844.739029,0.000000,-1302.362347
910.067041,-10140.821405,-296.082377,-995.924147
910.067362,-11399.171507,0.000000,76.609550
910.067683,-10955.047942,-1332.370696,1225.752797
910.068003,-10214.842000,-592.164754,1072.533697
910.068324,-9696.697840,-296.082377,919.314598
910.068645,-9104.533087,296.082377,2068.457845
910.068966,-9474.636058,-148.041188,1991.848295
910.069286,-9474.636058,0.000000,2451.505594
910.069607,-9474.636058,0.000000,2681.334243
910.069928,-9030.512492,-592.164754,2528.115143
910.070248,-8882.471304,-1406.391290,1455.581446
910.070569,-9178.553681,-666.185348,306.438199
910.070890,-9474.636058,0.000000,-153.219100
910.071211,-8882.471304,740.205942,76.609550
910.071531,-9474.636058,0.000000,0.000000
910.071852,-8956.491898,-1110.308913,-1225.752797
910.072173,-9622.677246,-814.226536,-766.095498
910.072493,-10658.965565,-370.102971,766.095498
910.072814,-10362.883188,-518.144159,1378.971896
910.073135,-9548.656652,-814.226536,612.876398
910.073456,-8956.491898,0.000000,306.438199
910.073776,-9548.656652,-592.164754,1302.362347
910.074097,-9326.594869,-666.185348,2221.676944
910.074418,-9104.533087,-962.267725,1991.848295
910.074738,-9104.533087,-518.144159,1991.848295
910.075059,-9474.636058,0.000000,2681.334243
910.075380,-9622.677246,0.000000,2681.334243
910.075701,-9770.718434,0.000000,1149.143247
910.076021,-9326.594869,888.247130,1302.362347
910.076342,-9030.512492,370.102971,612.876398
910.076663,-9326.594869,-148.041188,459.657299
910.076983,-9696.697840,-74.020594,-153.219100
910.077304,-9548.656652,0.000000,-459.657299
910.077625,-10066.800811,592.164754,766.095498
910.077946,-9844.739029,0.000000,1149.143247
910.078266,-10214.842000,-592.164754,842.705048
910.078587,-10066.800811,74.020594,766.095498
910.078908,-9622.677246,1036.288319,1915.238745
910.079228,-9918.759623,148.041188,2221.676944
910.079549,-9622.677246,740.205942,3294.210641
910.079870,-10510.924376,444.123565,3370.820191
910.080191,-9770.718434,-444.123565,3140.991542
910.080511,-9548.656652,-740.205942,2374.896044
910.080832,-9252.574275,-518.144159,842.705048
910.081153,-9104.533087,444.123565,229.828649
910.081474,-9844.739029,1850.514855,612.876398
910.081794,-9548.656652,740.205942,459.657299
910.082115,-9400.615463,74.020594,-612.876398
910.082436,-10140.821405,-148.041188,-689.485948
910.082756,-9474.636058,-962.267725,383.047749
910.083077,-9474.636058,-1554.432478,459.657299
910.083398,-8882.471304,-1036.288319,76.609550
910.083719,-9918.759623,74.020594,306.438199
910.084039,-9178.553681,-740.205942,1915.238745
910.084360,-9104.533087,-666.185348,2604.724693
910.084681,-10362.883188,-1110.308913,3370.820191
910.085001,-10140.821405,-1258.350101,3600.648841
910.085322,-9696.697840,-296.082377,3907.087040
910.085643,-9548.656652,-2072.576638,3140.991542
910.085964,-8438.347739,-1406.391290,383.047749
910.086284,-8290.306550,-148.041188,-689.485948
910.086605,-7402.059420,666.185348,-536.266849
910.086926,-8438.347739,-296.082377,-1072.533697
910.087246,-8956.491898,-740.205942,-1455.581446
910.087567,-9178.553681,-666.185348,-842.705048
910.087888,-10584.944971,-444.123565,842.705048
910.088209,-11473.192101,0.000000,2604.724693
910.088529,-11695.253884,-1258.350101,1915.238745
910.088850,-10288.862594,-962.267725,1149.143247
910.089171,-9696.697840,-1480.411884,842.705048
910.089491,-9178.553681,-1332.370696,1762.019645
910.089812,-9104.533087,-740.205942,995.924147
910.090133,-9252.574275,0.000000,1685.410096
910.090454,-9252.574275,-592.164754,1838.629195
910.090774,-9030.512492,-814.226536,1149.143247
910.091095,-9918.759623,-1406.391290,229.828649
910.091416,-9622.677246,296.082377,383.047749
910.091736,-10214.842000,222.061783,842.705048
910.092057,-9770.718434,222.061783,306.438199
910.092378,-9474.636058,-592.164754,-306.438199
910.092699,-10584.944971,-222.061783,0.000000
910.093019,-10658.965565,518.144159,689.485948
910.093340,-10584.944971,74.020594,1225.752797
910.093661,-9992.780217,148.041188,0.000000
910.093981,-9770.718434,296.082377,383.047749
910.094302,-9474.636058,-296.082377,689.485948
910.094623,-9252.574275,-1480.411884,229.828649
910.094944,-9030.512492,-518.144159,1072.533697
910.095264,-9474.636058,222.061783,2911.162892
910.095585,-9918.759623,-222.061783,2987.772442
910.095906,-9918.759623,-1036.288319,2834.553343
910.096226,-9400.615463,-1110.308913,536.266849
910.096547,-8660.409521,222.061783,-306.438199
910.096868,-9178.553681,0.000000,612.876398
910.097189,-8586.388927,-222.061783,306.438199
910.097509,-8882.471304,-518.144159,-306.438199
910.097830,-9474.636058,-444.123565,0.000000
910.098151,-9474.636058,-370.102971,0.000000
910.098471,-9104.533087,444.123565,1685.410096
910.098792,-10436.903782,-1406.391290,1838.629195
910.099113,-8586.388927,148.041188,1302.362347
910.099434,-9474.636058,-740.205942,1915.238745
910.099754,-8956.491898,-1554.432478,1685.410096
910.100075,-8808.450710,-296.082377,2451.505594
910.100396,-10658.965565,-370.102971,3907.087040
910.100716,-9844.739029,148.041188,4366.744339
910.101037,-10955.047942,-444.123565,3524.039291
910.101358,-9918.759623,-1184.329507,2068.457845
910.101679,-9252.574275,0.000000,306.438199
910.101999,-9622.677246,444.123565,-153.219100
910.102320,-8142.265362,1628.453072,-153.219100
910.102641,-8734.430116,666.185348,-1149.143247
910.102961,-8660.409521,444.123565,-995.924147
910.103282,-10214.842000,74.020594,459.657299
910.103603,-11251.130318,-222.061783,2987.772442
910.103924,-10881.027347,0.000000,2298.286494
910.104244,-11177.109724,370.102971,1991.848295
910.104565,-10214.842000,740.205942,1302.362347
910.104886,-10140.821405,222.061783,1608.800546
910.105206,-9474.636058,0.000000,1838.629195
910.105527,-9400.615463,0.000000,1685.410096
910.105848,-9474.636058,-740.205942,1225.752797
910.106169,-9178.553681,-1110.308913,1608.800546
910.106489,-9918.759623,-1036.288319,842.705048
910.106810,-10214.842000,296.082377,1685.410096
910.107131,-10066.800811,888.247130,2221.676944
910.107451,-10066.800811,0.000000,1455.581446
910.107772,-9548.656652,-74.020594,229.828649
910.108093,-10066.800811,-296.082377,459.657299
910.108414,-9844.739029,0.000000,1225.752797
910.108734,-9474.636058,0.000000,689.485948
910.109055,-8660.409521,0.000000,-536.266849
910.109376,-8068.244768,592.164754,-919.314598
910.109696,-9030.512492,296.082377,-153.219100
910.110017,-8956.491898,-148.041188,842.705048
910.110338,-9400.615463,-888.247130,766.095498
910.110659,-9992.780217,-1924.535449,1072.533697
910.110979,-9770.718434,-1998.556043,2451.505594
910.111300,-10066.800811,-2368.659014,2221.676944
910.111621,-9622.677246,-1924.535449,1302.362347
910.111941,-9252.574275,0.000000,842.705048
910.112262,-8808.450710,518.144159,306.438199
910.112583,-8734.430116,-296.082377,-229.828649
910.112904,-8808.450710,-518.144159,-76.609550
910.113224,-9474.636058,-296.082377,0.000000
910.113545,-9696.697840,-1036.288319,536.266849
910.113866,-9918.759623,-1554.432478,1991.848295
910.114186,-9918.759623,-1554.432478,1685.410096
910.114507,-9918.759623,-1036.288319,1685.410096
910.114828,-9696.697840,222.061783,1915.238745
910.115149,-9400.615463,-740.205942,1455.581446
910.115469,-9178.553681,-518.144159,1072.533697
910.115790,-9474.636058,-148.041188,1762.019645
910.116111,-9770.718434,-592.164754,2451.505594
910.116432,-9844.739029,-1258.350101,2451.505594
910.116752,-10362.883188,-1258.350101,1378.971896
910.117073,-9844.739029,-296.082377,842.705048
910.117394,-9844.739029,0.000000,1149.143247
910.117714,-10066.800811,-666.185348,459.657299
910.118035,-9178.553681,0.000000,0.000000
910.118356,-9548.656652,0.000000,-306.438199
910.118677,-9844.739029,148.041188,1455.581446
910.118997,-10658.965565,-148.041188,1915.238745
910.119318,-9992.780217,-740.205942,1302.362347
910.119639,-9918.759623,0.000000,536.266849
910.119959,-9474.636058,296.082377,919.314598
910.120280,-9474.636058,1110.308913,2451.505594
910.120601,-9252.574275,592.164754,766.095498
910.120922,-9474.636058,1036.288319,1685.410096
910.121242,-10066.800811,0.000000,2221.676944
910.121563,-9918.759623,-518.144159,2681.334243
910.121884,-10066.800811,-2886.803174,0.000000
910.122204,-8512.368333,-740.205942,-536.266849
910.122525,-9918.759623,-1332.370696,-306.438199
910.122846,-8586.388927,-444.123565,0.000000
910.123167,-8734.430116,-444.123565,919.314598
910.123487,-9030.512492,-518.144159,229.828649
910.123808,-9918.759623,296.082377,1532.190996
910.124129,-10955.047942,-592.164754,2374.896044
910.124449,-10214.842000,-962.267725,2604.724693
910.124770,-9104.533087,0.000000,1455.581446
910.125091,-8734.430116,148.041188,919.314598
910.125412,-9252.574275,74.020594,1149.143247
910.125732,-8956.491898,0.000000,919.314598
910.126053,-8438.347739,74.020594,1455.581446
910.126374,-9622.677246,-370.102971,1608.800546
910.126695,-9622.677246,-666.185348,1991.848295
910.127015,-9770.718434,-814.226536,229.828649
910.127336,-7994.224174,666.185348,-459.657299
910.127657,-9104.533087,592.164754,383.047749
910.127978,-9918.759623,0.000000,766.095498
910.128298,-9400.615463,-444.123565,229.828649
910.128619,-9844.739029,-888.247130,229.828649
910.128940,-9770.718434,0.000000,1532.190996
910.129261,-10140.821405,0.000000,2374.896044
910.129581,-10436.903782,370.102971,2145.067394
910.129902,-9992.780217,1110.308913,1532.190996
910.130223,-8956.491898,148.041188,1608.800546
910.130544,-9030.512492,-370.102971,1225.752797
910.130864,-9474.636058,-370.102971,1378.971896
910.131185,-10288.862594,444.123565,2145.067394
910.131506,-10140.821405,444.123565,3447.429741
910.131826,-10066.800811,0.000000,2604.724693
910.132147,-9326.594869,-444.123565,612.876398
910.132468,-10066.800811,0.000000,229.828649
910.132789,-10066.800811,296.082377,766.095498
910.133109,-9548.656652,222.061783,995.924147
910.133430,-9918.759623,-666.185348,0.000000
910.133751,-9400.615463,-148.041188,-306.438199
910.134072,-10436.903782,-444.123565,1149.143247
910.134392,-10288.862594,-518.144159,2145.067394
910.134713,-9696.697840,-444.123565,1991.848295
910.135034,-9770.718434,-148.041188,1149.143247
910.135355,-9178.553681,148.041188,1302.362347
910.135675,-9548.656652,222.061783,1991.848295
910.135996,-9104.533087,0.000000,1762.019645
910.136317,-9104.533087,0.000000,1838.629195
910.136638,-9770.718434,-518.144159,2145.067394
910.136958,-9474.636058,-1110.308913,1149.143247
910.137279,-9622.677246,-1924.535449,-229.828649
910.137600,-9400.615463,-666.185348,-1149.143247
910.137920,-9104.533087,518.144159,-919.314598
910.138241,-8956.491898,0.000000,-766.095498
910.138562,-9400.615463,74.020594,-689.485948
910.138883,-10732.986159,-666.185348,0.000000
910.139203,-10658.965565,-1258.350101,1608.800546
910.139524,-10510.924376,-2072.576638,2374.896044
910.139845,-9918.759623,-1776.494261,612.876398
910.140166,-9252.574275,-1184.329507,76.609550
910.140486,-8142.265362,-666.185348,-229.828649
910.140807,-6735.874072,0.000000,-612.876398
910.141128,-8068.244768,-444.123565,-383.047749
910.141449,-8734.430116,740.205942,1225.752797
910.141769,-10658.965565,-222.061783,3370.820191
910.142090,-10807.006753,-1702.473667,3830.477490
910.142411,-11769.274478,-2738.761985,2681.334243
910.142732,-10732.986159,-1110.308913,1838.629195
910.143052,-10955.047942,-518.144159,689.485948
910.143373,-9622.677246,-296.082377,229.828649
910.143694,-8882.471304,0.000000,-612.876398
910.144014,-9178.553681,0.000000,-1378.971896
910.144335,-9622.677246,222.061783,-383.047749
910.144656,-9992.780217,518.144159,1685.410096
910.144977,-11399.171507,148.041188,3064.381992
910.145297,-10510.924376,296.082377,2374.896044
910.145618,-10658.965565,148.041188,3600.648841
910.145939,-10140.821405,-666.185348,3907.087040
910.146260,-9400.615463,-1184.329507,2757.943793
910.146580,-9696.697840,-296.082377,2451.505594
910.146901,-9104.533087,296.082377,2221.676944
910.147222,-8808.450710,444.123565,1378.971896
910.147543,-8438.347739,222.061783,-536.266849
910.147863,-9030.512492,888.247130,-1455.581446
910.148184,-9474.636058,740.205942,-1302.362347
910.148505,-9474.636058,-296.082377,229.828649
910.148826,-10214.842000,-888.247130,229.828649
910.149146,-10362.883188,-1480.411884,689.485948
910.149467,-9844.739029,-1554.432478,2068.457845
910.149788,-10510.924376,-1406.391290,3140.991542
910.150108,-9400.615463,-1406.391290,1608.800546
910.150429,-9252.574275,-148.041188,1149.143247
910.150750,-8364.327145,0.000000,153.219100
910.151071,-7772.162391,0.000000,229.828649
910.151391,-8882.471304,0.000000,689.485948
910.151712,-7624.121203,1406.391290,1608.800546
910.152033,-10214.842000,-518.144159,1991.848295
910.152354,-9030.512492,222.061783,3064.381992
910.152674,-10362.883188,-2516.700203,995.924147
910.152995,-8734.430116,-222.061783,0.000000
910.153316,-10066.800811,444.123565,-689.485948
910.153637,-9474.636058,962.267725,-1378.971896
910.153957,-9474.636058,666.185348,-766.095498
910.154278,-9992.780217,-740.205942,-383.047749
910.154599,-9474.636058,-814.226536,0.000000
910.154920,-11251.130318,-888.247130,689.485948
910.155240,-10362.883188,0.000000,1608.800546
910.155561,-9252.574275,444.123565,1455.581446
910.155882,-10288.862594,518.144159,1685.410096
910.156202,-8882.471304,666.185348,1302.362347
910.156523,-9622.677246,148.041188,1685.410096
910.156844,-9992.780217,148.041188,3140.991542
910.157165,-10362.883188,0.000000,3294.210641
910.157485,-10955.047942,-296.082377,3677.258390
910.157806,-10214.842000,0.000000,4060.306139
910.158127,-10066.800811,962.267725,1302.362347
910.158448,-10732.986159,1554.432478,689.485948
910.158768,-9474.636058,518.144159,229.828649
910.159089,-9400.615463,-666.185348,-1378.971896
910.159410,-9474.636058,-370.102971,-1072.533697
910.159731,-9622.677246,-1332.370696,-229.828649
910.160051,-9622.677246,-1480.411884,1302.362347
910.160372,-9770.718434,-1110.308913,2068.457845
910.160693,-10140.821405,-3552.988522,4136.915689
910.161014,-9104.533087,-740.205942,2374.896044
910.161334,-9548.656652,-296.082377,2528.115143
910.161655,-10807.006753,148.041188,2987.772442
910.161976,-8290.306550,666.185348,3447.429741
910.162296,-9770.718434,-962.267725,2451.505594
910.162617,-9178.553681,-518.144159,3064.381992
910.162938,-7254.018232,-2516.700203,-1302.362347
910.163259,-9474.636058,-518.144159,153.219100
910.163579,-7846.182985,-814.226536,0.000000
910.163900,-9178.553681,0.000000,-536.266849
910.164221,-9770.718434,-962.267725,306.438199
910.164542,-8364.327145,-1110.308913,-536.266849
910.164862,-10288.862594,-1850.514855,1378.971896
910.165183,-11399.171507,-1850.514855,2528.115143
910.165504,-9104.533087,-1850.514855,1532.190996
910.165825,-9474.636058,-1110.308913,306.438199
910.166145,-9104.533087,0.000000,459.657299
910.166466,-7550.100608,0.000000,306.438199
910.166787,-9178.553681,-296.082377,919.314598
910.167108,-9252.574275,148.041188,1762.019645
910.167428,-9548.656652,-444.123565,2068.457845
910.167749,-9622.677246,-592.164754,2298.286494
910.168070,-10658.965565,-2072.576638,1455.581446
910.168390,-10066.800811,0.000000,459.657299
910.168711,-10288.862594,666.185348,-229.828649
910.169032,-9844.739029,1480.411884,76.609550
910.169353,-9400.615463,518.144159,-1378.971896
910.169673,-10288.862594,-148.041188,-1378.971896
910.169994,-9992.780217,0.000000,-459.657299
910.170315,-10807.006753,-1406.391290,689.485948
910.170636,-10584.944971,-1480.411884,1455.581446
910.170956,-9992.780217,-518.144159,1149.143247
910.171277,-10510.924376,-370.102971,1532.190996
910.171598,-10214.842000,-370.102971,2374.896044
910.171919,-9400.615463,-592.164754,2374.896044
910.172239,-9548.656652,592.164754,2681.334243
910.172560,-10214.842000,222.061783,2911.162892
910.172881,-9400.615463,-296.082377,2757.943793
