#time,accel_x,accel_y,accel_z
835.368626,-9474.636058,-2072.576638,-459.657299
835.368947,-9474.636058,-1924.535449,0.000000
835.369268,-9474.636058,-2146.597232,153.219100
835.369589,-9696.697840,-1332.370696,-306.438199
835.369910,-9770.718434,-1480.411884,153.219100
835.370231,-10066.800811,-1998.556043,229.828649
835.370551,-9622.677246,-1480.411884,689.485948
835.370872,-10510.924376,-1258.350101,1072.533697
835.371193,-9992.780217,-814.226536,1378.971896
835.371514,-10214.842000,-148.041188,1685.410096
835.371835,-10436.903782,0.000000,1455.581446
835.372156,-9918.759623,0.000000,689.485948
835.372477,-10066.800811,-148.041188,995.924147
835.372798,-9696.697840,-296.082377,153.219100
835.373119,-9326.594869,-666.185348,0.000000
835.373440,-9474.636058,-740.205942,459.657299
835.373761,-9326.594869,-518.144159,0.000000
835.374082,-9474.636058,-1628.453072,612.876398
835.374403,-9622.677246,-2146.597232,536.266849
835.374724,-9474.636058,-2368.659014,689.485948
835.375045,-9622.677246,-2368.659014,689.485948
835.375366,-9622.677246,-2146.597232,612.876398
835.375687,-9474.636058,-1776.494261,229.828649
835.376008,-9474.636058,-1776.494261,153.219100
835.376329,-9104.533087,-1554.432478,-306.438199
835.376650,-9474.636058,-740.205942,-1072.533697
835.376970,-9178.553681,-962.267725,-1455.581446
835.377291,-9326.594869,-740.205942,-1915.238745
835.377612,-8956.491898,-592.164754,-2451.505594
835.377933,-8956.491898,-740.205942,-2911.162892
835.378254,-8882.471304,-888.247130,-3983.696590
835.378575,-9252.574275,-888.247130,-4060.306139
835.378896,-9474.636058,-740.205942,-4903.011187
835.379217,-9696.697840,-740.205942,-4749.792088
835.379538,-9992.780217,-1036.288319,-5439.278036
835.379859,-10362.883188,-1110.308913,-5898.935335
835.380180,-10288.862594,-814.226536,-5669.106685
835.380501,-9992.780217,-888.247130,-5515.887586
835.380822,-10140.821405,-740.205942,-5515.887586
835.381143,-10066.800811,-592.164754,-5056.230287
835.381464,-10066.800811,-1406.391290,-5056.230287
835.381785,-9548.656652,-2664.741391,-4673.182538
835.382106,-9030.512492,-3478.967927,-3064.381992
835.382427,-9178.553681,-4959.379811,-3600.648841
835.382748,-9252.574275,-5255.462188,-3294.210641
835.383068,-9622.677246,-5403.503377,-2374.896044
835.383389,-9252.574275,-5921.647536,-1915.238745
835.383710,-9178.553681,-6587.832884,-1455.581446
835.384031,-9252.574275,-7179.997637,-919.314598
835.384352,-8956.491898,-8142.265362,-1225.752797
835.384673,-8734.430116,-8364.327145,-306.438199
835.384994,-9104.533087,-7402.059420,0.000000
835.385315,-8660.409521,-7476.080014,1838.629195
835.385636,-9696.697840,-7772.162391,1915.238745
835.385957,-8956.491898,-7105.977043,2681.334243
835.386278,-8882.471304,-8068.244768,2757.943793
835.386599,-8882.471304,-7031.956449,3064.381992
835.386920,-8808.450710,-7105.977043,2834.553343
835.387241,-9178.553681,-7031.956449,2604.724693
835.387562,-8512.368333,-6365.771101,1072.533697
835.387883,-9252.574275,-5699.585753,689.485948
835.388204,-8882.471304,-4293.194464,995.924147
835.388525,-9474.636058,-3775.050304,1302.362347
835.388846,-10510.924376,-2960.823768,1762.019645
835.389167,-10658.965565,-2442.679609,1991.848295
835.389487,-10732.986159,-2442.679609,1532.190996
835.389808,-11325.150913,-2146.597232,2145.067394
835.390129,-11103.089130,-1998.556043,2068.457845
835.390450,-11843.295072,-1406.391290,919.314598
835.390771,-10881.027347,-518.144159,2221.676944
835.391092,-10881.027347,-296.082377,1762.019645
835.391413,-10436.903782,148.041188,1072.533697
835.391733,-10807.006753,592.164754,1225.752797
835.392054,-10214.842000,888.247130,-689.485948
835.392375,-9548.656652,222.061783,-2221.676944
835.392695,-8882.471304,-222.061783,-2451.505594
835.393016,-9252.574275,-888.247130,-2987.772442
835.393336,-9326.594869,-1406.391290,-2681.334243
835.393657,-10140.821405,-1110.308913,-2528.115143
835.393978,-10066.800811,-814.226536,-3064.381992
835.394298,-10288.862594,148.041188,-2911.162892
835.394619,-10436.903782,1850.514855,306.438199
835.394939,-9770.718434,1554.432478,-995.924147
835.395260,-9548.656652,1554.432478,-459.657299
835.395580,-8808.450710,1332.370696,229.828649
835.395901,-8882.471304,1332.370696,459.657299
835.396222,-8956.491898,1776.494261,153.219100
835.396542,-8142.265362,2738.761985,306.438199
835.396863,-7179.997637,3775.050304,-383.047749
835.397183,-7254.018232,3923.091493,-1225.752797
835.397504,-7105.977043,3108.864956,-612.876398
835.397825,-7920.203579,2368.659014,-1378.971896
835.398145,-8956.491898,1480.411884,-766.095498
835.398466,-9474.636058,1184.329507,-612.876398
835.398786,-9992.780217,0.000000,0.000000
835.399107,-10288.862594,1110.308913,1072.533697
835.399428,-10584.944971,2220.617826,2145.067394
835.399748,-10584.944971,3034.844362,3753.867940
835.400069,-11177.109724,3478.967927,4903.011187
835.400389,-10362.883188,3182.885551,5056.230287
835.400710,-10214.842000,2516.700203,4903.011187
835.401031,-9252.574275,2516.700203,4749.792088
835.401351,-8956.491898,2590.720797,4136.915689
835.401672,-8512.368333,1554.432478,2068.457845
835.401992,-8364.327145,1184.329507,2298.286494
835.402313,-8438.347739,74.020594,1302.362347
835.402634,-10140.821405,-518.144159,1532.190996
835.402954,-10436.903782,-1332.370696,2374.896044
835.403275,-11621.233289,-1036.288319,1838.629195
835.403595,-11695.253884,-592.164754,2298.286494
835.403916,-11843.295072,0.000000,2298.286494
835.404236,-11621.233289,296.082377,3447.429741
835.404557,-11473.192101,666.185348,4519.963438
835.404878,-10807.006753,74.020594,4519.963438
835.405198,-10288.862594,-296.082377,4060.306139
835.405519,-9622.677246,-518.144159,3677.258390
835.405839,-8438.347739,74.020594,3447.429741
835.406160,-8364.327145,-148.041188,2451.505594
835.406481,-7402.059420,-1258.350101,1685.410096
835.406801,-7031.956449,-2220.617826,-536.266849
835.407122,-7994.224174,-3108.864956,-995.924147
835.407442,-9030.512492,-3923.091493,-766.095498
835.407763,-9992.780217,-4293.194464,-766.095498
835.408084,-9992.780217,-3923.091493,-1149.143247
835.408404,-10362.883188,-3182.885551,-1608.800546
835.408725,-10362.883188,-2516.700203,-1685.410096
835.409045,-10066.800811,-2368.659014,-536.266849
835.409366,-9918.759623,-2590.720797,0.000000
835.409687,-9104.533087,-3108.864956,-76.609550
835.410007,-8216.285956,-3034.844362,-1302.362347
835.410328,-8216.285956,-2738.761985,-306.438199
835.410648,-7994.224174,-2812.782580,-229.828649
835.410969,-7328.038826,-2664.741391,-612.876398
835.411289,-6217.729913,-3330.926739,-612.876398
835.411610,-7254.018232,-3182.885551,-2911.162892
835.411931,-8586.388927,-3627.009116,-2221.676944
835.412251,-9918.759623,-2812.782580,-1378.971896
835.412572,-10881.027347,-2442.679609,-919.314598
835.412892,-11251.130318,-740.205942,-995.924147
835.413213,-11695.253884,0.000000,-153.219100
835.413534,-11843.295072,1036.288319,842.705048
835.413854,-11917.315666,814.226536,2374.896044
835.414175,-10955.047942,444.123565,2681.334243
835.414495,-10436.903782,-296.082377,2451.505594
835.414816,-9844.739029,444.123565,2221.676944
835.415137,-9474.636058,1406.391290,2834.553343
835.415457,-8586.388927,1850.514855,2834.553343
835.415778,-7550.100608,2220.617826,2374.896044
835.416098,-8142.265362,1332.370696,1685.410096
835.416419,-8734.430116,444.123565,1915.238745
835.416740,-10436.903782,0.000000,2221.676944
835.417060,-11251.130318,148.041188,2911.162892
835.417381,-11843.295072,1110.308913,2374.896044
835.417701,-11621.233289,2294.638420,2451.505594
835.418022,-11251.130318,2368.659014,3294.210641
835.418343,-11473.192101,2072.576638,3524.039291
835.418663,-11621.233289,1332.370696,4673.182538
835.418984,-10214.842000,518.144159,3753.867940
835.419304,-9400.615463,0.000000,3140.991542
835.419625,-7402.059420,444.123565,3983.696590
835.419945,-7476.080014,814.226536,2528.115143
835.420266,-7179.997637,888.247130,2221.676944
835.420587,-6809.894666,666.185348,1225.752797
835.420907,-7402.059420,-444.123565,995.924147
835.421228,-8586.388927,-1110.308913,689.485948
835.421548,-9770.718434,-1036.288319,919.314598
835.421869,-10510.924376,-296.082377,1072.533697
835.422190,-10140.821405,1110.308913,689.485948
835.422510,-9918.759623,1776.494261,306.438199
835.422831,-10436.903782,1998.556043,1378.971896
835.423151,-10955.047942,740.205942,1149.143247
835.423472,-10140.821405,666.185348,919.314598
835.423793,-10066.800811,888.247130,0.000000
835.424113,-8586.388927,666.185348,-306.438199
835.424434,-8808.450710,1480.411884,0.000000
835.424754,-8660.409521,1628.453072,536.266849
835.425075,-8364.327145,1480.411884,-153.219100
835.425396,-8734.430116,592.164754,-766.095498
835.425716,-9400.615463,-370.102971,-612.876398
835.426037,-10436.903782,-962.267725,-612.876398
835.426357,-11325.150913,-740.205942,-229.828649
835.426678,-11251.130318,148.041188,-536.266849
835.426998,-10881.027347,296.082377,-842.705048
835.427319,-10807.006753,814.226536,-76.609550
835.427640,-11399.171507,592.164754,612.876398
835.427960,-11547.212695,0.000000,689.485948
835.428281,-10658.965565,-888.247130,919.314598
835.428601,-9992.780217,-1480.411884,842.705048
835.428922,-9178.553681,-1480.411884,536.266849
835.429243,-8734.430116,-1480.411884,842.705048
835.429563,-8512.368333,-1480.411884,612.876398
835.429884,-7846.182985,-1628.453072,459.657299
835.430204,-8438.347739,-2368.659014,229.828649
835.430525,-9474.636058,-3108.864956,766.095498
835.430846,-10214.842000,-3849.070898,306.438199
835.431166,-10436.903782,-2960.823768,1532.190996
835.431487,-9918.759623,-2368.659014,1685.410096
835.431807,-9696.697840,-2146.597232,1915.238745
835.432128,-10362.883188,-3256.906145,2374.896044
835.432449,-9918.759623,-2664.741391,2757.943793
835.432769,-9992.780217,-2960.823768,2911.162892
835.433090,-9030.512492,-2590.720797,2221.676944
835.433410,-8586.388927,-1850.514855,2145.067394
835.433731,-8290.306550,-1258.350101,1455.581446
835.434051,-7402.059420,-1036.288319,1455.581446
835.434372,-7254.018232,-888.247130,1149.143247
835.434693,-7920.203579,-1628.453072,1149.143247
835.435013,-9252.574275,-2146.597232,995.924147
835.435334,-9770.718434,-1998.556043,1149.143247
835.435654,-10362.883188,-1036.288319,1378.971896
835.435975,-10362.883188,-296.082377,2145.067394
835.436296,-9548.656652,0.000000,1302.362347
835.436616,-11029.068536,444.123565,1838.629195
835.436937,-10807.006753,222.061783,2221.676944
835.437257,-10658.965565,-370.102971,1685.410096
835.437578,-10140.821405,74.020594,1149.143247
835.437899,-9474.636058,222.061783,0.000000
835.438219,-8882.471304,962.267725,-383.047749
835.438540,-8438.347739,1702.473667,0.000000
835.438860,-8216.285956,1258.350101,-536.266849
835.439181,-9474.636058,814.226536,-919.314598
835.439502,-9992.780217,-592.164754,-689.485948
835.439822,-10362.883188,-1184.329507,-306.438199
835.440143,-10881.027347,-1110.308913,0.000000
835.440463,-11399.171507,-296.082377,-612.876398
835.440784,-10658.965565,444.123565,689.485948
835.441105,-10510.924376,1554.432478,1072.533697
835.441425,-10658.965565,1184.329507,1378.971896
835.441746,-10436.903782,1406.391290,1455.581446
835.442066,-10362.883188,370.102971,1225.752797
835.442387,-9548.656652,518.144159,995.924147
835.442707,-8808.450710,888.247130,459.657299
835.443028,-8438.347739,1628.453072,766.095498
835.443349,-8216.285956,1480.411884,689.485948
835.443669,-8586.388927,1036.288319,536.266849
835.443990,-9178.553681,222.061783,995.924147
835.444310,-9474.636058,-518.144159,536.266849
835.444631,-10436.903782,-370.102971,919.314598
835.444952,-10140.821405,148.041188,1608.800546
835.445272,-10140.821405,740.205942,1838.629195
835.445593,-9622.677246,1628.453072,2068.457845
835.445913,-10510.924376,592.164754,2068.457845
835.446234,-9548.656652,370.102971,2911.162892
835.446555,-9918.759623,0.000000,2604.724693
835.446875,-9474.636058,0.000000,2451.505594
835.447196,-8882.471304,0.000000,1991.848295
835.447516,-7994.224174,148.041188,1685.410096
835.447837,-8290.306550,-1036.288319,1302.362347
835.448158,-7994.224174,-1110.308913,842.705048
835.448478,-8882.471304,-1998.556043,459.657299
835.448799,-10288.862594,-1776.494261,689.485948
835.449119,-9992.780217,-1480.411884,919.314598
835.449440,-10732.986159,-1036.288319,1225.752797
835.449760,-10584.944971,-666.185348,1762.019645
835.450081,-9474.636058,-888.247130,2374.896044
835.450402,-11103.089130,-222.061783,2681.334243
835.450722,-10510.924376,-888.247130,2834.553343
835.451043,-10510.924376,-962.267725,2298.286494
835.451363,-9844.739029,-518.144159,2221.676944
835.451684,-9326.594869,0.000000,1149.143247
835.452005,-8068.244768,370.102971,306.438199
835.452325,-7698.141797,74.020594,536.266849
835.452646,-7772.162391,-666.185348,-459.657299
835.452966,-8438.347739,-1924.535449,-383.047749
835.453287,-9548.656652,-2590.720797,-766.095498
835.453608,-9918.759623,-2442.679609,-306.438199
835.453928,-10436.903782,-1776.494261,0.000000
835.454249,-10881.027347,-962.267725,842.705048
835.454569,-10658.965565,0.000000,1302.362347
835.454890,-10807.006753,518.144159,1915.238745
835.455211,-10807.006753,-296.082377,1915.238745
835.455531,-10066.800811,-962.267725,1532.190996
835.455852,-10140.821405,-962.267725,1532.190996
835.456172,-9178.553681,-666.185348,612.876398
835.456493,-8068.244768,-222.061783,-229.828649
835.456814,-7550.100608,222.061783,-612.876398
835.457134,-7254.018232,-518.144159,-1378.971896
835.457455,-8290.306550,-962.267725,-995.924147
835.457775,-9030.512492,-1924.535449,-459.657299
835.458096,-9844.739029,-2220.617826,-383.047749
835.458416,-9770.718434,-1406.391290,306.438199
835.458737,-11177.109724,-1332.370696,536.266849
835.459058,-10584.944971,0.000000,1302.362347
835.459378,-10510.924376,0.000000,2068.457845
835.459699,-10436.903782,-444.123565,1532.190996
835.460019,-9992.780217,-962.267725,2145.067394
835.460340,-9548.656652,-1258.350101,1915.238745
835.460661,-9252.574275,-222.061783,1838.629195
835.460981,-8586.388927,148.041188,1532.190996
835.461302,-7920.203579,814.226536,1225.752797
835.461622,-7994.224174,518.144159,1225.752797
835.461943,-8734.430116,74.020594,1302.362347
835.462264,-9474.636058,-814.226536,1149.143247
835.462584,-10214.842000,-814.226536,1225.752797
835.462905,-10955.047942,-1110.308913,1378.971896
835.463225,-10807.006753,0.000000,1302.362347
835.463546,-10955.047942,1110.308913,2451.505594
835.463867,-10584.944971,1776.494261,2757.943793
835.464187,-11325.150913,1480.411884,3370.820191
835.464508,-10658.965565,1036.288319,3830.477490
835.464828,-10436.903782,74.020594,2757.943793
835.465149,-9844.739029,296.082377,2451.505594
835.465469,-9030.512492,518.144159,2221.676944
835.465790,-8068.244768,666.185348,1532.190996
835.466111,-7920.203579,666.185348,1072.533697
835.466431,-7698.141797,0.000000,536.266849
835.466752,-9030.512492,-888.247130,153.219100
835.467072,-9474.636058,-1332.370696,306.438199
835.467393,-10362.883188,-1036.288319,612.876398
835.467714,-10955.047942,-444.123565,919.314598
835.468034,-10584.944971,444.123565,1608.800546
835.468355,-10214.842000,666.185348,2298.286494
835.468675,-10584.944971,370.102971,2068.457845
835.468996,-10066.800811,-444.123565,2451.505594
835.469317,-9844.739029,-1184.329507,1532.190996
835.469637,-9252.574275,-814.226536,1149.143247
835.469958,-8512.368333,370.102971,612.876398
835.470278,-8142.265362,740.205942,153.219100
835.470599,-7698.141797,1258.350101,229.828649
835.470920,-8734.430116,296.082377,306.438199
835.471240,-8734.430116,-518.144159,-306.438199
835.471561,-9474.636058,-1702.473667,-459.657299
835.471881,-9918.759623,-1924.535449,-383.047749
835.472202,-10732.986159,-814.226536,1225.752797
835.472522,-10584.944971,0.000000,229.828649
835.472843,-10288.862594,888.247130,689.485948
835.473164,-10807.006753,666.185348,1455.581446
835.473484,-10732.986159,0.000000,1915.238745
835.473805,-10807.006753,-814.226536,1149.143247
835.474125,-9918.759623,-888.247130,1378.971896
835.474446,-9178.553681,-592.164754,536.266849
835.474767,-8364.327145,0.000000,536.266849
835.475087,-7624.121203,-370.102971,-383.047749
835.475408,-7920.203579,-444.123565,-383.047749
835.475728,-8438.347739,-1184.329507,-383.047749
835.476049,-9400.615463,-2442.679609,0.000000
835.476370,-9918.759623,-2368.659014,1991.848295
835.476690,-10881.027347,-1776.494261,612.876398
835.477011,-10881.027347,-740.205942,995.924147
835.477331,-10214.842000,74.020594,1915.238745
835.477652,-10807.006753,222.061783,2374.896044
835.477973,-10214.842000,-518.144159,2834.553343
835.478293,-10066.800811,-1258.350101,2528.115143
835.478614,-9770.718434,-1480.411884,1915.238745
835.478934,-8660.409521,-888.247130,1608.800546
835.479255,-8660.409521,740.205942,1838.629195
835.479576,-8216.285956,1036.288319,1608.800546
835.479896,-7698.141797,740.205942,1149.143247
835.480217,-8216.285956,-222.061783,919.314598
835.480537,-9548.656652,-666.185348,459.657299
835.480858,-9844.739029,-2294.638420,919.314598
835.481178,-10510.924376,-2072.576638,919.314598
835.481499,-10436.903782,-1110.308913,1149.143247
835.481820,-10140.821405,0.000000,1302.362347
835.482140,-10362.883188,518.144159,2298.286494
835.482461,-10510.924376,666.185348,2987.772442
835.482781,-10288.862594,-296.082377,2374.896044
835.483102,-9844.739029,-962.267725,1915.238745
835.483423,-9252.574275,-1110.308913,1378.971896
835.483743,-8882.471304,-740.205942,1149.143247
835.484064,-7994.224174,-444.123565,995.924147
835.484384,-7994.224174,0.000000,306.438199
835.484705,-8216.285956,-444.123565,229.828649
835.485026,-9178.553681,-592.164754,0.000000
835.485346,-10436.903782,-1406.391290,459.657299
835.485667,-10584.944971,-1480.411884,459.657299
835.485987,-10955.047942,-1184.329507,306.438199
835.486308,-10658.965565,0.000000,383.047749
835.486629,-10658.965565,888.247130,1532.190996
835.486949,-11251.130318,1332.370696,2298.286494
835.487270,-10881.027347,1036.288319,2757.943793
835.487590,-10288.862594,0.000000,1762.019645
835.487911,-9992.780217,518.144159,1762.019645
835.488231,-9030.512492,740.205942,536.266849
835.488552,-8438.347739,1480.411884,995.924147
835.488873,-7920.203579,666.185348,-306.438199
835.489193,-8068.244768,888.247130,76.609550
835.489514,-8956.491898,-666.185348,0.000000
835.489834,-9548.656652,-1702.473667,0.000000
835.490155,-10584.944971,-1998.556043,76.609550
835.490476,-10955.047942,-1258.350101,0.000000
835.490796,-10214.842000,-222.061783,76.609550
835.491117,-10066.800811,814.226536,1149.143247
835.491438,-10510.924376,740.205942,1838.629195
835.491759,-10436.903782,222.061783,2221.676944
835.492080,-10214.842000,-1184.329507,1991.848295
835.492400,-9770.718434,-1036.288319,1685.410096
835.492721,-9178.553681,-592.164754,1608.800546
835.493042,-8512.368333,0.000000,2604.724693
835.493363,-7476.080014,-148.041188,919.314598
835.493683,-7772.162391,-888.247130,-76.609550
835.494004,-8290.306550,-1554.432478,-229.828649
835.494325,-9474.636058,-2368.659014,76.609550
835.494646,-10510.924376,-1998.556043,306.438199
835.494967,-10807.006753,-1184.329507,919.314598
835.495287,-10658.965565,0.000000,1608.800546
835.495608,-10214.842000,666.185348,1915.238745
835.495929,-10066.800811,1480.411884,1991.848295
835.496250,-10362.883188,0.000000,2604.724693
835.496570,-10214.842000,-814.226536,2451.505594
835.496891,-9770.718434,-518.144159,1915.238745
835.497212,-9474.636058,222.061783,1302.362347
835.497533,-8660.409521,962.267725,1455.581446
835.497854,-8068.244768,740.205942,689.485948
835.498174,-7698.141797,222.061783,0.000000
835.498495,-8734.430116,-962.267725,0.000000
835.498816,-8808.450710,-1850.514855,76.609550
835.499137,-10362.883188,-2368.659014,0.000000
835.499457,-10658.965565,-1850.514855,459.657299
835.499778,-10732.986159,-740.205942,536.266849
835.500099,-10658.965565,1406.391290,1302.362347
835.500420,-11029.068536,1110.308913,1991.848295
835.500741,-10881.027347,444.123565,2145.067394
835.501061,-10288.862594,-740.205942,1838.629195
835.501382,-9622.677246,-1628.453072,1532.190996
835.501703,-9326.594869,-1480.411884,689.485948
835.502024,-8142.265362,-518.144159,1072.533697
835.502344,-7772.162391,0.000000,459.657299
835.502665,-7179.997637,296.082377,0.000000
835.502986,-7476.080014,-444.123565,-76.609550
835.503307,-9030.512492,-1110.308913,229.828649
835.503628,-9770.718434,-1850.514855,383.047749
835.503948,-10584.944971,-1776.494261,536.266849
835.504269,-10807.006753,-888.247130,689.485948
835.504590,-10362.883188,-296.082377,1149.143247
835.504911,-9844.739029,518.144159,1915.238745
835.505231,-10362.883188,370.102971,2604.724693
835.505552,-9992.780217,0.000000,2681.334243
835.505873,-9844.739029,-296.082377,1685.410096
835.506194,-9474.636058,0.000000,1608.800546
835.506515,-8882.471304,1110.308913,1608.800546
835.506835,-8438.347739,1258.350101,1838.629195
835.507156,-7846.182985,666.185348,1225.752797
835.507477,-8438.347739,0.000000,919.314598
835.507798,-9104.533087,-1184.329507,766.095498
835.508118,-9844.739029,-2220.617826,766.095498
835.508439,-10584.944971,-1480.411884,383.047749
835.508760,-10955.047942,-740.205942,766.095498
835.509081,-10658.965565,666.185348,842.705048
835.509402,-10436.903782,1554.432478,1149.143247
835.509722,-10807.006753,1184.329507,2068.457845
835.510043,-10436.903782,148.041188,1915.238745
835.510364,-10362.883188,-740.205942,1532.190996
835.510685,-9918.759623,-592.164754,1225.752797
835.511005,-9030.512492,0.000000,1072.533697
835.511326,-8808.450710,1110.308913,1455.581446
835.511647,-8364.327145,1110.308913,766.095498
835.511968,-8512.368333,444.123565,612.876398
835.512289,-8734.430116,-740.205942,383.047749
835.512609,-9178.553681,-2072.576638,76.609550
835.512930,-10584.944971,-1924.535449,919.314598
835.513251,-10881.027347,-1110.308913,995.924147
835.513572,-10807.006753,-148.041188,1378.971896
835.513892,-9844.739029,962.267725,1838.629195
835.514213,-10732.986159,518.144159,2604.724693
835.514534,-10510.924376,0.000000,2911.162892
835.514855,-10214.842000,-1628.453072,2528.115143
835.515176,-9474.636058,-1406.391290,1915.238745
835.515496,-8956.491898,-370.102971,1149.143247
835.515817,-8438.347739,592.164754,919.314598
835.516138,-7402.059420,888.247130,766.095498
835.516459,-7772.162391,518.144159,229.828649
835.516779,-7550.100608,-148.041188,-766.095498
835.517100,-9178.553681,-2294.638420,153.219100
835.517421,-10140.821405,-2442.679609,76.609550
835.517742,-10584.944971,-2368.659014,-76.609550
835.518063,-10807.006753,-962.267725,229.828649
835.518383,-10066.800811,444.123565,995.924147
835.518704,-10510.924376,740.205942,1302.362347
835.519025,-10584.944971,296.082377,1915.238745
835.519346,-10362.883188,-740.205942,1532.190996
835.519666,-9844.739029,-1332.370696,1762.019645
835.519987,-9400.615463,-814.226536,995.924147
835.520308,-8438.347739,-296.082377,689.485948
835.520629,-7846.182985,0.000000,229.828649
835.520950,-7328.038826,-592.164754,383.047749
835.521270,-8364.327145,-148.041188,-306.438199
835.521591,-9696.697840,-1036.288319,-153.219100
835.521912,-10436.903782,-1406.391290,229.828649
835.522233,-11177.109724,-1184.329507,536.266849
835.522553,-10658.965565,-888.247130,612.876398
835.522874,-10732.986159,74.020594,766.095498
835.523195,-10436.903782,518.144159,1915.238745
835.523516,-10510.924376,148.041188,2451.505594
835.523837,-10066.800811,0.000000,3217.601092
835.524157,-10362.883188,-592.164754,2221.676944
835.524478,-9548.656652,0.000000,1915.238745
835.524799,-9178.553681,814.226536,1838.629195
835.525120,-8364.327145,518.144159,919.314598
835.525440,-7994.224174,666.185348,1685.410096
835.525761,-8142.265362,-296.082377,1072.533697
835.526082,-8882.471304,-1702.473667,689.485948
835.526403,-9474.636058,-2516.700203,995.924147
835.526724,-9918.759623,-2146.597232,995.924147
835.527044,-10214.842000,-888.247130,1149.143247
835.527365,-10362.883188,370.102971,1302.362347
835.527686,-10288.862594,1184.329507,2145.067394
835.528007,-10436.903782,0.000000,2145.067394
835.528327,-10140.821405,0.000000,2681.334243
835.528648,-10066.800811,-1406.391290,2145.067394
835.528969,-9622.677246,-962.267725,1838.629195
835.529290,-8660.409521,74.020594,2298.286494
835.529611,-8216.285956,518.144159,689.485948
835.529931,-7698.141797,592.164754,229.828649
835.530252,-7994.224174,222.061783,0.000000
835.530573,-8956.491898,-518.144159,383.047749
835.530894,-9548.656652,-1776.494261,0.000000
835.531214,-10288.862594,-2146.597232,153.219100
835.531535,-10732.986159,-1258.350101,459.657299
835.531856,-10436.903782,74.020594,842.705048
835.532177,-10288.862594,1258.350101,612.876398
835.532498,-10881.027347,1332.370696,1838.629195
835.532818,-10658.965565,814.226536,2145.067394
835.533139,-10436.903782,-592.164754,1455.581446
835.533460,-9474.636058,-1480.411884,1455.581446
835.533781,-9474.636058,-148.041188,842.705048
835.534101,-8956.491898,518.144159,842.705048
835.534422,-8216.285956,1406.391290,536.266849
835.534743,-8216.285956,1184.329507,153.219100
835.535064,-9252.574275,444.123565,-306.438199
835.535385,-9622.677246,-1036.288319,0.000000
835.535705,-10510.924376,-1628.453072,0.000000
835.536026,-10732.986159,-1258.350101,-153.219100
835.536347,-10955.047942,0.000000,0.000000
835.536668,-10584.944971,592.164754,766.095498
835.536988,-10658.965565,1406.391290,1532.190996
835.537309,-10732.986159,888.247130,2068.457845
835.537630,-10658.965565,0.000000,2528.115143
835.537951,-10214.842000,-962.267725,1608.800546
835.538272,-9252.574275,-740.205942,842.705048
835.538592,-8290.306550,-518.144159,766.095498
835.538913,-7254.018232,148.041188,612.876398
835.539234,-7920.203579,0.000000,0.000000
835.539555,-7624.121203,-666.185348,153.219100
835.539875,-8882.471304,-1850.514855,459.657299
835.540196,-9400.615463,-2294.638420,612.876398
835.540517,-10288.862594,-1924.535449,919.314598
835.540838,-10066.800811,-1332.370696,1302.362347
835.541159,-9992.780217,-444.123565,2068.457845
835.541479,-10066.800811,-370.102971,2681.334243
835.541800,-10214.842000,0.000000,1762.019645
835.542121,-10362.883188,-888.247130,2374.896044
835.542442,-9918.759623,-1036.288319,2451.505594
835.542762,-9474.636058,-370.102971,2068.457845
835.543083,-9178.553681,592.164754,1532.190996
835.543404,-8290.306550,888.247130,1225.752797
835.543725,-8142.265362,1036.288319,766.095498
835.544046,-8808.450710,-296.082377,536.266849
835.544366,-9104.533087,-1480.411884,153.219100
835.544687,-10066.800811,-1702.473667,229.828649
835.545008,-10658.965565,-1554.432478,0.000000
835.545329,-10881.027347,-518.144159,0.000000
835.545649,-10732.986159,740.205942,689.485948
835.545970,-10584.944971,666.185348,1532.190996
835.546291,-10658.965565,444.123565,1455.581446
835.546612,-10584.944971,-592.164754,1455.581446
835.546933,-10214.842000,-1406.391290,1608.800546
835.547253,-9992.780217,-888.247130,1762.019645
835.547574,-8734.430116,-222.061783,2298.286494
835.547895,-8364.327145,0.000000,0.000000
835.548216,-7179.997637,0.000000,-383.047749
835.548536,-8216.285956,-370.102971,-459.657299
835.548857,-8808.450710,-740.205942,153.219100
835.549178,-9844.739029,-1554.432478,0.000000
835.549499,-10584.944971,-1628.453072,1072.533697
835.549820,-10807.006753,-1184.329507,919.314598
835.550140,-10807.006753,-518.144159,1455.581446
835.550461,-10658.965565,592.164754,2451.505594
835.550782,-10584.944971,74.020594,2451.505594
835.551103,-9992.780217,74.020594,2528.115143
835.551423,-10066.800811,-518.144159,2068.457845
835.551744,-9770.718434,222.061783,1378.971896
835.552065,-8808.450710,0.000000,1455.581446
835.552386,-8216.285956,444.123565,1455.581446
835.552707,-7846.182985,74.020594,1149.143247
835.553027,-7846.182985,0.000000,612.876398
835.553348,-9178.553681,-1110.308913,919.314598
835.553669,-9252.574275,-1924.535449,919.314598
835.553990,-10288.862594,-2146.597232,842.705048
835.554310,-10066.800811,-1258.350101,689.485948
835.554631,-10807.006753,-74.020594,1378.971896
835.554952,-10140.821405,518.144159,1532.190996
835.555273,-10288.862594,888.247130,2298.286494
835.555594,-11029.068536,148.041188,2604.724693
835.555914,-10140.821405,-814.226536,2451.505594
835.556235,-9992.780217,-592.164754,1608.800546
835.556556,-9030.512492,0.000000,1455.581446
835.556877,-8734.430116,0.000000,1225.752797
835.557197,-7846.182985,222.061783,536.266849
835.557518,-7994.224174,222.061783,229.828649
835.557839,-8512.368333,-222.061783,-76.609550
835.558160,-9622.677246,-1036.288319,-229.828649
835.558481,-10140.821405,-1332.370696,-229.828649
835.558801,-10955.047942,-444.123565,1302.362347
835.559122,-10732.986159,0.000000,306.438199
835.559443,-10584.944971,1036.288319,766.095498
835.559764,-10955.047942,740.205942,2068.457845
835.560084,-10807.006753,962.267725,2987.772442
835.560405,-10140.821405,-666.185348,1378.971896
835.560726,-9696.697840,-296.082377,1455.581446
835.561047,-9178.553681,296.082377,919.314598
835.561368,-8808.450710,962.267725,995.924147
835.561688,-7846.182985,962.267725,306.438199
835.562009,-7402.059420,814.226536,-229.828649
835.562330,-8364.327145,-666.185348,-153.219100
835.562651,-8956.491898,-1702.473667,-153.219100
835.562971,-9178.553681,-2442.679609,919.314598
835.563292,-10362.883188,-1924.535449,536.266849
835.563613,-10436.903782,-962.267725,842.705048
835.563934,-10436.903782,296.082377,1685.410096
835.564255,-10955.047942,1036.288319,2834.553343
835.564575,-10807.006753,518.144159,2681.334243
835.564896,-10436.903782,-740.205942,3064.381992
835.565217,-9770.718434,-1776.494261,2145.067394
835.565538,-9178.553681,-1480.411884,1915.238745
835.565858,-8216.285956,-666.185348,1532.190996
835.566179,-7698.141797,0.000000,919.314598
835.566500,-7179.997637,0.000000,229.828649
835.566821,-8142.265362,-148.041188,0.000000
835.567142,-8364.327145,-1184.329507,229.828649
835.567462,-10140.821405,-1924.535449,536.266849
835.567783,-10658.965565,-1702.473667,842.705048
835.568104,-10955.047942,-888.247130,1149.143247
835.568425,-10584.944971,-148.041188,1532.190996
835.568745,-10510.924376,740.205942,2298.286494
835.569066,-11029.068536,0.000000,2604.724693
835.569387,-10436.903782,-296.082377,2451.505594
835.569708,-10140.821405,-1036.288319,1915.238745
835.570029,-9696.697840,-222.061783,1762.019645
835.570349,-9178.553681,74.020594,1225.752797
835.570670,-8438.347739,1036.288319,919.314598
835.570991,-8142.265362,962.267725,612.876398
835.571312,-8142.265362,666.185348,306.438199
835.571632,-9622.677246,0.000000,-306.438199
835.571953,-9918.759623,-1480.411884,383.047749
835.572274,-10658.965565,-1702.473667,459.657299
835.572595,-10955.047942,-1184.329507,76.609550
835.572916,-10732.986159,0.000000,1532.190996
835.573236,-10584.944971,740.205942,1302.362347
835.573557,-10732.986159,296.082377,1608.800546
835.573878,-10140.821405,0.000000,1608.800546
835.574199,-10436.903782,-962.267725,1225.752797
835.574519,-9474.636058,0.000000,2145.067394
835.574840,-9326.594869,296.082377,1072.533697
835.575161,-8586.388927,888.247130,766.095498
835.575482,-7550.100608,666.185348,153.219100
835.575803,-7698.141797,-222.061783,-153.219100
835.576123,-8512.368333,-1184.329507,-153.219100
835.576444,-9474.636058,-2146.597232,76.609550
835.576765,-9992.780217,-1628.453072,536.266849
835.577086,-11325.150913,-1998.556043,76.609550
835.577406,-9252.574275,296.082377,689.485948
835.577727,-10658.965565,1184.329507,1915.238745
835.578048,-10436.903782,1258.350101,2528.115143
835.578369,-9992.780217,444.123565,2221.676944
835.578690,-10584.944971,0.000000,2987.772442
835.579010,-9326.594869,-740.205942,1608.800546
835.579331,-9326.594869,-370.102971,1455.581446
835.579652,-8956.491898,370.102971,2145.067394
835.579973,-7772.162391,592.164754,995.924147
835.580293,-7846.182985,888.247130,1149.143247
835.580614,-7624.121203,-74.020594,842.705048
835.580935,-8956.491898,-1258.350101,0.000000
835.581256,-10436.903782,-1776.494261,536.266849
835.581577,-10140.821405,-1480.411884,536.266849
835.581897,-10362.883188,-888.247130,1149.143247
835.582218,-10955.047942,740.205942,1685.410096
835.582539,-10807.006753,1036.288319,2834.553343
835.582860,-11029.068536,814.226536,2987.772442
835.583180,-11103.089130,-148.041188,2911.162892
835.583501,-9992.780217,-444.123565,1915.238745
835.583822,-9622.677246,-370.102971,1838.629195
835.584143,-8882.471304,444.123565,1072.533697
835.584464,-8142.265362,1110.308913,766.095498
835.584784,-6957.935855,444.123565,-153.219100
835.585105,-8586.388927,814.226536,0.000000
835.585426,-9400.615463,-370.102971,-229.828649
835.585747,-10214.842000,-888.247130,-153.219100
835.586068,-10881.027347,-740.205942,459.657299
835.586388,-10732.986159,0.000000,306.438199
835.586709,-10510.924376,444.123565,306.438199
835.587030,-10955.047942,814.226536,1225.752797
835.587351,-10510.924376,0.000000,1838.629195
835.587671,-10658.965565,-814.226536,1838.629195
835.587992,-9696.697840,-1850.514855,1532.190996
835.588313,-9252.574275,-1184.329507,1608.800546
835.588634,-8808.450710,-444.123565,1762.019645
835.588955,-8364.327145,-740.205942,1991.848295
835.589275,-7402.059420,-814.226536,995.924147
835.589596,-7624.121203,-1258.350101,76.609550
835.589917,-8438.347739,-2442.679609,383.047749
835.590238,-9104.533087,-3034.844362,383.047749
835.590558,-9696.697840,-3256.906145,0.000000
835.590879,-9918.759623,-2220.617826,229.828649
835.591200,-9992.780217,-296.082377,0.000000
835.591521,-10140.821405,518.144159,1072.533697
835.591841,-10066.800811,814.226536,2834.553343
835.592162,-10288.862594,-370.102971,1991.848295
835.592483,-10288.862594,-1258.350101,1838.629195
835.592804,-9622.677246,-740.205942,1225.752797
835.593124,-9400.615463,0.000000,2298.286494
835.593445,-8660.409521,518.144159,1532.190996
835.593766,-8142.265362,666.185348,919.314598
835.594087,-8364.327145,74.020594,0.000000
835.594407,-9252.574275,-740.205942,0.000000
835.594728,-9474.636058,-1036.288319,-306.438199
835.595049,-10807.006753,-1702.473667,229.828649
835.595370,-11325.150913,-1258.350101,229.828649
835.595691,-10807.006753,74.020594,919.314598
835.596011,-10955.047942,-518.144159,0.000000
835.596332,-10584.944971,888.247130,1685.410096
835.596653,-11547.212695,296.082377,2528.115143
835.596974,-10807.006753,0.000000,2374.896044
835.597294,-10436.903782,74.020594,2374.896044
835.597615,-9548.656652,74.020594,1991.848295
835.597936,-8734.430116,518.144159,2068.457845
835.598257,-8364.327145,148.041188,1685.410096
835.598577,-8216.285956,0.000000,1149.143247
835.598898,-8364.327145,-518.144159,1072.533697
835.599219,-9474.636058,-1258.350101,383.047749
835.599540,-9474.636058,-1924.535449,459.657299
835.599860,-10214.842000,-2368.659014,306.438199
835.600181,-9474.636058,0.000000,1302.362347
835.600502,-10584.944971,0.000000,1532.190996
835.600823,-10066.800811,1036.288319,2298.286494
835.601143,-10807.006753,740.205942,2834.553343
835.601464,-10140.821405,222.061783,2987.772442
835.601785,-9918.759623,-296.082377,1685.410096
835.602106,-8586.388927,0.000000,1455.581446
835.602426,-8438.347739,740.205942,995.924147
835.602747,-7105.977043,888.247130,153.219100
835.603068,-7402.059420,740.205942,0.000000
835.603389,-7328.038826,-666.185348,-689.485948
835.603710,-8586.388927,-1850.514855,-536.266849
835.604030,-9474.636058,-2294.638420,-459.657299
835.604351,-10214.842000,-2294.638420,0.000000
835.604672,-9918.759623,-1554.432478,0.000000
835.604993,-10584.944971,0.000000,842.705048
835.605313,-10658.965565,814.226536,1915.238745
835.605634,-11177.109724,148.041188,1991.848295
835.605955,-10807.006753,148.041188,2145.067394
835.606276,-10066.800811,-888.247130,1302.362347
835.606596,-9622.677246,0.000000,1072.533697
835.606917,-9104.533087,592.164754,689.485948
835.607238,-8586.388927,1480.411884,2374.896044
835.607559,-7994.224174,1110.308913,689.485948
835.607879,-8808.450710,148.041188,0.000000
835.608200,-9326.594869,-888.247130,229.828649
835.608521,-10362.883188,-1850.514855,383.047749
835.608842,-11103.089130,-1628.453072,1302.362347
835.609162,-11029.068536,-740.205942,1072.533697
835.609483,-11029.068536,74.020594,1225.752797
835.609804,-10807.006753,666.185348,2374.896044
835.610125,-11399.171507,296.082377,2298.286494
835.610446,-10955.047942,-370.102971,2604.724693
835.610766,-10362.883188,-1332.370696,2145.067394
835.611087,-9474.636058,-1110.308913,1378.971896
835.611408,-8734.430116,-370.102971,1072.533697
835.611729,-7772.162391,74.020594,995.924147
835.612049,-7476.080014,222.061783,306.438199
835.612370,-7698.141797,-222.061783,-383.047749
835.612691,-8586.388927,-1258.350101,-306.438199
835.613012,-9400.615463,-2368.659014,0.000000
835.613332,-10214.842000,-2738.761985,0.000000
835.613653,-10140.821405,-2220.617826,459.657299
835.613974,-9992.780217,-1110.308913,306.438199
835.614295,-10066.800811,222.061783,383.047749
835.614615,-10066.800811,444.123565,1838.629195
835.614936,-10362.883188,-222.061783,2451.505594
835.615257,-10066.800811,-814.226536,2528.115143
835.615578,-9770.718434,-1036.288319,2757.943793
835.615898,-9326.594869,-148.041188,2681.334243
835.616219,-8660.409521,222.061783,2298.286494
835.616540,-7994.224174,444.123565,1915.238745
835.616861,-7698.141797,0.000000,1149.143247
835.617181,-7994.224174,-592.164754,229.828649
835.617502,-9178.553681,-1184.329507,229.828649
835.617823,-9474.636058,-962.267725,229.828649
835.618144,-10140.821405,-666.185348,383.047749
835.618465,-10288.862594,148.041188,995.924147
835.618785,-10658.965565,1036.288319,1532.190996
835.619106,-11103.089130,888.247130,2068.457845
835.619427,-11177.109724,370.102971,2834.553343
835.619748,-11251.130318,0.000000,2374.896044
835.620068,-10288.862594,-222.061783,1915.238745
835.620389,-9474.636058,222.061783,1072.533697
835.620710,-8660.409521,814.226536,306.438199
835.621031,-8216.285956,1036.288319,0.000000
835.621351,-7698.141797,518.144159,-842.705048
835.621672,-8586.388927,-444.123565,-536.266849
835.621993,-9252.574275,-1184.329507,-306.438199
835.622314,-10140.821405,-2146.597232,0.000000
835.622634,-10436.903782,-1702.473667,-229.828649
835.622955,-11103.089130,-814.226536,842.705048
835.623276,-10362.883188,222.061783,1149.143247
835.623597,-10510.924376,518.144159,1532.190996
835.623917,-10658.965565,518.144159,1608.800546
835.624238,-10288.862594,-296.082377,1991.848295
835.624559,-9992.780217,-888.247130,1838.629195
835.624880,-9474.636058,-148.041188,1455.581446
835.625200,-8512.368333,370.102971,1149.143247
835.625521,-8290.306550,962.267725,1149.143247
835.625842,-7624.121203,592.164754,995.924147
835.626163,-8216.285956,0.000000,459.657299
835.626484,-8586.388927,-888.247130,1072.533697
835.626804,-9400.615463,-1924.535449,0.000000
835.627125,-9992.780217,-1628.453072,536.266849
835.627446,-10436.903782,-740.205942,689.485948
835.627767,-10214.842000,518.144159,1378.971896
835.628087,-10436.903782,1184.329507,1225.752797
835.628408,-10584.944971,814.226536,2757.943793
835.628729,-10436.903782,222.061783,2451.505594
835.629050,-10436.903782,-518.144159,2221.676944
835.629370,-9474.636058,-592.164754,1762.019645
835.629691,-9104.533087,-148.041188,1225.752797
835.630012,-8068.244768,148.041188,1072.533697
835.630333,-7994.224174,0.000000,229.828649
835.630653,-7994.224174,-518.144159,153.219100
835.630974,-9104.533087,-518.144159,919.314598
835.631295,-9548.656652,-2516.700203,0.000000
835.631616,-10288.862594,-1998.556043,0.000000
835.631936,-11029.068536,-1554.432478,383.047749
835.632257,-10732.986159,-370.102971,536.266849
835.632578,-10510.924376,0.000000,1225.752797
835.632899,-11103.089130,148.041188,1762.019645
835.633220,-10584.944971,-518.144159,2145.067394
835.633540,-10658.965565,-1110.308913,2221.676944
835.633861,-9696.697840,-1554.432478,1991.848295
835.634182,-9400.615463,-148.041188,1149.143247
835.634503,-8734.430116,1036.288319,842.705048
835.634823,-8216.285956,1406.391290,995.924147
835.635144,-8290.306550,1258.350101,-919.314598
835.635465,-8808.450710,-296.082377,-229.828649
835.635786,-9326.594869,-1480.411884,229.828649
835.636106,-9622.677246,-1998.556043,-536.266849
835.636427,-10362.883188,-1480.411884,0.000000
835.636748,-10584.944971,-222.061783,229.828649
835.637069,-10436.903782,1110.308913,1225.752797
835.637389,-10658.965565,888.247130,2068.457845
835.637710,-10807.006753,222.061783,2068.457845
835.638031,-10510.924376,-740.205942,2834.553343
835.638352,-9992.780217,-1258.350101,1838.629195
835.638672,-9178.553681,-1036.288319,1225.752797
835.638993,-8364.327145,-148.041188,766.095498
835.639314,-7402.059420,0.000000,-153.219100
835.639635,-7105.977043,148.041188,0.000000
835.639955,-8142.265362,-296.082377,-306.438199
835.640276,-8734.430116,-962.267725,-459.657299
835.640597,-9696.697840,-1480.411884,76.609550
835.640918,-9770.718434,-1184.329507,919.314598
835.641239,-10436.903782,-296.082377,842.705048
835.641559,-10288.862594,592.164754,1608.800546
835.641880,-10658.965565,444.123565,2374.896044
835.642201,-9696.697840,148.041188,3677.258390
835.642522,-10214.842000,-444.123565,2834.553343
835.642842,-10288.862594,-296.082377,2298.286494
835.643163,-9770.718434,518.144159,2221.676944
835.643484,-9030.512492,1184.329507,1915.238745
835.643805,-7772.162391,1110.308913,1149.143247
835.644125,-7624.121203,592.164754,995.924147
835.644446,-8438.347739,-444.123565,766.095498
835.644767,-9104.533087,-1554.432478,1378.971896
835.645088,-10436.903782,-2590.720797,919.314598
835.645408,-10881.027347,-2072.576638,1378.971896
835.645729,-11177.109724,-1184.329507,1455.581446
835.646050,-10732.986159,74.020594,1915.238745
835.646371,-10658.965565,592.164754,3064.381992
835.646691,-10658.965565,0.000000,2451.505594
835.647012,-10362.883188,-814.226536,1685.410096
835.647333,-9992.780217,-1406.391290,1608.800546
835.647654,-9548.656652,-592.164754,1378.971896
835.647974,-9104.533087,148.041188,459.657299
835.648295,-8364.327145,962.267725,459.657299
835.648616,-7920.203579,962.267725,-306.438199
835.648937,-7994.224174,222.061783,-383.047749
835.649258,-9474.636058,-1258.350101,229.828649
835.649578,-9696.697840,-1924.535449,-229.828649
835.649899,-10066.800811,-2072.576638,-536.266849
835.650220,-10510.924376,-1184.329507,0.000000
835.650541,-10510.924376,444.123565,612.876398
835.650861,-10288.862594,1184.329507,1378.971896
835.651182,-10510.924376,962.267725,2221.676944
835.651503,-10510.924376,-222.061783,2068.457845
835.651824,-10066.800811,-962.267725,1455.581446
835.652144,-10066.800811,-1184.329507,1302.362347
835.652465,-8660.409521,-444.123565,0.000000
835.652786,-8216.285956,666.185348,459.657299
835.653107,-7772.162391,592.164754,76.609550
835.653427,-8586.388927,814.226536,0.000000
835.653748,-8956.491898,-1184.329507,229.828649
835.654069,-9696.697840,-2294.638420,0.000000
835.654390,-10288.862594,-2368.659014,76.609550
835.654710,-10807.006753,-1480.411884,1072.533697
835.655031,-10510.924376,-592.164754,1225.752797
835.655352,-10288.862594,370.102971,1225.752797
835.655673,-10584.944971,148.041188,2145.067394
835.655994,-10140.821405,-222.061783,2528.115143
835.656314,-9992.780217,0.000000,3064.381992
835.656635,-10288.862594,-370.102971,2374.896044
835.656956,-9400.615463,222.061783,1685.410096
835.657277,-8660.409521,740.205942,1532.190996
835.657597,-8142.265362,592.164754,-229.828649
835.657918,-8216.285956,0.000000,459.657299
835.658239,-8808.450710,-1406.391290,536.266849
835.658560,-9400.615463,-1924.535449,842.705048
835.658880,-10214.842000,-1850.514855,919.314598
835.659201,-10658.965565,-1110.308913,766.095498
835.659522,-10510.924376,0.000000,1455.581446
835.659843,-10140.821405,592.164754,1915.238745
835.660163,-10140.821405,74.020594,2374.896044
835.660484,-10436.903782,0.000000,2068.457845
835.660805,-10214.842000,-1036.288319,2681.334243
835.661126,-9918.759623,-1184.329507,2145.067394
835.661446,-9178.553681,-370.102971,1838.629195
835.661767,-8660.409521,666.185348,1685.410096
835.662088,-8142.265362,444.123565,842.705048
835.662409,-7624.121203,370.102971,459.657299
835.662729,-8364.327145,-518.144159,0.000000
835.663050,-9252.574275,-1702.473667,0.000000
835.663371,-9474.636058,-2368.659014,0.000000
835.663692,-10436.903782,-1406.391290,0.000000
835.664013,-10510.924376,0.000000,229.828649
835.664333,-10362.883188,1184.329507,1149.143247
835.664654,-10436.903782,1776.494261,2221.676944
835.664975,-10955.047942,1036.288319,2451.505594
835.665296,-10288.862594,-74.020594,2451.505594
835.665616,-10214.842000,-518.144159,1762.019645
835.665937,-9326.594869,-222.061783,1149.143247
835.666258,-8586.388927,222.061783,536.266849
835.666579,-8068.244768,962.267725,306.438199
835.666899,-7698.141797,740.205942,-153.219100
835.667220,-8068.244768,148.041188,-306.438199
835.667541,-9178.553681,-1036.288319,-383.047749
835.667862,-9696.697840,-1628.453072,-459.657299
835.668182,-10658.965565,-1258.350101,229.828649
835.668503,-10807.006753,-518.144159,689.485948
835.668824,-10584.944971,370.102971,1072.533697
835.669145,-10436.903782,888.247130,1532.190996
835.669465,-10807.006753,666.185348,1991.848295
835.669786,-10066.800811,-296.082377,1532.190996
835.670107,-10214.842000,-740.205942,1532.190996
835.670428,-8956.491898,-296.082377,1302.362347
835.670748,-9400.615463,0.000000,1302.362347
835.671069,-8142.265362,296.082377,1455.581446
835.671390,-7698.141797,296.082377,766.095498
835.671711,-8882.471304,-148.041188,229.828649
835.672032,-8956.491898,-962.267725,306.438199
835.672352,-9992.780217,-2072.576638,383.047749
835.672673,-10140.821405,-1850.514855,536.266849
835.672994,-10881.027347,-888.247130,306.438199
835.673315,-10584.944971,222.061783,1072.533697
835.673635,-10510.924376,1110.308913,2068.457845
835.673956,-11103.089130,888.247130,2451.505594
835.674277,-10584.944971,0.000000,3064.381992
835.674598,-10362.883188,-962.267725,2298.286494
835.674918,-9918.759623,-962.267725,2451.505594
835.675239,-9178.553681,-444.123565,1838.629195
835.675560,-8216.285956,222.061783,1149.143247
835.675881,-7994.224174,666.185348,612.876398
835.676201,-7550.100608,518.144159,306.438199
835.676522,-8734.430116,-592.164754,306.438199
835.676843,-9622.677246,-1628.453072,459.657299
835.677164,-9696.697840,-1998.556043,689.485948
835.677484,-10732.986159,-1480.411884,689.485948
835.677805,-10584.944971,-296.082377,919.314598
835.678126,-10066.800811,888.247130,1608.800546
835.678447,-11251.130318,666.185348,2528.115143
835.678768,-10510.924376,518.144159,2757.943793
835.679088,-10658.965565,-814.226536,2374.896044
835.679409,-10066.800811,-962.267725,1991.848295
835.679730,-9104.533087,-962.267725,1608.800546
835.680051,-8290.306550,296.082377,1072.533697
835.680371,-7846.182985,-370.102971,612.876398
835.680692,-7254.018232,-370.102971,0.000000
835.681013,-8290.306550,-1554.432478,-229.828649
835.681334,-7698.141797,-2368.659014,-306.438199
835.681654,-9844.739029,-2442.679609,-383.047749
835.681975,-10436.903782,-1776.494261,-153.219100
835.682296,-10214.842000,-518.144159,306.438199
835.682617,-10288.862594,518.144159,842.705048
835.682937,-10658.965565,1036.288319,1991.848295
835.683258,-10881.027347,518.144159,2757.943793
835.683579,-10584.944971,-296.082377,2451.505594
835.683900,-10140.821405,-814.226536,2145.067394
835.684220,-8660.409521,1480.411884,1991.848295
835.684541,-9104.533087,592.164754,1378.971896
835.684862,-8068.244768,1036.288319,689.485948
835.685183,-7105.977043,1480.411884,76.609550
835.685503,-8068.244768,-740.205942,0.000000
835.685824,-8882.471304,-666.185348,0.000000
835.686145,-10288.862594,-1998.556043,306.438199
835.686466,-10807.006753,-1924.535449,0.000000
835.686787,-10732.986159,-518.144159,919.314598
835.687107,-10436.903782,0.000000,1072.533697
835.687428,-10510.924376,814.226536,2298.286494
835.687749,-11251.130318,222.061783,2681.334243
835.688070,-10214.842000,-296.082377,2757.943793
835.688390,-9844.739029,-1258.350101,3600.648841
835.688711,-9548.656652,-222.061783,1838.629195
835.689032,-9178.553681,0.000000,1455.581446
835.689353,-8364.327145,666.185348,1149.143247
835.689673,-7772.162391,518.144159,459.657299
835.689994,-7624.121203,0.000000,153.219100
835.690315,-8882.471304,-1036.288319,306.438199
835.690636,-9474.636058,-1924.535449,229.828649
835.690956,-10288.862594,-1480.411884,536.266849
835.691277,-10807.006753,-740.205942,229.828649
835.691598,-10584.944971,444.123565,1072.533697
835.691919,-10436.903782,1036.288319,1838.629195
835.692239,-11177.109724,1036.288319,2757.943793
835.692560,-10658.965565,0.000000,2604.724693
835.692881,-10066.800811,-962.267725,2374.896044
835.693202,-9474.636058,-1036.288319,1685.410096
835.693522,-9252.574275,0.000000,1378.971896
835.693843,-8364.327145,666.185348,1302.362347
835.694164,-7328.038826,888.247130,612.876398
835.694485,-7698.141797,444.123565,-306.438199
835.694806,-8734.430116,-740.205942,0.000000
835.695126,-9696.697840,-1850.514855,229.828649
835.695447,-9400.615463,-2442.679609,842.705048
835.695768,-10362.883188,-1776.494261,229.828649
835.696089,-10288.862594,-666.185348,383.047749
835.696409,-10362.883188,518.144159,1302.362347
835.696730,-10732.986159,222.061783,2451.505594
835.697051,-10288.862594,74.020594,1685.410096
835.697372,-10510.924376,-666.185348,1762.019645
835.697692,-9696.697840,-814.226536,1072.533697
835.698013,-9474.636058,0.000000,536.266849
835.698334,-9030.512492,962.267725,1072.533697
835.698655,-7994.224174,1258.350101,612.876398
835.698975,-8068.244768,222.061783,153.219100
835.699296,-8808.450710,-592.164754,-306.438199
835.699617,-8660.409521,-2072.576638,-76.609550
835.699938,-10140.821405,-1924.535449,0.000000
835.700258,-10510.924376,-1406.391290,0.000000
835.700579,-10510.924376,-666.185348,0.000000
835.700900,-10288.862594,222.061783,1532.190996
835.701221,-11103.089130,370.102971,1455.581446
835.701541,-10584.944971,0.000000,2451.505594
835.701862,-10658.965565,-1184.329507,2298.286494
835.702183,-10066.800811,-1258.350101,1838.629195
835.702504,-9770.718434,-296.082377,1991.848295
835.702824,-8586.388927,0.000000,1378.971896
835.703145,-7772.162391,814.226536,612.876398
835.703466,-7402.059420,592.164754,153.219100
835.703787,-8290.306550,-148.041188,919.314598
835.704108,-9178.553681,-1258.350101,459.657299
835.704428,-9844.739029,-1850.514855,229.828649
835.704749,-10140.821405,-1554.432478,766.095498
835.705070,-10732.986159,-666.185348,766.095498
835.705391,-10362.883188,296.082377,1915.238745
835.705711,-10584.944971,1110.308913,2681.334243
835.706032,-10658.965565,666.185348,2528.115143
835.706353,-10214.842000,222.061783,2681.334243
835.706674,-10066.800811,-666.185348,2451.505594
835.706994,-9400.615463,0.000000,1915.238745
835.707315,-8734.430116,518.144159,1455.581446
835.707636,-8068.244768,1036.288319,995.924147
835.707957,-7402.059420,888.247130,995.924147
835.708277,-8068.244768,-444.123565,459.657299
835.708598,-8808.450710,-1850.514855,383.047749
835.708919,-9474.636058,-2738.761985,0.000000
835.709240,-10214.842000,-2442.679609,2068.457845
835.709560,-10584.944971,-1406.391290,459.657299
835.709881,-10362.883188,74.020594,842.705048
835.710202,-10510.924376,814.226536,1225.752797
835.710523,-11029.068536,740.205942,2145.067394
835.710843,-10362.883188,-592.164754,1991.848295
835.711164,-10436.903782,-1110.308913,1685.410096
835.711485,-10066.800811,-666.185348,1378.971896
835.711806,-9030.512492,-222.061783,766.095498
835.712126,-7179.997637,1554.432478,1608.800546
835.712447,-7402.059420,666.185348,-153.219100
835.712768,-7846.182985,148.041188,-612.876398
835.713089,-8734.430116,-888.247130,-919.314598
835.713410,-9622.677246,-1480.411884,-1149.143247
835.713730,-10140.821405,-1924.535449,-459.657299
835.714051,-10658.965565,-1036.288319,459.657299
835.714372,-10658.965565,0.000000,766.095498
835.714693,-10510.924376,1036.288319,1532.190996
835.715013,-11177.109724,888.247130,2374.896044
835.715334,-11029.068536,444.123565,2604.724693
835.715655,-10510.924376,-592.164754,2451.505594
835.715976,-9844.739029,-222.061783,1838.629195
835.716296,-9030.512492,1110.308913,2068.457845
835.716617,-8512.368333,814.226536,1685.410096
835.716938,-8364.327145,222.061783,1302.362347
835.717259,-7920.203579,-222.061783,536.266849
835.717579,-8882.471304,-1184.329507,76.609550
835.717900,-9474.636058,-1702.473667,842.705048
835.718221,-10214.842000,-1850.514855,1685.410096
835.718542,-10807.006753,-1628.453072,1378.971896
835.718862,-10140.821405,-1110.308913,1072.533697
835.719183,-9918.759623,148.041188,995.924147
835.719504,-10584.944971,444.123565,2451.505594
835.719825,-10362.883188,592.164754,2987.772442
835.720145,-10732.986159,-666.185348,2757.943793
835.720466,-8956.491898,-1406.391290,2374.896044
835.720787,-9104.533087,-1110.308913,766.095498
835.721108,-8734.430116,-296.082377,1378.971896
835.721428,-7846.182985,0.000000,383.047749
835.721749,-7328.038826,370.102971,-1302.362347
835.722070,-8142.265362,-518.144159,-612.876398
835.722391,-8364.327145,-1628.453072,-459.657299
835.722712,-9844.739029,-2738.761985,-383.047749
835.723032,-10288.862594,-2516.700203,0.000000
835.723353,-10510.924376,-1480.411884,0.000000
835.723674,-10436.903782,-148.041188,1378.971896
835.723995,-10658.965565,74.020594,1991.848295
835.724315,-10510.924376,0.000000,2374.896044
835.724636,-10732.986159,-814.226536,2298.286494
835.724957,-10288.862594,-666.185348,1915.238745
835.725278,-9474.636058,-370.102971,1225.752797
835.725598,-8956.491898,444.123565,995.924147
835.725919,-8364.327145,1554.432478,536.266849
835.726240,-7698.141797,1406.391290,-153.219100
835.726561,-8512.368333,592.164754,0.000000
835.726881,-9326.594869,-740.205942,0.000000
835.727202,-9844.739029,-2072.576638,-229.828649
835.727523,-10807.006753,-1850.514855,0.000000
835.727844,-10658.965565,-1036.288319,383.047749
835.728164,-10807.006753,0.000000,919.314598
835.728485,-10732.986159,1036.288319,1762.019645
835.728806,-11621.233289,962.267725,3064.381992
835.729127,-10732.986159,-296.082377,2145.067394
835.729447,-10066.800811,-1258.350101,1915.238745
835.729768,-9474.636058,-1110.308913,1608.800546
835.730089,-8956.491898,-148.041188,2145.067394
835.730410,-8068.244768,444.123565,766.095498
835.730730,-7920.203579,740.205942,995.924147
835.731051,-8216.285956,0.000000,459.657299
835.731372,-8586.388927,-962.267725,306.438199
835.731693,-9326.594869,-1850.514855,612.876398
835.732014,-9992.780217,-1850.514855,766.095498
835.732334,-10436.903782,-1036.288319,1378.971896
835.732655,-10584.944971,148.041188,1608.800546
835.732976,-10510.924376,1258.350101,2068.457845
835.733297,-10436.903782,296.082377,2834.553343
835.733617,-10214.842000,-222.061783,2757.943793
835.733938,-10066.800811,-1184.329507,2451.505594
835.734259,-9474.636058,-444.123565,1991.848295
835.734580,-8956.491898,0.000000,1762.019645
835.734900,-8290.306550,1110.308913,1455.581446
835.735221,-7920.203579,1628.453072,1608.800546
835.735542,-7772.162391,814.226536,1072.533697
835.735863,-8734.430116,-592.164754,919.314598
835.736183,-9178.553681,-1628.453072,306.438199
835.736504,-9844.739029,-1924.535449,229.828649
835.736825,-10362.883188,-962.267725,689.485948
835.737146,-10955.047942,740.205942,383.047749
835.737466,-10584.944971,1258.350101,1608.800546
835.737787,-10584.944971,1036.288319,1915.238745
835.738108,-10881.027347,296.082377,2145.067394
835.738429,-9474.636058,-1628.453072,2681.334243
835.738749,-9844.739029,-814.226536,1149.143247
835.739070,-9474.636058,-296.082377,842.705048
835.739391,-8808.450710,296.082377,229.828649
835.739712,-7698.141797,740.205942,-306.438199
835.740032,-8068.244768,592.164754,-689.485948
835.740353,-8734.430116,-296.082377,-612.876398
835.740674,-9400.615463,-1406.391290,-383.047749
835.740995,-10140.821405,-1924.535449,-689.485948
835.741315,-10066.800811,-1258.350101,-1149.143247
835.741636,-10881.027347,-444.123565,-306.438199
835.741957,-10214.842000,740.205942,536.266849
835.742278,-10732.986159,1110.308913,1225.752797
835.742599,-10436.903782,1406.391290,1685.410096
835.742919,-10732.986159,-296.082377,1838.629195
835.743240,-10288.862594,-740.205942,1762.019645
835.743561,-9548.656652,-444.123565,1608.800546
835.743882,-8882.471304,0.000000,1225.752797
835.744202,-7476.080014,666.185348,1149.143247
835.744523,-7698.141797,518.144159,612.876398
835.744844,-8142.265362,-740.205942,229.828649
835.745165,-8808.450710,-1850.514855,842.705048
835.745485,-10066.800811,-2664.741391,459.657299
835.745806,-9918.759623,-2072.576638,1072.533697
835.746127,-10436.903782,-1406.391290,1532.190996
835.746448,-10510.924376,0.000000,2298.286494
835.746768,-10510.924376,74.020594,2681.334243
835.747089,-11029.068536,444.123565,3447.429741
835.747410,-10732.986159,-444.123565,3447.429741
835.747731,-10510.924376,-1554.432478,2911.162892
835.748051,-9844.739029,-962.267725,2298.286494
835.748372,-8660.409521,-222.061783,1838.629195
835.748693,-7920.203579,370.102971,842.705048
835.749014,-7624.121203,592.164754,0.000000
835.749334,-8068.244768,-296.082377,-842.705048
835.749655,-8660.409521,-1332.370696,-766.095498
835.749976,-9696.697840,-1850.514855,-383.047749
835.750297,-10436.903782,-1332.370696,0.000000
835.750617,-11251.130318,-1110.308913,689.485948
835.750938,-10881.027347,444.123565,153.219100
835.751259,-10510.924376,0.000000,1532.190996
835.751580,-10214.842000,0.000000,1378.971896
835.751901,-10510.924376,-518.144159,2068.457845
835.752221,-9844.739029,-814.226536,1532.190996
835.752542,-9548.656652,0.000000,1685.410096
835.752863,-8956.491898,148.041188,1072.533697
835.753184,-7920.203579,592.164754,766.095498
835.753504,-8068.244768,148.041188,229.828649
835.753825,-8142.265362,-148.041188,383.047749
835.754146,-8808.450710,-962.267725,306.438199
835.754467,-9844.739029,-1998.556043,306.438199
835.754787,-9918.759623,-1924.535449,383.047749
835.755108,-10732.986159,-962.267725,-995.924147
835.755429,-10362.883188,148.041188,536.266849
835.755750,-10658.965565,962.267725,1378.971896
835.756070,-10658.965565,888.247130,2145.067394
835.756391,-10510.924376,444.123565,1991.848295
835.756712,-10362.883188,-444.123565,1455.581446
835.757033,-9918.759623,0.000000,1455.581446
835.757353,-9474.636058,74.020594,1532.190996
835.757674,-8438.347739,740.205942,842.705048
835.757995,-8068.244768,518.144159,0.000000
835.758316,-7846.182985,74.020594,-153.219100
835.758636,-8882.471304,-222.061783,0.000000
835.758957,-9400.615463,-1554.432478,229.828649
835.759278,-10214.842000,-1998.556043,-1072.533697
835.759599,-10288.862594,-1184.329507,383.047749
835.759919,-11029.068536,-666.185348,536.266849
835.760240,-9992.780217,296.082377,1455.581446
835.760561,-10510.924376,1036.288319,1762.019645
835.760882,-10140.821405,0.000000,2604.724693
835.761203,-10214.842000,-518.144159,2298.286494
835.761523,-10066.800811,-814.226536,2298.286494
835.761844,-9474.636058,-370.102971,2145.067394
835.762165,-8808.450710,296.082377,2528.115143
835.762486,-8068.244768,814.226536,2068.457845
835.762806,-8142.265362,222.061783,1455.581446
835.763127,-8586.388927,-444.123565,1225.752797
835.763448,-9326.594869,-1628.453072,76.609550
835.763769,-9844.739029,-1406.391290,612.876398
835.764089,-9918.759623,-1036.288319,306.438199
835.764410,-10584.944971,222.061783,383.047749
835.764731,-9992.780217,592.164754,995.924147
835.765052,-10658.965565,1628.453072,1838.629195
835.765372,-10955.047942,1036.288319,2451.505594
835.765693,-10584.944971,0.000000,2221.676944
835.766014,-10362.883188,-370.102971,1915.238745
835.766335,-9844.739029,74.020594,1915.238745
835.766655,-9104.533087,1184.329507,919.314598
835.766976,-8364.327145,1628.453072,536.266849
835.767297,-7994.224174,1776.494261,-459.657299
835.767618,-8512.368333,666.185348,-842.705048
835.767938,-9030.512492,-814.226536,-766.095498
835.768259,-9992.780217,-2368.659014,-383.047749
835.768580,-10140.821405,-2368.659014,-383.047749
835.768901,-10955.047942,-888.247130,-612.876398
835.769221,-10436.903782,-888.247130,766.095498
835.769542,-10140.821405,-148.041188,2068.457845
835.769863,-10584.944971,-592.164754,2145.067394
835.770184,-10066.800811,-888.247130,2757.943793
835.770505,-10140.821405,-1776.494261,1685.410096
835.770825,-9326.594869,-1184.329507,1838.629195
835.771146,-9030.512492,-962.267725,1378.971896
835.771467,-8142.265362,296.082377,1762.019645
835.771788,-7328.038826,0.000000,612.876398
835.772108,-7772.162391,-222.061783,689.485948
835.772429,-8808.450710,-1702.473667,536.266849
835.772750,-9474.636058,-2442.679609,689.485948
835.773071,-8956.491898,-3552.988522,2068.457845
835.773391,-10066.800811,-1850.514855,536.266849
835.773712,-10362.883188,-888.247130,919.314598
835.774033,-10066.800811,370.102971,1225.752797
835.774354,-10436.903782,444.123565,1685.410096
835.774674,-10436.903782,740.205942,1991.848295
835.774995,-10881.027347,-222.061783,2221.676944
835.775316,-10436.903782,148.041188,1378.971896
835.775637,-9474.636058,1184.329507,1915.238745
835.775957,-9400.615463,74.020594,76.609550
835.776278,-7846.182985,1184.329507,229.828649
835.776599,-8956.491898,-296.082377,0.000000
835.776920,-8438.347739,-962.267725,-689.485948
835.777240,-9326.594869,-2146.597232,1149.143247
835.777561,-10362.883188,-2146.597232,0.000000
835.777882,-10362.883188,-1036.288319,153.219100
835.778203,-10732.986159,0.000000,612.876398
835.778523,-10066.800811,444.123565,1225.752797
835.778844,-10436.903782,444.123565,1532.190996
835.779165,-10807.006753,-666.185348,2604.724693
835.779486,-9992.780217,-814.226536,2451.505594
835.779807,-9992.780217,-888.247130,2221.676944
835.780127,-9326.594869,-740.205942,1378.971896
835.780448,-8438.347739,518.144159,2068.457845
835.780769,-8882.471304,962.267725,1608.800546
835.781090,-8068.244768,296.082377,1149.143247
835.781410,-8290.306550,-740.205942,612.876398
835.781731,-9178.553681,-1554.432478,766.095498
835.782052,-9474.636058,-1628.453072,689.485948
835.782373,-10362.883188,-1184.329507,536.266849
835.782693,-9918.759623,0.000000,536.266849
835.783014,-9622.677246,1110.308913,1302.362347
835.783335,-10362.883188,888.247130,2298.286494
835.783656,-10214.842000,518.144159,2528.115143
835.783976,-10066.800811,0.000000,2451.505594
835.784297,-10214.842000,-148.041188,2298.286494
835.784618,-9252.574275,0.000000,1685.410096
835.784939,-8808.450710,1110.308913,1378.971896
835.785259,-8290.306550,1110.308913,536.266849
835.785580,-6883.915261,1776.494261,-383.047749
835.785901,-8438.347739,370.102971,-383.047749
835.786222,-9178.553681,-518.144159,-459.657299
835.786542,-10214.842000,-1480.411884,0.000000
835.786863,-10658.965565,-1184.329507,306.438199
835.787184,-10436.903782,-444.123565,306.438199
835.787505,-10288.862594,814.226536,995.924147
835.787825,-10732.986159,962.267725,1762.019645
835.788146,-10584.944971,1036.288319,1838.629195
835.788467,-10732.986159,74.020594,2298.286494
835.788788,-10066.800811,-148.041188,1991.848295
835.789108,-9696.697840,0.000000,1608.800546
835.789429,-9104.533087,370.102971,1225.752797
835.789750,-8956.491898,1184.329507,1225.752797
835.790071,-8068.244768,666.185348,536.266849
835.790392,-8438.347739,0.000000,76.609550
835.790712,-9252.574275,-1554.432478,153.219100
835.791033,-9918.759623,-2368.659014,306.438199
835.791354,-10214.842000,-1924.535449,153.219100
835.791675,-10732.986159,-888.247130,689.485948
835.791995,-10584.944971,0.000000,1302.362347
835.792316,-10288.862594,592.164754,1608.800546
835.792637,-10807.006753,222.061783,2604.724693
835.792957,-10066.800811,-370.102971,2298.286494
835.793278,-10066.800811,-1480.411884,2068.457845
835.793599,-9474.636058,-962.267725,2145.067394
835.793920,-9104.533087,0.000000,1072.533697
835.794240,-7994.224174,222.061783,612.876398
835.794561,-7550.100608,222.061783,0.000000
835.794882,-7698.141797,0.000000,0.000000
835.795202,-9030.512492,-1406.391290,229.828649
835.795523,-9474.636058,-2442.679609,0.000000
835.795844,-9770.718434,-2738.761985,0.000000
835.796165,-10288.862594,-1924.535449,306.438199
835.796485,-10510.924376,-1110.308913,842.705048
835.796806,-10658.965565,296.082377,1685.410096
835.797127,-10658.965565,0.000000,2374.896044
835.797447,-10066.800811,-296.082377,2145.067394
835.797768,-10066.800811,-1036.288319,2068.457845
835.798089,-9918.759623,-962.267725,842.705048
835.798409,-9548.656652,-444.123565,1762.019645
835.798730,-8438.347739,0.000000,1302.362347
835.799051,-7994.224174,74.020594,1072.533697
835.799372,-7772.162391,-370.102971,229.828649
835.799692,-8882.471304,-1480.411884,306.438199
835.800013,-9474.636058,-2220.617826,612.876398
835.800334,-10214.842000,-2368.659014,306.438199
835.800654,-10436.903782,-1480.411884,306.438199
835.800975,-10881.027347,444.123565,76.609550
835.801296,-10214.842000,1184.329507,1072.533697
835.801617,-10807.006753,1554.432478,2451.505594
835.801937,-10658.965565,814.226536,2604.724693
835.802258,-10881.027347,-370.102971,2298.286494
835.802579,-10510.924376,-740.205942,1838.629195
835.802899,-9844.739029,-444.123565,1532.190996
835.803220,-8586.388927,296.082377,919.314598
835.803541,-8068.244768,814.226536,153.219100
835.803862,-7698.141797,888.247130,0.000000
835.804182,-8364.327145,-222.061783,-612.876398
835.804503,-9252.574275,-1628.453072,-153.219100
835.804824,-10140.821405,-2516.700203,76.609550
835.805144,-10288.862594,-2738.761985,1378.971896
835.805465,-10584.944971,-1554.432478,842.705048
835.805786,-10584.944971,-296.082377,1455.581446
835.806106,-10658.965565,296.082377,1991.848295
835.806427,-10436.903782,296.082377,3524.039291
835.806748,-10362.883188,0.000000,2145.067394
835.807069,-9918.759623,-444.123565,1685.410096
835.807389,-9474.636058,0.000000,1915.238745
835.807710,-8956.491898,666.185348,1455.581446
835.808031,-8216.285956,1480.411884,1225.752797
835.808351,-7920.203579,1480.411884,383.047749
835.808672,-7772.162391,296.082377,459.657299
835.808993,-8808.450710,-1184.329507,229.828649
835.809314,-9770.718434,-1998.556043,612.876398
835.809634,-9844.739029,-1406.391290,536.266849
835.809955,-10510.924376,-666.185348,612.876398
835.810276,-10140.821405,444.123565,919.314598
835.810596,-10288.862594,2220.617826,1072.533697
835.810917,-10658.965565,666.185348,2604.724693
835.811238,-10584.944971,0.000000,2451.505594
835.811559,-10510.924376,-1258.350101,2221.676944
835.811879,-9844.739029,-592.164754,2068.457845
835.812200,-9104.533087,74.020594,1991.848295
835.812521,-8586.388927,666.185348,995.924147
835.812841,-7698.141797,592.164754,229.828649
835.813162,-7476.080014,-666.185348,-842.705048
835.813483,-7698.141797,-1332.370696,-689.485948
835.813803,-10066.800811,-2590.720797,-459.657299
835.814124,-9696.697840,-2442.679609,-766.095498
835.814445,-10658.965565,-888.247130,-153.219100
835.814766,-10362.883188,518.144159,-1225.752797
835.815086,-10288.862594,740.205942,1302.362347
835.815407,-11029.068536,296.082377,1991.848295
835.815728,-10362.883188,0.000000,1991.848295
835.816048,-10214.842000,-1110.308913,2145.067394
835.816369,-9992.780217,-888.247130,1915.238745
835.816690,-9474.636058,74.020594,1685.410096
835.817011,-8808.450710,814.226536,2145.067394
835.817331,-8216.285956,888.247130,1685.410096
835.817652,-7846.182985,-592.164754,1149.143247
835.817973,-8586.388927,-2368.659014,612.876398
835.818293,-9400.615463,-3478.967927,153.219100
835.818614,-9696.697840,-3108.864956,919.314598
835.818935,-10362.883188,-2664.741391,1072.533697
835.819256,-10288.862594,-518.144159,1225.752797
835.819576,-10066.800811,814.226536,2374.896044
835.819897,-10732.986159,1184.329507,2757.943793
835.820218,-10732.986159,814.226536,3140.991542
835.820538,-10584.944971,-962.267725,3064.381992
835.820859,-10066.800811,-1184.329507,3064.381992
835.821180,-9474.636058,-1036.288319,2068.457845
835.821500,-8882.471304,-296.082377,1608.800546
835.821821,-7920.203579,222.061783,919.314598
835.822142,-7402.059420,0.000000,0.000000
835.822463,-7772.162391,-222.061783,-383.047749
835.822783,-8734.430116,-1258.350101,-689.485948
835.823104,-9844.739029,-1110.308913,-536.266849
835.823425,-10288.862594,-888.247130,0.000000
835.823745,-10732.986159,-518.144159,919.314598
835.824066,-10658.965565,-148.041188,1378.971896
835.824387,-10584.944971,222.061783,1685.410096
835.824708,-11103.089130,296.082377,2221.676944
835.825028,-10881.027347,-296.082377,1838.629195
835.825349,-9844.739029,-370.102971,1072.533697
835.825670,-9326.594869,222.061783,153.219100
835.825990,-8512.368333,888.247130,0.000000
835.826311,-7846.182985,1258.350101,0.000000
835.826632,-7994.224174,666.185348,76.609550
835.826952,-8290.306550,-370.102971,76.609550
835.827273,-9400.615463,-1924.535449,383.047749
835.827594,-9918.759623,-2442.679609,536.266849
835.827915,-10510.924376,-2368.659014,536.266849
835.828235,-10658.965565,-740.205942,689.485948
835.828556,-10214.842000,814.226536,1149.143247
835.828877,-10288.862594,1702.473667,1762.019645
835.829197,-11029.068536,962.267725,2374.896044
835.829518,-10436.903782,222.061783,2145.067394
835.829839,-10214.842000,-740.205942,1378.971896
835.830160,-9474.636058,-74.020594,1225.752797
835.830480,-9030.512492,296.082377,919.314598
835.830801,-8364.327145,1406.391290,919.314598
835.831122,-7698.141797,592.164754,612.876398
835.831442,-7994.224174,148.041188,229.828649
835.831763,-9178.553681,-1110.308913,0.000000
835.832084,-9622.677246,-2146.597232,76.609550
835.832405,-10066.800811,-1998.556043,306.438199
835.832725,-10584.944971,-666.185348,536.266849
835.833046,-10584.944971,148.041188,995.924147
835.833367,-10436.903782,1406.391290,2145.067394
835.833687,-11103.089130,740.205942,2374.896044
835.834008,-10658.965565,148.041188,2681.334243
835.834329,-10881.027347,-740.205942,2528.115143
835.834649,-9696.697840,-592.164754,2298.286494
835.834970,-8882.471304,-148.041188,1685.410096
835.835291,-8364.327145,296.082377,1915.238745
835.835612,-7624.121203,296.082377,1225.752797
835.835932,-7920.203579,0.000000,995.924147
835.836253,-9918.759623,-962.267725,1608.800546
835.836574,-9474.636058,-2294.638420,1072.533697
835.836894,-10066.800811,-2146.597232,459.657299
835.837215,-10362.883188,-1258.350101,842.705048
835.837536,-10362.883188,-296.082377,919.314598
835.837857,-10066.800811,740.205942,1685.410096
835.838177,-10436.903782,148.041188,1915.238745
835.838498,-10140.821405,-370.102971,2298.286494
835.838819,-10362.883188,-1258.350101,2145.067394
835.839139,-10658.965565,-888.247130,1915.238745
835.839460,-9326.594869,-296.082377,1762.019645
835.839781,-8364.327145,370.102971,1302.362347
835.840102,-7624.121203,444.123565,689.485948
835.840422,-7698.141797,0.000000,-689.485948
835.840743,-8438.347739,-1554.432478,-383.047749
835.841064,-9030.512492,-2294.638420,-459.657299
835.841384,-9696.697840,-2220.617826,-842.705048
835.841705,-10140.821405,-1332.370696,-383.047749
835.842026,-10436.903782,-296.082377,229.828649
835.842346,-10436.903782,592.164754,459.657299
835.842667,-10658.965565,444.123565,1302.362347
835.842988,-10881.027347,222.061783,1915.238745
835.843309,-11029.068536,-962.267725,1685.410096
835.843629,-10362.883188,-740.205942,1532.190996
835.843950,-9770.718434,148.041188,1532.190996
835.844271,-8734.430116,444.123565,689.485948
835.844591,-7698.141797,888.247130,1455.581446
835.844912,-8068.244768,444.123565,0.000000
835.845233,-8512.368333,-666.185348,0.000000
835.845554,-9104.533087,-1702.473667,229.828649
835.845874,-9844.739029,-2516.700203,76.609550
835.846195,-10140.821405,-1924.535449,0.000000
835.846516,-10510.924376,-592.164754,459.657299
835.846836,-10214.842000,666.185348,1302.362347
835.847157,-10658.965565,1110.308913,2451.505594
835.847478,-10658.965565,370.102971,3600.648841
835.847799,-10955.047942,-370.102971,3064.381992
835.848119,-10510.924376,-888.247130,2298.286494
835.848440,-9844.739029,-370.102971,2298.286494
835.848761,-9474.636058,592.164754,1608.800546
835.849081,-8068.244768,444.123565,995.924147
835.849402,-7920.203579,444.123565,229.828649
835.849723,-7920.203579,0.000000,0.000000
835.850043,-9326.594869,-1184.329507,76.609550
835.850364,-9622.677246,-1628.453072,536.266849
835.850685,-10140.821405,-1258.350101,459.657299
835.851006,-10288.862594,-518.144159,459.657299
835.851326,-10288.862594,592.164754,1072.533697
835.851647,-10510.924376,1184.329507,1532.190996
835.851968,-10288.862594,518.144159,2145.067394
835.852288,-10140.821405,-296.082377,2068.457845
835.852609,-10214.842000,-518.144159,1685.410096
835.852930,-9844.739029,-222.061783,995.924147
835.853251,-9178.553681,370.102971,1378.971896
835.853571,-8068.244768,1480.411884,1302.362347
835.853892,-8142.265362,1480.411884,1378.971896
835.854213,-8364.327145,740.205942,766.095498
835.854533,-8956.491898,-296.082377,536.266849
835.854854,-9770.718434,-1480.411884,153.219100
835.855175,-10066.800811,-814.226536,153.219100
835.855496,-10584.944971,-148.041188,229.828649
835.855816,-9992.780217,1110.308913,153.219100
835.856137,-9992.780217,2368.659014,1302.362347
835.856458,-10510.924376,1924.535449,2068.457845
835.856778,-10807.006753,666.185348,2451.505594
835.857099,-10732.986159,-962.267725,842.705048
835.857420,-10140.821405,-518.144159,1991.848295
835.857740,-9474.636058,148.041188,1149.143247
835.858061,-8586.388927,666.185348,1378.971896
835.858382,-7920.203579,518.144159,536.266849
835.858703,-7698.141797,-222.061783,-153.219100
835.859023,-8660.409521,-1332.370696,-153.219100
835.859344,-9474.636058,-2886.803174,0.000000
835.859665,-9770.718434,-3330.926739,0.000000
835.859985,-10066.800811,-2960.823768,0.000000
835.860306,-10066.800811,-1554.432478,919.314598
835.860627,-9844.739029,-296.082377,1685.410096
835.860948,-10510.924376,-666.185348,1915.238745
835.861268,-10362.883188,-962.267725,3140.991542
835.861589,-10066.800811,-1776.494261,2221.676944
835.861910,-9844.739029,-1554.432478,1991.848295
835.862230,-8956.491898,-814.226536,1685.410096
835.862551,-8660.409521,-222.061783,1685.410096
835.862872,-7698.141797,370.102971,1302.362347
835.863192,-7994.224174,-74.020594,229.828649
835.863513,-8586.388927,-1110.308913,229.828649
835.863834,-9178.553681,-1702.473667,536.266849
835.864155,-10214.842000,-2368.659014,0.000000
835.864475,-10066.800811,-1998.556043,0.000000
835.864796,-10288.862594,-1110.308913,459.657299
835.865117,-10288.862594,74.020594,1149.143247
835.865437,-10362.883188,740.205942,1532.190996
835.865758,-10955.047942,0.000000,2451.505594
835.866079,-10658.965565,-148.041188,2221.676944
835.866400,-10214.842000,0.000000,2145.067394
835.866720,-10214.842000,-222.061783,1915.238745
835.867041,-8586.388927,518.144159,1455.581446
835.867362,-8438.347739,148.041188,1225.752797
835.867682,-7994.224174,0.000000,0.000000
835.868003,-8364.327145,-370.102971,-536.266849
835.868324,-9622.677246,-1258.350101,-383.047749
835.868645,-9622.677246,-1924.535449,0.000000
835.868965,-10510.924376,-1850.514855,0.000000
835.869286,-10584.944971,-740.205942,229.828649
835.869607,-9918.759623,888.247130,536.266849
835.869927,-10584.944971,666.185348,1378.971896
835.870248,-10658.965565,740.205942,2221.676944
835.870569,-10807.006753,0.000000,2221.676944
835.870889,-10140.821405,0.000000,2145.067394
835.871210,-9548.656652,518.144159,1532.190996
835.871531,-9326.594869,1110.308913,1762.019645
835.871852,-8142.265362,1258.350101,1302.362347
835.872172,-7920.203579,888.247130,766.095498
835.872493,-7476.080014,-444.123565,0.000000
835.872814,-8586.388927,-888.247130,76.609550
835.873134,-9400.615463,-1184.329507,383.047749
835.873455,-9622.677246,-962.267725,459.657299
835.873776,-10510.924376,-370.102971,306.438199
835.874097,-10066.800811,444.123565,919.314598
835.874417,-9770.718434,888.247130,1302.362347
835.874738,-10214.842000,666.185348,2298.286494
835.875059,-10140.821405,370.102971,2221.676944
835.875379,-9992.780217,296.082377,2451.505594
835.875700,-9696.697840,888.247130,1838.629195
835.876021,-9326.594869,1406.391290,1455.581446
835.876342,-8438.347739,2072.576638,919.314598
835.876662,-8512.368333,1776.494261,842.705048
835.876983,-8364.327145,666.185348,76.609550
835.877304,-9178.553681,0.000000,0.000000
835.877624,-9770.718434,-1110.308913,-153.219100
835.877945,-9252.574275,-518.144159,612.876398
835.878266,-10584.944971,-888.247130,-76.609550
835.878586,-10510.924376,888.247130,612.876398
835.878907,-10510.924376,1406.391290,1149.143247
835.879228,-10658.965565,962.267725,3600.648841
835.879549,-10436.903782,148.041188,2451.505594
835.879869,-10658.965565,-888.247130,2221.676944
835.880190,-9992.780217,-1702.473667,2221.676944
835.880511,-9252.574275,-592.164754,1608.800546
835.880831,-8438.347739,-444.123565,2145.067394
835.881152,-7698.141797,0.000000,919.314598
835.881473,-8216.285956,148.041188,536.266849
835.881794,-8512.368333,-740.205942,229.828649
835.882114,-9178.553681,-1258.350101,153.219100
835.882435,-10066.800811,-2220.617826,459.657299
835.882756,-10584.944971,-2146.597232,612.876398
835.883076,-9918.759623,-1702.473667,995.924147
835.883397,-9770.718434,-740.205942,1378.971896
835.883718,-10288.862594,-444.123565,2298.286494
835.884039,-10288.862594,-444.123565,2374.896044
835.884359,-10066.800811,-962.267725,2681.334243
835.884680,-9844.739029,-962.267725,2374.896044
835.885001,-9474.636058,-222.061783,1991.848295
835.885321,-8586.388927,0.000000,1302.362347
835.885642,-8142.265362,-444.123565,459.657299
835.885963,-7550.100608,-888.247130,0.000000
835.886283,-7846.182985,-1406.391290,-536.266849
835.886604,-8586.388927,-2294.638420,0.000000
835.886925,-9918.759623,-2590.720797,0.000000
835.887246,-10140.821405,-2146.597232,306.438199
835.887566,-10362.883188,-1332.370696,0.000000
835.887887,-10288.862594,296.082377,919.314598
835.888208,-10510.924376,518.144159,1838.629195
835.888528,-10436.903782,222.061783,2221.676944
835.888849,-10584.944971,-1036.288319,1915.238745
835.889170,-9918.759623,-1702.473667,2145.067394
835.889491,-9696.697840,-1554.432478,1685.410096
835.889811,-9030.512492,-592.164754,612.876398
835.890132,-8512.368333,666.185348,766.095498
835.890453,-8290.306550,444.123565,76.609550
835.890773,-7772.162391,-592.164754,-383.047749
835.891094,-9252.574275,-1850.514855,-306.438199
835.891415,-9622.677246,-2516.700203,-536.266849
835.891736,-10362.883188,-2072.576638,-383.047749
835.892056,-10732.986159,-1184.329507,0.000000
835.892377,-10436.903782,814.226536,229.828649
835.892698,-10362.883188,1332.370696,1225.752797
835.893018,-10881.027347,740.205942,2145.067394
835.893339,-10881.027347,0.000000,2528.115143
835.893660,-10510.924376,-1406.391290,1762.019645
835.893980,-9548.656652,-592.164754,995.924147
835.894301,-8956.491898,740.205942,842.705048
835.894622,-8216.285956,1332.370696,842.705048
835.894943,-7698.141797,1332.370696,1838.629195
835.895263,-7920.203579,370.102971,-306.438199
835.895584,-8808.450710,-592.164754,-383.047749
835.895905,-9770.718434,-1850.514855,229.828649
835.896226,-10214.842000,-1998.556043,612.876398
835.896546,-10807.006753,-1332.370696,1072.533697
835.896867,-10288.862594,0.000000,1685.410096
835.897188,-9918.759623,666.185348,1915.238745
835.897509,-10436.903782,962.267725,2604.724693
835.897829,-10436.903782,444.123565,2374.896044
835.898150,-10362.883188,-370.102971,2604.724693
835.898471,-9474.636058,0.000000,2451.505594
835.898791,-8956.491898,296.082377,1915.238745
835.899112,-8586.388927,1258.350101,1302.362347
835.899433,-7994.224174,1480.411884,1378.971896
835.899754,-8290.306550,592.164754,1149.143247
835.900074,-8586.388927,-222.061783,995.924147
835.900395,-9474.636058,-1850.514855,536.266849
835.900716,-9844.739029,-2072.576638,1532.190996
835.901037,-10362.883188,-1628.453072,689.485948
835.901357,-10288.862594,0.000000,995.924147
835.901678,-10288.862594,962.267725,1455.581446
835.901999,-10510.924376,740.205942,2911.162892
835.902320,-10658.965565,444.123565,2681.334243
835.902640,-10214.842000,-592.164754,2451.505594
835.902961,-10288.862594,-444.123565,2145.067394
835.903282,-9622.677246,-148.041188,1685.410096
835.903603,-8808.450710,444.123565,1532.190996
835.903923,-8216.285956,888.247130,919.314598
835.904244,-8216.285956,148.041188,0.000000
835.904565,-8586.388927,-740.205942,-306.438199
835.904886,-9030.512492,-1258.350101,-536.266849
835.905206,-9918.759623,-2664.741391,-612.876398
835.905527,-9992.780217,-2146.597232,-612.876398
835.905848,-10288.862594,-1332.370696,0.000000
835.906168,-10066.800811,-148.041188,2604.724693
835.906489,-10658.965565,370.102971,1455.581446
835.906810,-10732.986159,0.000000,2145.067394
835.907131,-10881.027347,-962.267725,2145.067394
835.907451,-10288.862594,-1554.432478,1455.581446
835.907772,-9622.677246,-962.267725,919.314598
835.908093,-8734.430116,-518.144159,919.314598
835.908414,-8216.285956,74.020594,383.047749
835.908734,-7846.182985,74.020594,76.609550
835.909055,-9104.533087,-296.082377,-689.485948
835.909376,-8882.471304,-1924.535449,-612.876398
835.909697,-9696.697840,-2442.679609,-536.266849
835.910017,-10214.842000,-2368.659014,-153.219100
835.910338,-10140.821405,-1332.370696,842.705048
835.910659,-10066.800811,-148.041188,766.095498
835.910980,-10288.862594,666.185348,1838.629195
835.911300,-10658.965565,148.041188,2681.334243
835.911621,-10732.986159,-444.123565,3140.991542
835.911942,-10362.883188,-1184.329507,2451.505594
835.912262,-9770.718434,-740.205942,2221.676944
835.912583,-9252.574275,-518.144159,1455.581446
835.912904,-8068.244768,0.000000,1455.581446
835.913225,-8068.244768,296.082377,-383.047749
835.913545,-7698.141797,-444.123565,-306.438199
835.913866,-8882.471304,-1036.288319,-229.828649
835.914187,-9474.636058,-1776.494261,-459.657299
835.914508,-10066.800811,-888.247130,-1302.362347
835.914828,-10584.944971,-666.185348,306.438199
835.915149,-10436.903782,148.041188,842.705048
835.915470,-10214.842000,814.226536,2298.286494
835.915791,-10955.047942,592.164754,2451.505594
835.916111,-10066.800811,0.000000,2681.334243
835.916432,-10436.903782,-592.164754,2528.115143
835.916753,-9696.697840,-74.020594,2451.505594
835.917074,-9252.574275,148.041188,2145.067394
835.917394,-9030.512492,1258.350101,1991.848295
835.917715,-8364.327145,444.123565,1762.019645
835.918036,-8290.306550,-592.164754,1072.533697
835.918356,-8808.450710,-962.267725,842.705048
835.918677,-9770.718434,-1628.453072,766.095498
835.918998,-9696.697840,-1554.432478,766.095498
835.919319,-10510.924376,-370.102971,536.266849
835.919639,-10214.842000,296.082377,842.705048
835.919960,-9844.739029,1480.411884,1608.800546
835.920281,-10732.986159,1406.391290,1991.848295
835.920602,-10584.944971,1110.308913,2604.724693
835.920922,-10510.924376,296.082377,2374.896044
835.921243,-10066.800811,518.144159,2145.067394
835.921564,-9844.739029,740.205942,3217.601092
835.921885,-8734.430116,1184.329507,1072.533697
835.922205,-8438.347739,962.267725,1149.143247
835.922526,-8142.265362,518.144159,306.438199
835.922847,-8808.450710,-148.041188,459.657299
835.923168,-9548.656652,-1480.411884,153.219100
835.923488,-9770.718434,-1702.473667,-229.828649
835.923809,-10214.842000,-740.205942,0.000000
835.924130,-10436.903782,74.020594,0.000000
835.924451,-9770.718434,1036.288319,842.705048
835.924771,-10732.986159,1110.308913,1455.581446
835.925092,-10584.944971,1332.370696,1915.238745
835.925413,-10955.047942,0.000000,2451.505594
835.925733,-11103.089130,-222.061783,1149.143247
835.926054,-9622.677246,-222.061783,1685.410096
835.926375,-8438.347739,-148.041188,536.266849
835.926696,-7994.224174,592.164754,383.047749
835.927016,-7846.182985,-74.020594,-919.314598
835.927337,-7994.224174,-814.226536,-995.924147
835.927658,-9104.533087,-2146.597232,-612.876398
835.927979,-9252.574275,-2442.679609,-919.314598
835.928299,-10066.800811,-1998.556043,-229.828649
835.928620,-10362.883188,-592.164754,229.828649
835.928941,-10584.944971,148.041188,1149.143247
835.929262,-10732.986159,740.205942,2298.286494
835.929582,-11177.109724,148.041188,2757.943793
835.929903,-9844.739029,444.123565,3064.381992
835.930224,-10658.965565,-814.226536,2374.896044
835.930545,-9474.636058,-222.061783,1532.190996
835.930865,-8586.388927,222.061783,1072.533697
835.931186,-7846.182985,740.205942,1378.971896
835.931507,-7402.059420,0.000000,0.000000
835.931827,-7772.162391,-740.205942,-459.657299
835.932148,-9030.512492,-1924.535449,0.000000
835.932469,-9622.677246,-2516.700203,383.047749
835.932790,-10658.965565,-2220.617826,995.924147
835.933110,-10584.944971,-1554.432478,1302.362347
835.933431,-10732.986159,-666.185348,2221.676944
835.933752,-10510.924376,0.000000,2451.505594
835.934073,-10732.986159,0.000000,1991.848295
835.934393,-10362.883188,-296.082377,2987.772442
835.934714,-10140.821405,-1036.288319,2145.067394
835.935035,-9474.636058,-740.205942,1838.629195
835.935356,-9030.512492,0.000000,2145.067394
835.935676,-8364.327145,74.020594,995.924147
835.935997,-8216.285956,148.041188,919.314598
835.936318,-8290.306550,-666.185348,459.657299
835.936639,-9104.533087,-2072.576638,306.438199
835.936959,-9770.718434,-2442.679609,306.438199
835.937280,-10214.842000,-2516.700203,536.266849
835.937601,-10510.924376,-1628.453072,229.828649
835.937922,-10214.842000,-296.082377,306.438199
835.938242,-10436.903782,888.247130,689.485948
835.938563,-10732.986159,740.205942,1838.629195
835.938884,-10584.944971,0.000000,2298.286494
835.939204,-10362.883188,-666.185348,2145.067394
835.939525,-10140.821405,-370.102971,383.047749
835.939846,-9474.636058,222.061783,1149.143247
835.940167,-8438.347739,814.226536,612.876398
835.940487,-7550.100608,1480.411884,383.047749
835.940808,-8216.285956,666.185348,76.609550
835.941129,-8586.388927,-296.082377,-153.219100
835.941450,-9326.594869,-1850.514855,-153.219100
835.941770,-9992.780217,-1924.535449,-459.657299
835.942091,-10436.903782,-592.164754,-153.219100
835.942412,-10288.862594,888.247130,1072.533697
835.942733,-9918.759623,2072.576638,919.314598
835.943053,-10658.965565,1406.391290,1762.019645
835.943374,-10510.924376,888.247130,2145.067394
835.943695,-10658.965565,-222.061783,2145.067394
835.944016,-10362.883188,-296.082377,1685.410096
835.944336,-9696.697840,592.164754,1915.238745
835.944657,-9030.512492,1110.308913,1149.143247
835.944978,-8364.327145,2294.638420,1149.143247
835.945298,-8216.285956,1258.350101,1378.971896
835.945619,-8586.388927,74.020594,153.219100
835.945940,-9178.553681,-962.267725,153.219100
835.946261,-9844.739029,-1554.432478,153.219100
835.946581,-9474.636058,-740.205942,612.876398
835.946902,-10214.842000,74.020594,153.219100
835.947223,-10214.842000,1628.453072,1225.752797
835.947544,-10214.842000,1924.535449,1915.238745
835.947864,-10807.006753,1702.473667,2987.772442
835.948185,-10807.006753,0.000000,2911.162892
835.948506,-10436.903782,-666.185348,2757.943793
835.948827,-9918.759623,-296.082377,2298.286494
835.949147,-9178.553681,444.123565,2298.286494
835.949468,-7624.121203,1036.288319,1838.629195
835.949789,-8068.244768,518.144159,1225.752797
835.950110,-7846.182985,-370.102971,1072.533697
835.950430,-8882.471304,-2368.659014,383.047749
835.950751,-9622.677246,-2812.782580,0.000000
835.951072,-10288.862594,-2146.597232,383.047749
835.951393,-10436.903782,-1110.308913,612.876398
835.951713,-9992.780217,0.000000,1685.410096
835.952034,-9918.759623,0.000000,1762.019645
835.952355,-10288.862594,-666.185348,2374.896044
835.952675,-10288.862594,-1924.535449,2298.286494
835.952996,-9918.759623,-2294.638420,1991.848295
835.953317,-9474.636058,-2220.617826,1532.190996
835.953638,-8438.347739,-1258.350101,766.095498
835.953958,-7772.162391,-592.164754,536.266849
835.954279,-7550.100608,-740.205942,0.000000
835.954600,-7772.162391,-1332.370696,-306.438199
835.954921,-8142.265362,-2146.597232,0.000000
835.955241,-9474.636058,-2886.803174,-153.219100
835.955562,-10066.800811,-2812.782580,-536.266849
835.955883,-10510.924376,-1480.411884,-1072.533697
835.956204,-10214.842000,-814.226536,-153.219100
835.956524,-9918.759623,-74.020594,842.705048
835.956845,-10510.924376,-370.102971,1149.143247
835.957166,-10732.986159,-666.185348,1915.238745
835.957487,-10955.047942,-1110.308913,1608.800546
835.957807,-10288.862594,-444.123565,1532.190996
835.958128,-9770.718434,0.000000,1302.362347
835.958449,-8956.491898,962.267725,766.095498
835.958769,-8290.306550,814.226536,0.000000
835.959090,-7476.080014,666.185348,459.657299
835.959411,-9252.574275,-888.247130,-76.609550
835.959732,-9178.553681,-962.267725,0.000000
835.960052,-10510.924376,-1702.473667,0.000000
835.960373,-10362.883188,-666.185348,76.609550
835.960694,-10807.006753,-296.082377,612.876398
835.961015,-10584.944971,518.144159,1838.629195
835.961335,-10807.006753,370.102971,2604.724693
835.961656,-10732.986159,-444.123565,2834.553343
835.961977,-10955.047942,-592.164754,2681.334243
835.962298,-10140.821405,-740.205942,2451.505594
835.962618,-9474.636058,74.020594,2145.067394
835.962939,-8734.430116,1036.288319,2528.115143
835.963260,-8290.306550,1036.288319,919.314598
835.963581,-7624.121203,518.144159,842.705048
835.963901,-8290.306550,-592.164754,842.705048
835.964222,-9178.553681,-1776.494261,842.705048
835.964543,-9474.636058,-1554.432478,766.095498
835.964864,-10140.821405,-888.247130,1149.143247
835.965184,-9918.759623,74.020594,842.705048
835.965505,-9918.759623,1184.329507,1915.238745
835.965826,-10288.862594,1332.370696,2604.724693
835.966146,-10214.842000,148.041188,2604.724693
835.966467,-10436.903782,-592.164754,2834.553343
835.966788,-9622.677246,-814.226536,1991.848295
835.967109,-9252.574275,74.020594,1685.410096
835.967429,-9326.594869,1406.391290,2374.896044
835.967750,-7772.162391,1998.556043,919.314598
835.968071,-7920.203579,1628.453072,459.657299
835.968392,-8586.388927,814.226536,153.219100
835.968712,-9252.574275,-222.061783,0.000000
835.969033,-9770.718434,-962.267725,0.000000
835.969354,-10436.903782,-740.205942,76.609550
835.969675,-10510.924376,148.041188,306.438199
835.969995,-10214.842000,666.185348,76.609550
835.970316,-10362.883188,1332.370696,689.485948
835.970637,-10807.006753,1110.308913,1225.752797
835.970958,-10658.965565,74.020594,1608.800546
835.971278,-10584.944971,-518.144159,1455.581446
835.971599,-9770.718434,-740.205942,689.485948
835.971920,-9326.594869,74.020594,919.314598
835.972240,-8660.409521,888.247130,1302.362347
835.972561,-8438.347739,370.102971,766.095498
835.972882,-8808.450710,-518.144159,536.266849
835.973203,-9104.533087,-1332.370696,0.000000
835.973523,-9474.636058,-2368.659014,-229.828649
835.973844,-10066.800811,-1628.453072,0.000000
835.974165,-10362.883188,-962.267725,0.000000
835.974486,-9474.636058,0.000000,306.438199
835.974806,-10288.862594,0.000000,1302.362347
835.975127,-10436.903782,-370.102971,2145.067394
835.975448,-10214.842000,-1480.411884,2451.505594
835.975769,-9104.533087,-1998.556043,2987.772442
835.976089,-9622.677246,-1184.329507,2068.457845
835.976410,-9030.512492,-888.247130,1608.800546
835.976731,-8364.327145,-74.020594,919.314598
835.977052,-7476.080014,-148.041188,2068.457845
835.977372,-7846.182985,-666.185348,0.000000
835.977693,-8586.388927,-1924.535449,0.000000
835.978014,-9696.697840,-2368.659014,383.047749
835.978335,-10436.903782,-2294.638420,536.266849
835.978655,-10066.800811,-1776.494261,689.485948
835.978976,-10436.903782,-666.185348,842.705048
835.979297,-9770.718434,148.041188,1455.581446
835.979617,-10510.924376,148.041188,1991.848295
835.979938,-9770.718434,74.020594,2681.334243
835.980259,-10436.903782,-1184.329507,1991.848295
835.980580,-9622.677246,-814.226536,1838.629195
835.980900,-9326.594869,-222.061783,1532.190996
835.981221,-8512.368333,592.164754,1378.971896
835.981542,-8438.347739,888.247130,1378.971896
835.981863,-7994.224174,0.000000,689.485948
835.982183,-8808.450710,-814.226536,459.657299
835.982504,-9252.574275,-2368.659014,-306.438199
835.982825,-9548.656652,-1924.535449,0.000000
835.983146,-10214.842000,-1480.411884,0.000000
835.983466,-10362.883188,-222.061783,689.485948
835.983787,-9992.780217,296.082377,1149.143247
835.984108,-10584.944971,296.082377,2681.334243
835.984429,-10881.027347,370.102971,2604.724693
835.984749,-10881.027347,-740.205942,2451.505594
835.985070,-10362.883188,-666.185348,2451.505594
835.985391,-9474.636058,-296.082377,2451.505594
835.985711,-8512.368333,222.061783,1072.533697
835.986032,-7846.182985,666.185348,383.047749
835.986353,-8068.244768,148.041188,306.438199
835.986674,-8216.285956,-222.061783,-153.219100
835.986994,-8956.491898,-1776.494261,-229.828649
835.987315,-9622.677246,-1998.556043,229.828649
835.987636,-10288.862594,-1480.411884,536.266849
835.987957,-10510.924376,-1036.288319,919.314598
835.988277,-9622.677246,518.144159,1302.362347
835.988598,-10066.800811,518.144159,1685.410096
835.988919,-10584.944971,444.123565,2374.896044
835.989240,-10214.842000,0.000000,2528.115143
835.989560,-10362.883188,-370.102971,1991.848295
835.989881,-9548.656652,444.123565,1915.238745
835.990202,-9178.553681,962.267725,1608.800546
835.990523,-8364.327145,1554.432478,1455.581446
835.990843,-8068.244768,1036.288319,919.314598
835.991164,-8734.430116,74.020594,1149.143247
835.991485,-8882.471304,-962.267725,0.000000
835.991806,-9696.697840,-1554.432478,229.828649
835.992126,-9918.759623,-1406.391290,-306.438199
835.992447,-10362.883188,-370.102971,1072.533697
835.992768,-10066.800811,518.144159,229.828649
835.993088,-10140.821405,814.226536,842.705048
835.993409,-10658.965565,1184.329507,1762.019645
835.993730,-10807.006753,296.082377,2451.505594
835.994051,-10658.965565,-592.164754,2221.676944
835.994371,-10288.862594,0.000000,1915.238745
835.994692,-9326.594869,-148.041188,1302.362347
835.995013,-8882.471304,296.082377,919.314598
835.995333,-7772.162391,0.000000,0.000000
835.995654,-8068.244768,-296.082377,-306.438199
835.995975,-8438.347739,-1110.308913,-383.047749
835.996295,-9400.615463,-2220.617826,-383.047749
835.996616,-9770.718434,-1702.473667,1608.800546
835.996937,-10436.903782,-1554.432478,306.438199
835.997258,-9844.739029,-888.247130,766.095498
835.997578,-10288.862594,-148.041188,1302.362347
835.997899,-10510.924376,-148.041188,2374.896044
835.998220,-10436.903782,-370.102971,2987.772442
835.998540,-10510.924376,-1110.308913,2528.115143
835.998861,-9918.759623,-1258.350101,2068.457845
835.999182,-9326.594869,-740.205942,1762.019645
835.999502,-8808.450710,370.102971,995.924147
835.999823,-7994.224174,740.205942,1532.190996
836.000144,-8290.306550,444.123565,842.705048
836.000464,-8882.471304,-592.164754,766.095498
836.000785,-9104.533087,-1776.494261,383.047749
836.001106,-9622.677246,-2368.659014,0.000000
836.001427,-9770.718434,-1776.494261,153.219100
836.001747,-10214.842000,-518.144159,383.047749
836.002068,-9992.780217,592.164754,1149.143247
836.002389,-10658.965565,1258.350101,1532.190996
836.002709,-10732.986159,370.102971,2145.067394
836.003030,-10658.965565,-888.247130,2145.067394
836.003351,-10140.821405,-1406.391290,1838.629195
836.003671,-9992.780217,-1258.350101,1455.581446
836.003992,-8734.430116,-888.247130,919.314598
836.004313,-8216.285956,-296.082377,459.657299
836.004633,-8142.265362,-740.205942,229.828649
836.004954,-8586.388927,-888.247130,0.000000
836.005275,-9400.615463,-1850.514855,229.828649
836.005595,-9770.718434,-1776.494261,383.047749
836.005916,-10510.924376,-1628.453072,536.266849
836.006237,-9992.780217,-518.144159,536.266849
836.006558,-10066.800811,1036.288319,1149.143247
836.006878,-10214.842000,1036.288319,1838.629195
836.007199,-10362.883188,740.205942,2374.896044
836.007520,-10288.862594,0.000000,2528.115143
836.007840,-10807.006753,1258.350101,1991.848295
836.008161,-9770.718434,296.082377,2221.676944
836.008482,-9104.533087,814.226536,1608.800546
836.008802,-8586.388927,1776.494261,1762.019645
836.009123,-8142.265362,1332.370696,842.705048
836.009444,-8512.368333,444.123565,919.314598
836.009764,-9030.512492,-740.205942,76.609550
836.010085,-9400.615463,-1628.453072,76.609550
836.010406,-9992.780217,-888.247130,153.219100
836.010727,-10362.883188,0.000000,76.609550
836.011047,-10214.842000,1036.288319,995.924147
836.011368,-10436.903782,1406.391290,2068.457845
836.011689,-10658.965565,666.185348,2451.505594
836.012009,-10436.903782,148.041188,2987.772442
836.012330,-11029.068536,-2146.597232,1838.629195
836.012651,-9030.512492,-296.082377,1302.362347
836.012971,-9326.594869,-370.102971,536.266849
836.013292,-8068.244768,962.267725,689.485948
836.013613,-7698.141797,740.205942,0.000000
836.013933,-8586.388927,0.000000,0.000000
836.014254,-8586.388927,-1184.329507,-383.047749
836.014575,-9548.656652,-2294.638420,-995.924147
836.014895,-10955.047942,-1480.411884,1838.629195
836.015216,-10140.821405,-740.205942,0.000000
836.015537,-10288.862594,814.226536,306.438199
836.015858,-10288.862594,1184.329507,1302.362347
836.016178,-9918.759623,888.247130,919.314598
836.016499,-10658.965565,444.123565,2145.067394
836.016820,-10362.883188,0.000000,1838.629195
836.017140,-9770.718434,222.061783,1532.190996
836.017461,-9622.677246,444.123565,1608.800546
836.017782,-8808.450710,1036.288319,1302.362347
836.018102,-8068.244768,592.164754,1072.533697
836.018423,-8216.285956,0.000000,766.095498
836.018744,-8956.491898,-1184.329507,919.314598
836.019064,-9918.759623,-2664.741391,0.000000
836.019385,-10140.821405,-1998.556043,842.705048
836.019706,-10510.924376,-1332.370696,1149.143247
836.020027,-10362.883188,-148.041188,919.314598
836.020347,-10288.862594,740.205942,2221.676944
836.020668,-10436.903782,740.205942,2757.943793
836.020989,-10807.006753,-666.185348,2987.772442
836.021309,-10510.924376,-1702.473667,2145.067394
836.021630,-9474.636058,-1628.453072,1991.848295
836.021951,-9474.636058,-1332.370696,1149.143247
836.022271,-8142.265362,-370.102971,1149.143247
836.022592,-7698.141797,-148.041188,76.609550
836.022913,-8216.285956,-592.164754,383.047749
836.023233,-9252.574275,-1332.370696,0.000000
836.023554,-9992.780217,-2812.782580,536.266849
836.023875,-9992.780217,-2738.761985,383.047749
836.024195,-10510.924376,-1850.514855,76.609550
836.024516,-10510.924376,-814.226536,-689.485948
836.024837,-9548.656652,518.144159,1532.190996
836.025158,-10288.862594,740.205942,1608.800546
836.025478,-10510.924376,666.185348,2528.115143
836.025799,-10214.842000,-370.102971,2298.286494
836.026120,-10362.883188,-814.226536,2145.067394
836.026440,-9622.677246,-296.082377,1455.581446
836.026761,-8586.388927,444.123565,919.314598
836.027082,-7846.182985,888.247130,995.924147
836.027402,-7550.100608,0.000000,-459.657299
836.027723,-8364.327145,-888.247130,0.000000
836.028044,-8956.491898,-1702.473667,-383.047749
836.028364,-9474.636058,-2072.576638,-536.266849
836.028685,-10362.883188,-1110.308913,0.000000
836.029006,-10436.903782,-592.164754,383.047749
836.029327,-10066.800811,740.205942,1149.143247
836.029647,-10955.047942,518.144159,1915.238745
836.029968,-10955.047942,0.000000,2298.286494
836.030289,-10732.986159,-814.226536,2221.676944
836.030609,-10510.924376,-1258.350101,1915.238745
836.030930,-9696.697840,-444.123565,1762.019645
836.031251,-8808.450710,444.123565,919.314598
836.031571,-7994.224174,1258.350101,919.314598
836.031892,-7698.141797,1110.308913,-612.876398
836.032213,-8142.265362,-370.102971,-689.485948
836.032533,-9178.553681,-1776.494261,-919.314598
836.032854,-9918.759623,-1850.514855,766.095498
836.033175,-10807.006753,-1110.308913,0.000000
836.033495,-10881.027347,0.000000,459.657299
836.033816,-10362.883188,1110.308913,1149.143247
836.034137,-10362.883188,1110.308913,2145.067394
836.034458,-10436.903782,518.144159,2451.505594
836.034778,-10584.944971,-518.144159,2987.772442
836.035099,-10140.821405,-1702.473667,2451.505594
836.035420,-9696.697840,-814.226536,2145.067394
836.035740,-9474.636058,592.164754,2451.505594
836.036061,-8216.285956,2072.576638,1838.629195
836.036382,-8216.285956,1924.535449,1685.410096
836.036702,-8216.285956,1036.288319,1072.533697
836.037023,-8956.491898,-74.020594,536.266849
836.037344,-9918.759623,-1332.370696,1072.533697
836.037664,-10066.800811,-1110.308913,612.876398
836.037985,-10436.903782,-444.123565,612.876398
836.038306,-9992.780217,592.164754,1072.533697
836.038627,-9770.718434,1850.514855,1072.533697
836.038947,-10510.924376,1554.432478,2451.505594
836.039268,-10658.965565,296.082377,2834.553343
836.039589,-10362.883188,-222.061783,2834.553343
836.039909,-10436.903782,-740.205942,2374.896044
836.040230,-9030.512492,518.144159,1838.629195
836.040551,-9104.533087,740.205942,1608.800546
836.040871,-7846.182985,962.267725,612.876398
836.041192,-7920.203579,1110.308913,-842.705048
836.041513,-8586.388927,-666.185348,-459.657299
836.041833,-9474.636058,-1924.535449,-536.266849
836.042154,-10288.862594,-1554.432478,-612.876398
836.042475,-10510.924376,-1110.308913,-229.828649
836.042795,-10066.800811,148.041188,0.000000
836.043116,-10140.821405,518.144159,919.314598
836.043437,-10658.965565,-222.061783,1149.143247
836.043758,-10510.924376,-592.164754,1991.848295
836.044078,-10658.965565,-2072.576638,1838.629195
836.044399,-9548.656652,-1702.473667,1762.019645
836.044720,-9474.636058,-1480.411884,1455.581446
836.045040,-8586.388927,-444.123565,1225.752797
836.045361,-7550.100608,0.000000,1838.629195
836.045682,-7550.100608,-740.205942,766.095498
836.046002,-8364.327145,-1628.453072,306.438199
836.046323,-9030.512492,-2812.782580,229.828649
836.046644,-9622.677246,-3108.864956,76.609550
836.046964,-10066.800811,-2442.679609,459.657299
836.047285,-10214.842000,-1258.350101,689.485948
836.047606,-9992.780217,0.000000,1608.800546
836.047927,-10510.924376,222.061783,2298.286494
836.048247,-10214.842000,-592.164754,2451.505594
836.048568,-10732.986159,-1332.370696,2528.115143
836.048889,-9992.780217,-444.123565,2068.457845
836.049209,-10066.800811,222.061783,1302.362347
836.049530,-9400.615463,1628.453072,1378.971896
836.049851,-8068.244768,1628.453072,919.314598
836.050171,-7476.080014,740.205942,0.000000
836.050492,-8290.306550,-444.123565,0.000000
836.050813,-9548.656652,-1480.411884,0.000000
836.051133,-10066.800811,-2146.597232,0.000000
836.051454,-10584.944971,-1406.391290,153.219100
836.051775,-10807.006753,74.020594,842.705048
836.052095,-10955.047942,1110.308913,1455.581446
836.052416,-10436.903782,1110.308913,1838.629195
836.052737,-10955.047942,740.205942,2298.286494
836.053058,-10807.006753,-370.102971,2145.067394
836.053378,-10658.965565,-1184.329507,1915.238745
836.053699,-10214.842000,-444.123565,1072.533697
836.054020,-9104.533087,0.000000,1455.581446
836.054340,-8216.285956,666.185348,1378.971896
836.054661,-8142.265362,296.082377,1302.362347
836.054982,-8068.244768,-222.061783,383.047749
836.055302,-8808.450710,-1332.370696,459.657299
836.055623,-9474.636058,-814.226536,229.828649
836.055944,-10066.800811,-1036.288319,306.438199
836.056264,-10288.862594,0.000000,689.485948
836.056585,-9918.759623,370.102971,306.438199
836.056906,-9474.636058,666.185348,1149.143247
836.057227,-10214.842000,74.020594,2145.067394
836.057547,-10066.800811,-592.164754,1915.238745
836.057868,-10140.821405,-1036.288319,3140.991542
836.058189,-9474.636058,222.061783,1915.238745
836.058509,-9030.512492,1184.329507,1762.019645
836.058830,-8216.285956,2220.617826,1378.971896
836.059151,-7920.203579,2146.597232,306.438199
836.059471,-8216.285956,888.247130,229.828649
836.059792,-9030.512492,-370.102971,0.000000
836.060113,-9474.636058,-1554.432478,0.000000
836.060433,-9770.718434,-1776.494261,0.000000
836.060754,-9474.636058,-740.205942,-76.609550
836.061075,-10288.862594,814.226536,153.219100
836.061395,-10066.800811,1332.370696,459.657299
836.061716,-10658.965565,1036.288319,1302.362347
836.062037,-10732.986159,888.247130,689.485948
836.062358,-10510.924376,-814.226536,2145.067394
836.062678,-10732.986159,-962.267725,2068.457845
836.062999,-9622.677246,-296.082377,2298.286494
836.063320,-9030.512492,444.123565,1915.238745
836.063640,-8438.347739,518.144159,1455.581446
836.063961,-8216.285956,0.000000,1149.143247
836.064282,-9178.553681,-888.247130,306.438199
836.064602,-9474.636058,-1924.535449,536.266849
836.064923,-9622.677246,-2738.761985,229.828649
836.065244,-10214.842000,-1998.556043,229.828649
836.065564,-10510.924376,-592.164754,306.438199
836.065885,-10140.821405,148.041188,1072.533697
836.066206,-10362.883188,296.082377,3140.991542
836.066526,-10510.924376,-444.123565,2834.553343
836.066847,-10658.965565,-1480.411884,2681.334243
836.067168,-10214.842000,-1776.494261,2298.286494
836.067489,-9696.697840,-1406.391290,1915.238745
836.067809,-8142.265362,-370.102971,1762.019645
836.068130,-7698.141797,-74.020594,459.657299
836.068451,-7476.080014,0.000000,229.828649
836.068771,-8068.244768,-1184.329507,76.609550
836.069092,-9104.533087,-2368.659014,536.266849
836.069413,-9548.656652,-2812.782580,76.609550
836.069733,-10066.800811,-2960.823768,-76.609550
836.070054,-10140.821405,-2072.576638,0.000000
836.070375,-9918.759623,-666.185348,689.485948
836.070695,-9696.697840,0.000000,1225.752797
836.071016,-10066.800811,296.082377,1532.190996
836.071337,-10066.800811,-296.082377,1455.581446
836.071658,-10214.842000,-592.164754,1838.629195
836.071978,-10140.821405,-814.226536,1762.019645
836.072299,-9030.512492,-592.164754,1608.800546
836.072620,-8586.388927,-296.082377,1378.971896
836.072940,-8216.285956,-444.123565,536.266849
836.073261,-8216.285956,-962.267725,383.047749
836.073582,-9770.718434,-1258.350101,-229.828649
836.073902,-9548.656652,-2368.659014,0.000000
836.074223,-9844.739029,-2294.638420,-76.609550
836.074544,-10510.924376,-1258.350101,0.000000
836.074864,-10510.924376,222.061783,842.705048
836.075185,-10510.924376,1406.391290,1685.410096
836.075506,-11103.089130,888.247130,2528.115143
836.075826,-10584.944971,0.000000,2757.943793
836.076147,-11103.089130,-1258.350101,2681.334243
836.076468,-10584.944971,-962.267725,2068.457845
836.076789,-9252.574275,-148.041188,1532.190996
836.077109,-8364.327145,1184.329507,1378.971896
836.077430,-7920.203579,1776.494261,689.485948
836.077751,-7994.224174,888.247130,0.000000
836.078071,-8882.471304,0.000000,153.219100
836.078392,-9474.636058,-1702.473667,-306.438199
836.078713,-10288.862594,-2146.597232,0.000000
836.079033,-10510.924376,-1480.411884,153.219100
836.079354,-11029.068536,-444.123565,76.609550
836.079675,-9844.739029,814.226536,1302.362347
836.079995,-10288.862594,888.247130,1072.533697
836.080316,-10584.944971,962.267725,1991.848295
836.080637,-10658.965565,222.061783,1991.848295
836.080958,-10140.821405,370.102971,1915.238745
836.081278,-9030.512492,518.144159,1685.410096
836.081599,-8660.409521,444.123565,1149.143247
836.081920,-8068.244768,740.205942,1225.752797
836.082240,-8290.306550,296.082377,1225.752797
836.082561,-8290.306550,0.000000,536.266849
836.082882,-9252.574275,-740.205942,76.609550
836.083202,-9770.718434,-888.247130,0.000000
836.083523,-10436.903782,74.020594,0.000000
836.083844,-9992.780217,888.247130,383.047749
836.084164,-9548.656652,1332.370696,766.095498
836.084485,-9992.780217,1480.411884,1455.581446
836.084806,-10658.965565,444.123565,2374.896044
836.085126,-10140.821405,-888.247130,2604.724693
836.085447,-10288.862594,-1110.308913,2528.115143
836.085768,-9844.739029,-296.082377,2145.067394
836.086089,-8586.388927,592.164754,1838.629195
836.086409,-7994.224174,1480.411884,612.876398
836.086730,-8068.244768,740.205942,612.876398
836.087051,-8216.285956,-740.205942,76.609550
836.087371,-8734.430116,-1924.535449,-306.438199
836.087692,-9548.656652,-2146.597232,766.095498
836.088013,-10362.883188,-1776.494261,153.219100
836.088333,-10584.944971,-666.185348,995.924147
836.088654,-10288.862594,148.041188,1225.752797
836.088975,-10214.842000,0.000000,1838.629195
836.089295,-10288.862594,-518.144159,2604.724693
836.089616,-10955.047942,-888.247130,2834.553343
836.089937,-10214.842000,-1480.411884,2451.505594
836.090258,-9770.718434,-1184.329507,2374.896044
836.090578,-9030.512492,-1036.288319,1455.581446
836.090899,-8142.265362,-296.082377,1149.143247
836.091220,-7994.224174,-666.185348,689.485948
836.091540,-8586.388927,-1258.350101,689.485948
836.091861,-9104.533087,-1850.514855,536.266849
836.092182,-9696.697840,-2368.659014,229.828649
836.092502,-9992.780217,-1554.432478,383.047749
836.092823,-10436.903782,-814.226536,612.876398
836.093144,-9992.780217,0.000000,766.095498
836.093464,-10362.883188,592.164754,1072.533697
836.093785,-9992.780217,0.000000,1455.581446
836.094106,-10288.862594,-1258.350101,1685.410096
836.094426,-10436.903782,-1184.329507,2068.457845
836.094747,-10066.800811,-666.185348,2068.457845
836.095068,-9030.512492,-666.185348,1378.971896
836.095388,-8512.368333,74.020594,766.095498
836.095709,-7994.224174,0.000000,76.609550
836.096030,-8290.306550,-370.102971,995.924147
836.096350,-8808.450710,-1184.329507,-306.438199
836.096671,-9252.574275,-1850.514855,-383.047749
836.096992,-10214.842000,-1554.432478,-229.828649
836.097312,-10362.883188,-814.226536,153.219100
836.097633,-10214.842000,222.061783,612.876398
836.097954,-10214.842000,1184.329507,1378.971896
836.098274,-10807.006753,740.205942,1838.629195
836.098595,-10510.924376,0.000000,2145.067394
836.098916,-10436.903782,-592.164754,1685.410096
836.099236,-9918.759623,-740.205942,2145.067394
836.099557,-9474.636058,-222.061783,1685.410096
836.099878,-8438.347739,74.020594,1378.971896
836.100198,-8364.327145,370.102971,1455.581446
836.100519,-8216.285956,-370.102971,766.095498
836.100840,-8586.388927,-740.205942,459.657299
836.101161,-9548.656652,-1332.370696,689.485948
836.101481,-10140.821405,-1258.350101,536.266849
836.101802,-10658.965565,-962.267725,0.000000
836.102123,-10214.842000,296.082377,1225.752797
836.102443,-9844.739029,1036.288319,1838.629195
836.102764,-10658.965565,1258.350101,2451.505594
836.103085,-10658.965565,666.185348,1762.019645
836.103405,-10362.883188,-666.185348,2451.505594
836.103726,-10066.800811,-592.164754,2068.457845
836.104047,-9548.656652,74.020594,1762.019645
836.104367,-8364.327145,962.267725,1149.143247
836.104688,-8142.265362,1924.535449,536.266849
836.105009,-8216.285956,1702.473667,383.047749
836.105329,-8882.471304,1184.329507,383.047749
836.105650,-9696.697840,-148.041188,459.657299
836.105971,-8734.430116,-1036.288319,766.095498
836.106291,-10362.883188,-1110.308913,306.438199
836.106612,-10066.800811,0.000000,383.047749
836.106933,-9992.780217,962.267725,919.314598
836.107253,-10288.862594,1332.370696,1532.190996
836.107574,-10658.965565,1258.350101,2528.115143
836.107895,-10584.944971,0.000000,1762.019645
836.108215,-10436.903782,-296.082377,1762.019645
836.108536,-9992.780217,0.000000,1378.971896
836.108857,-9252.574275,518.144159,1685.410096
836.109177,-8216.285956,740.205942,1072.533697
836.109498,-8882.471304,-370.102971,919.314598
836.109819,-8438.347739,-1258.350101,0.000000
836.110139,-9844.739029,-2442.679609,-536.266849
836.110460,-9844.739029,-2664.741391,-612.876398
836.110781,-9992.780217,-1110.308913,-229.828649
836.111101,-10288.862594,-296.082377,76.609550
836.111422,-9844.739029,1184.329507,689.485948
836.111743,-10066.800811,666.185348,1532.190996
836.112063,-10658.965565,-296.082377,2298.286494
836.112384,-10288.862594,-1332.370696,2298.286494
836.112705,-10066.800811,-1776.494261,1685.410096
836.113025,-9548.656652,-592.164754,1838.629195
836.113346,-8660.409521,222.061783,1378.971896
836.113667,-7994.224174,444.123565,995.924147
836.113987,-7550.100608,592.164754,76.609550
836.114308,-7920.203579,740.205942,153.219100
836.114629,-9326.594869,-1332.370696,459.657299
836.114949,-9918.759623,-2368.659014,459.657299
836.115270,-9918.759623,-2294.638420,689.485948
836.115591,-10066.800811,-666.185348,1532.190996
836.115911,-9918.759623,-518.144159,842.705048
836.116232,-9844.739029,296.082377,1608.800546
836.116553,-10436.903782,-148.041188,1685.410096
836.116873,-10140.821405,-444.123565,1991.848295
836.117194,-10288.862594,-1332.370696,1608.800546
836.117515,-9696.697840,-740.205942,1225.752797
836.117835,-9252.574275,-296.082377,1378.971896
836.118156,-8438.347739,222.061783,1532.190996
836.118477,-8364.327145,370.102971,1532.190996
836.118797,-8438.347739,-518.144159,229.828649
836.119118,-9252.574275,-1628.453072,76.609550
836.119439,-9622.677246,-2294.638420,306.438199
836.119759,-10288.862594,-1998.556043,1762.019645
836.120080,-10214.842000,-888.247130,689.485948
836.120401,-10140.821405,0.000000,842.705048
836.120721,-10288.862594,740.205942,1838.629195
836.121042,-11103.089130,592.164754,2528.115143
836.121363,-10732.986159,-518.144159,2757.943793
836.121683,-10807.006753,-1110.308913,3140.991542
836.122004,-10584.944971,-1036.288319,2528.115143
836.122325,-9326.594869,0.000000,2068.457845
836.122645,-8808.450710,814.226536,1149.143247
836.122966,-7698.141797,1702.473667,842.705048
836.123287,-7772.162391,814.226536,0.000000
836.123607,-8512.368333,74.020594,-383.047749
836.123928,-9252.574275,-1406.391290,-2145.067394
836.124249,-10214.842000,-1480.411884,-306.438199
836.124569,-10362.883188,-666.185348,229.828649
836.124890,-10362.883188,0.000000,459.657299
836.125211,-10436.903782,1110.308913,1455.581446
836.125531,-10584.944971,1406.391290,1838.629195
836.125852,-10362.883188,518.144159,1838.629195
836.126173,-10140.821405,-444.123565,1685.410096
836.126493,-9696.697840,-592.164754,1072.533697
836.126814,-9104.533087,1702.473667,1149.143247
836.127135,-9030.512492,1184.329507,1072.533697
836.127455,-8216.285956,962.267725,1302.362347
836.127776,-8142.265362,444.123565,459.657299
836.128097,-8734.430116,-740.205942,2068.457845
836.128417,-9326.594869,-1998.556043,0.000000
836.128738,-9770.718434,-1924.535449,0.000000
836.129059,-9844.739029,-1480.411884,229.828649
836.129379,-9918.759623,148.041188,306.438199
836.129700,-9548.656652,1554.432478,995.924147
836.130021,-10436.903782,1628.453072,2068.457845
836.130342,-10881.027347,1406.391290,2757.943793
836.130662,-10807.006753,296.082377,2834.553343
836.130983,-10584.944971,0.000000,3370.820191
836.131304,-10066.800811,-148.041188,2221.676944
836.131624,-9178.553681,148.041188,1991.848295
836.131945,-8068.244768,1184.329507,995.924147
836.132266,-7698.141797,1184.329507,-229.828649
836.132586,-7846.182985,-148.041188,0.000000
836.132907,-8956.491898,-1554.432478,-612.876398
836.133228,-9770.718434,-1480.411884,-306.438199
836.133548,-10214.842000,-888.247130,-76.609550
836.133869,-10288.862594,74.020594,1302.362347
836.134190,-10658.965565,740.205942,1608.800546
836.134510,-10658.965565,444.123565,2221.676944
836.134831,-10881.027347,-370.102971,2221.676944
836.135152,-11251.130318,-1184.329507,2528.115143
836.135472,-10510.924376,-1924.535449,2451.505594
836.135793,-9992.780217,-2072.576638,2145.067394
836.136114,-8808.450710,-1480.411884,1608.800546
836.136434,-8068.244768,444.123565,1455.581446
836.136755,-7624.121203,-296.082377,229.828649
836.137076,-8068.244768,-1258.350101,459.657299
836.137396,-8882.471304,-2368.659014,0.000000
836.137717,-9474.636058,-3182.885551,76.609550
836.138038,-9844.739029,-3108.864956,229.828649
836.138358,-10436.903782,-1998.556043,919.314598
836.138679,-10214.842000,-444.123565,1072.533697
836.139000,-10288.862594,518.144159,1762.019645
836.139320,-10732.986159,370.102971,3370.820191
836.139641,-10362.883188,-592.164754,2604.724693
836.139962,-10066.800811,-1924.535449,2068.457845
836.140282,-9548.656652,-1480.411884,1685.410096
836.140603,-9030.512492,-370.102971,1225.752797
836.140924,-8364.327145,148.041188,612.876398
836.141244,-7402.059420,444.123565,229.828649
836.141565,-8438.347739,-148.041188,0.000000
836.141886,-8660.409521,-518.144159,-383.047749
836.142206,-10140.821405,-1628.453072,-689.485948
836.142527,-9474.636058,-592.164754,-229.828649
836.142848,-10955.047942,-814.226536,-383.047749
836.143168,-9992.780217,740.205942,536.266849
836.143489,-10658.965565,1258.350101,2298.286494
836.143810,-10955.047942,592.164754,2145.067394
836.144130,-10436.903782,666.185348,2221.676944
836.144451,-11029.068536,-814.226536,2451.505594
836.144772,-9696.697840,-148.041188,3600.648841
836.145092,-9770.718434,74.020594,1532.190996
836.145413,-8660.409521,444.123565,1072.533697
836.145734,-7846.182985,814.226536,689.485948
836.146054,-7846.182985,0.000000,76.609550
836.146375,-8660.409521,-740.205942,76.609550
836.146696,-9474.636058,-2146.597232,153.219100
836.147016,-10214.842000,-2072.576638,0.000000
836.147337,-10214.842000,-1184.329507,153.219100
836.147658,-10732.986159,518.144159,612.876398
836.147978,-9844.739029,1110.308913,2068.457845
836.148299,-10658.965565,1110.308913,2528.115143
836.148620,-10288.862594,888.247130,3064.381992
836.148940,-10732.986159,74.020594,4290.134789
836.149261,-9992.780217,-148.041188,2757.943793
836.149582,-9474.636058,74.020594,2145.067394
836.149902,-8882.471304,1110.308913,1838.629195
836.150223,-7698.141797,1258.350101,536.266849
836.150544,-7328.038826,740.205942,229.828649
836.150864,-8216.285956,0.000000,0.000000
836.151185,-8882.471304,-1184.329507,0.000000
836.151506,-9770.718434,-962.267725,-229.828649
836.151826,-10362.883188,-444.123565,-229.828649
836.152147,-10288.862594,814.226536,919.314598
836.152468,-9992.780217,1480.411884,1302.362347
836.152788,-10510.924376,1702.473667,2221.676944
836.153109,-10807.006753,1628.453072,2987.772442
836.153430,-11251.130318,0.000000,3140.991542
836.153750,-10658.965565,-592.164754,3140.991542
836.154071,-10658.965565,-296.082377,2757.943793
836.154392,-9474.636058,0.000000,2528.115143
836.154712,-8586.388927,814.226536,1225.752797
836.155033,-8290.306550,518.144159,766.095498
836.155354,-8068.244768,-148.041188,-612.876398
836.155674,-9104.533087,-1110.308913,-612.876398
836.155995,-9770.718434,-1850.514855,-1225.752797
836.156316,-10288.862594,-1258.350101,-383.047749
836.156636,-10584.944971,-444.123565,76.609550
836.156957,-10362.883188,666.185348,766.095498
836.157278,-10732.986159,666.185348,1378.971896
836.157598,-10807.006753,222.061783,1532.190996
836.157919,-10362.883188,-222.061783,1225.752797
836.158240,-9992.780217,-962.267725,1302.362347
836.158561,-9400.615463,-962.267725,995.924147
836.158881,-8586.388927,-888.247130,919.314598
836.159202,-7698.141797,-222.061783,0.000000
836.159523,-7624.121203,-740.205942,-766.095498
836.159843,-7772.162391,-1036.288319,-612.876398
836.160164,-8956.491898,-1850.514855,536.266849
836.160485,-9548.656652,-2664.741391,76.609550
836.160805,-10436.903782,-2812.782580,-229.828649
836.161126,-10214.842000,-1480.411884,0.000000
836.161447,-10288.862594,74.020594,-76.609550
836.161767,-10066.800811,592.164754,1455.581446
836.162088,-10584.944971,592.164754,1838.629195
836.162409,-10140.821405,0.000000,2145.067394
836.162729,-9992.780217,-666.185348,1991.848295
836.163050,-9992.780217,-518.144159,2604.724693
836.163371,-9474.636058,222.061783,2451.505594
836.163691,-9104.533087,740.205942,2145.067394
836.164012,-8290.306550,666.185348,1762.019645
836.164333,-8142.265362,296.082377,1072.533697
836.164653,-8586.388927,-1480.411884,842.705048
836.164974,-9844.739029,-2146.597232,612.876398
836.165295,-10214.842000,-2368.659014,229.828649
836.165615,-10140.821405,-1850.514855,76.609550
836.165936,-10214.842000,-740.205942,459.657299
836.166257,-10214.842000,296.082377,1302.362347
836.166577,-10584.944971,148.041188,2451.505594
836.166898,-11103.089130,-370.102971,3140.991542
836.167219,-10732.986159,-1628.453072,2451.505594
836.167539,-10214.842000,-1702.473667,2681.334243
836.167860,-9474.636058,-1184.329507,2145.067394
836.168181,-8438.347739,-518.144159,1455.581446
836.168501,-7105.977043,74.020594,1455.581446
836.168822,-7402.059420,-222.061783,153.219100
836.169143,-8216.285956,-962.267725,-76.609550
836.169463,-9400.615463,-1998.556043,-76.609550
836.169784,-9918.759623,-1554.432478,0.000000
836.170105,-10584.944971,-1110.308913,229.828649
836.170425,-10288.862594,74.020594,689.485948
836.170746,-10066.800811,814.226536,842.705048
836.171067,-10288.862594,666.185348,1455.581446
836.171387,-10288.862594,74.020594,1915.238745
836.171708,-10066.800811,-888.247130,2374.896044
836.172029,-9992.780217,-1332.370696,2068.457845
836.172349,-9696.697840,-296.082377,1991.848295
836.172670,-9474.636058,518.144159,1455.581446
836.172991,-8142.265362,1406.391290,1225.752797
836.173311,-8068.244768,592.164754,1225.752797
836.173632,-8512.368333,0.000000,0.000000
836.173953,-9178.553681,-962.267725,-1149.143247
836.174273,-9918.759623,-1258.350101,-612.876398
836.174594,-9992.780217,-740.205942,-766.095498
836.174915,-10214.842000,296.082377,-383.047749
836.175235,-10362.883188,1480.411884,153.219100
