#time,accel_x,accel_y,accel_z
815.435939,-9474.636058,-2146.597232,229.828649
815.436260,-10066.800811,-1998.556043,76.609550
815.436580,-10140.821405,-1258.350101,459.657299
815.436901,-10362.883188,0.000000,766.095498
815.437222,-10807.006753,-592.164754,919.314598
815.437542,-10362.883188,-592.164754,842.705048
815.437863,-10214.842000,-962.267725,766.095498
815.438184,-9992.780217,-592.164754,919.314598
815.438504,-9844.739029,-444.123565,766.095498
815.438825,-9918.759623,-444.123565,1225.752797
815.439146,-9400.615463,-518.144159,536.266849
815.439466,-9474.636058,-370.102971,536.266849
815.439787,-9992.780217,-592.164754,306.438199
815.440108,-9474.636058,-1184.329507,689.485948
815.440429,-9622.677246,-1406.391290,459.657299
815.440749,-9474.636058,-1776.494261,689.485948
815.441070,-9400.615463,-2294.638420,-1608.800546
815.441391,-9548.656652,-2442.679609,612.876398
815.441711,-9474.636058,-2886.803174,842.705048
815.442032,-9474.636058,-2590.720797,306.438199
815.442353,-9474.636058,-3034.844362,153.219100
815.442673,-8808.450710,-3330.926739,0.000000
815.442994,-8882.471304,-2960.823768,0.000000
815.443315,-8882.471304,-2960.823768,76.609550
815.443635,-8808.450710,-2738.761985,-383.047749
815.443956,-8290.306550,-2664.741391,-919.314598
815.444277,-8882.471304,-2664.741391,-1608.800546
815.444597,-8882.471304,-2368.659014,-2145.067394
815.444918,-8808.450710,-2664.741391,-2757.943793
815.445239,-8734.430116,-3552.988522,-4826.401637
815.445559,-9030.512492,-2960.823768,-3830.477490
815.445880,-9474.636058,-3330.926739,-4213.525239
815.446201,-9622.677246,-3552.988522,-4443.353888
815.446521,-9696.697840,-3404.947333,-4826.401637
815.446842,-9918.759623,-3404.947333,-5132.839837
815.447163,-9770.718434,-3256.906145,-5209.449386
815.447483,-10066.800811,-3478.967927,-5209.449386
815.447804,-10066.800811,-3478.967927,-5286.058936
815.448125,-9252.574275,-4293.194464,-5362.668486
815.448445,-9770.718434,-3478.967927,-4903.011187
815.448766,-9844.739029,-3182.885551,-4366.744339
815.449087,-9918.759623,-2664.741391,-3753.867940
815.449407,-9696.697840,-2960.823768,-1762.019645
815.449728,-10214.842000,-2738.761985,-2221.676944
815.450049,-10140.821405,-3182.885551,-1532.190996
815.450369,-10140.821405,-3478.967927,-1302.362347
815.450690,-9770.718434,-3552.988522,-1072.533697
815.451011,-9474.636058,-3404.947333,-1149.143247
815.451331,-9696.697840,-3256.906145,-766.095498
815.451652,-9400.615463,-3404.947333,-612.876398
815.451973,-9400.615463,-2960.823768,0.000000
815.452294,-9844.739029,-3034.844362,76.609550
815.452614,-9992.780217,-2664.741391,1455.581446
815.452935,-10214.842000,-2294.638420,2374.896044
815.453256,-10288.862594,-1924.535449,2987.772442
815.453576,-10436.903782,-1998.556043,3600.648841
815.453897,-9992.780217,-2368.659014,2911.162892
815.454218,-9104.533087,-2368.659014,1991.848295
815.454538,-8734.430116,-1850.514855,1072.533697
815.454859,-8734.430116,-1554.432478,689.485948
815.455180,-8438.347739,-1480.411884,153.219100
815.455500,-8660.409521,-1258.350101,383.047749
815.455821,-8956.491898,-1258.350101,459.657299
815.456142,-9844.739029,-1110.308913,1608.800546
815.456462,-10214.842000,-1036.288319,2528.115143
815.456783,-10510.924376,-1110.308913,2987.772442
815.457104,-10288.862594,-740.205942,3447.429741
815.457424,-9844.739029,-592.164754,3140.991542
815.457745,-10214.842000,296.082377,2528.115143
815.458066,-9326.594869,296.082377,2681.334243
815.458386,-8956.491898,962.267725,2298.286494
815.458707,-9104.533087,1702.473667,1915.238745
815.459028,-8882.471304,1776.494261,2068.457845
815.459348,-9326.594869,2072.576638,1838.629195
815.459669,-9178.553681,1480.411884,1915.238745
815.459990,-9474.636058,1184.329507,1225.752797
815.460310,-9770.718434,814.226536,766.095498
815.460631,-8956.491898,518.144159,612.876398
815.460951,-9918.759623,814.226536,-229.828649
815.461272,-9992.780217,1110.308913,-995.924147
815.461593,-10214.842000,1406.391290,-1532.190996
815.461913,-10584.944971,1776.494261,-1072.533697
815.462234,-10288.862594,1406.391290,-1302.362347
815.462555,-10066.800811,1036.288319,-1302.362347
815.462875,-10066.800811,814.226536,-1378.971896
815.463196,-9474.636058,666.185348,-1302.362347
815.463516,-9474.636058,888.247130,-536.266849
815.463837,-9474.636058,1184.329507,-229.828649
815.464158,-9326.594869,1480.411884,76.609550
815.464478,-9326.594869,1554.432478,766.095498
815.464799,-8586.388927,1036.288319,1838.629195
815.465120,-9548.656652,1184.329507,1378.971896
815.465440,-9622.677246,444.123565,1838.629195
815.465761,-9548.656652,0.000000,1225.752797
815.466081,-9178.553681,0.000000,-995.924147
815.466402,-9400.615463,-1184.329507,-536.266849
815.466723,-8734.430116,-1332.370696,-1072.533697
815.467043,-9252.574275,-1258.350101,-919.314598
815.467364,-9622.677246,-888.247130,0.000000
815.467685,-9992.780217,-962.267725,459.657299
815.468005,-10214.842000,-962.267725,1302.362347
815.468326,-10584.944971,-1480.411884,2145.067394
815.468646,-10140.821405,-1184.329507,2987.772442
815.468967,-10214.842000,-1332.370696,4366.744339
815.469288,-9696.697840,-1184.329507,3753.867940
815.469608,-9104.533087,-1110.308913,3600.648841
815.469929,-8734.430116,-962.267725,3600.648841
815.470250,-8956.491898,-666.185348,4826.401637
815.470570,-8882.471304,-370.102971,3524.039291
815.470891,-9474.636058,-370.102971,3217.601092
815.471211,-9104.533087,-296.082377,2757.943793
815.471532,-9474.636058,-1110.308913,2374.896044
815.471853,-9992.780217,-1628.453072,1685.410096
815.472173,-9770.718434,-2146.597232,842.705048
815.472494,-9696.697840,-2590.720797,612.876398
815.472815,-9474.636058,-2294.638420,76.609550
815.473135,-10362.883188,-1924.535449,689.485948
815.473456,-10214.842000,-1776.494261,536.266849
815.473776,-10214.842000,-1332.370696,153.219100
815.474097,-9770.718434,-814.226536,689.485948
815.474418,-9548.656652,-814.226536,689.485948
815.474738,-9548.656652,-888.247130,1378.971896
815.475059,-9252.574275,-1406.391290,1685.410096
815.475380,-9030.512492,-1480.411884,1225.752797
815.475700,-9030.512492,-1258.350101,1225.752797
815.476021,-9104.533087,0.000000,1915.238745
815.476341,-9696.697840,444.123565,1762.019645
815.476662,-9696.697840,1036.288319,1608.800546
815.476983,-9770.718434,962.267725,766.095498
815.477303,-8734.430116,-148.041188,-536.266849
815.477624,-9548.656652,-888.247130,-842.705048
815.477945,-8808.450710,-1036.288319,-1532.190996
815.478265,-9252.574275,-1184.329507,-2068.457845
815.478586,-8808.450710,-666.185348,-1225.752797
815.478907,-10066.800811,-148.041188,-995.924147
815.479227,-9992.780217,0.000000,-229.828649
815.479548,-10362.883188,296.082377,0.000000
815.479868,-10288.862594,370.102971,689.485948
815.480189,-9622.677246,518.144159,766.095498
815.480510,-9696.697840,962.267725,1838.629195
815.480830,-9548.656652,814.226536,2374.896044
815.481151,-9178.553681,962.267725,2298.286494
815.481472,-8364.327145,1184.329507,2681.334243
815.481792,-9474.636058,1776.494261,2374.896044
815.482113,-9622.677246,2146.597232,2681.334243
815.482433,-9696.697840,1850.514855,2528.115143
815.482754,-9252.574275,1332.370696,306.438199
815.483075,-9548.656652,962.267725,1302.362347
815.483395,-9400.615463,-148.041188,842.705048
815.483716,-9474.636058,-1184.329507,689.485948
815.484037,-9400.615463,-962.267725,306.438199
815.484357,-9474.636058,-666.185348,842.705048
815.484678,-10288.862594,0.000000,1455.581446
815.484998,-10584.944971,74.020594,2068.457845
815.485319,-10510.924376,370.102971,2451.505594
815.485640,-9992.780217,74.020594,1991.848295
815.485960,-9622.677246,-296.082377,2681.334243
815.486281,-9622.677246,-296.082377,2834.553343
815.486602,-9178.553681,-296.082377,2911.162892
815.486922,-9030.512492,148.041188,2834.553343
815.487243,-9104.533087,444.123565,2604.724693
815.487563,-8882.471304,1036.288319,2451.505594
815.487884,-9474.636058,1258.350101,2374.896044
815.488205,-9548.656652,1184.329507,2374.896044
815.488525,-9474.636058,0.000000,1762.019645
815.488846,-9474.636058,-1036.288319,76.609550
815.489167,-9696.697840,-1628.453072,-536.266849
815.489487,-9474.636058,-1480.411884,-1532.190996
815.489808,-9474.636058,-1924.535449,-2068.457845
815.490128,-9622.677246,-740.205942,-612.876398
815.490449,-10066.800811,-1110.308913,-919.314598
815.490770,-9918.759623,-666.185348,-383.047749
815.491090,-9918.759623,-1184.329507,0.000000
815.491411,-10140.821405,-814.226536,766.095498
815.491732,-9696.697840,-1406.391290,1149.143247
815.492052,-9030.512492,-962.267725,842.705048
815.492373,-9104.533087,-814.226536,995.924147
815.492693,-8586.388927,-444.123565,306.438199
815.493014,-9104.533087,0.000000,1225.752797
815.493335,-9474.636058,518.144159,1149.143247
815.493655,-9696.697840,518.144159,1225.752797
815.493976,-9474.636058,148.041188,919.314598
815.494297,-9770.718434,-148.041188,536.266849
815.494617,-9918.759623,-1702.473667,-153.219100
815.494938,-9844.739029,-2072.576638,-842.705048
815.495258,-9548.656652,-1998.556043,-689.485948
815.495579,-9548.656652,-1480.411884,-612.876398
815.495900,-10066.800811,-1480.411884,-306.438199
815.496220,-9844.739029,-1036.288319,306.438199
815.496541,-10214.842000,-1332.370696,306.438199
815.496862,-9622.677246,-888.247130,766.095498
815.497182,-9844.739029,-1110.308913,1149.143247
815.497503,-9400.615463,-740.205942,1991.848295
815.497823,-9474.636058,-1036.288319,2221.676944
815.498144,-9178.553681,-666.185348,2221.676944
815.498465,-9252.574275,-222.061783,2528.115143
815.498785,-9252.574275,0.000000,4290.134789
815.499106,-9696.697840,0.000000,3447.429741
815.499427,-9622.677246,0.000000,3370.820191
815.499747,-9474.636058,-518.144159,2451.505594
815.500068,-9104.533087,-962.267725,2068.457845
815.500388,-9252.574275,-1850.514855,612.876398
815.500709,-9030.512492,-1554.432478,0.000000
815.501030,-8956.491898,-1110.308913,-306.438199
815.501350,-9474.636058,-296.082377,76.609550
815.501671,-9992.780217,518.144159,919.314598
815.501992,-10288.862594,-444.123565,919.314598
815.502312,-10140.821405,-740.205942,1302.362347
815.502633,-10214.842000,-1036.288319,1378.971896
815.502953,-9918.759623,-888.247130,1838.629195
815.503274,-9770.718434,-518.144159,2145.067394
815.503595,-9104.533087,0.000000,2068.457845
815.503915,-9178.553681,222.061783,1838.629195
815.504236,-9030.512492,1184.329507,1915.238745
815.504557,-9696.697840,1776.494261,1762.019645
815.504877,-9770.718434,1480.411884,2145.067394
815.505198,-9844.739029,1480.411884,1685.410096
815.505519,-9844.739029,370.102971,842.705048
815.505839,-9622.677246,0.000000,153.219100
815.506160,-9548.656652,-518.144159,-689.485948
815.506480,-9622.677246,-296.082377,-766.095498
815.506801,-9918.759623,0.000000,-919.314598
815.507122,-10362.883188,0.000000,-536.266849
815.507442,-10214.842000,0.000000,-383.047749
815.507763,-10436.903782,-296.082377,-612.876398
815.508084,-10140.821405,-518.144159,229.828649
815.508404,-9770.718434,-370.102971,383.047749
815.508725,-10066.800811,-370.102971,1608.800546
815.509045,-9326.594869,-296.082377,1378.971896
815.509366,-9252.574275,-296.082377,1685.410096
815.509687,-9474.636058,0.000000,2068.457845
815.510007,-9622.677246,370.102971,2528.115143
815.510328,-9918.759623,592.164754,2834.553343
815.510649,-9918.759623,1110.308913,2604.724693
815.510969,-9548.656652,444.123565,2298.286494
815.511290,-9474.636058,-370.102971,1302.362347
815.511610,-9326.594869,-1110.308913,306.438199
815.511931,-9104.533087,-1776.494261,-995.924147
815.512252,-8882.471304,-1554.432478,-1225.752797
815.512572,-9252.574275,-1480.411884,-1225.752797
815.512893,-9622.677246,-1554.432478,0.000000
815.513214,-9992.780217,-1110.308913,-383.047749
815.513534,-9622.677246,-740.205942,536.266849
815.513855,-10140.821405,-592.164754,1378.971896
815.514175,-9844.739029,-740.205942,2221.676944
815.514496,-9696.697840,-962.267725,2451.505594
815.514817,-9400.615463,-592.164754,2757.943793
815.515137,-9104.533087,-740.205942,2451.505594
815.515458,-8882.471304,-222.061783,2911.162892
815.515779,-9474.636058,444.123565,2528.115143
815.516099,-9326.594869,296.082377,2451.505594
815.516420,-9474.636058,370.102971,2221.676944
815.516740,-9622.677246,-74.020594,1455.581446
815.517061,-9622.677246,-962.267725,1685.410096
815.517382,-9622.677246,-1554.432478,0.000000
815.517702,-9474.636058,-1924.535449,-383.047749
815.518023,-9474.636058,-1406.391290,-766.095498
815.518344,-9918.759623,-1110.308913,-153.219100
815.518664,-10214.842000,-518.144159,383.047749
815.518985,-10436.903782,-518.144159,842.705048
815.519305,-10066.800811,-444.123565,919.314598
815.519626,-9844.739029,-222.061783,1225.752797
815.519947,-9918.759623,-296.082377,2221.676944
815.520267,-9474.636058,-592.164754,1838.629195
815.520588,-9104.533087,-666.185348,1532.190996
815.520909,-9178.553681,-222.061783,1991.848295
815.521229,-9178.553681,0.000000,1915.238745
815.521550,-9474.636058,740.205942,2528.115143
815.521870,-9918.759623,888.247130,2221.676944
815.522191,-10066.800811,814.226536,2298.286494
815.522512,-9770.718434,-148.041188,689.485948
815.522832,-9474.636058,-888.247130,153.219100
815.523153,-9400.615463,-1332.370696,-995.924147
815.523474,-9030.512492,-814.226536,-1302.362347
815.523794,-9474.636058,-222.061783,-995.924147
815.524115,-9622.677246,370.102971,-536.266849
815.524435,-9992.780217,148.041188,-612.876398
815.524756,-10214.842000,148.041188,229.828649
815.525077,-10214.842000,0.000000,1072.533697
815.525397,-9770.718434,-592.164754,1149.143247
815.525718,-9474.636058,-592.164754,1915.238745
815.526039,-9178.553681,-444.123565,2145.067394
815.526359,-8882.471304,0.000000,2451.505594
815.526680,-9030.512492,222.061783,2374.896044
815.527000,-9030.512492,814.226536,2604.724693
815.527321,-9400.615463,1036.288319,2604.724693
815.527642,-9770.718434,666.185348,2604.724693
815.527962,-9548.656652,0.000000,2221.676944
815.528283,-9696.697840,-1110.308913,1532.190996
815.528604,-9770.718434,-1554.432478,919.314598
815.528924,-9474.636058,-1924.535449,306.438199
815.529245,-9474.636058,-1628.453072,229.828649
815.529565,-9622.677246,-1332.370696,919.314598
815.529886,-9918.759623,-296.082377,459.657299
815.530207,-10288.862594,0.000000,766.095498
815.530527,-10140.821405,148.041188,995.924147
815.530848,-10066.800811,74.020594,383.047749
815.531169,-9844.739029,-148.041188,1915.238745
815.531489,-9548.656652,-222.061783,1991.848295
815.531810,-9474.636058,0.000000,2451.505594
815.532131,-9474.636058,296.082377,2298.286494
815.532451,-9474.636058,962.267725,2987.772442
815.532772,-9548.656652,1406.391290,2911.162892
815.533092,-10288.862594,1480.411884,3294.210641
815.533413,-10066.800811,1110.308913,2451.505594
815.533734,-9918.759623,444.123565,2068.457845
815.534054,-9252.574275,-444.123565,153.219100
815.534375,-9474.636058,-1110.308913,-459.657299
815.534696,-9030.512492,-1332.370696,-1608.800546
815.535016,-8956.491898,-814.226536,-3830.477490
815.535337,-9252.574275,-518.144159,-1302.362347
815.535657,-9918.759623,-222.061783,-459.657299
815.535978,-10214.842000,-666.185348,153.219100
815.536299,-10288.862594,-666.185348,612.876398
815.536619,-10066.800811,-1332.370696,1072.533697
815.536940,-9918.759623,-1332.370696,1532.190996
815.537261,-9030.512492,-1554.432478,1838.629195
815.537581,-8882.471304,-1184.329507,1532.190996
815.537902,-7846.182985,-666.185348,1608.800546
815.538222,-8364.327145,666.185348,1991.848295
815.538543,-9104.533087,888.247130,2298.286494
815.538864,-9400.615463,1110.308913,2145.067394
815.539184,-9696.697840,296.082377,1225.752797
815.539505,-9326.594869,-444.123565,1072.533697
815.539826,-9696.697840,-1110.308913,459.657299
815.540146,-9474.636058,-1480.411884,383.047749
815.540467,-9622.677246,-1628.453072,0.000000
815.540787,-9400.615463,-1184.329507,0.000000
815.541108,-9918.759623,-740.205942,0.000000
815.541429,-10066.800811,-222.061783,229.828649
815.541749,-10584.944971,-370.102971,459.657299
815.542070,-10140.821405,-518.144159,1378.971896
815.542391,-9918.759623,-592.164754,1532.190996
815.542711,-9548.656652,-666.185348,1915.238745
815.543032,-9474.636058,-1036.288319,1838.629195
815.543352,-9252.574275,-296.082377,1455.581446
815.543673,-9548.656652,0.000000,2528.115143
815.543994,-9548.656652,814.226536,2757.943793
815.544314,-10066.800811,1332.370696,2834.553343
815.544635,-10214.842000,962.267725,2987.772442
815.544956,-9474.636058,222.061783,2528.115143
815.545276,-9844.739029,-592.164754,1149.143247
815.545597,-9548.656652,-1406.391290,0.000000
815.545917,-9252.574275,-1110.308913,-995.924147
815.546238,-9178.553681,-962.267725,-1072.533697
815.546559,-9474.636058,-370.102971,-995.924147
815.546879,-9622.677246,-222.061783,-536.266849
815.547200,-9992.780217,-592.164754,153.219100
815.547521,-10214.842000,-592.164754,459.657299
815.547841,-10732.986159,-962.267725,1072.533697
815.548162,-10066.800811,-962.267725,1838.629195
815.548482,-9474.636058,-1036.288319,2068.457845
815.548803,-9104.533087,-1036.288319,2374.896044
815.549124,-9104.533087,-296.082377,2374.896044
815.549444,-8956.491898,0.000000,2298.286494
815.549765,-9400.615463,518.144159,2528.115143
815.550086,-9400.615463,740.205942,2298.286494
815.550406,-9474.636058,370.102971,1608.800546
815.550727,-9474.636058,-148.041188,1378.971896
815.551047,-9474.636058,-888.247130,689.485948
815.551368,-9548.656652,-1406.391290,76.609550
815.551689,-9252.574275,-1332.370696,-612.876398
815.552009,-8586.388927,-1110.308913,842.705048
815.552330,-9844.739029,-592.164754,76.609550
815.552651,-10140.821405,-148.041188,0.000000
815.552971,-10214.842000,148.041188,383.047749
815.553292,-10214.842000,592.164754,1225.752797
815.553612,-10140.821405,148.041188,1072.533697
815.553933,-9696.697840,-222.061783,1225.752797
815.554254,-9474.636058,-666.185348,1532.190996
815.554574,-9252.574275,-666.185348,1225.752797
815.554895,-9400.615463,0.000000,1838.629195
815.555216,-10066.800811,666.185348,2068.457845
815.555536,-9918.759623,1406.391290,1991.848295
815.555857,-10066.800811,1406.391290,1838.629195
815.556178,-9844.739029,592.164754,919.314598
815.556498,-9918.759623,-296.082377,842.705048
815.556819,-9918.759623,-1406.391290,0.000000
815.557139,-9474.636058,-1554.432478,-919.314598
815.557460,-9252.574275,-1480.411884,-1149.143247
815.557781,-9474.636058,-592.164754,-383.047749
815.558101,-9844.739029,-592.164754,0.000000
815.558422,-9918.759623,-666.185348,0.000000
815.558742,-10214.842000,-1184.329507,536.266849
815.559063,-9844.739029,-518.144159,1302.362347
815.559384,-9770.718434,-962.267725,1838.629195
815.559704,-9252.574275,-740.205942,2451.505594
815.560025,-8808.450710,-518.144159,2145.067394
815.560346,-8364.327145,444.123565,1455.581446
815.560666,-8660.409521,0.000000,2374.896044
815.560987,-8512.368333,888.247130,2987.772442
815.561307,-9696.697840,814.226536,2987.772442
815.561628,-9548.656652,296.082377,2987.772442
815.561949,-9844.739029,-222.061783,2374.896044
815.562269,-9548.656652,-814.226536,1685.410096
815.562590,-9548.656652,-1332.370696,995.924147
815.562911,-8956.491898,-1628.453072,383.047749
815.563231,-8882.471304,-962.267725,0.000000
815.563552,-9252.574275,-666.185348,-383.047749
815.563872,-9622.677246,0.000000,0.000000
815.564193,-9992.780217,0.000000,766.095498
815.564514,-9696.697840,-444.123565,2374.896044
815.564834,-9770.718434,-518.144159,1225.752797
815.565155,-10140.821405,-1036.288319,1532.190996
815.565475,-9474.636058,-1036.288319,2068.457845
815.565796,-9474.636058,-370.102971,1915.238745
815.566117,-9474.636058,74.020594,2068.457845
815.566437,-9400.615463,666.185348,2221.676944
815.566758,-9918.759623,888.247130,2221.676944
815.567079,-9770.718434,1258.350101,2068.457845
815.567399,-10510.924376,1036.288319,1762.019645
815.567720,-9918.759623,0.000000,1302.362347
815.568040,-9770.718434,-666.185348,306.438199
815.568361,-9770.718434,-1628.453072,-766.095498
815.568682,-9696.697840,-1554.432478,-1532.190996
815.569002,-9474.636058,-1406.391290,-1608.800546
815.569323,-9622.677246,-814.226536,-1072.533697
815.569643,-9844.739029,-518.144159,-689.485948
815.569964,-10140.821405,-370.102971,0.000000
815.570285,-10214.842000,-148.041188,536.266849
815.570605,-9992.780217,-370.102971,1302.362347
815.570926,-9844.739029,-888.247130,2068.457845
815.571247,-9474.636058,-888.247130,1838.629195
815.571567,-9252.574275,-888.247130,1302.362347
815.571888,-8808.450710,0.000000,2068.457845
815.572208,-9030.512492,592.164754,2145.067394
815.572529,-9548.656652,1184.329507,2451.505594
815.572850,-9252.574275,370.102971,459.657299
815.573170,-9400.615463,444.123565,1149.143247
815.573491,-9326.594869,-370.102971,459.657299
815.573811,-9252.574275,-1332.370696,0.000000
815.574132,-9474.636058,-1850.514855,-306.438199
815.574453,-9326.594869,-1850.514855,-383.047749
815.574773,-9474.636058,-1110.308913,0.000000
815.575094,-9992.780217,-740.205942,612.876398
815.575415,-10436.903782,-370.102971,919.314598
815.575735,-10288.862594,-592.164754,766.095498
815.576056,-9844.739029,-296.082377,1532.190996
815.576376,-9844.739029,-74.020594,1915.238745
815.576697,-9622.677246,-296.082377,2681.334243
815.577018,-9030.512492,-370.102971,3600.648841
815.577338,-9104.533087,-592.164754,2451.505594
815.577659,-9326.594869,0.000000,2911.162892
815.577980,-9400.615463,666.185348,3294.210641
815.578300,-9770.718434,1036.288319,3524.039291
815.578621,-9844.739029,962.267725,2834.553343
815.578941,-9844.739029,962.267725,2145.067394
815.579262,-9548.656652,-370.102971,919.314598
815.579583,-9400.615463,-1036.288319,-383.047749
815.579903,-9252.574275,-1554.432478,-842.705048
815.580224,-9326.594869,-1258.350101,-1532.190996
815.580544,-9474.636058,-296.082377,-842.705048
815.580865,-9918.759623,-222.061783,-229.828649
815.581186,-10140.821405,-296.082377,536.266849
815.581506,-10066.800811,-444.123565,612.876398
815.581827,-10214.842000,-518.144159,1532.190996
815.582148,-9844.739029,-1110.308913,1685.410096
815.582468,-9252.574275,-1110.308913,1915.238745
815.582789,-9030.512492,-888.247130,1685.410096
815.583109,-8438.347739,-370.102971,1685.410096
815.583430,-8660.409521,296.082377,1455.581446
815.583751,-9104.533087,1332.370696,2145.067394
815.584071,-9548.656652,1184.329507,2374.896044
815.584392,-9696.697840,740.205942,1685.410096
815.584712,-9622.677246,0.000000,1302.362347
815.585033,-9770.718434,-370.102971,229.828649
815.585354,-9770.718434,-1332.370696,0.000000
815.585674,-9474.636058,-962.267725,-383.047749
815.585995,-9548.656652,-518.144159,-383.047749
815.586316,-9844.739029,-148.041188,153.219100
815.586636,-10214.842000,-296.082377,153.219100
815.586957,-10288.862594,0.000000,612.876398
815.587277,-9992.780217,-148.041188,766.095498
815.587598,-10066.800811,-148.041188,1455.581446
815.587919,-9400.615463,0.000000,2451.505594
815.588239,-9770.718434,-1332.370696,2068.457845
815.588560,-8438.347739,-518.144159,2298.286494
815.588880,-10066.800811,-296.082377,2374.896044
815.589201,-9474.636058,888.247130,3294.210641
815.589522,-9992.780217,1480.411884,2757.943793
815.589842,-10362.883188,1702.473667,3294.210641
815.590163,-9844.739029,518.144159,1915.238745
815.590484,-9474.636058,-592.164754,1149.143247
815.590804,-9918.759623,-1036.288319,612.876398
815.591125,-9030.512492,-1776.494261,-1225.752797
815.591445,-9252.574275,-1110.308913,-1302.362347
815.591766,-9030.512492,-888.247130,-766.095498
815.592087,-9400.615463,-666.185348,-1225.752797
815.592407,-10436.903782,-444.123565,-229.828649
815.592728,-10214.842000,-814.226536,383.047749
815.593048,-9992.780217,-518.144159,919.314598
815.593369,-10436.903782,-962.267725,1762.019645
815.593690,-9918.759623,74.020594,2757.943793
815.594010,-9474.636058,-148.041188,2451.505594
815.594331,-9030.512492,0.000000,2451.505594
815.594652,-8660.409521,296.082377,2221.676944
815.594972,-9104.533087,740.205942,2068.457845
815.595293,-9548.656652,666.185348,2068.457845
815.595613,-9474.636058,888.247130,1685.410096
815.595934,-9474.636058,-148.041188,995.924147
815.596255,-9400.615463,-518.144159,383.047749
815.596575,-9770.718434,-1110.308913,-536.266849
815.596896,-9400.615463,-1406.391290,-612.876398
815.597217,-9474.636058,-1258.350101,-842.705048
815.597537,-9622.677246,-666.185348,-612.876398
815.597858,-9918.759623,-592.164754,-1532.190996
815.598178,-10362.883188,-222.061783,612.876398
815.598499,-10288.862594,0.000000,689.485948
815.598820,-10066.800811,-222.061783,995.924147
815.599140,-9770.718434,-666.185348,1532.190996
815.599461,-8956.491898,-444.123565,1838.629195
815.599781,-9474.636058,-592.164754,1915.238745
815.600102,-9326.594869,-222.061783,2528.115143
815.600423,-9400.615463,814.226536,2528.115143
815.600743,-9844.739029,296.082377,2451.505594
815.601064,-9400.615463,1406.391290,2451.505594
815.601385,-10658.965565,370.102971,2528.115143
815.601705,-9696.697840,-74.020594,1225.752797
815.602026,-9770.718434,-1110.308913,459.657299
815.602346,-9178.553681,-1776.494261,-995.924147
815.602667,-9178.553681,-1554.432478,-1532.190996
815.602988,-9326.594869,-888.247130,-919.314598
815.603308,-9696.697840,-740.205942,-383.047749
815.603629,-9622.677246,-888.247130,-1915.238745
815.603949,-10436.903782,-518.144159,383.047749
815.604270,-9992.780217,-518.144159,842.705048
815.604591,-10362.883188,-888.247130,1532.190996
815.604911,-9548.656652,-1036.288319,2068.457845
815.605232,-9104.533087,-1332.370696,2298.286494
815.605553,-8660.409521,-962.267725,1991.848295
815.605873,-8882.471304,-296.082377,2298.286494
815.606194,-9252.574275,444.123565,2451.505594
815.606514,-9326.594869,814.226536,2374.896044
815.606835,-9770.718434,592.164754,2374.896044
815.607156,-9918.759623,74.020594,1608.800546
815.607476,-9622.677246,-518.144159,536.266849
815.607797,-9770.718434,-888.247130,153.219100
815.608117,-9474.636058,-1406.391290,-153.219100
815.608438,-9252.574275,-1184.329507,-536.266849
815.608759,-9770.718434,-814.226536,-689.485948
815.609079,-9992.780217,-592.164754,0.000000
815.609400,-10140.821405,-518.144159,536.266849
815.609721,-10436.903782,148.041188,842.705048
815.610041,-10214.842000,-148.041188,1225.752797
815.610362,-9844.739029,-444.123565,1302.362347
815.610682,-10214.842000,0.000000,1762.019645
815.611003,-9326.594869,-592.164754,1838.629195
815.611324,-9326.594869,-296.082377,2068.457845
815.611644,-9326.594869,0.000000,2451.505594
815.611965,-9326.594869,740.205942,1685.410096
815.612286,-9622.677246,1332.370696,2298.286494
815.612606,-9696.697840,962.267725,1685.410096
815.612927,-9622.677246,0.000000,1532.190996
815.613247,-9548.656652,-1332.370696,459.657299
815.613568,-9030.512492,-2146.597232,-229.828649
815.613889,-9030.512492,-2294.638420,-1685.410096
815.614209,-9104.533087,-1332.370696,-1762.019645
815.614530,-9326.594869,-148.041188,-1225.752797
815.614850,-9326.594869,0.000000,-995.924147
815.615171,-9992.780217,370.102971,0.000000
815.615492,-9992.780217,0.000000,229.828649
815.615812,-9918.759623,-222.061783,1302.362347
815.616133,-10214.842000,-592.164754,2451.505594
815.616454,-9918.759623,-666.185348,3140.991542
815.616774,-9474.636058,-1036.288319,2528.115143
815.617095,-9178.553681,0.000000,2451.505594
815.617415,-9326.594869,148.041188,2987.772442
815.617736,-9622.677246,888.247130,3140.991542
815.618057,-9622.677246,888.247130,2451.505594
815.618377,-9548.656652,1110.308913,1532.190996
815.618698,-9474.636058,148.041188,766.095498
815.619018,-9030.512492,-518.144159,536.266849
815.619339,-9622.677246,-1332.370696,306.438199
815.619660,-9326.594869,-1702.473667,-153.219100
815.619980,-9622.677246,-1332.370696,76.609550
815.620301,-10214.842000,-1110.308913,536.266849
815.620622,-10288.862594,-444.123565,1072.533697
815.620942,-10436.903782,-296.082377,995.924147
815.621263,-9918.759623,0.000000,995.924147
815.621583,-9548.656652,0.000000,995.924147
815.621904,-9104.533087,-370.102971,2451.505594
815.622225,-9474.636058,-370.102971,2528.115143
815.622545,-9474.636058,-296.082377,2374.896044
815.622866,-9252.574275,518.144159,2834.553343
815.623186,-9326.594869,962.267725,2757.943793
815.623507,-9770.718434,1332.370696,2757.943793
815.623828,-9844.739029,1332.370696,2681.334243
815.624148,-9844.739029,444.123565,1685.410096
815.624469,-9474.636058,-666.185348,919.314598
815.624790,-9474.636058,-1480.411884,-229.828649
815.625110,-8956.491898,-1776.494261,-1532.190996
815.625431,-8956.491898,-1406.391290,-1532.190996
815.625751,-9030.512492,-296.082377,-995.924147
815.626072,-9770.718434,370.102971,-1225.752797
815.626393,-9844.739029,-296.082377,-76.609550
815.626713,-10066.800811,-740.205942,383.047749
815.627034,-10214.842000,-888.247130,1455.581446
815.627355,-10066.800811,-1258.350101,766.095498
815.627675,-9326.594869,-1184.329507,1838.629195
815.627996,-8956.491898,-814.226536,2145.067394
815.628316,-8956.491898,-296.082377,2068.457845
815.628637,-9104.533087,148.041188,2145.067394
815.628958,-9030.512492,296.082377,2374.896044
815.629278,-9474.636058,370.102971,1991.848295
815.629599,-9622.677246,0.000000,1685.410096
815.629919,-9622.677246,0.000000,1608.800546
815.630240,-9474.636058,-962.267725,766.095498
815.630561,-9696.697840,-1184.329507,153.219100
815.630881,-9400.615463,-1480.411884,-459.657299
815.631202,-9622.677246,-1184.329507,-536.266849
815.631523,-9992.780217,-740.205942,0.000000
815.631843,-10436.903782,-296.082377,153.219100
815.632164,-10436.903782,74.020594,306.438199
815.632484,-10214.842000,0.000000,995.924147
815.632805,-9918.759623,0.000000,1149.143247
815.633126,-9770.718434,-740.205942,1685.410096
815.633446,-9474.636058,-1184.329507,2221.676944
815.633767,-9326.594869,-1110.308913,2298.286494
815.634087,-9326.594869,-592.164754,2451.505594
815.634408,-9400.615463,74.020594,3370.820191
815.634729,-9918.759623,888.247130,2987.772442
815.635049,-9770.718434,1184.329507,2681.334243
815.635370,-9770.718434,518.144159,2528.115143
815.635691,-9770.718434,-444.123565,3140.991542
815.636011,-9474.636058,-1776.494261,306.438199
815.636332,-9548.656652,-2072.576638,-766.095498
815.636652,-8882.471304,-1924.535449,-1225.752797
815.636973,-8956.491898,-1110.308913,-1455.581446
815.637294,-9474.636058,-518.144159,-306.438199
815.637614,-9770.718434,-740.205942,0.000000
815.637935,-9770.718434,-814.226536,229.828649
815.638255,-10214.842000,-444.123565,689.485948
815.638576,-9844.739029,-1406.391290,1608.800546
815.638897,-9696.697840,-370.102971,2221.676944
815.639217,-9104.533087,-222.061783,2145.067394
815.639538,-8660.409521,148.041188,1991.848295
815.639859,-9104.533087,592.164754,2298.286494
815.640179,-9252.574275,888.247130,2298.286494
815.640500,-9622.677246,814.226536,2068.457845
815.640820,-9622.677246,1036.288319,1915.238745
815.641141,-9474.636058,962.267725,1149.143247
815.641462,-9622.677246,666.185348,76.609550
815.641782,-9474.636058,0.000000,0.000000
815.642103,-9400.615463,-592.164754,-766.095498
815.642423,-9326.594869,-962.267725,-842.705048
815.642744,-9474.636058,-740.205942,-1072.533697
815.643065,-10214.842000,-962.267725,0.000000
815.643385,-10288.862594,-666.185348,306.438199
815.643706,-9992.780217,-444.123565,306.438199
815.644027,-9918.759623,-370.102971,995.924147
815.644347,-9622.677246,-518.144159,1685.410096
815.644668,-9918.759623,-962.267725,2374.896044
815.644988,-9696.697840,-1036.288319,2451.505594
815.645309,-9400.615463,-740.205942,2757.943793
815.645630,-9548.656652,0.000000,3064.381992
815.645950,-9696.697840,296.082377,3370.820191
815.646271,-9696.697840,888.247130,2911.162892
815.646592,-9918.759623,1036.288319,2451.505594
815.646912,-10288.862594,1406.391290,1685.410096
815.647233,-9548.656652,-814.226536,459.657299
815.647553,-9548.656652,-1184.329507,-1072.533697
815.647874,-9104.533087,-1110.308913,-1532.190996
815.648195,-9030.512492,-148.041188,-1532.190996
815.648515,-9622.677246,148.041188,-383.047749
815.648836,-9770.718434,518.144159,-229.828649
815.649156,-10362.883188,0.000000,0.000000
815.649477,-10214.842000,0.000000,919.314598
815.649798,-9844.739029,-222.061783,1455.581446
815.650118,-9622.677246,-592.164754,2068.457845
815.650439,-9474.636058,-666.185348,2221.676944
815.650760,-8512.368333,-518.144159,2221.676944
815.651080,-8808.450710,74.020594,2374.896044
815.651401,-9178.553681,296.082377,2604.724693
815.651721,-9474.636058,1110.308913,2757.943793
815.652042,-9622.677246,814.226536,2221.676944
815.652363,-9622.677246,296.082377,1915.238745
815.652683,-9252.574275,-888.247130,689.485948
815.653004,-9548.656652,-1480.411884,153.219100
815.653324,-9252.574275,-2294.638420,-306.438199
815.653645,-9178.553681,-1998.556043,-689.485948
815.653966,-9474.636058,-1776.494261,-1072.533697
815.654286,-9622.677246,-962.267725,-459.657299
815.654607,-10436.903782,-518.144159,383.047749
815.654928,-10362.883188,-370.102971,766.095498
815.655248,-10732.986159,-444.123565,1762.019645
815.655569,-10140.821405,-222.061783,1608.800546
815.655889,-9696.697840,-222.061783,2604.724693
815.656210,-9548.656652,-296.082377,2451.505594
815.656531,-9474.636058,-296.082377,2374.896044
815.656851,-8882.471304,222.061783,2451.505594
815.657172,-9696.697840,888.247130,2221.676944
815.657492,-9622.677246,1184.329507,2451.505594
815.657813,-9918.759623,1480.411884,2298.286494
815.658134,-10362.883188,740.205942,2145.067394
815.658455,-9918.759623,-296.082377,612.876398
815.658775,-9918.759623,-1110.308913,-612.876398
815.659096,-9474.636058,-1406.391290,-1225.752797
815.659417,-8808.450710,-1036.288319,-1838.629195
815.659737,-9474.636058,-296.082377,-612.876398
815.660058,-9400.615463,-148.041188,-689.485948
815.660379,-9992.780217,-666.185348,-153.219100
815.660699,-10066.800811,-592.164754,383.047749
815.661020,-9918.759623,-814.226536,1608.800546
815.661341,-9770.718434,-1702.473667,1762.019645
815.661662,-9030.512492,-1110.308913,1608.800546
815.661982,-8956.491898,-814.226536,1991.848295
815.662303,-8290.306550,-296.082377,2298.286494
815.662624,-9178.553681,222.061783,2221.676944
815.662944,-9400.615463,740.205942,2374.896044
815.663265,-9622.677246,666.185348,2145.067394
815.663586,-9548.656652,666.185348,3064.381992
815.663906,-9696.697840,0.000000,1225.752797
815.664227,-9400.615463,-740.205942,153.219100
815.664548,-9178.553681,-1110.308913,-306.438199
815.664868,-9252.574275,-1258.350101,-995.924147
815.665189,-9474.636058,-1332.370696,-766.095498
815.665510,-9918.759623,-888.247130,0.000000
815.665831,-10140.821405,-740.205942,0.000000
815.666151,-10214.842000,-370.102971,229.828649
815.666472,-9696.697840,-296.082377,1455.581446
815.666793,-9918.759623,-370.102971,1608.800546
815.667113,-9770.718434,-888.247130,2145.067394
815.667434,-9400.615463,-1406.391290,2451.505594
815.667755,-9548.656652,-592.164754,2298.286494
815.668075,-9622.677246,0.000000,2681.334243
815.668396,-9548.656652,518.144159,2681.334243
815.668717,-9918.759623,1332.370696,2987.772442
815.669038,-9770.718434,1258.350101,2604.724693
815.669358,-10214.842000,1258.350101,2068.457845
815.669679,-9918.759623,0.000000,1608.800546
815.670000,-9844.739029,-1110.308913,383.047749
815.670320,-9548.656652,-1332.370696,-536.266849
815.670641,-8808.450710,-1332.370696,-536.266849
815.670962,-9326.594869,-518.144159,-612.876398
815.671282,-9918.759623,-148.041188,0.000000
815.671603,-9548.656652,-444.123565,0.000000
815.671924,-10288.862594,-888.247130,229.828649
815.672244,-9992.780217,-518.144159,766.095498
815.672565,-10362.883188,-740.205942,1455.581446
815.672886,-9696.697840,-666.185348,1991.848295
815.673207,-9326.594869,-888.247130,2145.067394
815.673527,-8660.409521,-888.247130,919.314598
815.673848,-9030.512492,0.000000,1915.238745
815.674169,-9252.574275,592.164754,2604.724693
815.674489,-9622.677246,888.247130,2221.676944
815.674810,-10436.903782,2072.576638,1991.848295
815.675131,-9474.636058,222.061783,1225.752797
815.675451,-9474.636058,-296.082377,612.876398
815.675772,-9474.636058,-1184.329507,0.000000
815.676093,-9400.615463,-1110.308913,-536.266849
815.676413,-8586.388927,-1258.350101,-766.095498
815.676734,-9696.697840,-814.226536,-612.876398
815.677055,-9844.739029,-370.102971,0.000000
815.677376,-10214.842000,-222.061783,383.047749
815.677696,-8660.409521,0.000000,306.438199
815.678017,-9696.697840,296.082377,1149.143247
815.678338,-9770.718434,-148.041188,1915.238745
815.678658,-9622.677246,-592.164754,2451.505594
815.678979,-9400.615463,-592.164754,3140.991542
815.679300,-9474.636058,-518.144159,2451.505594
815.679620,-9474.636058,222.061783,2987.772442
815.679941,-9548.656652,888.247130,2834.553343
815.680262,-9696.697840,1406.391290,2221.676944
815.680583,-9844.739029,1702.473667,2298.286494
815.680903,-9474.636058,666.185348,1378.971896
815.681224,-9622.677246,-740.205942,536.266849
815.681545,-9474.636058,-1924.535449,-612.876398
815.681865,-9400.615463,-2516.700203,-1378.971896
815.682186,-9326.594869,-1480.411884,-1072.533697
815.682507,-9918.759623,-962.267725,-306.438199
815.682827,-10066.800811,-666.185348,153.219100
815.683148,-10140.821405,-1036.288319,459.657299
815.683469,-9770.718434,-814.226536,1225.752797
815.683789,-9918.759623,-962.267725,1608.800546
815.684110,-9770.718434,-740.205942,2145.067394
815.684431,-9326.594869,-592.164754,2451.505594
815.684752,-8734.430116,-222.061783,2757.943793
815.685072,-8882.471304,296.082377,2221.676944
815.685393,-9178.553681,962.267725,2374.896044
815.685714,-9696.697840,1036.288319,2681.334243
815.686034,-9252.574275,1628.453072,1762.019645
815.686355,-9770.718434,148.041188,1455.581446
815.686676,-9548.656652,-518.144159,536.266849
815.686996,-9622.677246,-1110.308913,0.000000
815.687317,-9400.615463,-1406.391290,383.047749
815.687638,-9252.574275,-1332.370696,-536.266849
815.687958,-9474.636058,-888.247130,-766.095498
815.688279,-9770.718434,-592.164754,-153.219100
815.688600,-10288.862594,-814.226536,459.657299
815.688921,-9622.677246,-666.185348,612.876398
815.689241,-9844.739029,-740.205942,995.924147
815.689562,-9548.656652,-888.247130,1378.971896
815.689883,-9326.594869,-1184.329507,1762.019645
815.690203,-9696.697840,-518.144159,1072.533697
815.690524,-9178.553681,-1036.288319,2145.067394
815.690845,-9178.553681,-148.041188,2145.067394
815.691165,-9474.636058,592.164754,2451.505594
815.691486,-9844.739029,1184.329507,2451.505594
815.691807,-9918.759623,1110.308913,2298.286494
815.692128,-9844.739029,370.102971,1532.190996
815.692448,-9622.677246,-1036.288319,306.438199
815.692769,-9400.615463,-1628.453072,-612.876398
815.693090,-9252.574275,-1702.473667,-1455.581446
815.693410,-9252.574275,-888.247130,-1072.533697
815.693731,-9918.759623,0.000000,0.000000
815.694052,-10214.842000,-370.102971,0.000000
815.694372,-11103.089130,148.041188,-995.924147
815.694693,-10066.800811,-888.247130,536.266849
815.695014,-10288.862594,-1036.288319,1762.019645
815.695334,-9548.656652,-962.267725,2145.067394
815.695655,-9474.636058,-814.226536,2528.115143
815.695976,-8956.491898,-518.144159,2221.676944
815.696297,-9104.533087,0.000000,2374.896044
815.696617,-9326.594869,296.082377,2834.553343
815.696938,-9844.739029,592.164754,2528.115143
815.697259,-9992.780217,814.226536,2528.115143
815.697579,-9844.739029,74.020594,1685.410096
815.697900,-9548.656652,-222.061783,1072.533697
815.698221,-9548.656652,-814.226536,153.219100
815.698541,-9252.574275,-666.185348,76.609550
815.698862,-9252.574275,-888.247130,-995.924147
815.699183,-9474.636058,-444.123565,-689.485948
815.699504,-10436.903782,0.000000,0.000000
815.699824,-10288.862594,148.041188,76.609550
815.700145,-10584.944971,0.000000,459.657299
815.700466,-9918.759623,0.000000,1225.752797
815.700786,-9548.656652,-740.205942,995.924147
815.701107,-9474.636058,-1036.288319,1608.800546
815.701428,-9400.615463,-1110.308913,1608.800546
815.701748,-9030.512492,-296.082377,2068.457845
815.702069,-9474.636058,592.164754,2451.505594
815.702390,-9326.594869,1258.350101,2528.115143
815.702710,-9770.718434,1924.535449,1915.238745
815.703031,-9992.780217,1776.494261,2604.724693
815.703352,-9622.677246,1036.288319,2145.067394
815.703673,-9548.656652,-148.041188,689.485948
815.703993,-9400.615463,-1110.308913,-383.047749
815.704314,-9030.512492,-1702.473667,-1072.533697
815.704635,-8882.471304,-1110.308913,-1302.362347
815.704955,-9400.615463,-518.144159,-995.924147
815.705276,-9474.636058,-370.102971,-383.047749
815.705597,-9474.636058,-370.102971,-459.657299
815.705917,-10288.862594,-592.164754,229.828649
815.706238,-10066.800811,-666.185348,995.924147
815.706559,-9770.718434,-888.247130,1838.629195
815.706879,-9548.656652,222.061783,2068.457845
815.707200,-9252.574275,-666.185348,1915.238745
815.707521,-9474.636058,-592.164754,2221.676944
815.707842,-9252.574275,0.000000,2451.505594
815.708162,-9696.697840,888.247130,2451.505594
815.708483,-9918.759623,1110.308913,1991.848295
815.708804,-9770.718434,814.226536,1378.971896
815.709124,-9622.677246,296.082377,612.876398
815.709445,-9844.739029,-444.123565,306.438199
815.709766,-9326.594869,-1258.350101,-306.438199
815.710086,-9548.656652,-1702.473667,-766.095498
815.710407,-9474.636058,-1036.288319,-229.828649
815.710728,-10214.842000,-592.164754,383.047749
815.711049,-9474.636058,-296.082377,0.000000
815.711369,-10362.883188,-222.061783,689.485948
815.711690,-9918.759623,-444.123565,1455.581446
815.712011,-9770.718434,-370.102971,1149.143247
815.712331,-9326.594869,-592.164754,1838.629195
815.712652,-9400.615463,-666.185348,2451.505594
815.712973,-9326.594869,-1184.329507,2451.505594
815.713293,-9104.533087,-814.226536,2681.334243
815.713614,-9252.574275,-518.144159,3140.991542
815.713935,-9474.636058,370.102971,3064.381992
815.714255,-9844.739029,1184.329507,3217.601092
815.714576,-10066.800811,740.205942,3064.381992
815.714897,-9696.697840,-222.061783,1838.629195
815.715218,-9030.512492,-2072.576638,-689.485948
815.715538,-9326.594869,-1924.535449,-612.876398
815.715859,-8660.409521,-1406.391290,-1378.971896
815.716180,-9326.594869,-1480.411884,-766.095498
815.716500,-9548.656652,-740.205942,0.000000
815.716821,-9770.718434,-1036.288319,0.000000
815.717142,-10066.800811,-962.267725,153.219100
815.717462,-10436.903782,-888.247130,995.924147
815.717783,-9992.780217,-1110.308913,1608.800546
815.718104,-9770.718434,-814.226536,2681.334243
815.718425,-9252.574275,-740.205942,1455.581446
815.718745,-8956.491898,74.020594,2221.676944
815.719066,-9030.512492,296.082377,1991.848295
815.719387,-9400.615463,1110.308913,2374.896044
815.719707,-9548.656652,740.205942,1915.238745
815.720028,-9622.677246,666.185348,1685.410096
815.720349,-9474.636058,222.061783,995.924147
815.720669,-9992.780217,-962.267725,383.047749
815.720990,-9252.574275,-1184.329507,-383.047749
815.721311,-9622.677246,-1702.473667,-919.314598
815.721631,-8660.409521,-1184.329507,-1838.629195
815.721952,-10140.821405,-740.205942,-995.924147
815.722273,-9770.718434,-370.102971,-153.219100
815.722594,-10658.965565,148.041188,153.219100
815.722914,-10436.903782,74.020594,536.266849
815.723235,-10140.821405,222.061783,842.705048
815.723556,-10584.944971,518.144159,1762.019645
815.723876,-9844.739029,-592.164754,2374.896044
815.724197,-9030.512492,-444.123565,1991.848295
815.724518,-9178.553681,-222.061783,2145.067394
815.724838,-9178.553681,296.082377,2528.115143
815.725159,-9474.636058,1036.288319,2068.457845
815.725480,-9696.697840,1332.370696,2451.505594
815.725800,-9622.677246,1184.329507,1991.848295
815.726121,-9770.718434,740.205942,1685.410096
815.726442,-10362.883188,0.000000,1302.362347
815.726763,-9252.574275,-1332.370696,0.000000
815.727083,-9326.594869,-1628.453072,-689.485948
815.727404,-9252.574275,-1258.350101,-995.924147
815.727725,-10288.862594,-296.082377,-612.876398
815.728045,-9696.697840,-962.267725,229.828649
815.728366,-9992.780217,-888.247130,536.266849
815.728687,-10066.800811,-370.102971,1608.800546
815.729007,-9770.718434,-666.185348,2604.724693
815.729328,-9844.739029,-592.164754,2681.334243
815.729649,-9252.574275,-962.267725,2681.334243
815.729970,-8882.471304,-592.164754,2451.505594
815.730290,-8882.471304,-444.123565,2451.505594
815.730611,-8364.327145,74.020594,3370.820191
815.730932,-9474.636058,666.185348,2528.115143
815.731252,-9696.697840,962.267725,2298.286494
815.731573,-9696.697840,814.226536,1685.410096
815.731894,-9400.615463,74.020594,1608.800546
815.732214,-9844.739029,-444.123565,306.438199
815.732535,-9474.636058,-592.164754,-229.828649
815.732856,-9474.636058,-518.144159,-612.876398
815.733176,-9622.677246,-666.185348,-229.828649
815.733497,-10362.883188,-370.102971,229.828649
815.733818,-10362.883188,-666.185348,459.657299
815.734139,-10288.862594,-592.164754,536.266849
815.734459,-10066.800811,0.000000,842.705048
815.734780,-9474.636058,-370.102971,1532.190996
815.735101,-9622.677246,0.000000,1762.019645
815.735421,-9326.594869,-370.102971,1838.629195
815.735742,-9104.533087,0.000000,1838.629195
815.736063,-8956.491898,74.020594,2145.067394
815.736383,-9400.615463,1036.288319,1838.629195
815.736704,-10066.800811,1480.411884,2374.896044
815.737025,-9844.739029,1628.453072,1838.629195
815.737346,-9770.718434,814.226536,1149.143247
815.737666,-9548.656652,-296.082377,0.000000
815.737987,-9178.553681,-1702.473667,-1608.800546
815.738308,-8882.471304,-1776.494261,-2221.676944
815.738628,-8956.491898,-1258.350101,-1991.848295
815.738949,-9030.512492,-1036.288319,-612.876398
815.739270,-9548.656652,-666.185348,-612.876398
815.739590,-9992.780217,-962.267725,-306.438199
815.739911,-9918.759623,-666.185348,612.876398
815.740232,-10066.800811,-1036.288319,0.000000
815.740552,-9992.780217,-1036.288319,2451.505594
815.740873,-9474.636058,-1184.329507,2221.676944
815.741194,-8882.471304,-888.247130,2451.505594
815.741515,-9104.533087,-370.102971,2911.162892
815.741835,-9178.553681,-444.123565,2528.115143
815.742156,-9622.677246,518.144159,3140.991542
815.742477,-9844.739029,370.102971,2681.334243
815.742797,-9474.636058,296.082377,2298.286494
815.743118,-9770.718434,444.123565,1608.800546
815.743439,-9474.636058,-740.205942,689.485948
815.743759,-9178.553681,-1258.350101,459.657299
815.744080,-9400.615463,-1406.391290,0.000000
815.744401,-9400.615463,-1554.432478,0.000000
815.744721,-9918.759623,-74.020594,383.047749
815.745042,-10584.944971,-1184.329507,1072.533697
815.745363,-10362.883188,-740.205942,919.314598
815.745684,-10066.800811,-592.164754,1225.752797
815.746004,-10362.883188,-518.144159,1685.410096
815.746325,-9622.677246,-296.082377,2757.943793
815.746646,-9770.718434,-888.247130,2298.286494
815.746966,-9622.677246,-592.164754,1991.848295
815.747287,-9030.512492,-444.123565,1685.410096
815.747608,-9326.594869,370.102971,2528.115143
815.747928,-9548.656652,1110.308913,2145.067394
815.748249,-9844.739029,1184.329507,1991.848295
815.748570,-9918.759623,296.082377,1762.019645
815.748891,-9622.677246,-888.247130,229.828649
815.749211,-10288.862594,-1110.308913,-306.438199
815.749532,-9770.718434,-1554.432478,-919.314598
815.749853,-9400.615463,-740.205942,-1149.143247
815.750173,-9548.656652,0.000000,-1072.533697
815.750494,-9992.780217,592.164754,383.047749
815.750815,-9622.677246,-222.061783,-689.485948
815.751135,-9918.759623,-592.164754,0.000000
815.751456,-10066.800811,-1184.329507,383.047749
815.751777,-9844.739029,-1184.329507,919.314598
815.752097,-9252.574275,-740.205942,1302.362347
815.752418,-9104.533087,-370.102971,1762.019645
815.752739,-8660.409521,296.082377,2145.067394
815.753060,-9252.574275,296.082377,2068.457845
815.753380,-9104.533087,1110.308913,1149.143247
815.753701,-9474.636058,962.267725,1762.019645
815.754022,-9474.636058,592.164754,1762.019645
815.754342,-9252.574275,0.000000,1302.362347
815.754663,-9104.533087,-592.164754,229.828649
815.754984,-9474.636058,-814.226536,-229.828649
815.755304,-9030.512492,-1036.288319,-766.095498
815.755625,-9326.594869,-592.164754,-766.095498
815.755946,-9992.780217,-370.102971,0.000000
815.756266,-10214.842000,0.000000,995.924147
815.756587,-10362.883188,-666.185348,766.095498
815.756908,-10288.862594,-370.102971,995.924147
815.757229,-9918.759623,-518.144159,1455.581446
815.757550,-9548.656652,148.041188,2987.772442
815.757870,-9474.636058,-370.102971,2451.505594
815.758191,-9252.574275,-296.082377,2451.505594
815.758512,-9474.636058,74.020594,2451.505594
815.758833,-9326.594869,592.164754,2604.724693
815.759154,-9178.553681,1184.329507,2911.162892
815.759475,-10066.800811,1406.391290,2834.553343
815.759796,-10140.821405,1258.350101,2757.943793
815.760117,-9844.739029,296.082377,1915.238745
815.760437,-10214.842000,-222.061783,689.485948
815.760758,-9622.677246,-1480.411884,-76.609550
815.761079,-9474.636058,-1258.350101,-689.485948
815.761400,-9326.594869,-888.247130,-536.266849
815.761721,-9918.759623,-518.144159,0.000000
815.762042,-9844.739029,-740.205942,229.828649
815.762363,-10436.903782,-740.205942,766.095498
815.762684,-10214.842000,-962.267725,1991.848295
815.763004,-10140.821405,-1406.391290,2298.286494
815.763325,-9252.574275,-1628.453072,2987.772442
815.763646,-9474.636058,-1332.370696,2911.162892
815.763967,-9178.553681,-518.144159,2604.724693
815.764288,-9030.512492,0.000000,2451.505594
815.764609,-9918.759623,1924.535449,4673.182538
815.764930,-9252.574275,962.267725,2221.676944
815.765250,-9326.594869,666.185348,1072.533697
815.765571,-9178.553681,592.164754,1225.752797
815.765892,-9178.553681,-444.123565,0.000000
815.766213,-9326.594869,-888.247130,-229.828649
815.766534,-9252.574275,-1628.453072,-1225.752797
815.766855,-9252.574275,-1258.350101,-1455.581446
815.767176,-9992.780217,-814.226536,-1072.533697
815.767497,-9992.780217,-222.061783,-612.876398
815.767817,-10140.821405,-518.144159,-229.828649
815.768138,-9918.759623,-370.102971,-153.219100
815.768459,-9474.636058,-222.061783,229.828649
815.768780,-8734.430116,74.020594,1302.362347
815.769101,-9252.574275,-444.123565,842.705048
815.769422,-9030.512492,-814.226536,995.924147
815.769743,-9030.512492,-444.123565,1685.410096
815.770064,-9474.636058,0.000000,2451.505594
815.770384,-9844.739029,444.123565,2298.286494
815.770705,-10066.800811,1110.308913,2757.943793
815.771026,-10288.862594,888.247130,2681.334243
815.771347,-10214.842000,222.061783,2451.505594
815.771668,-9918.759623,-370.102971,1302.362347
815.771989,-9918.759623,-1258.350101,306.438199
815.772310,-9400.615463,-1480.411884,-612.876398
815.772630,-9770.718434,-814.226536,-536.266849
815.772951,-9178.553681,148.041188,0.000000
815.773272,-10066.800811,-370.102971,0.000000
815.773593,-10140.821405,-370.102971,536.266849
815.773914,-10140.821405,-592.164754,995.924147
815.774235,-9992.780217,-518.144159,1378.971896
815.774556,-9992.780217,-370.102971,2068.457845
815.774877,-9474.636058,-518.144159,2221.676944
815.775197,-9252.574275,-222.061783,1991.848295
815.775518,-9104.533087,-222.061783,2528.115143
815.775839,-8956.491898,148.041188,2911.162892
815.776160,-9622.677246,740.205942,2911.162892
815.776481,-9400.615463,814.226536,2451.505594
815.776802,-9474.636058,666.185348,1915.238745
815.777123,-9548.656652,444.123565,0.000000
815.777443,-9400.615463,-592.164754,229.828649
815.777764,-9252.574275,-1184.329507,-383.047749
815.778085,-8734.430116,-1480.411884,-459.657299
815.778406,-9474.636058,-1110.308913,-459.657299
815.778727,-9548.656652,-740.205942,919.314598
815.779048,-9918.759623,-814.226536,919.314598
815.779369,-9992.780217,-222.061783,1072.533697
815.779690,-9844.739029,-518.144159,1149.143247
815.780010,-9622.677246,0.000000,2145.067394
815.780331,-9844.739029,-592.164754,2298.286494
815.780652,-9252.574275,-592.164754,1838.629195
815.780973,-9326.594869,-518.144159,1991.848295
815.781294,-9400.615463,518.144159,2757.943793
815.781615,-9400.615463,666.185348,2451.505594
815.781936,-9770.718434,1628.453072,2374.896044
815.782257,-9844.739029,1554.432478,2451.505594
815.782577,-9770.718434,666.185348,2068.457845
815.782898,-9622.677246,-888.247130,689.485948
815.783219,-9696.697840,-1480.411884,0.000000
815.783540,-9548.656652,-1554.432478,-1072.533697
815.783861,-9178.553681,-1554.432478,-1455.581446
815.784182,-9474.636058,-1184.329507,-1072.533697
815.784503,-9548.656652,-740.205942,-995.924147
815.784823,-10066.800811,-740.205942,0.000000
815.785144,-10066.800811,-444.123565,306.438199
815.785465,-9326.594869,-1036.288319,2757.943793
815.785786,-9992.780217,-592.164754,1762.019645
815.786107,-9622.677246,-222.061783,2145.067394
815.786428,-9474.636058,-222.061783,2528.115143
815.786749,-9252.574275,-148.041188,2834.553343
815.787070,-9104.533087,0.000000,2987.772442
815.787390,-9326.594869,370.102971,2451.505594
815.787711,-9696.697840,740.205942,2528.115143
815.788032,-9548.656652,666.185348,2221.676944
815.788353,-9474.636058,74.020594,1762.019645
815.788674,-9326.594869,-740.205942,536.266849
815.788995,-9400.615463,-1258.350101,0.000000
815.789316,-9178.553681,-1406.391290,-689.485948
815.789637,-9622.677246,-1554.432478,-919.314598
815.789957,-9992.780217,-1036.288319,0.000000
815.790278,-9992.780217,-1110.308913,76.609550
815.790599,-9992.780217,-666.185348,306.438199
815.790920,-9918.759623,-518.144159,842.705048
815.791241,-9770.718434,-296.082377,1225.752797
815.791562,-9622.677246,-814.226536,1838.629195
815.791883,-9178.553681,-740.205942,1991.848295
815.792203,-9030.512492,-666.185348,1378.971896
815.792524,-8882.471304,-592.164754,1915.238745
815.792845,-9696.697840,444.123565,2528.115143
815.793166,-9474.636058,962.267725,2451.505594
815.793487,-9918.759623,1406.391290,2298.286494
815.793808,-9770.718434,148.041188,1532.190996
815.794129,-9770.718434,0.000000,919.314598
815.794450,-9770.718434,-1036.288319,76.609550
815.794770,-9474.636058,-1332.370696,-1532.190996
815.795091,-9400.615463,-1480.411884,-1608.800546
815.795412,-9474.636058,-592.164754,-1072.533697
815.795733,-10140.821405,-888.247130,-306.438199
815.796054,-9992.780217,-592.164754,0.000000
815.796375,-10362.883188,-962.267725,612.876398
815.796696,-10066.800811,-740.205942,1149.143247
815.797016,-10140.821405,-1184.329507,1991.848295
815.797337,-9696.697840,-1184.329507,2451.505594
815.797658,-9178.553681,-1110.308913,2145.067394
815.797979,-8068.244768,0.000000,3140.991542
815.798300,-9474.636058,222.061783,2757.943793
815.798621,-9400.615463,962.267725,3140.991542
815.798942,-9918.759623,1110.308913,2374.896044
815.799263,-9918.759623,962.267725,2068.457845
815.799583,-9622.677246,814.226536,1685.410096
815.799904,-9622.677246,0.000000,612.876398
815.800225,-9622.677246,-518.144159,153.219100
815.800546,-9474.636058,-1258.350101,-842.705048
815.800867,-9030.512492,-888.247130,-1378.971896
815.801188,-9548.656652,-1184.329507,-536.266849
815.801509,-9918.759623,-370.102971,153.219100
815.801830,-10510.924376,-518.144159,766.095498
815.802150,-9400.615463,-296.082377,2068.457845
815.802471,-10066.800811,-444.123565,1225.752797
815.802792,-9474.636058,0.000000,1991.848295
815.803113,-9474.636058,-592.164754,2145.067394
815.803434,-9474.636058,-592.164754,2298.286494
815.803755,-9326.594869,-518.144159,1915.238745
815.804076,-8956.491898,0.000000,1915.238745
815.804396,-9770.718434,666.185348,2221.676944
815.804717,-9622.677246,740.205942,2451.505594
815.805038,-10584.944971,1332.370696,1915.238745
815.805359,-9696.697840,-370.102971,1378.971896
815.805680,-9548.656652,-1332.370696,306.438199
815.806001,-9252.574275,-1850.514855,-306.438199
815.806322,-9326.594869,-1850.514855,-1532.190996
815.806643,-9178.553681,-1184.329507,-919.314598
815.806963,-9474.636058,-592.164754,-459.657299
815.807284,-9548.656652,-592.164754,-153.219100
815.807605,-10066.800811,-666.185348,306.438199
815.807926,-9992.780217,-518.144159,995.924147
815.808247,-10362.883188,-666.185348,1532.190996
815.808568,-9918.759623,-296.082377,2145.067394
815.808889,-9622.677246,-444.123565,2374.896044
815.809210,-9770.718434,814.226536,2604.724693
815.809530,-9400.615463,148.041188,2374.896044
815.809851,-9696.697840,962.267725,2298.286494
815.810172,-9844.739029,1110.308913,2451.505594
815.810493,-9696.697840,1258.350101,3294.210641
815.810814,-9622.677246,740.205942,1762.019645
815.811135,-9770.718434,0.000000,1149.143247
815.811456,-9696.697840,-740.205942,383.047749
815.811776,-9400.615463,-1332.370696,-306.438199
815.812097,-9400.615463,-962.267725,-306.438199
815.812418,-9548.656652,-592.164754,0.000000
815.812739,-10140.821405,148.041188,383.047749
815.813060,-10510.924376,148.041188,919.314598
815.813381,-9770.718434,-444.123565,1149.143247
815.813702,-9548.656652,-222.061783,1149.143247
815.814023,-9770.718434,-962.267725,1072.533697
815.814343,-9326.594869,-888.247130,1838.629195
815.814664,-9696.697840,-74.020594,1149.143247
815.814985,-8882.471304,-888.247130,1838.629195
815.815306,-9104.533087,0.000000,1991.848295
815.815627,-9252.574275,370.102971,2451.505594
815.815948,-9622.677246,1332.370696,2681.334243
815.816269,-9918.759623,1036.288319,2528.115143
815.816589,-9474.636058,148.041188,1838.629195
815.816910,-9400.615463,-1184.329507,689.485948
815.817231,-9326.594869,-1850.514855,-229.828649
815.817552,-8882.471304,-2072.576638,-766.095498
815.817873,-8956.491898,-1258.350101,-1378.971896
815.818194,-9030.512492,-592.164754,-612.876398
815.818515,-9622.677246,0.000000,-459.657299
815.818836,-9696.697840,0.000000,306.438199
815.819156,-10362.883188,0.000000,536.266849
815.819477,-10140.821405,74.020594,1225.752797
815.819798,-10066.800811,-370.102971,1685.410096
815.820119,-9400.615463,-518.144159,1991.848295
815.820440,-9474.636058,-370.102971,2374.896044
815.820761,-9474.636058,74.020594,2374.896044
815.821082,-9474.636058,888.247130,2451.505594
815.821403,-9770.718434,962.267725,2221.676944
815.821723,-9696.697840,1184.329507,1685.410096
815.822044,-9992.780217,962.267725,1838.629195
815.822365,-9622.677246,296.082377,995.924147
815.822686,-9326.594869,-740.205942,76.609550
815.823007,-9104.533087,-666.185348,-1838.629195
815.823328,-9474.636058,-1184.329507,-459.657299
815.823649,-9918.759623,-1036.288319,76.609550
815.823969,-10066.800811,-740.205942,689.485948
815.824290,-10362.883188,-1110.308913,689.485948
815.824611,-10214.842000,-592.164754,459.657299
815.824932,-9844.739029,-888.247130,995.924147
815.825253,-9696.697840,-1036.288319,1225.752797
815.825574,-9252.574275,-962.267725,1991.848295
815.825895,-8956.491898,-814.226536,1991.848295
815.826216,-9178.553681,-666.185348,2221.676944
815.826536,-9252.574275,-518.144159,2451.505594
815.826857,-9474.636058,592.164754,3217.601092
815.827178,-9844.739029,962.267725,3370.820191
815.827499,-9326.594869,1184.329507,2604.724693
815.827820,-9844.739029,-74.020594,2068.457845
815.828141,-9252.574275,-1184.329507,1378.971896
815.828462,-9400.615463,-1702.473667,0.000000
815.828783,-9178.553681,-1850.514855,-1302.362347
815.829103,-8660.409521,-1258.350101,-1302.362347
815.829424,-9474.636058,-518.144159,-995.924147
815.829745,-9770.718434,-444.123565,-689.485948
815.830066,-9400.615463,-148.041188,229.828649
815.830387,-10066.800811,-370.102971,383.047749
815.830708,-9770.718434,-444.123565,995.924147
815.831029,-10214.842000,-962.267725,1302.362347
815.831349,-9622.677246,-740.205942,2911.162892
815.831670,-9326.594869,-1110.308913,1838.629195
815.831991,-9030.512492,-518.144159,1915.238745
815.832312,-9474.636058,0.000000,2221.676944
815.832633,-10066.800811,888.247130,2681.334243
815.832954,-9696.697840,666.185348,2451.505594
815.833275,-9992.780217,666.185348,1838.629195
815.833596,-9622.677246,74.020594,1378.971896
815.833916,-9770.718434,-814.226536,536.266849
815.834237,-9252.574275,-1110.308913,-612.876398
815.834558,-9622.677246,-1184.329507,-919.314598
815.834879,-9474.636058,-592.164754,-995.924147
815.835200,-10214.842000,-148.041188,-306.438199
815.835521,-10140.821405,740.205942,459.657299
815.835842,-10658.965565,-222.061783,766.095498
815.836163,-10362.883188,0.000000,842.705048
815.836483,-9918.759623,0.000000,1149.143247
815.836804,-9770.718434,0.000000,1685.410096
815.837125,-9474.636058,148.041188,1838.629195
815.837446,-9104.533087,222.061783,1838.629195
815.837767,-8956.491898,592.164754,1915.238745
815.838088,-9030.512492,666.185348,2528.115143
815.838409,-9474.636058,888.247130,3140.991542
815.838729,-9622.677246,518.144159,2604.724693
815.839050,-9474.636058,0.000000,2451.505594
815.839371,-9326.594869,-370.102971,1072.533697
815.839692,-9474.636058,-1184.329507,229.828649
815.840013,-8956.491898,-1480.411884,-383.047749
815.840334,-8882.471304,-1480.411884,-536.266849
815.840655,-8956.491898,-962.267725,0.000000
815.840976,-9622.677246,-1332.370696,0.000000
815.841296,-9622.677246,-1184.329507,153.219100
815.841617,-9844.739029,-518.144159,459.657299
815.841938,-9844.739029,-296.082377,1378.971896
815.842259,-9622.677246,-222.061783,2068.457845
815.842580,-9696.697840,-518.144159,3064.381992
815.842901,-9252.574275,-666.185348,2298.286494
815.843222,-8882.471304,-444.123565,2451.505594
815.843542,-9178.553681,74.020594,2374.896044
815.843863,-9326.594869,962.267725,4749.792088
815.844184,-9696.697840,1406.391290,2451.505594
815.844505,-9844.739029,888.247130,2221.676944
815.844826,-9622.677246,148.041188,1302.362347
815.845147,-9474.636058,-666.185348,306.438199
815.845468,-10214.842000,-740.205942,0.000000
815.845789,-9770.718434,-888.247130,-153.219100
815.846109,-9844.739029,-666.185348,-383.047749
815.846430,-9918.759623,-222.061783,-153.219100
815.846751,-10066.800811,-592.164754,229.828649
815.847072,-10362.883188,-962.267725,536.266849
815.847393,-10214.842000,-1036.288319,229.828649
815.847714,-9770.718434,-518.144159,842.705048
815.848035,-8808.450710,-1184.329507,1532.190996
815.848356,-9770.718434,-222.061783,1685.410096
815.848676,-9104.533087,0.000000,1762.019645
815.848997,-9474.636058,0.000000,2145.067394
815.849318,-9770.718434,296.082377,2451.505594
815.849639,-9770.718434,518.144159,2451.505594
815.849960,-9992.780217,888.247130,2528.115143
815.850281,-10066.800811,888.247130,2068.457845
815.850602,-9548.656652,0.000000,1072.533697
815.850922,-8586.388927,-962.267725,153.219100
815.851243,-9252.574275,-1406.391290,-1378.971896
815.851564,-8956.491898,-1110.308913,-1915.238745
815.851885,-9030.512492,-814.226536,-1302.362347
815.852206,-9400.615463,-592.164754,459.657299
815.852527,-9696.697840,-666.185348,0.000000
815.852848,-9918.759623,-740.205942,-229.828649
815.853169,-9844.739029,-518.144159,995.924147
815.853489,-9992.780217,-814.226536,1302.362347
815.853810,-9548.656652,-962.267725,2298.286494
815.854131,-9326.594869,-1110.308913,2068.457845
815.854452,-8808.450710,-666.185348,2298.286494
815.854773,-8808.450710,-148.041188,2528.115143
815.855094,-9252.574275,666.185348,2834.553343
815.855415,-9252.574275,740.205942,2374.896044
815.855736,-9474.636058,370.102971,1915.238745
815.856056,-9474.636058,148.041188,1455.581446
815.856377,-9474.636058,-1110.308913,919.314598
815.856698,-9474.636058,-1406.391290,306.438199
815.857019,-9326.594869,-1702.473667,-229.828649
815.857340,-9252.574275,-1702.473667,-383.047749
815.857661,-9696.697840,-962.267725,0.000000
815.857982,-10362.883188,-592.164754,612.876398
815.858302,-10658.965565,-888.247130,919.314598
815.858623,-10066.800811,-666.185348,1378.971896
815.858944,-9696.697840,-666.185348,1455.581446
815.859265,-10288.862594,0.000000,1762.019645
815.859586,-9696.697840,-444.123565,1838.629195
815.859907,-9252.574275,-666.185348,2068.457845
815.860228,-9400.615463,0.000000,2451.505594
815.860548,-9770.718434,740.205942,2451.505594
815.860869,-9918.759623,888.247130,2757.943793
815.861190,-10288.862594,1628.453072,2911.162892
815.861511,-10140.821405,1332.370696,2451.505594
815.861831,-10066.800811,370.102971,1991.848295
815.862152,-9844.739029,-888.247130,1762.019645
815.862473,-9622.677246,-1850.514855,-689.485948
815.862794,-9104.533087,-1850.514855,-1762.019645
815.863115,-9030.512492,-1406.391290,-1762.019645
815.863435,-9844.739029,-592.164754,-689.485948
815.863756,-9696.697840,-148.041188,-995.924147
815.864077,-9918.759623,-296.082377,-306.438199
815.864398,-10288.862594,-296.082377,0.000000
815.864719,-9918.759623,-888.247130,689.485948
815.865039,-9844.739029,-962.267725,995.924147
815.865360,-9326.594869,-1036.288319,1532.190996
815.865681,-8882.471304,-518.144159,1149.143247
815.866002,-8586.388927,0.000000,1455.581446
815.866323,-8734.430116,518.144159,2374.896044
815.866643,-9474.636058,1110.308913,2221.676944
815.866964,-9474.636058,1184.329507,1762.019645
815.867285,-9474.636058,518.144159,1532.190996
815.867606,-9326.594869,-148.041188,1378.971896
815.867927,-9326.594869,-962.267725,76.609550
815.868247,-9252.574275,-1258.350101,306.438199
815.868568,-9326.594869,-814.226536,0.000000
815.868889,-9326.594869,-666.185348,229.828649
815.869210,-9474.636058,-592.164754,1072.533697
815.869531,-10288.862594,-518.144159,1302.362347
815.869851,-9918.759623,-148.041188,1685.410096
815.870172,-10362.883188,-666.185348,2145.067394
815.870493,-9474.636058,-148.041188,2911.162892
815.870814,-9104.533087,-444.123565,2528.115143
815.871135,-9622.677246,-444.123565,2451.505594
815.871455,-8734.430116,-148.041188,2374.896044
815.871776,-9326.594869,74.020594,2298.286494
815.872097,-10214.842000,962.267725,3830.477490
815.872418,-9622.677246,888.247130,2451.505594
815.872738,-10658.965565,1036.288319,3064.381992
815.873059,-10066.800811,888.247130,2451.505594
815.873380,-10214.842000,74.020594,995.924147
815.873701,-9844.739029,-666.185348,612.876398
815.874022,-9474.636058,-1258.350101,-919.314598
815.874342,-9474.636058,-1184.329507,-1685.410096
815.874663,-9844.739029,-444.123565,-842.705048
815.874984,-9474.636058,0.000000,-1149.143247
815.875305,-10214.842000,-222.061783,-306.438199
815.875626,-10510.924376,-740.205942,459.657299
815.875946,-9770.718434,-148.041188,1072.533697
815.876267,-10214.842000,-370.102971,2757.943793
815.876588,-9622.677246,-814.226536,2451.505594
815.876909,-9474.636058,-444.123565,2068.457845
815.877230,-9030.512492,0.000000,1991.848295
815.877550,-9030.512492,222.061783,2068.457845
815.877871,-9252.574275,1036.288319,2221.676944
815.878192,-9474.636058,444.123565,1915.238745
815.878513,-9178.553681,370.102971,1378.971896
815.878834,-9178.553681,-592.164754,459.657299
815.879154,-9474.636058,-1332.370696,919.314598
815.879475,-8882.471304,-2072.576638,-766.095498
815.879796,-8660.409521,-1998.556043,-1302.362347
815.880117,-9474.636058,-1480.411884,-1225.752797
815.880438,-9400.615463,-962.267725,-689.485948
815.880758,-9844.739029,-1184.329507,-383.047749
815.881079,-10140.821405,-740.205942,306.438199
815.881400,-10066.800811,-814.226536,536.266849
815.881721,-9548.656652,-444.123565,1149.143247
815.882041,-9548.656652,-370.102971,1685.410096
815.882362,-9400.615463,-444.123565,1991.848295
815.882683,-9474.636058,-370.102971,2068.457845
815.883004,-9178.553681,0.000000,2451.505594
815.883325,-9770.718434,962.267725,1532.190996
815.883645,-9918.759623,1480.411884,2911.162892
815.883966,-9992.780217,1554.432478,2834.553343
815.884287,-10288.862594,1184.329507,2681.334243
815.884608,-9844.739029,74.020594,1608.800546
815.884929,-9992.780217,-962.267725,689.485948
815.885249,-9474.636058,-1332.370696,-153.219100
815.885570,-9400.615463,-1554.432478,-383.047749
815.885891,-9548.656652,-962.267725,0.000000
815.886212,-9844.739029,-592.164754,306.438199
815.886533,-10362.883188,-148.041188,229.828649
815.886853,-10510.924376,-222.061783,766.095498
815.887174,-10288.862594,-592.164754,1532.190996
815.887495,-10214.842000,-1702.473667,2298.286494
815.887816,-10140.821405,-1036.288319,3064.381992
815.888137,-9548.656652,-1110.308913,2604.724693
815.888457,-9252.574275,-740.205942,2757.943793
815.888778,-9104.533087,-1258.350101,2528.115143
815.889099,-9252.574275,0.000000,2681.334243
815.889420,-9474.636058,740.205942,2528.115143
815.889741,-9326.594869,592.164754,1838.629195
815.890061,-9252.574275,74.020594,1225.752797
815.890382,-9252.574275,-518.144159,536.266849
815.890703,-9474.636058,-1184.329507,0.000000
815.891024,-9252.574275,-1406.391290,-459.657299
815.891345,-9474.636058,-1480.411884,-1149.143247
815.891665,-9696.697840,-1332.370696,-612.876398
815.891986,-9622.677246,-296.082377,0.000000
815.892307,-10066.800811,-148.041188,0.000000
815.892628,-9326.594869,0.000000,76.609550
815.892948,-9548.656652,962.267725,1838.629195
815.893269,-9474.636058,0.000000,842.705048
815.893590,-9326.594869,-296.082377,1302.362347
815.893911,-8808.450710,-444.123565,1225.752797
815.894232,-9326.594869,-148.041188,1685.410096
815.894552,-8808.450710,296.082377,1991.848295
815.894873,-9696.697840,962.267725,2604.724693
815.895194,-9992.780217,1628.453072,2681.334243
815.895515,-9918.759623,1332.370696,2145.067394
815.895836,-10214.842000,296.082377,1072.533697
815.896156,-9548.656652,-666.185348,0.000000
815.896477,-9622.677246,-1406.391290,-766.095498
815.896798,-9474.636058,-1258.350101,-1302.362347
815.897119,-9474.636058,222.061783,306.438199
815.897440,-10140.821405,0.000000,76.609550
815.897760,-10658.965565,-370.102971,383.047749
815.898081,-10658.965565,-370.102971,689.485948
815.898402,-10658.965565,-518.144159,1225.752797
815.898723,-10214.842000,-888.247130,1455.581446
815.899044,-9844.739029,-666.185348,2221.676944
815.899364,-9474.636058,-666.185348,2145.067394
815.899685,-9326.594869,-222.061783,2145.067394
815.900006,-8438.347739,0.000000,2987.772442
815.900327,-9252.574275,370.102971,2374.896044
815.900648,-9696.697840,444.123565,2681.334243
815.900968,-9918.759623,222.061783,2298.286494
815.901289,-9548.656652,-222.061783,1762.019645
815.901610,-9622.677246,-814.226536,995.924147
815.901931,-9252.574275,-1406.391290,76.609550
815.902251,-9326.594869,-1702.473667,-612.876398
815.902572,-8956.491898,-1480.411884,-536.266849
815.902893,-9030.512492,-1036.288319,-459.657299
815.903214,-9622.677246,-370.102971,306.438199
815.903535,-9918.759623,-666.185348,842.705048
815.903855,-9844.739029,-666.185348,766.095498
815.904176,-9770.718434,-444.123565,1149.143247
815.904497,-9400.615463,-518.144159,1378.971896
815.904818,-9548.656652,-370.102971,2298.286494
815.905139,-9326.594869,-666.185348,2757.943793
815.905459,-9252.574275,-666.185348,2834.553343
815.905780,-9474.636058,0.000000,2451.505594
815.906101,-9474.636058,740.205942,2987.772442
815.906422,-9844.739029,1110.308913,2451.505594
815.906743,-9992.780217,1184.329507,2604.724693
815.907063,-9918.759623,74.020594,1685.410096
815.907384,-9696.697840,-666.185348,842.705048
815.907705,-9770.718434,-1850.514855,-612.876398
815.908026,-9326.594869,-1850.514855,-1225.752797
815.908347,-9696.697840,-962.267725,-1608.800546
815.908667,-9622.677246,-592.164754,-995.924147
815.908988,-10066.800811,-666.185348,-536.266849
815.909309,-9770.718434,-1036.288319,-229.828649
815.909630,-9918.759623,-1036.288319,1532.190996
815.909951,-10066.800811,-962.267725,995.924147
815.910271,-10140.821405,-1036.288319,1838.629195
815.910592,-9770.718434,-518.144159,2451.505594
815.910913,-9252.574275,-370.102971,2221.676944
815.911234,-9252.574275,0.000000,2068.457845
815.911555,-9400.615463,296.082377,2528.115143
815.911875,-9622.677246,1258.350101,2451.505594
815.912196,-9696.697840,1036.288319,1991.848295
815.912517,-9548.656652,370.102971,1532.190996
815.912838,-9474.636058,0.000000,919.314598
815.913158,-9400.615463,-1110.308913,153.219100
815.913479,-9474.636058,-1480.411884,-306.438199
815.913800,-9178.553681,-962.267725,-1532.190996
815.914121,-9326.594869,-1184.329507,-612.876398
815.914442,-9918.759623,-296.082377,0.000000
815.914762,-10288.862594,-148.041188,689.485948
815.915083,-10288.862594,-666.185348,0.000000
815.915404,-9400.615463,-518.144159,842.705048
815.915725,-9696.697840,-1184.329507,1149.143247
815.916046,-8956.491898,-296.082377,1915.238745
815.916366,-9770.718434,-1110.308913,2451.505594
815.916687,-8734.430116,-740.205942,1838.629195
815.917008,-9252.574275,148.041188,2145.067394
815.917329,-9474.636058,814.226536,2681.334243
815.917650,-9844.739029,1406.391290,2834.553343
815.917970,-9992.780217,1554.432478,2451.505594
815.918291,-9844.739029,518.144159,2068.457845
815.918612,-8808.450710,0.000000,612.876398
815.918933,-9474.636058,-1332.370696,-76.609550
815.919254,-9474.636058,-1480.411884,-689.485948
815.919574,-9178.553681,-1110.308913,-1072.533697
815.919895,-9104.533087,-222.061783,-536.266849
815.920216,-9696.697840,-740.205942,-459.657299
815.920537,-9622.677246,-370.102971,0.000000
815.920858,-10066.800811,-1110.308913,459.657299
815.921178,-9992.780217,-962.267725,919.314598
815.921499,-9918.759623,-1258.350101,1915.238745
815.921820,-9770.718434,-1258.350101,2298.286494
815.922141,-9400.615463,-1480.411884,2911.162892
815.922461,-9104.533087,-222.061783,2145.067394
815.922782,-9252.574275,0.000000,2528.115143
815.923103,-9474.636058,592.164754,2528.115143
815.923424,-9622.677246,740.205942,2221.676944
815.923745,-9770.718434,592.164754,2068.457845
815.924065,-9474.636058,0.000000,1532.190996
815.924386,-9252.574275,-962.267725,612.876398
815.924707,-9474.636058,-1258.350101,0.000000
815.925028,-9326.594869,-1258.350101,-689.485948
815.925349,-9622.677246,-592.164754,-536.266849
815.925669,-9770.718434,0.000000,-153.219100
815.925990,-10288.862594,-296.082377,0.000000
815.926311,-9770.718434,-888.247130,-229.828649
815.926632,-9770.718434,-296.082377,536.266849
815.926953,-9844.739029,-444.123565,1149.143247
815.927273,-9770.718434,-370.102971,1915.238745
815.927594,-9474.636058,-1406.391290,1915.238745
815.927915,-9252.574275,-148.041188,1762.019645
815.928236,-9474.636058,444.123565,2374.896044
815.928557,-9474.636058,1184.329507,2987.772442
815.928877,-9918.759623,1406.391290,2681.334243
815.929198,-9844.739029,1628.453072,2298.286494
815.929519,-9622.677246,888.247130,1991.848295
815.929840,-9622.677246,-222.061783,1225.752797
815.930161,-9696.697840,-1110.308913,0.000000
815.930481,-9622.677246,-1702.473667,-1302.362347
815.930802,-9030.512492,-1480.411884,-1455.581446
815.931123,-9178.553681,-888.247130,-919.314598
815.931444,-9548.656652,-518.144159,-229.828649
815.931765,-9548.656652,-1480.411884,459.657299
815.932085,-9992.780217,-740.205942,459.657299
815.932406,-9622.677246,-1036.288319,995.924147
815.932727,-9770.718434,-1480.411884,1685.410096
815.933048,-9548.656652,-1332.370696,2451.505594
815.933368,-9030.512492,-1258.350101,2451.505594
815.933689,-8882.471304,-592.164754,1991.848295
815.934010,-8882.471304,0.000000,2221.676944
815.934331,-9326.594869,1036.288319,2451.505594
815.934652,-9696.697840,2072.576638,2451.505594
815.934972,-9918.759623,1480.411884,2451.505594
815.935293,-9622.677246,740.205942,1915.238745
815.935614,-9474.636058,0.000000,919.314598
815.935935,-9474.636058,0.000000,842.705048
815.936256,-9474.636058,-1406.391290,-459.657299
815.936576,-9252.574275,-888.247130,-383.047749
815.936897,-9548.656652,-518.144159,-153.219100
815.937218,-10140.821405,-370.102971,153.219100
815.937539,-10510.924376,-296.082377,842.705048
815.937860,-10288.862594,0.000000,1072.533697
815.938180,-10066.800811,0.000000,1455.581446
815.938501,-9770.718434,0.000000,2068.457845
815.938822,-9548.656652,-666.185348,2834.553343
815.939143,-9178.553681,-592.164754,2298.286494
815.939464,-9474.636058,-518.144159,2374.896044
815.939784,-9548.656652,444.123565,2604.724693
815.940105,-9622.677246,1110.308913,2757.943793
815.940426,-10288.862594,592.164754,2451.505594
815.940747,-9770.718434,1036.288319,1991.848295
815.941068,-9844.739029,-370.102971,1455.581446
815.941388,-9400.615463,-740.205942,153.219100
815.941709,-9622.677246,-1850.514855,-842.705048
815.942030,-9030.512492,-1924.535449,-1149.143247
815.942351,-9178.553681,-1850.514855,-1608.800546
815.942671,-9252.574275,-814.226536,-919.314598
815.942992,-9918.759623,-666.185348,-612.876398
815.943313,-9918.759623,0.000000,76.609550
815.943634,-10140.821405,0.000000,689.485948
815.943955,-9622.677246,-370.102971,1532.190996
815.944275,-9844.739029,-1406.391290,1149.143247
815.944596,-9104.533087,-1184.329507,2145.067394
815.944917,-9252.574275,-814.226536,1838.629195
815.945238,-8956.491898,-222.061783,2068.457845
815.945559,-8956.491898,74.020594,1915.238745
815.945879,-9252.574275,1036.288319,2298.286494
815.946200,-9474.636058,1258.350101,2068.457845
815.946521,-9474.636058,740.205942,1991.848295
815.946842,-9622.677246,-370.102971,766.095498
815.947163,-9474.636058,148.041188,842.705048
815.947483,-9474.636058,-1332.370696,-306.438199
815.947804,-9474.636058,-1258.350101,-229.828649
815.948125,-9548.656652,-1184.329507,0.000000
815.948446,-9844.739029,-962.267725,229.828649
815.948767,-9918.759623,-888.247130,76.609550
815.949087,-10066.800811,-888.247130,383.047749
815.949408,-9918.759623,-740.205942,1072.533697
815.949729,-9770.718434,-740.205942,1455.581446
815.950050,-9844.739029,-518.144159,2068.457845
815.950371,-9474.636058,-148.041188,2221.676944
815.950691,-9548.656652,0.000000,2451.505594
815.951012,-9622.677246,0.000000,2757.943793
815.951333,-10066.800811,740.205942,3140.991542
815.951654,-10066.800811,1036.288319,2834.553343
815.951975,-9844.739029,1406.391290,2987.772442
815.952295,-10140.821405,888.247130,2451.505594
815.952616,-9548.656652,74.020594,4290.134789
815.952937,-9548.656652,-1036.288319,76.609550
815.953258,-9104.533087,-1776.494261,-1149.143247
815.953578,-8956.491898,-1406.391290,-766.095498
815.953899,-9474.636058,-814.226536,-536.266849
815.954220,-9474.636058,-296.082377,0.000000
815.954541,-9918.759623,-222.061783,689.485948
815.954862,-10140.821405,-148.041188,689.485948
815.955182,-10066.800811,-148.041188,1685.410096
815.955503,-9696.697840,-592.164754,1532.190996
815.955824,-9474.636058,-444.123565,2757.943793
815.956145,-9030.512492,-888.247130,1991.848295
815.956466,-8586.388927,-370.102971,1915.238745
815.956786,-9252.574275,-296.082377,3524.039291
815.957107,-9178.553681,444.123565,2221.676944
815.957428,-9696.697840,592.164754,2145.067394
815.957749,-9400.615463,592.164754,1838.629195
815.958070,-9548.656652,-370.102971,612.876398
815.958390,-9400.615463,-592.164754,0.000000
815.958711,-9326.594869,-1406.391290,-306.438199
815.959032,-9252.574275,-1110.308913,-919.314598
815.959353,-9252.574275,-962.267725,-689.485948
815.959673,-9474.636058,-592.164754,-306.438199
815.959994,-10140.821405,-592.164754,0.000000
815.960315,-10066.800811,-370.102971,0.000000
815.960636,-9992.780217,-222.061783,842.705048
815.960956,-10066.800811,0.000000,2681.334243
815.961277,-9844.739029,-370.102971,1378.971896
815.961598,-9548.656652,-666.185348,1455.581446
815.961919,-9474.636058,-296.082377,1991.848295
815.962239,-9474.636058,0.000000,2298.286494
815.962560,-9474.636058,740.205942,2757.943793
815.962881,-9844.739029,888.247130,2298.286494
815.963202,-9918.759623,1184.329507,2757.943793
815.963522,-10066.800811,888.247130,2374.896044
815.963843,-9844.739029,296.082377,1225.752797
815.964164,-9770.718434,-888.247130,0.000000
815.964485,-9252.574275,-1110.308913,-1149.143247
815.964805,-9326.594869,-1184.329507,-1378.971896
815.965126,-8586.388927,-592.164754,-153.219100
815.965447,-9992.780217,-444.123565,-153.219100
815.965768,-9918.759623,-666.185348,0.000000
815.966088,-10066.800811,-740.205942,689.485948
815.966409,-10066.800811,-592.164754,1455.581446
815.966730,-9918.759623,-1036.288319,2145.067394
815.967051,-9844.739029,-592.164754,2604.724693
815.967371,-9252.574275,-962.267725,2298.286494
815.967692,-8660.409521,-296.082377,1991.848295
815.968013,-8956.491898,444.123565,2757.943793
815.968334,-9326.594869,666.185348,2604.724693
815.968654,-9474.636058,962.267725,2681.334243
815.968975,-9474.636058,592.164754,2145.067394
815.969296,-9474.636058,148.041188,1838.629195
815.969617,-9474.636058,-888.247130,536.266849
815.969937,-9400.615463,-1258.350101,229.828649
815.970258,-9104.533087,-1924.535449,-612.876398
815.970579,-8660.409521,-1184.329507,-919.314598
815.970900,-9622.677246,-1480.411884,-842.705048
815.971220,-9770.718434,-740.205942,-229.828649
815.971541,-10066.800811,-1110.308913,0.000000
815.971862,-9918.759623,-518.144159,766.095498
815.972183,-9400.615463,-888.247130,459.657299
815.972503,-9770.718434,-444.123565,1608.800546
815.972824,-9696.697840,-888.247130,1915.238745
815.973145,-9474.636058,-518.144159,1762.019645
815.973466,-9474.636058,-444.123565,2911.162892
815.973786,-9474.636058,222.061783,2451.505594
815.974107,-9770.718434,518.144159,2681.334243
815.974428,-9992.780217,888.247130,2528.115143
815.974749,-9918.759623,962.267725,2451.505594
815.975069,-9548.656652,0.000000,1685.410096
815.975390,-9622.677246,-740.205942,76.609550
815.975711,-9474.636058,-1258.350101,-536.266849
815.976032,-9548.656652,-962.267725,-1149.143247
815.976352,-9474.636058,-222.061783,-1225.752797
815.976673,-9696.697840,-296.082377,-383.047749
815.976994,-10214.842000,-888.247130,-76.609550
815.977315,-9992.780217,-592.164754,0.000000
815.977635,-10288.862594,-962.267725,1915.238745
815.977956,-9622.677246,-1036.288319,1225.752797
815.978277,-9992.780217,-962.267725,1838.629195
815.978598,-9474.636058,-444.123565,1838.629195
815.978918,-9400.615463,-222.061783,2298.286494
815.979239,-9474.636058,592.164754,2451.505594
815.979560,-9474.636058,518.144159,2528.115143
815.979881,-9474.636058,1258.350101,2145.067394
815.980201,-9770.718434,888.247130,2451.505594
815.980522,-9696.697840,148.041188,3217.601092
815.980843,-9548.656652,-592.164754,689.485948
815.981164,-9030.512492,-1036.288319,76.609550
815.981484,-9104.533087,-1554.432478,-459.657299
815.981805,-8808.450710,-1184.329507,-1149.143247
815.982126,-9326.594869,-814.226536,-689.485948
815.982447,-9548.656652,-592.164754,0.000000
815.982767,-9918.759623,-296.082377,459.657299
815.983088,-9696.697840,-814.226536,919.314598
815.983409,-9400.615463,-666.185348,995.924147
815.983730,-9548.656652,-592.164754,1991.848295
815.984050,-9474.636058,-962.267725,2528.115143
815.984371,-9104.533087,-1110.308913,2221.676944
815.984692,-9030.512492,-592.164754,2451.505594
815.985013,-9400.615463,0.000000,2451.505594
815.985333,-9474.636058,592.164754,3064.381992
815.985654,-9548.656652,962.267725,2834.553343
815.985975,-9696.697840,1332.370696,3294.210641
815.986296,-9696.697840,740.205942,1838.629195
815.986616,-9622.677246,-222.061783,919.314598
815.986937,-9548.656652,-1184.329507,0.000000
815.987258,-9252.574275,-1332.370696,-1149.143247
815.987579,-9178.553681,-1110.308913,-842.705048
815.987899,-9696.697840,0.000000,-766.095498
815.988220,-10066.800811,0.000000,-689.485948
815.988541,-9992.780217,592.164754,-383.047749
815.988862,-10140.821405,74.020594,-383.047749
815.989182,-10214.842000,0.000000,689.485948
815.989503,-10066.800811,-370.102971,1149.143247
815.989824,-9474.636058,-518.144159,1072.533697
815.990145,-9474.636058,-222.061783,1149.143247
815.990465,-9622.677246,518.144159,1838.629195
815.990786,-9548.656652,370.102971,2298.286494
815.991107,-9622.677246,666.185348,2374.896044
815.991428,-9696.697840,666.185348,2068.457845
815.991748,-9622.677246,74.020594,2145.067394
815.992069,-9696.697840,-666.185348,1302.362347
815.992390,-9474.636058,-1258.350101,536.266849
815.992711,-9178.553681,-1406.391290,0.000000
815.993031,-9104.533087,-1406.391290,-229.828649
815.993352,-9104.533087,-1184.329507,153.219100
815.993673,-9474.636058,-740.205942,612.876398
815.993994,-9992.780217,-518.144159,1532.190996
815.994314,-10066.800811,-1184.329507,1455.581446
815.994635,-9474.636058,-666.185348,2451.505594
815.994956,-9918.759623,-592.164754,2374.896044
815.995277,-9474.636058,-962.267725,2757.943793
815.995597,-8882.471304,-814.226536,2911.162892
815.995918,-9104.533087,-592.164754,2987.772442
815.996239,-7994.224174,0.000000,2298.286494
815.996560,-9178.553681,592.164754,2681.334243
815.996880,-10066.800811,1480.411884,2757.943793
815.997201,-9548.656652,1628.453072,2757.943793
815.997522,-9918.759623,1110.308913,1991.848295
815.997843,-9622.677246,74.020594,1302.362347
815.998163,-9474.636058,-1184.329507,-383.047749
815.998484,-9326.594869,-1702.473667,-689.485948
815.998805,-9326.594869,-1406.391290,-1378.971896
815.999126,-9252.574275,-296.082377,-306.438199
815.999446,-9992.780217,-592.164754,-689.485948
815.999767,-10140.821405,-296.082377,153.219100
816.000088,-10362.883188,-518.144159,229.828649
816.000409,-10436.903782,-962.267725,842.705048
816.000729,-10288.862594,-1258.350101,1378.971896
816.001050,-9770.718434,-888.247130,1838.629195
816.001371,-9474.636058,-814.226536,1532.190996
816.001692,-9326.594869,0.000000,1685.410096
816.002012,-9400.615463,666.185348,1302.362347
816.002333,-9474.636058,962.267725,1915.238745
816.002654,-9548.656652,962.267725,1991.848295
816.002975,-9622.677246,888.247130,1455.581446
816.003295,-9696.697840,0.000000,842.705048
816.003616,-9474.636058,-592.164754,76.609550
816.003937,-9400.615463,-1036.288319,-536.266849
816.004258,-9326.594869,-962.267725,-1225.752797
816.004578,-8956.491898,-666.185348,-1149.143247
816.004899,-9548.656652,-1036.288319,-1225.752797
816.005220,-9770.718434,-740.205942,-459.657299
816.005541,-9844.739029,-1110.308913,0.000000
816.005861,-9992.780217,-1036.288319,459.657299
816.006182,-9770.718434,-518.144159,1072.533697
816.006503,-9474.636058,-444.123565,2145.067394
816.006824,-9474.636058,-666.185348,2068.457845
816.007144,-9252.574275,-148.041188,1991.848295
816.007465,-9178.553681,-296.082377,2374.896044
816.007786,-9400.615463,74.020594,2911.162892
816.008107,-9326.594869,592.164754,2911.162892
816.008427,-9622.677246,740.205942,2451.505594
816.008748,-9548.656652,296.082377,2298.286494
816.009069,-8956.491898,-814.226536,1838.629195
816.009390,-9548.656652,-1184.329507,766.095498
816.009710,-9622.677246,-1480.411884,0.000000
816.010031,-9400.615463,-1406.391290,-459.657299
816.010352,-9252.574275,-370.102971,306.438199
816.010673,-9696.697840,-148.041188,383.047749
816.010993,-10214.842000,0.000000,919.314598
816.011314,-10214.842000,-666.185348,1149.143247
816.011635,-9844.739029,-592.164754,1608.800546
816.011956,-10288.862594,-666.185348,2451.505594
816.012276,-10140.821405,-592.164754,2911.162892
816.012597,-9770.718434,-962.267725,3294.210641
816.012918,-9252.574275,-592.164754,2604.724693
816.013239,-9104.533087,-296.082377,2757.943793
816.013559,-9030.512492,370.102971,2451.505594
816.013880,-9474.636058,814.226536,2145.067394
816.014201,-9696.697840,592.164754,1838.629195
816.014522,-9696.697840,962.267725,1532.190996
816.014842,-9326.594869,-296.082377,76.609550
816.015163,-9474.636058,-962.267725,-229.828649
816.015484,-9474.636058,-1184.329507,-689.485948
816.015805,-9326.594869,-962.267725,-919.314598
816.016125,-9474.636058,-962.267725,-153.219100
816.016446,-10066.800811,-222.061783,-306.438199
816.016767,-10214.842000,-370.102971,0.000000
816.017088,-9992.780217,0.000000,306.438199
816.017408,-10066.800811,222.061783,842.705048
816.017729,-9622.677246,74.020594,1225.752797
816.018050,-9474.636058,-444.123565,1685.410096
816.018371,-9104.533087,-518.144159,1302.362347
816.018691,-9326.594869,0.000000,2068.457845
816.019012,-9178.553681,148.041188,2451.505594
816.019333,-9548.656652,666.185348,2221.676944
816.019654,-9474.636058,1036.288319,2298.286494
816.019974,-10066.800811,1184.329507,1915.238745
816.020295,-9770.718434,592.164754,1455.581446
816.020616,-9696.697840,-148.041188,153.219100
816.020937,-9326.594869,-1036.288319,-919.314598
816.021257,-9474.636058,-1480.411884,-1762.019645
816.021578,-8734.430116,-1628.453072,-689.485948
816.021899,-9474.636058,-1110.308913,-919.314598
816.022220,-9844.739029,-1110.308913,-536.266849
816.022540,-10214.842000,-1036.288319,459.657299
816.022861,-10140.821405,-740.205942,1455.581446
816.023182,-10436.903782,-740.205942,1762.019645
816.023503,-10140.821405,-592.164754,2451.505594
816.023823,-9548.656652,-370.102971,2911.162892
816.024144,-9548.656652,-814.226536,3140.991542
816.024465,-9030.512492,-444.123565,2681.334243
816.024786,-9326.594869,222.061783,2834.553343
816.025106,-9400.615463,740.205942,2298.286494
816.025427,-9400.615463,1184.329507,2145.067394
816.025748,-9918.759623,1554.432478,1532.190996
816.026069,-9548.656652,148.041188,842.705048
816.026389,-9474.636058,-1184.329507,76.609550
816.026710,-9622.677246,-1332.370696,0.000000
816.027031,-9326.594869,-740.205942,-1608.800546
816.027352,-9548.656652,-1110.308913,0.000000
816.027672,-9548.656652,-888.247130,459.657299
816.027993,-9770.718434,-1110.308913,229.828649
816.028314,-9548.656652,-1110.308913,536.266849
816.028634,-9622.677246,-444.123565,689.485948
816.028955,-9474.636058,-740.205942,1149.143247
816.029276,-9696.697840,-370.102971,1915.238745
816.029597,-9400.615463,-592.164754,1838.629195
816.029917,-9474.636058,-370.102971,1608.800546
816.030238,-9474.636058,0.000000,2451.505594
816.030559,-9918.759623,444.123565,2528.115143
816.030880,-9918.759623,1036.288319,2528.115143
816.031200,-9844.739029,1776.494261,3524.039291
816.031521,-10140.821405,740.205942,1302.362347
816.031842,-9400.615463,0.000000,612.876398
816.032163,-9474.636058,-1406.391290,-459.657299
816.032483,-9104.533087,-1332.370696,-1225.752797
816.032804,-8956.491898,-1184.329507,-1838.629195
816.033125,-9474.636058,-296.082377,-766.095498
816.033446,-10288.862594,-888.247130,0.000000
816.033766,-9992.780217,-1110.308913,0.000000
816.034087,-10510.924376,-1332.370696,536.266849
816.034408,-9770.718434,-888.247130,1378.971896
816.034729,-10288.862594,-1332.370696,2451.505594
816.035049,-9548.656652,-1110.308913,2528.115143
816.035370,-9400.615463,-666.185348,1608.800546
816.035691,-8808.450710,-148.041188,2145.067394
816.036012,-8956.491898,74.020594,2451.505594
816.036332,-9622.677246,592.164754,2528.115143
816.036653,-9622.677246,444.123565,2145.067394
816.036974,-9548.656652,814.226536,1762.019645
816.037295,-9252.574275,-222.061783,1149.143247
816.037615,-9178.553681,-1036.288319,306.438199
816.037936,-9474.636058,-1554.432478,0.000000
816.038257,-8142.265362,-1554.432478,536.266849
816.038578,-9178.553681,-1258.350101,-306.438199
816.038898,-9770.718434,-666.185348,0.000000
816.039219,-10066.800811,-740.205942,229.828649
816.039540,-10288.862594,-74.020594,0.000000
816.039861,-10066.800811,0.000000,1378.971896
816.040181,-9844.739029,-296.082377,1378.971896
816.040502,-9622.677246,-444.123565,1762.019645
816.040823,-9696.697840,-888.247130,1915.238745
816.041144,-9030.512492,-444.123565,1915.238745
816.041464,-9474.636058,370.102971,2145.067394
816.041785,-9474.636058,1406.391290,2298.286494
816.042106,-9918.759623,1850.514855,2451.505594
816.042427,-9770.718434,1998.556043,2298.286494
816.042747,-9844.739029,1406.391290,1685.410096
816.043068,-9474.636058,518.144159,919.314598
816.043389,-9696.697840,-1110.308913,0.000000
816.043710,-9326.594869,-1554.432478,-1838.629195
816.044030,-9030.512492,-1776.494261,-1532.190996
816.044351,-8956.491898,-740.205942,-919.314598
816.044672,-9770.718434,-814.226536,-612.876398
816.044993,-10066.800811,-592.164754,383.047749
816.045313,-10140.821405,-814.226536,612.876398
816.045634,-9992.780217,-518.144159,1378.971896
816.045955,-10288.862594,-740.205942,2451.505594
816.046276,-9918.759623,-444.123565,2987.772442
816.046596,-9400.615463,-1258.350101,689.485948
816.046917,-9030.512492,-296.082377,2834.553343
816.047238,-9178.553681,74.020594,2528.115143
816.047559,-8734.430116,1480.411884,2221.676944
816.047879,-9474.636058,1554.432478,3064.381992
816.048200,-9252.574275,2072.576638,1991.848295
816.048521,-9252.574275,888.247130,1302.362347
816.048842,-9252.574275,-296.082377,229.828649
816.049162,-9474.636058,-962.267725,0.000000
816.049483,-9622.677246,-1184.329507,-459.657299
816.049804,-9326.594869,-962.267725,-842.705048
816.050125,-9918.759623,-888.247130,0.000000
816.050445,-10362.883188,-296.082377,536.266849
816.050766,-10362.883188,-1036.288319,-153.219100
816.051087,-9992.780217,-444.123565,0.000000
816.051408,-9622.677246,-296.082377,153.219100
816.051728,-9474.636058,-148.041188,1225.752797
816.052049,-9474.636058,-666.185348,1455.581446
816.052370,-9252.574275,-1110.308913,1685.410096
816.052691,-9622.677246,-888.247130,2298.286494
816.053011,-9326.594869,-666.185348,2451.505594
816.053332,-9622.677246,74.020594,2604.724693
816.053653,-9844.739029,814.226536,2604.724693
816.053974,-9770.718434,814.226536,2451.505594
816.054294,-9622.677246,148.041188,1762.019645
816.054615,-9474.636058,-962.267725,76.609550
816.054936,-9030.512492,-1776.494261,-842.705048
816.055257,-9326.594869,-1480.411884,-995.924147
816.055577,-9474.636058,-888.247130,-766.095498
816.055898,-10066.800811,-962.267725,0.000000
816.056219,-9844.739029,-740.205942,383.047749
816.056540,-10362.883188,-1110.308913,842.705048
816.056860,-10140.821405,-1036.288319,1149.143247
816.057181,-10066.800811,-1036.288319,2145.067394
816.057502,-9696.697840,-740.205942,2298.286494
816.057823,-9474.636058,-370.102971,2451.505594
816.058143,-9030.512492,-666.185348,2068.457845
816.058464,-8956.491898,-74.020594,2298.286494
816.058785,-9252.574275,0.000000,2451.505594
816.059106,-8808.450710,518.144159,2757.943793
816.059426,-9770.718434,518.144159,2068.457845
816.059747,-9548.656652,370.102971,1608.800546
816.060068,-9474.636058,0.000000,842.705048
816.060389,-9474.636058,-518.144159,536.266849
816.060709,-9548.656652,-1184.329507,-153.219100
816.061030,-9104.533087,-1554.432478,-842.705048
816.061351,-9622.677246,-1554.432478,-612.876398
816.061672,-9622.677246,-1480.411884,-383.047749
816.061992,-10214.842000,-1480.411884,0.000000
816.062313,-9844.739029,-962.267725,383.047749
816.062634,-10140.821405,-592.164754,842.705048
816.062955,-9696.697840,148.041188,1532.190996
816.063275,-9696.697840,74.020594,2068.457845
816.063596,-9622.677246,-296.082377,2374.896044
816.063917,-9178.553681,222.061783,2374.896044
816.064237,-9696.697840,148.041188,2528.115143
816.064558,-9474.636058,592.164754,2451.505594
816.064879,-9844.739029,888.247130,2604.724693
816.065200,-9770.718434,814.226536,1762.019645
816.065520,-9474.636058,518.144159,1532.190996
816.065841,-9622.677246,-444.123565,0.000000
816.066162,-8882.471304,-740.205942,-1072.533697
816.066483,-9030.512492,-592.164754,-2068.457845
816.066803,-9474.636058,0.000000,-1378.971896
816.067124,-9548.656652,0.000000,-919.314598
816.067445,-10066.800811,0.000000,0.000000
816.067766,-10288.862594,-592.164754,-153.219100
816.068086,-10214.842000,-296.082377,766.095498
816.068407,-10288.862594,-592.164754,1532.190996
816.068728,-9918.759623,-296.082377,2298.286494
816.069048,-9474.636058,-444.123565,2298.286494
816.069369,-9104.533087,-148.041188,2145.067394
816.069690,-9104.533087,0.000000,1991.848295
816.070011,-9104.533087,-148.041188,2298.286494
816.070331,-8660.409521,-296.082377,3370.820191
816.070652,-9844.739029,666.185348,2298.286494
816.070973,-9474.636058,296.082377,2145.067394
816.071294,-9326.594869,-222.061783,1225.752797
816.071614,-9474.636058,-740.205942,689.485948
816.071935,-9474.636058,-888.247130,76.609550
816.072256,-9400.615463,-888.247130,0.000000
816.072577,-9474.636058,-962.267725,0.000000
816.072897,-9622.677246,-962.267725,383.047749
816.073218,-10140.821405,-1406.391290,689.485948
816.073539,-9770.718434,-592.164754,1072.533697
816.073859,-9992.780217,-740.205942,1149.143247
816.074180,-9770.718434,0.000000,1915.238745
816.074501,-9104.533087,-518.144159,2987.772442
816.074822,-9474.636058,-518.144159,2068.457845
816.075142,-9622.677246,0.000000,2145.067394
816.075463,-9548.656652,-222.061783,2451.505594
816.075784,-9474.636058,148.041188,4213.525239
816.076105,-9918.759623,888.247130,2451.505594
816.076425,-9844.739029,1110.308913,2374.896044
816.076746,-9844.739029,666.185348,2145.067394
816.077067,-9548.656652,-592.164754,1302.362347
816.077387,-9622.677246,-888.247130,-229.828649
816.077708,-9252.574275,-1776.494261,-1378.971896
816.078029,-9104.533087,-1258.350101,-1149.143247
816.078350,-9326.594869,-888.247130,-842.705048
816.078670,-9548.656652,-1480.411884,-842.705048
816.078991,-9844.739029,-1036.288319,-229.828649
816.079312,-10214.842000,-518.144159,229.828649
816.079633,-10436.903782,-666.185348,995.924147
816.079953,-10066.800811,-592.164754,1838.629195
816.080274,-9918.759623,-148.041188,1762.019645
816.080595,-9326.594869,-296.082377,1762.019645
816.080916,-9474.636058,0.000000,2145.067394
816.081236,-9030.512492,74.020594,2068.457845
816.081557,-9178.553681,666.185348,2374.896044
816.081878,-9548.656652,888.247130,2145.067394
816.082198,-9400.615463,296.082377,1608.800546
816.082519,-9474.636058,-296.082377,1072.533697
816.082840,-9992.780217,0.000000,1149.143247
816.083161,-9400.615463,-1702.473667,-383.047749
816.083481,-9252.574275,-1850.514855,-689.485948
816.083802,-9030.512492,-1480.411884,-919.314598
816.084123,-9770.718434,-740.205942,-229.828649
816.084444,-9696.697840,-222.061783,229.828649
816.084764,-9770.718434,-444.123565,306.438199
816.085085,-9992.780217,-444.123565,612.876398
816.085406,-9844.739029,-296.082377,1072.533697
816.085726,-9622.677246,-518.144159,2145.067394
816.086047,-9548.656652,-666.185348,2451.505594
816.086368,-9474.636058,-666.185348,2298.286494
816.086689,-9252.574275,-222.061783,2298.286494
816.087009,-9770.718434,814.226536,1915.238745
816.087330,-9770.718434,814.226536,2757.943793
816.087651,-9844.739029,1332.370696,2451.505594
816.087972,-9770.718434,666.185348,2298.286494
816.088292,-9844.739029,0.000000,919.314598
816.088613,-9474.636058,-1110.308913,0.000000
816.088934,-9474.636058,-1406.391290,-689.485948
816.089255,-9178.553681,-1258.350101,-1225.752797
816.089575,-9326.594869,-814.226536,-919.314598
816.089896,-9918.759623,-814.226536,-766.095498
816.090217,-10288.862594,-370.102971,0.000000
816.090537,-10510.924376,-888.247130,153.219100
816.090858,-10362.883188,-666.185348,1149.143247
816.091179,-11547.212695,-370.102971,1302.362347
816.091500,-9770.718434,-518.144159,2528.115143
816.091820,-9770.718434,-888.247130,2681.334243
816.092141,-8808.450710,-444.123565,2221.676944
816.092462,-8882.471304,-518.144159,2374.896044
816.092783,-9326.594869,518.144159,2681.334243
816.093103,-9622.677246,888.247130,2987.772442
816.093424,-9400.615463,1258.350101,2298.286494
816.093745,-9474.636058,518.144159,1532.190996
816.094066,-8956.491898,-370.102971,842.705048
816.094386,-9400.615463,-1110.308913,383.047749
816.094707,-9104.533087,-1406.391290,-459.657299
816.095028,-9178.553681,-1480.411884,-612.876398
816.095348,-9178.553681,-1480.411884,0.000000
816.095669,-9770.718434,-740.205942,153.219100
816.095990,-9844.739029,-888.247130,76.609550
816.096311,-9770.718434,-222.061783,612.876398
816.096631,-10066.800811,0.000000,842.705048
816.096952,-9622.677246,-296.082377,1915.238745
816.097273,-9474.636058,-592.164754,2221.676944
816.097594,-9326.594869,-888.247130,2221.676944
816.097914,-9252.574275,-518.144159,2068.457845
816.098235,-9474.636058,-148.041188,1915.238745
816.098556,-9770.718434,592.164754,2451.505594
816.098876,-9622.677246,1036.288319,2145.067394
816.099197,-9992.780217,1184.329507,2145.067394
816.099518,-9326.594869,1554.432478,2374.896044
816.099839,-9474.636058,-370.102971,0.000000
816.100159,-9622.677246,-1110.308913,-919.314598
816.100480,-9400.615463,-1332.370696,-1378.971896
816.100801,-9326.594869,-1036.288319,-1455.581446
816.101122,-9474.636058,-814.226536,-995.924147
816.101442,-10066.800811,-592.164754,0.000000
816.101763,-10288.862594,-370.102971,229.828649
816.102084,-10214.842000,74.020594,612.876398
816.102405,-10658.965565,518.144159,1225.752797
816.102725,-9992.780217,148.041188,2451.505594
816.103046,-9548.656652,-148.041188,2528.115143
816.103367,-9252.574275,-222.061783,2298.286494
816.103687,-9178.553681,-148.041188,2451.505594
816.104008,-9326.594869,370.102971,2528.115143
816.104329,-9696.697840,1036.288319,2834.553343
816.104650,-9992.780217,888.247130,2604.724693
816.104970,-9770.718434,1036.288319,2298.286494
816.105291,-9178.553681,74.020594,919.314598
816.105612,-9474.636058,-370.102971,153.219100
816.105933,-9474.636058,-1110.308913,0.000000
816.106253,-8956.491898,-1332.370696,-536.266849
816.106574,-8956.491898,-2146.597232,76.609550
816.106895,-9326.594869,-1332.370696,-229.828649
816.107216,-10140.821405,-1480.411884,383.047749
816.107536,-9844.739029,-592.164754,612.876398
816.107857,-10214.842000,-666.185348,1302.362347
816.108178,-9548.656652,-518.144159,1685.410096
816.108498,-9622.677246,-444.123565,2145.067394
816.108819,-9252.574275,-1036.288319,1991.848295
816.109140,-9400.615463,-1258.350101,2221.676944
816.109461,-9252.574275,-962.267725,2604.724693
816.109781,-9474.636058,222.061783,2451.505594
816.110102,-9622.677246,962.267725,2834.553343
816.110423,-9548.656652,1628.453072,2757.943793
816.110744,-10362.883188,1110.308913,2451.505594
816.111064,-9622.677246,-296.082377,612.876398
816.111385,-9474.636058,-1480.411884,-612.876398
816.111706,-8956.491898,-1332.370696,-1608.800546
816.112026,-9178.553681,-592.164754,-2298.286494
816.112347,-9252.574275,0.000000,-842.705048
816.112668,-9918.759623,148.041188,-766.095498
816.112989,-10066.800811,74.020594,-612.876398
816.113309,-10436.903782,-222.061783,0.000000
816.113630,-10288.862594,-444.123565,306.438199
816.113951,-10288.862594,-666.185348,1378.971896
816.114272,-9696.697840,-592.164754,1685.410096
816.114592,-9400.615463,-740.205942,1455.581446
816.114913,-9326.594869,-740.205942,1149.143247
816.115234,-9326.594869,370.102971,1455.581446
816.115555,-9622.677246,666.185348,1608.800546
816.115875,-9918.759623,1110.308913,1762.019645
816.116196,-9844.739029,1406.391290,1072.533697
816.116517,-9548.656652,0.000000,766.095498
816.116837,-9622.677246,-962.267725,536.266849
816.117158,-9474.636058,-1332.370696,76.609550
816.117479,-9548.656652,-1702.473667,0.000000
816.117800,-8956.491898,-1850.514855,0.000000
816.118120,-9696.697840,-1406.391290,689.485948
816.118441,-10214.842000,-888.247130,1225.752797
816.118762,-10436.903782,-814.226536,2221.676944
816.119083,-9548.656652,-148.041188,2987.772442
816.119403,-9770.718434,0.000000,2757.943793
816.119724,-9474.636058,-222.061783,3217.601092
816.120045,-9326.594869,-1036.288319,2911.162892
816.120365,-8734.430116,-592.164754,4213.525239
816.120686,-8882.471304,-518.144159,2451.505594
816.121007,-9030.512492,444.123565,2681.334243
816.121328,-9696.697840,1036.288319,2911.162892
816.121648,-9770.718434,1702.473667,3294.210641
816.121969,-9992.780217,1110.308913,2528.115143
816.122290,-9992.780217,-222.061783,1991.848295
816.122611,-9770.718434,-1480.411884,536.266849
816.122931,-9548.656652,-1850.514855,-459.657299
816.123252,-9326.594869,-1184.329507,-689.485948
816.123573,-9104.533087,-814.226536,-536.266849
816.123894,-9474.636058,-666.185348,-536.266849
816.124214,-10066.800811,-370.102971,-229.828649
816.124535,-10214.842000,0.000000,1225.752797
816.124856,-10436.903782,0.000000,766.095498
816.125176,-10066.800811,-148.041188,1608.800546
816.125497,-9770.718434,-444.123565,1991.848295
816.125818,-9622.677246,-814.226536,1838.629195
816.126139,-9326.594869,-296.082377,1685.410096
816.126459,-9252.574275,0.000000,1762.019645
816.126780,-9622.677246,592.164754,2145.067394
816.127101,-9622.677246,1184.329507,1838.629195
816.127422,-10214.842000,296.082377,1072.533697
816.127742,-8882.471304,592.164754,766.095498
816.128063,-9844.739029,-666.185348,0.000000
816.128384,-9178.553681,-370.102971,-459.657299
816.128705,-8586.388927,-1332.370696,383.047749
816.129025,-9474.636058,-1332.370696,-459.657299
816.129346,-9622.677246,-1480.411884,-842.705048
816.129667,-9696.697840,-1110.308913,-536.266849
816.129987,-10362.883188,-592.164754,536.266849
816.130308,-9622.677246,-444.123565,0.000000
816.130629,-9696.697840,74.020594,1072.533697
816.130950,-9622.677246,-592.164754,1302.362347
816.131270,-9400.615463,-148.041188,1532.190996
816.131591,-9326.594869,-740.205942,2221.676944
816.131912,-9474.636058,-296.082377,2374.896044
816.132233,-9622.677246,444.123565,2451.505594
816.132553,-9918.759623,666.185348,2757.943793
816.132874,-9918.759623,1628.453072,2528.115143
816.133195,-9622.677246,1036.288319,1991.848295
816.133515,-9770.718434,444.123565,1302.362347
816.133836,-9474.636058,-222.061783,536.266849
816.134157,-9030.512492,-1036.288319,-536.266849
816.134478,-9104.533087,-1184.329507,-459.657299
816.134798,-9474.636058,-740.205942,-689.485948
816.135119,-9622.677246,-962.267725,-76.609550
816.135440,-10140.821405,-1036.288319,383.047749
816.135761,-10140.821405,-1110.308913,842.705048
816.136081,-10140.821405,-1406.391290,1149.143247
816.136402,-10362.883188,-1184.329507,2604.724693
816.136723,-9696.697840,-740.205942,2757.943793
816.137044,-9400.615463,-1258.350101,2528.115143
816.137364,-9178.553681,-592.164754,2298.286494
816.137685,-9030.512492,-370.102971,2528.115143
816.138006,-9252.574275,444.123565,2681.334243
816.138326,-9548.656652,1110.308913,2757.943793
816.138647,-9474.636058,814.226536,2145.067394
816.138968,-9326.594869,370.102971,1762.019645
816.139289,-9252.574275,-222.061783,612.876398
816.139609,-9474.636058,-740.205942,306.438199
816.139930,-9474.636058,-1702.473667,-383.047749
816.140251,-9178.553681,-1406.391290,-995.924147
816.140572,-9696.697840,-1110.308913,-689.485948
816.140892,-9770.718434,-740.205942,0.000000
816.141213,-9770.718434,148.041188,1608.800546
816.141534,-9992.780217,-148.041188,612.876398
816.141854,-9696.697840,-296.082377,919.314598
816.142175,-9548.656652,-222.061783,1608.800546
816.142496,-9474.636058,-814.226536,1915.238745
816.142817,-9326.594869,-740.205942,1838.629195
816.143137,-9474.636058,-444.123565,1685.410096
816.143458,-9400.615463,222.061783,2374.896044
816.143779,-9770.718434,814.226536,2604.724693
816.144100,-9474.636058,888.247130,2451.505594
816.144420,-9918.759623,592.164754,1762.019645
816.144741,-9548.656652,0.000000,1149.143247
816.145062,-9474.636058,-962.267725,0.000000
816.145383,-9696.697840,-740.205942,-1762.019645
816.145703,-8882.471304,-1554.432478,-1532.190996
816.146024,-9178.553681,-1184.329507,-1302.362347
816.146345,-9548.656652,-592.164754,-459.657299
816.146665,-9918.759623,-814.226536,-612.876398
816.146986,-9992.780217,-370.102971,0.000000
816.147307,-10140.821405,-370.102971,612.876398
816.147628,-10288.862594,-444.123565,1838.629195
816.147948,-10066.800811,-518.144159,2374.896044
816.148269,-9474.636058,-592.164754,2528.115143
816.148590,-8956.491898,-814.226536,2451.505594
816.148911,-9030.512492,-518.144159,2451.505594
816.149231,-9326.594869,222.061783,2681.334243
816.149552,-9178.553681,1480.411884,3524.039291
816.149873,-9844.739029,1554.432478,2757.943793
816.150194,-9622.677246,1036.288319,2374.896044
816.150514,-9548.656652,296.082377,1378.971896
816.150835,-9770.718434,-444.123565,2298.286494
816.151156,-9548.656652,-1110.308913,383.047749
816.151476,-9252.574275,-1258.350101,-383.047749
816.151797,-9474.636058,-1554.432478,-383.047749
816.152118,-9770.718434,-962.267725,0.000000
816.152439,-10214.842000,-740.205942,0.000000
816.152759,-9992.780217,-740.205942,383.047749
816.153080,-9622.677246,-740.205942,612.876398
816.153401,-9770.718434,-592.164754,1072.533697
816.153722,-9400.615463,-296.082377,2298.286494
816.154042,-9474.636058,-518.144159,1685.410096
816.154363,-8956.491898,-370.102971,1915.238745
816.154684,-9252.574275,0.000000,1991.848295
816.155004,-9400.615463,370.102971,2145.067394
816.155325,-9844.739029,1258.350101,2298.286494
816.155646,-9622.677246,1258.350101,2451.505594
816.155967,-9844.739029,814.226536,1762.019645
816.156287,-9474.636058,-148.041188,306.438199
816.156608,-9178.553681,-888.247130,-383.047749
816.156929,-9326.594869,-1258.350101,-1455.581446
816.157250,-9326.594869,-518.144159,-1378.971896
816.157570,-9474.636058,-666.185348,-995.924147
816.157891,-10807.006753,-518.144159,-995.924147
816.158212,-9918.759623,-962.267725,-153.219100
816.158533,-10140.821405,-962.267725,536.266849
816.158853,-10140.821405,-592.164754,1378.971896
816.159174,-10066.800811,-444.123565,1838.629195
816.159495,-9548.656652,-296.082377,2374.896044
816.159815,-9326.594869,-444.123565,2068.457845
816.160136,-9104.533087,-518.144159,1838.629195
816.160457,-9326.594869,0.000000,2145.067394
816.160778,-9474.636058,1036.288319,2374.896044
816.161098,-9696.697840,1406.391290,2374.896044
816.161419,-10066.800811,1406.391290,2298.286494
816.161740,-9622.677246,814.226536,1608.800546
816.162061,-9992.780217,148.041188,536.266849
816.162381,-9474.636058,-1480.411884,0.000000
816.162702,-9178.553681,-1998.556043,-383.047749
816.163023,-9400.615463,-1924.535449,-383.047749
816.163343,-9622.677246,-1036.288319,1608.800546
816.163664,-10066.800811,-518.144159,383.047749
816.163985,-10288.862594,-592.164754,919.314598
816.164306,-9992.780217,0.000000,1608.800546
816.164626,-9918.759623,-296.082377,1608.800546
816.164947,-9548.656652,-148.041188,2451.505594
816.165268,-9622.677246,-666.185348,2604.724693
816.165588,-9400.615463,-592.164754,2911.162892
816.165909,-9474.636058,-518.144159,2451.505594
816.166230,-9474.636058,888.247130,1072.533697
816.166551,-9622.677246,814.226536,2681.334243
816.166871,-9844.739029,1258.350101,2681.334243
816.167192,-9770.718434,1258.350101,2068.457845
816.167513,-9548.656652,444.123565,995.924147
816.167833,-9548.656652,-222.061783,76.609550
816.168154,-9178.553681,-1184.329507,-1149.143247
816.168475,-8808.450710,-1850.514855,-1762.019645
816.168796,-8956.491898,-1628.453072,-1378.971896
816.169116,-10140.821405,-962.267725,0.000000
816.169437,-9992.780217,-888.247130,-612.876398
816.169758,-10066.800811,-592.164754,153.219100
816.170078,-10214.842000,-444.123565,842.705048
816.170399,-10140.821405,-1036.288319,1302.362347
816.170720,-9918.759623,-592.164754,2451.505594
816.171041,-9474.636058,-1036.288319,1991.848295
816.171361,-9104.533087,-740.205942,2221.676944
816.171682,-8808.450710,-592.164754,2068.457845
816.172003,-9178.553681,296.082377,2451.505594
816.172323,-9252.574275,1110.308913,1991.848295
816.172644,-9178.553681,888.247130,1532.190996
816.172965,-9326.594869,666.185348,919.314598
816.173286,-9326.594869,148.041188,0.000000
816.173606,-9696.697840,-666.185348,0.000000
816.173927,-9622.677246,-814.226536,0.000000
816.174248,-9622.677246,-1480.411884,-383.047749
816.174569,-9474.636058,-1480.411884,0.000000
816.174889,-10510.924376,-1258.350101,306.438199
816.175210,-9770.718434,-444.123565,153.219100
816.175531,-10140.821405,-592.164754,229.828649
816.175851,-9178.553681,518.144159,612.876398
816.176172,-9548.656652,-222.061783,1378.971896
816.176493,-9474.636058,-518.144159,1915.238745
816.176814,-9400.615463,-518.144159,2068.457845
816.177134,-9770.718434,-296.082377,2834.553343
816.177455,-9474.636058,444.123565,3830.477490
816.177776,-10214.842000,888.247130,3217.601092
816.178096,-9918.759623,1554.432478,2757.943793
816.178417,-9770.718434,1110.308913,2221.676944
816.178738,-9252.574275,444.123565,536.266849
816.179059,-9474.636058,-592.164754,766.095498
816.179379,-9400.615463,-1184.329507,-459.657299
816.179700,-9252.574275,-1850.514855,-1455.581446
816.180021,-8956.491898,-1110.308913,-1378.971896
816.180341,-9622.677246,-888.247130,0.000000
816.180662,-9770.718434,-740.205942,306.438199
816.180983,-10584.944971,-1036.288319,689.485948
816.181304,-9696.697840,-740.205942,995.924147
816.181624,-10807.006753,-888.247130,1762.019645
816.181945,-9548.656652,-1110.308913,2298.286494
816.182266,-9474.636058,-814.226536,2068.457845
816.182586,-8882.471304,-296.082377,1991.848295
816.182907,-8660.409521,740.205942,2757.943793
816.183228,-8882.471304,518.144159,1915.238745
816.183549,-9770.718434,962.267725,2451.505594
816.183869,-9622.677246,740.205942,2221.676944
816.184190,-9992.780217,592.164754,1685.410096
816.184511,-9400.615463,0.000000,1072.533697
816.184831,-9474.636058,-814.226536,306.438199
816.185152,-9326.594869,-1110.308913,-842.705048
816.185473,-9326.594869,-1258.350101,-1072.533697
816.185794,-9474.636058,-814.226536,-766.095498
816.186114,-9770.718434,-740.205942,0.000000
816.186435,-9918.759623,-962.267725,306.438199
816.186756,-10214.842000,-666.185348,995.924147
816.187076,-10288.862594,-296.082377,153.219100
816.187397,-9918.759623,-148.041188,1915.238745
816.187718,-9696.697840,-518.144159,2604.724693
816.188039,-9474.636058,-666.185348,2987.772442
816.188359,-9474.636058,-666.185348,2757.943793
816.188680,-9252.574275,0.000000,2681.334243
816.189001,-9474.636058,666.185348,2757.943793
816.189321,-9770.718434,1184.329507,2757.943793
816.189642,-9844.739029,1480.411884,2451.505594
816.189963,-10288.862594,814.226536,1225.752797
816.190284,-9474.636058,-148.041188,536.266849
816.190604,-9400.615463,-1332.370696,-1225.752797
816.190925,-9400.615463,-1480.411884,-1608.800546
816.191246,-9030.512492,-666.185348,-1532.190996
816.191567,-9622.677246,-962.267725,-1455.581446
816.191887,-9844.739029,-962.267725,-766.095498
816.192208,-9918.759623,-1036.288319,-153.219100
816.192529,-10140.821405,-814.226536,536.266849
816.192849,-10214.842000,-518.144159,1302.362347
816.193170,-9770.718434,-592.164754,2145.067394
816.193491,-9474.636058,-814.226536,2298.286494
816.193812,-9178.553681,-740.205942,2221.676944
816.194132,-8808.450710,0.000000,1838.629195
816.194453,-9104.533087,148.041188,2374.896044
816.194774,-9326.594869,888.247130,2604.724693
816.195094,-9622.677246,962.267725,2528.115143
816.195415,-9252.574275,1480.411884,1302.362347
816.195736,-9474.636058,-148.041188,1225.752797
816.196057,-9474.636058,-814.226536,459.657299
816.196377,-9474.636058,-1406.391290,-383.047749
816.196698,-9252.574275,-1776.494261,-919.314598
816.197019,-9326.594869,-1110.308913,-766.095498
816.197339,-10066.800811,-814.226536,-459.657299
816.197660,-9918.759623,-444.123565,306.438199
816.197981,-10066.800811,-370.102971,306.438199
816.198302,-10362.883188,740.205942,612.876398
816.198622,-9770.718434,-518.144159,1455.581446
816.198943,-9770.718434,-444.123565,2298.286494
816.199264,-9548.656652,-888.247130,2528.115143
816.199584,-9548.656652,148.041188,2681.334243
816.199905,-9474.636058,296.082377,2528.115143
816.200226,-9622.677246,888.247130,2528.115143
816.200547,-9770.718434,1258.350101,2374.896044
816.200867,-9770.718434,1702.473667,1915.238745
816.201188,-9918.759623,814.226536,1915.238745
816.201509,-9696.697840,74.020594,689.485948
816.201829,-9474.636058,-1184.329507,-459.657299
816.202150,-9104.533087,-1480.411884,-1225.752797
816.202471,-8808.450710,-1184.329507,-1762.019645
816.202792,-9474.636058,-962.267725,-689.485948
816.203112,-9696.697840,-666.185348,0.000000
816.203433,-9918.759623,-1110.308913,76.609550
816.203754,-9252.574275,-814.226536,1225.752797
816.204074,-9918.759623,-1036.288319,1302.362347
816.204395,-9548.656652,-1036.288319,1762.019645
816.204716,-9326.594869,-1184.329507,2068.457845
816.205037,-9326.594869,-1406.391290,1072.533697
816.205357,-8586.388927,-592.164754,1532.190996
816.205678,-9178.553681,-222.061783,2068.457845
816.205999,-9474.636058,814.226536,2604.724693
816.206319,-9696.697840,888.247130,2451.505594
816.206640,-9622.677246,962.267725,2221.676944
816.206961,-9474.636058,592.164754,1225.752797
816.207282,-9622.677246,-296.082377,842.705048
816.207602,-9252.574275,-1036.288319,76.609550
816.207923,-9178.553681,-1110.308913,-689.485948
816.208244,-8956.491898,-1554.432478,-383.047749
816.208565,-9474.636058,-1776.494261,-383.047749
816.208885,-10066.800811,-1184.329507,76.609550
816.209206,-9992.780217,-1110.308913,383.047749
816.209527,-9844.739029,-814.226536,612.876398
816.209847,-9622.677246,-444.123565,919.314598
816.210168,-9696.697840,-518.144159,2221.676944
816.210489,-9770.718434,-444.123565,2834.553343
816.210810,-9770.718434,-592.164754,2451.505594
816.211130,-9548.656652,-296.082377,2911.162892
816.211451,-9548.656652,518.144159,2451.505594
816.211772,-9918.759623,1110.308913,2604.724693
816.212092,-9474.636058,1332.370696,3600.648841
816.212413,-9918.759623,1258.350101,2451.505594
816.212734,-9548.656652,222.061783,1072.533697
816.213055,-9622.677246,-1110.308913,-229.828649
816.213375,-9400.615463,-1776.494261,-1149.143247
816.213696,-9326.594869,-1702.473667,-1455.581446
816.214017,-9252.574275,-962.267725,-1072.533697
816.214337,-9770.718434,-888.247130,-689.485948
816.214658,-9844.739029,-814.226536,-383.047749
816.214979,-10362.883188,-592.164754,306.438199
816.215300,-10362.883188,-148.041188,842.705048
816.215620,-10362.883188,-370.102971,1532.190996
816.215941,-9844.739029,-222.061783,2221.676944
816.216262,-9326.594869,-740.205942,1762.019645
816.216582,-9030.512492,-592.164754,1608.800546
816.216903,-9104.533087,-148.041188,1991.848295
816.217224,-9178.553681,666.185348,2374.896044
816.217545,-9844.739029,888.247130,2145.067394
816.217865,-9474.636058,1036.288319,1685.410096
816.218186,-9474.636058,222.061783,1149.143247
816.218507,-9252.574275,148.041188,383.047749
816.218827,-9400.615463,-740.205942,0.000000
816.219148,-9178.553681,-1110.308913,-766.095498
816.219469,-8956.491898,-1258.350101,-1149.143247
816.219790,-9030.512492,-1110.308913,-995.924147
816.220110,-9918.759623,-888.247130,0.000000
816.220431,-10140.821405,-888.247130,383.047749
816.220752,-10362.883188,-592.164754,766.095498
816.221072,-9844.739029,-370.102971,1455.581446
816.221393,-9622.677246,-296.082377,1838.629195
816.221714,-9548.656652,-592.164754,2604.724693
816.222035,-9474.636058,-370.102971,2834.553343
816.222355,-9252.574275,0.000000,2221.676944
816.222676,-9400.615463,370.102971,2604.724693
816.222997,-9770.718434,888.247130,2834.553343
816.223317,-9696.697840,1628.453072,3064.381992
816.223638,-10066.800811,1332.370696,2757.943793
816.223959,-9770.718434,444.123565,1455.581446
816.224280,-9326.594869,-518.144159,383.047749
816.224600,-9770.718434,-962.267725,612.876398
816.224921,-9474.636058,-1406.391290,-1072.533697
816.225242,-9178.553681,-740.205942,-1378.971896
816.225563,-9770.718434,-666.185348,-842.705048
816.225883,-9844.739029,-370.102971,-306.438199
816.226204,-10584.944971,-592.164754,229.828649
816.226525,-10436.903782,-592.164754,919.314598
816.226845,-10362.883188,-666.185348,1608.800546
816.227166,-9992.780217,-518.144159,2451.505594
816.227487,-9326.594869,-740.205942,2528.115143
816.227808,-9474.636058,-666.185348,2757.943793
816.228128,-9104.533087,-518.144159,2528.115143
816.228449,-8808.450710,-518.144159,2374.896044
816.228770,-9252.574275,1702.473667,1915.238745
816.229090,-9474.636058,444.123565,2145.067394
816.229411,-9474.636058,0.000000,1685.410096
816.229732,-9104.533087,-296.082377,766.095498
816.230053,-9252.574275,-370.102971,306.438199
816.230373,-9400.615463,-1036.288319,-766.095498
816.230694,-9252.574275,-1628.453072,-612.876398
816.231015,-9622.677246,-1702.473667,-689.485948
816.231335,-9622.677246,-1036.288319,76.609550
816.231656,-9474.636058,-1406.391290,-153.219100
816.231977,-9770.718434,-518.144159,306.438199
816.232298,-10214.842000,0.000000,995.924147
816.232618,-9696.697840,74.020594,1455.581446
816.232939,-9844.739029,370.102971,1838.629195
816.233260,-9326.594869,-370.102971,2068.457845
816.233580,-9622.677246,0.000000,2068.457845
816.233901,-9474.636058,0.000000,2681.334243
816.234222,-9696.697840,666.185348,2987.772442
816.234543,-9696.697840,1036.288319,2604.724693
816.234863,-9770.718434,1554.432478,2451.505594
816.235184,-9844.739029,888.247130,1991.848295
816.235505,-9844.739029,0.000000,919.314598
816.235825,-9400.615463,-1110.308913,153.219100
816.236146,-9326.594869,-1406.391290,-1072.533697
816.236467,-9178.553681,-740.205942,-1225.752797
816.236788,-9548.656652,-740.205942,-306.438199
816.237108,-9844.739029,-1332.370696,-689.485948
816.237429,-9992.780217,-962.267725,76.609550
816.237750,-10140.821405,-370.102971,995.924147
816.238070,-9992.780217,-518.144159,1072.533697
816.238391,-9844.739029,-444.123565,2068.457845
816.238712,-9770.718434,-666.185348,1762.019645
816.239033,-8956.491898,-592.164754,1685.410096
816.239353,-8882.471304,-592.164754,1685.410096
816.239674,-9104.533087,0.000000,2145.067394
816.239995,-8956.491898,0.000000,2145.067394
816.240316,-9474.636058,592.164754,1685.410096
816.240636,-9474.636058,666.185348,1072.533697
816.240957,-9474.636058,444.123565,383.047749
816.241278,-9326.594869,0.000000,612.876398
816.241598,-9474.636058,-666.185348,-689.485948
816.241919,-8956.491898,-1110.308913,-995.924147
816.242240,-8956.491898,-962.267725,-995.924147
816.242561,-9622.677246,-1332.370696,-536.266849
816.242881,-9622.677246,-1110.308913,689.485948
