#time,accel_x,accel_y,accel_z
838.617914,-9696.697840,-2516.700203,229.828649
838.618234,-9622.677246,-1776.494261,-229.828649
838.618555,-9844.739029,-2146.597232,-612.876398
838.618876,-9548.656652,-1554.432478,-383.047749
838.619197,-9252.574275,-1628.453072,-995.924147
838.619518,-9326.594869,-592.164754,306.438199
838.619839,-9400.615463,-444.123565,995.924147
838.620159,-9474.636058,-518.144159,459.657299
838.620480,-9770.718434,-518.144159,689.485948
838.620801,-9548.656652,-518.144159,612.876398
838.621122,-9770.718434,-296.082377,153.219100
838.621443,-10066.800811,-370.102971,459.657299
838.621764,-9992.780217,0.000000,153.219100
838.622084,-9992.780217,-370.102971,153.219100
838.622405,-9844.739029,-370.102971,383.047749
838.622726,-10066.800811,-740.205942,0.000000
838.623047,-10066.800811,-888.247130,76.609550
838.623368,-9770.718434,-1332.370696,306.438199
838.623689,-9400.615463,-1628.453072,153.219100
838.624009,-9178.553681,-1998.556043,76.609550
838.624330,-9104.533087,-2368.659014,76.609550
838.624651,-8956.491898,-2368.659014,0.000000
838.624972,-9400.615463,-2294.638420,-459.657299
838.625293,-9104.533087,-2146.597232,-229.828649
838.625614,-9326.594869,-2294.638420,-919.314598
838.625934,-9622.677246,-1776.494261,-1378.971896
838.626255,-9770.718434,-962.267725,-1991.848295
838.626576,-9992.780217,-1036.288319,-2681.334243
838.626897,-9548.656652,-444.123565,-3064.381992
838.627218,-9696.697840,-518.144159,-4213.525239
838.627538,-9548.656652,74.020594,-4213.525239
838.627859,-9770.718434,74.020594,-4213.525239
838.628180,-9918.759623,0.000000,-4060.306139
838.628501,-9622.677246,-518.144159,-4060.306139
838.628822,-9696.697840,-1184.329507,-3907.087040
838.629143,-9770.718434,-2220.617826,-3677.258390
838.629463,-9696.697840,-3330.926739,-2834.553343
838.629784,-9548.656652,-3923.091493,-3064.381992
838.630105,-9326.594869,-4145.153275,-3217.601092
838.630426,-9918.759623,-3627.009116,-4213.525239
838.630747,-9104.533087,-4367.215058,-3140.991542
838.631068,-8956.491898,-4959.379811,-3140.991542
838.631388,-8882.471304,-5477.523971,-3447.429741
838.631709,-8586.388927,-6365.771101,-3753.867940
838.632030,-9030.512492,-6513.812290,-3447.429741
838.632351,-9696.697840,-6439.791695,-1915.238745
838.632672,-9622.677246,-6217.729913,-919.314598
838.632993,-9622.677246,-6143.709319,-229.828649
838.633313,-9770.718434,-5699.585753,536.266849
838.633634,-9622.677246,-5625.565159,1225.752797
838.633955,-9474.636058,-5403.503377,1532.190996
838.634276,-9178.553681,-5033.400406,919.314598
838.634597,-8512.368333,-5477.523971,0.000000
838.634918,-8216.285956,-5181.441594,-842.705048
838.635238,-8290.306550,-4959.379811,-1532.190996
838.635559,-8438.347739,-4885.359217,-1838.629195
838.635880,-9104.533087,-4663.297435,-1608.800546
838.636201,-9770.718434,-4145.153275,-1225.752797
838.636522,-10510.924376,-3775.050304,-689.485948
838.636843,-11177.109724,-3849.070898,459.657299
838.637163,-11547.212695,-4145.153275,842.705048
838.637484,-11695.253884,-4071.132681,1991.848295
838.637805,-11029.068536,-3997.112087,1225.752797
838.638126,-10214.842000,-3627.009116,1455.581446
838.638447,-9770.718434,-2516.700203,1532.190996
838.638767,-9548.656652,-1998.556043,1762.019645
838.639088,-9474.636058,-1258.350101,1838.629195
838.639409,-9474.636058,-1110.308913,2068.457845
838.639730,-9548.656652,-1406.391290,1915.238745
838.640051,-9770.718434,-1406.391290,1378.971896
838.640372,-9770.718434,-1702.473667,919.314598
838.640692,-9622.677246,-2220.617826,-536.266849
838.641013,-9474.636058,-2146.597232,-1532.190996
838.641334,-9548.656652,-1036.288319,-1608.800546
838.641655,-10362.883188,-518.144159,-2451.505594
838.641975,-10881.027347,-74.020594,-612.876398
838.642296,-10732.986159,0.000000,-1608.800546
838.642617,-10658.965565,74.020594,-1455.581446
838.642937,-9696.697840,962.267725,-842.705048
838.643258,-10362.883188,1184.329507,842.705048
838.643579,-9104.533087,1258.350101,1608.800546
838.643900,-9400.615463,1406.391290,1915.238745
838.644220,-8512.368333,1924.535449,1991.848295
838.644541,-8216.285956,1554.432478,2834.553343
838.644862,-8438.347739,3182.885551,1149.143247
838.645182,-7846.182985,3108.864956,-153.219100
838.645503,-7624.121203,2146.597232,-2068.457845
838.645824,-7402.059420,1332.370696,-2834.553343
838.646145,-8660.409521,-148.041188,-3677.258390
838.646465,-9474.636058,148.041188,-2834.553343
838.646786,-9918.759623,0.000000,-2528.115143
838.647107,-10214.842000,1332.370696,-1378.971896
838.647427,-11177.109724,1480.411884,0.000000
838.647748,-10436.903782,2664.741391,1302.362347
838.648069,-11177.109724,1332.370696,2834.553343
838.648390,-10510.924376,1184.329507,4136.915689
838.648710,-9474.636058,148.041188,4366.744339
838.649031,-9548.656652,740.205942,4826.401637
838.649352,-8660.409521,1776.494261,4136.915689
838.649673,-8142.265362,2146.597232,3064.381992
838.649993,-7846.182985,3108.864956,2451.505594
838.650314,-7402.059420,3330.926739,766.095498
838.650635,-9474.636058,2886.803174,766.095498
838.650955,-9770.718434,1702.473667,1608.800546
838.651276,-11177.109724,0.000000,919.314598
838.651597,-11843.295072,-1184.329507,1378.971896
838.651918,-11695.253884,-814.226536,1225.752797
838.652238,-11695.253884,148.041188,2451.505594
838.652559,-11325.150913,592.164754,4136.915689
838.652880,-11103.089130,518.144159,4519.963438
838.653200,-10066.800811,0.000000,4519.963438
838.653521,-9474.636058,-814.226536,2987.772442
838.653842,-8512.368333,-1036.288319,2528.115143
838.654163,-8216.285956,-888.247130,2221.676944
838.654483,-7031.956449,-1110.308913,1149.143247
838.654804,-7105.977043,-1628.453072,306.438199
838.655125,-7328.038826,-2590.720797,-689.485948
838.655446,-8660.409521,-3627.009116,-383.047749
838.655766,-10288.862594,-3849.070898,-536.266849
838.656087,-10807.006753,-3923.091493,-536.266849
838.656408,-10955.047942,-3330.926739,-153.219100
838.656728,-10955.047942,-2516.700203,-229.828649
838.657049,-10436.903782,-2220.617826,689.485948
838.657370,-10436.903782,-2442.679609,919.314598
838.657691,-9474.636058,-3256.906145,919.314598
838.658011,-8660.409521,-3478.967927,0.000000
838.658332,-8290.306550,-2812.782580,0.000000
838.658653,-9400.615463,-1110.308913,-536.266849
838.658973,-7698.141797,-592.164754,995.924147
838.659294,-7328.038826,-444.123565,229.828649
838.659615,-7698.141797,-1332.370696,0.000000
838.659936,-8438.347739,-2368.659014,995.924147
838.660256,-9770.718434,-3404.947333,-306.438199
838.660577,-10732.986159,-2886.803174,0.000000
838.660898,-10881.027347,-1554.432478,-612.876398
838.661218,-11029.068536,296.082377,-153.219100
838.661539,-11177.109724,1406.391290,1149.143247
838.661860,-11843.295072,1406.391290,2298.286494
838.662181,-11547.212695,444.123565,2221.676944
838.662501,-10732.986159,-222.061783,1225.752797
838.662822,-9400.615463,0.000000,1532.190996
838.663143,-9252.574275,518.144159,459.657299
838.663464,-8438.347739,1184.329507,842.705048
838.663784,-7994.224174,1628.453072,383.047749
838.664105,-8142.265362,1036.288319,76.609550
838.664426,-8734.430116,-444.123565,76.609550
838.664746,-9696.697840,-1036.288319,689.485948
838.665067,-11177.109724,-1110.308913,919.314598
838.665388,-10955.047942,222.061783,1685.410096
838.665709,-10140.821405,888.247130,2145.067394
838.666029,-11029.068536,1554.432478,2911.162892
838.666350,-10658.965565,1258.350101,2834.553343
838.666671,-11177.109724,-296.082377,2145.067394
838.666991,-9992.780217,222.061783,1991.848295
838.667312,-9104.533087,518.144159,1149.143247
838.667633,-8290.306550,888.247130,1149.143247
838.667954,-7550.100608,1702.473667,1225.752797
838.668274,-7846.182985,1258.350101,1762.019645
838.668595,-8142.265362,222.061783,1378.971896
838.668916,-8142.265362,-370.102971,1072.533697
838.669236,-9400.615463,-888.247130,1532.190996
838.669557,-9992.780217,-222.061783,2374.896044
838.669878,-10066.800811,888.247130,3447.429741
838.670199,-9992.780217,2146.597232,3370.820191
838.670519,-9918.759623,1998.556043,3140.991542
838.670840,-10066.800811,962.267725,2757.943793
838.671161,-10658.965565,0.000000,1762.019645
838.671482,-9770.718434,296.082377,1455.581446
838.671802,-9326.594869,814.226536,306.438199
838.672123,-8216.285956,1628.453072,76.609550
838.672444,-8438.347739,1332.370696,0.000000
838.672764,-8512.368333,592.164754,76.609550
838.673085,-9474.636058,-148.041188,0.000000
838.673406,-9696.697840,-1184.329507,0.000000
838.673727,-10362.883188,-1332.370696,0.000000
838.674047,-11621.233289,-1258.350101,-229.828649
838.674368,-10955.047942,-296.082377,919.314598
838.674689,-10807.006753,0.000000,1455.581446
838.675009,-10288.862594,74.020594,1302.362347
838.675330,-10658.965565,-444.123565,1149.143247
838.675651,-10362.883188,-814.226536,229.828649
838.675972,-10362.883188,-444.123565,0.000000
838.676292,-9548.656652,592.164754,-536.266849
838.676613,-8882.471304,518.144159,-229.828649
838.676934,-8660.409521,148.041188,-383.047749
838.677255,-8882.471304,-1406.391290,-459.657299
838.677575,-9178.553681,-2442.679609,-383.047749
838.677896,-9474.636058,-2664.741391,0.000000
838.678217,-9178.553681,-1332.370696,1762.019645
838.678537,-11251.130318,-2442.679609,1225.752797
838.678858,-9030.512492,148.041188,2068.457845
838.679179,-10807.006753,-1184.329507,2681.334243
838.679500,-9992.780217,0.000000,3294.210641
838.679820,-9770.718434,-1702.473667,2757.943793
838.680141,-9918.759623,-1998.556043,2911.162892
838.680462,-8956.491898,-1702.473667,1225.752797
838.680782,-8142.265362,-1776.494261,689.485948
838.681103,-7994.224174,-592.164754,1149.143247
838.681424,-7105.977043,-1554.432478,0.000000
838.681745,-8216.285956,-1184.329507,76.609550
838.682065,-8956.491898,-2368.659014,229.828649
838.682386,-9252.574275,-2590.720797,0.000000
838.682707,-10510.924376,-2738.761985,842.705048
838.683027,-10658.965565,-2294.638420,1455.581446
838.683348,-9844.739029,-1258.350101,1685.410096
838.683669,-10288.862594,-444.123565,4136.915689
838.683990,-10214.842000,-518.144159,3064.381992
838.684310,-9622.677246,-1036.288319,2145.067394
838.684631,-10140.821405,-1184.329507,1685.410096
838.684952,-9474.636058,-888.247130,1225.752797
838.685273,-9178.553681,-148.041188,689.485948
838.685593,-8586.388927,-222.061783,306.438199
838.685914,-8586.388927,444.123565,-153.219100
838.686235,-8586.388927,-74.020594,-306.438199
838.686555,-9696.697840,0.000000,-689.485948
838.686876,-9918.759623,-962.267725,-229.828649
838.687197,-10881.027347,-740.205942,-383.047749
838.687518,-11029.068536,0.000000,536.266849
838.687838,-10807.006753,592.164754,1915.238745
838.688159,-11325.150913,1184.329507,2374.896044
838.688480,-11325.150913,1258.350101,3370.820191
838.688800,-10807.006753,888.247130,2757.943793
838.689121,-10214.842000,370.102971,2068.457845
838.689442,-9474.636058,0.000000,229.828649
838.689763,-8438.347739,518.144159,76.609550
838.690083,-8068.244768,592.164754,-383.047749
838.690404,-7846.182985,444.123565,-383.047749
838.690725,-7846.182985,-74.020594,0.000000
838.691046,-9474.636058,-592.164754,-383.047749
838.691366,-10288.862594,-1036.288319,0.000000
838.691687,-10732.986159,-222.061783,612.876398
838.692008,-11325.150913,0.000000,1225.752797
838.692328,-10510.924376,666.185348,2374.896044
838.692649,-10807.006753,222.061783,2451.505594
838.692970,-10140.821405,0.000000,2298.286494
838.693291,-9474.636058,-592.164754,1762.019645
838.693611,-8734.430116,-296.082377,766.095498
838.693932,-8364.327145,74.020594,459.657299
838.694253,-8068.244768,1036.288319,306.438199
838.694573,-7698.141797,666.185348,459.657299
838.694894,-8142.265362,0.000000,2298.286494
838.695215,-8734.430116,-1036.288319,306.438199
838.695536,-9548.656652,-1776.494261,459.657299
838.695856,-10362.883188,-1776.494261,1225.752797
838.696177,-10807.006753,-962.267725,1608.800546
838.696498,-11029.068536,0.000000,2451.505594
838.696818,-10584.944971,1110.308913,2528.115143
838.697139,-10584.944971,962.267725,2987.772442
838.697460,-10362.883188,740.205942,2834.553343
838.697781,-10658.965565,888.247130,1838.629195
838.698101,-9400.615463,370.102971,1378.971896
838.698422,-8660.409521,444.123565,229.828649
838.698743,-7624.121203,814.226536,459.657299
838.699064,-7846.182985,444.123565,612.876398
838.699384,-8512.368333,0.000000,459.657299
838.699705,-9178.553681,-1480.411884,383.047749
838.700026,-10288.862594,-1998.556043,689.485948
838.700346,-10881.027347,-1702.473667,919.314598
838.700667,-11325.150913,-962.267725,1838.629195
838.700988,-10955.047942,148.041188,2145.067394
838.701309,-10436.903782,74.020594,2298.286494
838.701629,-10288.862594,-148.041188,1608.800546
838.701950,-10436.903782,-592.164754,689.485948
838.702271,-9696.697840,-1480.411884,689.485948
838.702591,-9326.594869,-814.226536,0.000000
838.702912,-8660.409521,-222.061783,0.000000
838.703233,-8068.244768,-222.061783,76.609550
838.703554,-8364.327145,-444.123565,76.609550
838.703874,-8438.347739,-962.267725,383.047749
838.704195,-9178.553681,-2072.576638,76.609550
838.704516,-9844.739029,-2442.679609,-153.219100
838.704837,-10288.862594,-2146.597232,306.438199
838.705157,-10510.924376,-1258.350101,536.266849
838.705478,-9918.759623,740.205942,1378.971896
838.705799,-10066.800811,518.144159,2145.067394
838.706119,-8956.491898,370.102971,3983.696590
838.706440,-10214.842000,-444.123565,2604.724693
838.706761,-10066.800811,-1924.535449,2068.457845
838.707082,-8882.471304,-1554.432478,689.485948
838.707402,-8586.388927,-1184.329507,689.485948
838.707723,-7920.203579,0.000000,766.095498
838.708044,-7698.141797,0.000000,612.876398
838.708364,-8586.388927,-74.020594,842.705048
838.708685,-8956.491898,-1184.329507,536.266849
838.709006,-9400.615463,-1702.473667,0.000000
838.709327,-11399.171507,-1258.350101,1378.971896
838.709647,-11325.150913,-518.144159,1915.238745
838.709968,-10807.006753,296.082377,2221.676944
838.710289,-11177.109724,1036.288319,2604.724693
838.710609,-10436.903782,0.000000,2451.505594
838.710930,-10436.903782,-296.082377,2298.286494
838.711251,-10288.862594,-444.123565,2068.457845
838.711572,-9474.636058,74.020594,1072.533697
838.711892,-8734.430116,1406.391290,306.438199
838.712213,-8364.327145,1258.350101,459.657299
838.712534,-7994.224174,814.226536,459.657299
838.712855,-8734.430116,-592.164754,689.485948
838.713175,-9252.574275,-1554.432478,612.876398
838.713496,-10066.800811,-1998.556043,306.438199
838.713817,-11103.089130,-1184.329507,919.314598
838.714137,-11029.068536,0.000000,1991.848295
838.714458,-10732.986159,1036.288319,3064.381992
838.714779,-11029.068536,888.247130,2604.724693
838.715100,-10510.924376,888.247130,2604.724693
838.715420,-10140.821405,0.000000,1915.238745
838.715741,-9400.615463,0.000000,1378.971896
838.716062,-8956.491898,0.000000,306.438199
838.716382,-7846.182985,370.102971,0.000000
838.716703,-7550.100608,666.185348,0.000000
838.717024,-7920.203579,0.000000,153.219100
838.717345,-8364.327145,-1036.288319,-459.657299
838.717665,-9622.677246,-1850.514855,0.000000
838.717986,-10436.903782,-1332.370696,689.485948
838.718307,-10732.986159,-518.144159,842.705048
838.718627,-10881.027347,740.205942,766.095498
838.718948,-10436.903782,962.267725,2681.334243
838.719269,-10066.800811,1110.308913,2298.286494
838.719590,-10140.821405,222.061783,2145.067394
838.719910,-9474.636058,0.000000,1532.190996
838.720231,-9474.636058,-296.082377,459.657299
838.720552,-8734.430116,370.102971,383.047749
838.720873,-8290.306550,888.247130,689.485948
838.721193,-8364.327145,518.144159,153.219100
838.721514,-7994.224174,0.000000,536.266849
838.721835,-9104.533087,-1332.370696,0.000000
838.722155,-10066.800811,-1628.453072,0.000000
838.722476,-10362.883188,-1406.391290,306.438199
838.722797,-11177.109724,-296.082377,0.000000
838.723118,-10732.986159,222.061783,1685.410096
838.723438,-10584.944971,740.205942,2528.115143
838.723759,-10732.986159,518.144159,2681.334243
838.724080,-10584.944971,-444.123565,2145.067394
838.724400,-10066.800811,-888.247130,1532.190996
838.724721,-9474.636058,-592.164754,919.314598
838.725042,-8660.409521,-296.082377,459.657299
838.725363,-7920.203579,222.061783,0.000000
838.725683,-7994.224174,0.000000,459.657299
838.726004,-8142.265362,-518.144159,0.000000
838.726325,-9104.533087,-1702.473667,-76.609550
838.726646,-10214.842000,-2442.679609,306.438199
838.726966,-10584.944971,-1184.329507,153.219100
838.727287,-10881.027347,-1110.308913,1532.190996
838.727608,-10436.903782,0.000000,2681.334243
838.727928,-10584.944971,0.000000,2757.943793
838.728249,-10436.903782,0.000000,2757.943793
838.728570,-9918.759623,-1110.308913,1225.752797
838.728891,-9252.574275,-1184.329507,1302.362347
838.729211,-9030.512492,-296.082377,766.095498
838.729532,-8364.327145,518.144159,689.485948
838.729853,-7772.162391,1110.308913,1455.581446
838.730173,-8068.244768,444.123565,229.828649
838.730494,-8438.347739,-740.205942,306.438199
838.730815,-9474.636058,-1850.514855,229.828649
838.731136,-10214.842000,-2442.679609,-995.924147
838.731456,-10584.944971,-1776.494261,842.705048
838.731777,-10658.965565,-1036.288319,995.924147
838.732098,-10288.862594,0.000000,1991.848295
838.732418,-10732.986159,-296.082377,2374.896044
838.732739,-10584.944971,-370.102971,2298.286494
838.733060,-10214.842000,-1184.329507,1685.410096
838.733381,-9622.677246,-1036.288319,919.314598
838.733701,-9030.512492,-370.102971,459.657299
838.734022,-7846.182985,0.000000,0.000000
838.734343,-7772.162391,370.102971,0.000000
838.734664,-8068.244768,-74.020594,-689.485948
838.734984,-8586.388927,-1110.308913,-383.047749
838.735305,-10658.965565,-592.164754,-919.314598
838.735626,-10807.006753,-1554.432478,306.438199
838.735946,-11251.130318,-814.226536,689.485948
838.736267,-10881.027347,370.102971,1302.362347
838.736588,-10584.944971,666.185348,1762.019645
838.736909,-10510.924376,962.267725,2068.457845
838.737229,-10288.862594,148.041188,2145.067394
838.737550,-10140.821405,-518.144159,1225.752797
838.737871,-9400.615463,74.020594,1072.533697
838.738191,-9474.636058,814.226536,766.095498
838.738512,-8512.368333,1406.391290,1072.533697
838.738833,-8216.285956,1110.308913,689.485948
838.739154,-8364.327145,74.020594,689.485948
838.739474,-8882.471304,-1184.329507,-383.047749
838.739795,-9474.636058,-2368.659014,306.438199
838.740116,-10362.883188,-2516.700203,383.047749
838.740437,-10140.821405,-1110.308913,1149.143247
838.740757,-10436.903782,0.000000,1991.848295
838.741078,-10362.883188,1406.391290,2221.676944
838.741399,-10732.986159,444.123565,2681.334243
838.741720,-10288.862594,-222.061783,2451.505594
838.742040,-10140.821405,-1184.329507,1608.800546
838.742361,-9400.615463,-1184.329507,1532.190996
838.742682,-8882.471304,-814.226536,612.876398
838.743002,-7920.203579,370.102971,766.095498
838.743323,-7920.203579,444.123565,306.438199
838.743644,-7920.203579,370.102971,153.219100
838.743965,-8586.388927,-592.164754,0.000000
838.744285,-9844.739029,-1480.411884,383.047749
838.744606,-10584.944971,-1036.288319,689.485948
838.744927,-11029.068536,-518.144159,1532.190996
838.745248,-10140.821405,444.123565,2911.162892
838.745568,-10584.944971,888.247130,2757.943793
838.745889,-10881.027347,592.164754,3294.210641
838.746210,-10510.924376,74.020594,2757.943793
838.746531,-9252.574275,370.102971,1915.238745
838.746851,-9104.533087,370.102971,1072.533697
838.747172,-8808.450710,370.102971,536.266849
838.747493,-8142.265362,1110.308913,689.485948
838.747814,-7846.182985,814.226536,1149.143247
838.748134,-8586.388927,-592.164754,229.828649
838.748455,-9030.512492,-1480.411884,-153.219100
838.748776,-10140.821405,-2368.659014,153.219100
838.749097,-10436.903782,-1702.473667,306.438199
838.749417,-10584.944971,-370.102971,842.705048
838.749738,-10214.842000,0.000000,1915.238745
838.750059,-10436.903782,296.082377,1762.019645
838.750380,-10658.965565,0.000000,1915.238745
838.750700,-9992.780217,-518.144159,1608.800546
838.751021,-9622.677246,-814.226536,689.485948
838.751342,-9252.574275,-814.226536,459.657299
838.751662,-8586.388927,-148.041188,0.000000
838.751983,-8142.265362,148.041188,-306.438199
838.752304,-8660.409521,148.041188,76.609550
838.752625,-8660.409521,-666.185348,459.657299
838.752945,-9696.697840,-1702.473667,229.828649
838.753266,-10584.944971,-1480.411884,842.705048
838.753587,-10955.047942,-444.123565,1149.143247
838.753908,-10955.047942,-518.144159,1838.629195
838.754228,-10288.862594,-148.041188,1915.238745
838.754549,-10066.800811,-148.041188,1685.410096
838.754870,-9474.636058,296.082377,1991.848295
838.755191,-9770.718434,-962.267725,1762.019645
838.755511,-9252.574275,-888.247130,1378.971896
838.755832,-9178.553681,-74.020594,919.314598
838.756153,-8438.347739,370.102971,1762.019645
838.756474,-8290.306550,592.164754,689.485948
838.756794,-8290.306550,0.000000,612.876398
838.757115,-8882.471304,-888.247130,612.876398
838.757436,-9474.636058,-1702.473667,306.438199
838.757757,-10066.800811,-1702.473667,1378.971896
838.758077,-10510.924376,-1036.288319,1302.362347
838.758398,-10658.965565,-222.061783,1608.800546
838.758719,-10288.862594,592.164754,2298.286494
838.759040,-10955.047942,740.205942,2451.505594
838.759360,-10362.883188,148.041188,2374.896044
838.759681,-10066.800811,-444.123565,2145.067394
838.760002,-9770.718434,0.000000,1378.971896
838.760323,-9178.553681,0.000000,536.266849
838.760643,-8216.285956,444.123565,459.657299
838.760964,-7994.224174,518.144159,0.000000
838.761285,-8142.265362,74.020594,0.000000
838.761605,-8956.491898,-814.226536,0.000000
838.761926,-9844.739029,-1406.391290,306.438199
838.762247,-10436.903782,-1332.370696,766.095498
838.762568,-11029.068536,-444.123565,919.314598
838.762888,-10955.047942,518.144159,2298.286494
838.763209,-9696.697840,222.061783,2451.505594
838.763530,-10436.903782,444.123565,2068.457845
838.763851,-10066.800811,74.020594,1685.410096
838.764171,-9918.759623,-518.144159,1378.971896
838.764492,-9326.594869,-222.061783,536.266849
838.764813,-8660.409521,370.102971,612.876398
838.765134,-8290.306550,740.205942,0.000000
838.765454,-8216.285956,814.226536,306.438199
838.765775,-8734.430116,0.000000,229.828649
838.766096,-9400.615463,-1258.350101,383.047749
838.766417,-9548.656652,-1776.494261,153.219100
838.766737,-10436.903782,-1776.494261,689.485948
838.767058,-10510.924376,-592.164754,1302.362347
838.767379,-10584.944971,740.205942,1532.190996
838.767700,-10584.944971,740.205942,2374.896044
838.768020,-10362.883188,518.144159,2298.286494
838.768341,-10584.944971,0.000000,2145.067394
838.768662,-9770.718434,-370.102971,1149.143247
838.768983,-9400.615463,-444.123565,842.705048
838.769303,-8660.409521,0.000000,766.095498
838.769624,-7994.224174,296.082377,306.438199
838.769945,-8142.265362,0.000000,306.438199
838.770265,-8586.388927,-74.020594,842.705048
838.770586,-9400.615463,-1258.350101,153.219100
838.770907,-10510.924376,-1480.411884,689.485948
838.771228,-10510.924376,-1110.308913,536.266849
838.771548,-10881.027347,-592.164754,919.314598
838.771869,-10288.862594,518.144159,1838.629195
838.772190,-9992.780217,592.164754,1608.800546
838.772511,-10066.800811,518.144159,1838.629195
838.772831,-9844.739029,-592.164754,1915.238745
838.773152,-9400.615463,0.000000,1302.362347
838.773473,-9474.636058,0.000000,1072.533697
838.773794,-8586.388927,370.102971,1378.971896
838.774114,-8364.327145,74.020594,1225.752797
838.774435,-8290.306550,-666.185348,1072.533697
838.774756,-8586.388927,-2072.576638,842.705048
838.775077,-9326.594869,-2960.823768,995.924147
838.775397,-9844.739029,-2664.741391,919.314598
838.775718,-10140.821405,-1702.473667,1532.190996
838.776039,-10362.883188,-296.082377,1762.019645
838.776360,-10140.821405,444.123565,2374.896044
838.776680,-10510.924376,666.185348,2681.334243
838.777001,-10436.903782,1332.370696,4749.792088
838.777322,-10436.903782,-1332.370696,2221.676944
838.777643,-9400.615463,-814.226536,1225.752797
838.777963,-9030.512492,0.000000,306.438199
838.778284,-8290.306550,148.041188,459.657299
838.778605,-7476.080014,740.205942,383.047749
838.778925,-8586.388927,0.000000,76.609550
838.779246,-8364.327145,-1258.350101,-1149.143247
838.779567,-9918.759623,-1702.473667,-459.657299
838.779888,-10584.944971,-1184.329507,-306.438199
838.780208,-10955.047942,-1036.288319,229.828649
838.780529,-11029.068536,0.000000,1149.143247
838.780850,-10510.924376,222.061783,1838.629195
838.781171,-10436.903782,222.061783,2068.457845
838.781491,-10807.006753,-370.102971,2145.067394
838.781812,-10214.842000,0.000000,1532.190996
838.782133,-9918.759623,148.041188,689.485948
838.782454,-8956.491898,518.144159,459.657299
838.782774,-8512.368333,1110.308913,689.485948
838.783095,-8068.244768,740.205942,229.828649
838.783416,-8660.409521,-296.082377,229.828649
838.783737,-8808.450710,-1110.308913,0.000000
838.784057,-9696.697840,-1110.308913,229.828649
838.784378,-10362.883188,-1036.288319,459.657299
838.784699,-10807.006753,370.102971,919.314598
838.785020,-10658.965565,740.205942,1991.848295
838.785340,-9992.780217,1628.453072,2987.772442
838.785661,-10214.842000,0.000000,2451.505594
838.785982,-10140.821405,-1036.288319,1838.629195
838.786303,-9918.759623,-1110.308913,1608.800546
838.786623,-9252.574275,-814.226536,612.876398
838.786944,-8438.347739,-296.082377,0.000000
838.787265,-7624.121203,296.082377,0.000000
838.787586,-7550.100608,148.041188,76.609550
838.787906,-8142.265362,-740.205942,229.828649
838.788227,-8660.409521,-1554.432478,306.438199
838.788548,-10214.842000,-2220.617826,766.095498
838.788868,-10510.924376,-1924.535449,536.266849
838.789189,-10436.903782,-962.267725,1378.971896
838.789510,-10732.986159,888.247130,2604.724693
838.789831,-10214.842000,814.226536,2681.334243
838.790151,-10288.862594,814.226536,2911.162892
838.790472,-9992.780217,-296.082377,1762.019645
838.790793,-9474.636058,-370.102971,1302.362347
838.791114,-9104.533087,-666.185348,306.438199
838.791434,-8808.450710,666.185348,1149.143247
838.791755,-8512.368333,740.205942,1455.581446
838.792076,-8586.388927,148.041188,919.314598
838.792397,-9030.512492,-1036.288319,995.924147
838.792717,-9400.615463,-2072.576638,306.438199
838.793038,-10436.903782,-2146.597232,689.485948
838.793359,-10732.986159,-1258.350101,612.876398
838.793680,-9918.759623,-74.020594,2451.505594
838.794000,-10214.842000,1184.329507,1608.800546
838.794321,-10658.965565,1184.329507,1915.238745
838.794642,-10732.986159,518.144159,2068.457845
838.794963,-10955.047942,-148.041188,1685.410096
838.795283,-10066.800811,-444.123565,689.485948
838.795604,-9548.656652,0.000000,383.047749
838.795925,-8512.368333,518.144159,153.219100
838.796246,-8216.285956,518.144159,76.609550
838.796566,-7772.162391,-148.041188,229.828649
838.796887,-8290.306550,-888.247130,-306.438199
838.797208,-9400.615463,-2072.576638,0.000000
838.797528,-10140.821405,-2072.576638,459.657299
838.797849,-11547.212695,-1332.370696,2221.676944
838.798170,-10510.924376,-296.082377,1991.848295
838.798491,-10436.903782,148.041188,1991.848295
838.798811,-10362.883188,592.164754,2681.334243
838.799132,-10510.924376,-370.102971,4136.915689
838.799453,-10214.842000,-814.226536,1838.629195
838.799774,-9844.739029,-296.082377,1378.971896
838.800094,-9252.574275,-296.082377,536.266849
838.800415,-8512.368333,0.000000,689.485948
838.800736,-7624.121203,0.000000,306.438199
838.801057,-8438.347739,-592.164754,306.438199
838.801377,-8512.368333,-1480.411884,0.000000
838.801698,-9326.594869,-2072.576638,-306.438199
838.802019,-10732.986159,-1036.288319,76.609550
838.802340,-10288.862594,-740.205942,919.314598
838.802660,-10140.821405,370.102971,1455.581446
838.802981,-10214.842000,1184.329507,2451.505594
838.803302,-10288.862594,518.144159,2451.505594
838.803623,-9918.759623,0.000000,2068.457845
838.803943,-9992.780217,-1036.288319,919.314598
838.804264,-9178.553681,-592.164754,689.485948
838.804585,-8438.347739,148.041188,536.266849
838.804906,-8364.327145,740.205942,229.828649
838.805226,-8364.327145,296.082377,612.876398
838.805547,-8808.450710,-296.082377,306.438199
838.805868,-9844.739029,-1110.308913,919.314598
838.806188,-10066.800811,-1702.473667,383.047749
838.806509,-10955.047942,-1184.329507,1149.143247
838.806830,-10658.965565,-592.164754,1685.410096
838.807151,-10066.800811,962.267725,1685.410096
838.807471,-10288.862594,222.061783,2757.943793
838.807792,-10214.842000,0.000000,2681.334243
838.808113,-10214.842000,-666.185348,2374.896044
838.808434,-10066.800811,-962.267725,1455.581446
838.808754,-9178.553681,592.164754,1608.800546
838.809075,-9474.636058,888.247130,2298.286494
838.809396,-8586.388927,1184.329507,1991.848295
838.809717,-8364.327145,370.102971,1225.752797
838.810037,-8586.388927,-1332.370696,766.095498
838.810358,-9104.533087,-2146.597232,0.000000
838.810679,-9918.759623,-2368.659014,536.266849
838.811000,-10140.821405,-1332.370696,919.314598
838.811320,-10214.842000,0.000000,1225.752797
838.811641,-10140.821405,1184.329507,1838.629195
838.811962,-10362.883188,666.185348,2681.334243
838.812283,-10436.903782,-148.041188,2604.724693
838.812603,-10066.800811,-1332.370696,1838.629195
838.812924,-9548.656652,-1554.432478,995.924147
838.813245,-8956.491898,-1036.288319,612.876398
838.813566,-8142.265362,-370.102971,0.000000
838.813886,-7846.182985,592.164754,0.000000
838.814207,-7920.203579,148.041188,-612.876398
838.814528,-9474.636058,740.205942,-1302.362347
838.814849,-9844.739029,-1184.329507,-229.828649
838.815169,-10436.903782,-1184.329507,0.000000
838.815490,-11251.130318,-814.226536,612.876398
838.815811,-10658.965565,666.185348,1838.629195
838.816131,-10436.903782,518.144159,1608.800546
838.816452,-10288.862594,888.247130,1838.629195
838.816773,-10288.862594,962.267725,2145.067394
838.817094,-10066.800811,296.082377,1455.581446
838.817414,-9474.636058,74.020594,766.095498
838.817735,-8956.491898,74.020594,459.657299
838.818056,-8660.409521,296.082377,153.219100
838.818377,-8216.285956,74.020594,306.438199
838.818697,-8364.327145,-222.061783,1149.143247
838.819018,-9030.512492,-1480.411884,229.828649
838.819339,-9548.656652,-1998.556043,153.219100
838.819660,-10658.965565,-1776.494261,306.438199
838.819980,-10658.965565,-1036.288319,842.705048
838.820301,-10807.006753,-444.123565,1608.800546
838.820622,-10362.883188,370.102971,1915.238745
838.820943,-10584.944971,0.000000,3064.381992
838.821263,-10436.903782,-888.247130,2604.724693
838.821584,-10436.903782,-1332.370696,1455.581446
838.821905,-9326.594869,-814.226536,995.924147
838.822226,-8956.491898,-296.082377,383.047749
838.822546,-8290.306550,814.226536,383.047749
838.822867,-8216.285956,592.164754,-459.657299
838.823188,-8068.244768,-148.041188,-229.828649
838.823509,-8882.471304,-962.267725,0.000000
838.823829,-9770.718434,-1628.453072,459.657299
838.824150,-10436.903782,-962.267725,153.219100
838.824471,-11029.068536,-814.226536,1072.533697
838.824791,-10436.903782,444.123565,2068.457845
838.825112,-10510.924376,740.205942,2604.724693
838.825433,-10214.842000,444.123565,2834.553343
838.825754,-9400.615463,-666.185348,2451.505594
838.826074,-9548.656652,-1184.329507,1685.410096
838.826395,-9030.512492,-814.226536,995.924147
838.826716,-8586.388927,222.061783,536.266849
838.827037,-6957.935855,1406.391290,459.657299
838.827357,-7920.203579,592.164754,842.705048
838.827678,-8512.368333,0.000000,689.485948
838.827999,-9030.512492,-1332.370696,536.266849
838.828320,-9918.759623,-1628.453072,306.438199
838.828640,-10732.986159,-1480.411884,1455.581446
838.828961,-10955.047942,-444.123565,1302.362347
838.829282,-10362.883188,592.164754,2145.067394
838.829603,-10510.924376,444.123565,2298.286494
838.829923,-10288.862594,518.144159,1762.019645
838.830244,-10288.862594,-370.102971,1762.019645
838.830565,-9622.677246,-666.185348,919.314598
838.830886,-9326.594869,-222.061783,0.000000
838.831206,-8512.368333,370.102971,0.000000
838.831527,-8142.265362,1184.329507,0.000000
838.831848,-8438.347739,962.267725,383.047749
838.832169,-9178.553681,0.000000,306.438199
838.832489,-9696.697840,-1702.473667,0.000000
838.832810,-10288.862594,-2146.597232,612.876398
838.833131,-11769.274478,-1924.535449,0.000000
838.833451,-9400.615463,666.185348,1149.143247
838.833772,-11177.109724,444.123565,1149.143247
838.834093,-9844.739029,1406.391290,2451.505594
838.834414,-9918.759623,148.041188,1838.629195
838.834734,-10214.842000,-148.041188,2145.067394
838.835055,-9548.656652,-666.185348,306.438199
838.835376,-9696.697840,0.000000,995.924147
838.835697,-8734.430116,592.164754,2068.457845
838.836017,-7920.203579,740.205942,689.485948
838.836338,-8808.450710,74.020594,1378.971896
838.836659,-8586.388927,-1184.329507,612.876398
838.836980,-8364.327145,-2368.659014,1149.143247
838.837300,-10214.842000,-1702.473667,536.266849
838.837621,-10362.883188,-666.185348,1149.143247
838.837942,-9992.780217,666.185348,1532.190996
838.838263,-10584.944971,1184.329507,2451.505594
838.838583,-10214.842000,1036.288319,2681.334243
838.838904,-10732.986159,296.082377,2987.772442
838.839225,-10658.965565,-1184.329507,2068.457845
838.839545,-9474.636058,-962.267725,1378.971896
838.839866,-8290.306550,-1406.391290,0.000000
838.840187,-8068.244768,0.000000,383.047749
838.840507,-7994.224174,370.102971,153.219100
838.840828,-7994.224174,-148.041188,-153.219100
838.841149,-9178.553681,-740.205942,0.000000
838.841469,-9622.677246,-1702.473667,0.000000
838.841790,-10658.965565,-2146.597232,153.219100
838.842111,-10807.006753,-1554.432478,919.314598
838.842431,-10214.842000,-518.144159,919.314598
838.842752,-10510.924376,0.000000,1991.848295
838.843073,-10140.821405,0.000000,2911.162892
838.843393,-10362.883188,-962.267725,2374.896044
838.843714,-10140.821405,-1406.391290,1991.848295
838.844034,-9474.636058,-1036.288319,612.876398
838.844355,-9252.574275,-296.082377,919.314598
838.844676,-8660.409521,370.102971,1302.362347
838.844996,-7994.224174,814.226536,1149.143247
838.845317,-8142.265362,-296.082377,1991.848295
838.845638,-9030.512492,-1110.308913,229.828649
838.845958,-9696.697840,-1776.494261,76.609550
838.846279,-10214.842000,-1332.370696,306.438199
838.846600,-10584.944971,-592.164754,536.266849
838.846920,-10362.883188,1036.288319,919.314598
838.847241,-10510.924376,1184.329507,1838.629195
838.847562,-10436.903782,740.205942,2451.505594
838.847882,-10584.944971,-370.102971,1838.629195
838.848203,-9696.697840,0.000000,1762.019645
838.848523,-9696.697840,-1110.308913,229.828649
838.848844,-8438.347739,74.020594,0.000000
838.849165,-7994.224174,592.164754,76.609550
838.849485,-8068.244768,740.205942,76.609550
838.849806,-7846.182985,-666.185348,-383.047749
838.850127,-9326.594869,-1998.556043,-536.266849
838.850447,-9918.759623,-2664.741391,-306.438199
838.850768,-10066.800811,-2072.576638,153.219100
838.851089,-10436.903782,-1258.350101,612.876398
838.851409,-10066.800811,1036.288319,1685.410096
838.851730,-10362.883188,1036.288319,2298.286494
838.852051,-10214.842000,370.102971,2451.505594
838.852371,-10807.006753,518.144159,2068.457845
838.852692,-9918.759623,-1184.329507,1455.581446
838.853013,-9400.615463,-740.205942,919.314598
838.853333,-8808.450710,740.205942,1072.533697
838.853654,-8142.265362,1406.391290,1915.238745
838.853974,-8142.265362,518.144159,1455.581446
838.854295,-8512.368333,74.020594,1455.581446
838.854616,-9474.636058,-1702.473667,689.485948
838.854936,-9918.759623,-1776.494261,459.657299
838.855257,-10140.821405,-814.226536,1225.752797
838.855578,-10288.862594,222.061783,1532.190996
838.855898,-10436.903782,1628.453072,2298.286494
838.856219,-10881.027347,1850.514855,2987.772442
838.856540,-9548.656652,74.020594,2834.553343
838.856860,-10436.903782,-370.102971,2451.505594
838.857181,-10066.800811,-518.144159,1685.410096
838.857502,-9326.594869,-222.061783,919.314598
838.857822,-8660.409521,74.020594,612.876398
838.858143,-7846.182985,518.144159,459.657299
838.858463,-8142.265362,-148.041188,-153.219100
838.858784,-8512.368333,-666.185348,-306.438199
838.859105,-9326.594869,-1702.473667,-459.657299
838.859425,-10584.944971,-1554.432478,0.000000
838.859746,-10658.965565,-1258.350101,536.266849
838.860067,-10584.944971,-222.061783,1072.533697
838.860387,-10362.883188,74.020594,1915.238745
838.860708,-10140.821405,0.000000,1532.190996
838.861029,-9992.780217,-296.082377,2145.067394
838.861349,-9992.780217,-962.267725,1838.629195
838.861670,-9400.615463,-592.164754,1225.752797
838.861991,-9104.533087,0.000000,612.876398
838.862311,-8142.265362,370.102971,612.876398
838.862632,-7698.141797,518.144159,536.266849
838.862952,-8438.347739,-370.102971,459.657299
838.863273,-8586.388927,-1406.391290,76.609550
838.863594,-9770.718434,-1924.535449,919.314598
838.863914,-10214.842000,-1628.453072,459.657299
838.864235,-10436.903782,-888.247130,1072.533697
838.864556,-10436.903782,0.000000,1762.019645
838.864876,-9696.697840,1258.350101,3217.601092
838.865197,-10584.944971,444.123565,2221.676944
838.865518,-10288.862594,0.000000,2145.067394
838.865838,-10288.862594,-370.102971,1762.019645
838.866159,-9326.594869,-518.144159,842.705048
838.866480,-8734.430116,-296.082377,0.000000
838.866800,-7994.224174,222.061783,-76.609550
838.867121,-7624.121203,1036.288319,0.000000
838.867441,-9030.512492,0.000000,306.438199
838.867762,-10140.821405,-888.247130,689.485948
838.868083,-10510.924376,-1554.432478,536.266849
838.868403,-10807.006753,-2516.700203,689.485948
838.868724,-10881.027347,-1702.473667,1378.971896
838.869045,-11473.192101,-1036.288319,919.314598
838.869365,-10288.862594,-592.164754,1915.238745
838.869686,-9918.759623,148.041188,1378.971896
838.870007,-9696.697840,0.000000,1378.971896
838.870327,-9474.636058,222.061783,1149.143247
838.870648,-9400.615463,296.082377,229.828649
838.870969,-8586.388927,666.185348,536.266849
838.871289,-8290.306550,740.205942,459.657299
838.871610,-8586.388927,-222.061783,689.485948
838.871930,-8660.409521,-1184.329507,383.047749
838.872251,-9252.574275,-1924.535449,536.266849
838.872572,-9622.677246,-1776.494261,306.438199
838.872892,-10362.883188,-814.226536,689.485948
838.873213,-10214.842000,1036.288319,1378.971896
838.873534,-10807.006753,1184.329507,2834.553343
838.873854,-10807.006753,1406.391290,3294.210641
838.874175,-10510.924376,0.000000,2757.943793
838.874496,-9992.780217,-962.267725,2604.724693
838.874816,-10066.800811,-962.267725,1685.410096
838.875137,-9030.512492,-222.061783,1072.533697
838.875458,-8364.327145,74.020594,689.485948
838.875778,-7624.121203,1110.308913,0.000000
838.876099,-7550.100608,740.205942,-153.219100
838.876420,-8808.450710,-592.164754,-76.609550
838.876740,-9252.574275,-1554.432478,0.000000
838.877061,-9770.718434,-1924.535449,153.219100
838.877381,-10214.842000,-1184.329507,-536.266849
838.877702,-10658.965565,-444.123565,1455.581446
838.878023,-10658.965565,370.102971,2528.115143
838.878343,-10732.986159,518.144159,2604.724693
838.878664,-10584.944971,148.041188,2374.896044
838.878985,-9918.759623,0.000000,1455.581446
838.879305,-9696.697840,296.082377,1225.752797
838.879626,-9474.636058,666.185348,995.924147
838.879947,-8734.430116,1184.329507,612.876398
838.880267,-8364.327145,740.205942,0.000000
838.880588,-8438.347739,-296.082377,229.828649
838.880909,-9030.512492,-1110.308913,689.485948
838.881229,-9770.718434,-2072.576638,612.876398
838.881550,-10584.944971,-1036.288319,229.828649
838.881870,-10732.986159,-666.185348,995.924147
838.882191,-10214.842000,148.041188,1685.410096
838.882512,-10584.944971,1036.288319,2298.286494
838.882832,-10807.006753,814.226536,2374.896044
838.883153,-10658.965565,0.000000,2221.676944
838.883474,-10214.842000,-592.164754,1455.581446
838.883794,-9622.677246,-666.185348,1072.533697
838.884115,-9030.512492,0.000000,612.876398
838.884436,-9104.533087,1110.308913,383.047749
838.884756,-8142.265362,444.123565,-229.828649
838.885077,-8068.244768,0.000000,-383.047749
838.885398,-8882.471304,-1258.350101,-383.047749
838.885718,-9474.636058,-1480.411884,76.609550
838.886039,-10140.821405,-1702.473667,459.657299
838.886359,-10436.903782,-1036.288319,612.876398
838.886680,-10214.842000,148.041188,1532.190996
838.887001,-10362.883188,370.102971,2451.505594
838.887321,-9992.780217,74.020594,2451.505594
838.887642,-9992.780217,-444.123565,2145.067394
838.887963,-9696.697840,-518.144159,1302.362347
838.888283,-9252.574275,-962.267725,919.314598
838.888604,-8734.430116,0.000000,1225.752797
838.888925,-7994.224174,0.000000,383.047749
838.889245,-7846.182985,74.020594,306.438199
838.889566,-8438.347739,-666.185348,536.266849
838.889887,-9400.615463,-1850.514855,689.485948
838.890207,-9696.697840,-2072.576638,689.485948
838.890528,-10732.986159,-1776.494261,842.705048
838.890848,-10584.944971,-518.144159,1072.533697
838.891169,-10510.924376,296.082377,2068.457845
838.891490,-10436.903782,962.267725,3294.210641
838.891810,-10510.924376,296.082377,2681.334243
838.892131,-10288.862594,-370.102971,1991.848295
838.892452,-9918.759623,-814.226536,1532.190996
838.892772,-9400.615463,0.000000,995.924147
838.893093,-8734.430116,370.102971,995.924147
838.893414,-8216.285956,814.226536,689.485948
838.893734,-8290.306550,74.020594,76.609550
838.894055,-8660.409521,-888.247130,76.609550
838.894376,-9326.594869,-2220.617826,842.705048
838.894696,-10362.883188,-2072.576638,76.609550
838.895017,-10658.965565,-1258.350101,536.266849
838.895337,-10732.986159,-296.082377,842.705048
838.895658,-9548.656652,1184.329507,1149.143247
838.895979,-10510.924376,1776.494261,2681.334243
838.896299,-10288.862594,222.061783,2298.286494
838.896620,-10362.883188,-1036.288319,2068.457845
838.896941,-9548.656652,-1406.391290,1455.581446
838.897261,-8808.450710,-518.144159,-383.047749
838.897582,-8512.368333,-296.082377,1149.143247
838.897903,-8142.265362,222.061783,1302.362347
838.898223,-8438.347739,148.041188,766.095498
838.898544,-8808.450710,-518.144159,306.438199
838.898865,-9770.718434,-1628.453072,689.485948
838.899185,-10214.842000,-1998.556043,229.828649
838.899506,-10732.986159,-1480.411884,1072.533697
838.899827,-10362.883188,-370.102971,1608.800546
838.900147,-10436.903782,444.123565,2145.067394
838.900468,-10214.842000,518.144159,2681.334243
838.900788,-10362.883188,-370.102971,2068.457845
838.901109,-9844.739029,-518.144159,1225.752797
838.901430,-9326.594869,-518.144159,536.266849
838.901750,-8808.450710,-370.102971,229.828649
838.902071,-8068.244768,444.123565,229.828649
838.902392,-7550.100608,518.144159,0.000000
838.902712,-8290.306550,-518.144159,306.438199
838.903033,-9030.512492,-1332.370696,153.219100
838.903354,-10066.800811,-2146.597232,995.924147
838.903674,-10658.965565,-1776.494261,689.485948
838.903995,-11029.068536,-888.247130,1072.533697
838.904316,-10584.944971,444.123565,1685.410096
838.904636,-10436.903782,962.267725,2068.457845
838.904957,-10362.883188,518.144159,2528.115143
838.905277,-9918.759623,-222.061783,1608.800546
838.905598,-9918.759623,-962.267725,1608.800546
838.905919,-9770.718434,-444.123565,306.438199
838.906239,-9178.553681,1258.350101,1685.410096
838.906560,-8660.409521,1184.329507,766.095498
838.906881,-8216.285956,1332.370696,536.266849
838.907201,-8586.388927,-296.082377,383.047749
838.907522,-9252.574275,-1332.370696,459.657299
838.907843,-10288.862594,-2072.576638,306.438199
838.908163,-10584.944971,-1702.473667,766.095498
838.908484,-10436.903782,-962.267725,1072.533697
838.908805,-10288.862594,0.000000,1991.848295
838.909125,-10436.903782,222.061783,2681.334243
838.909446,-10436.903782,-148.041188,2221.676944
838.909766,-10214.842000,-1184.329507,2145.067394
838.910087,-9622.677246,-1406.391290,1532.190996
838.910408,-9400.615463,-888.247130,383.047749
838.910728,-8660.409521,222.061783,459.657299
838.911049,-8142.265362,888.247130,459.657299
838.911370,-8216.285956,814.226536,0.000000
838.911690,-8438.347739,0.000000,0.000000
838.912011,-9326.594869,-1184.329507,-383.047749
838.912332,-9844.739029,-1480.411884,0.000000
838.912652,-10510.924376,-1110.308913,612.876398
838.912973,-10658.965565,74.020594,1225.752797
838.913294,-10732.986159,444.123565,1762.019645
838.913614,-10140.821405,888.247130,2145.067394
838.913935,-9992.780217,74.020594,2298.286494
838.914255,-9992.780217,-592.164754,1762.019645
838.914576,-9696.697840,-370.102971,1225.752797
838.914897,-9178.553681,74.020594,766.095498
838.915217,-8438.347739,740.205942,842.705048
838.915538,-8290.306550,592.164754,1149.143247
838.915859,-8586.388927,0.000000,766.095498
838.916179,-9474.636058,-962.267725,76.609550
838.916500,-9548.656652,-2294.638420,229.828649
838.916821,-10214.842000,-2220.617826,153.219100
838.917141,-10510.924376,-1628.453072,612.876398
838.917462,-11399.171507,444.123565,1072.533697
838.917783,-10214.842000,1036.288319,2145.067394
838.918103,-10658.965565,888.247130,2757.943793
838.918424,-10584.944971,370.102971,2911.162892
838.918744,-10214.842000,-814.226536,2911.162892
838.919065,-9548.656652,-962.267725,1302.362347
838.919386,-9326.594869,-592.164754,383.047749
838.919706,-8364.327145,296.082377,153.219100
838.920027,-8290.306550,814.226536,383.047749
838.920348,-8808.450710,592.164754,0.000000
838.920668,-9030.512492,-666.185348,153.219100
838.920989,-9696.697840,-1776.494261,76.609550
838.921310,-10732.986159,-1850.514855,459.657299
838.921630,-10732.986159,-1332.370696,-306.438199
838.921951,-10436.903782,-222.061783,1532.190996
838.922272,-10436.903782,814.226536,2374.896044
838.922592,-10510.924376,888.247130,2757.943793
838.922913,-10436.903782,370.102971,2374.896044
838.923234,-9992.780217,0.000000,1762.019645
838.923554,-9474.636058,0.000000,842.705048
838.923875,-8808.450710,296.082377,459.657299
838.924195,-8290.306550,592.164754,153.219100
838.924516,-8364.327145,74.020594,0.000000
838.924837,-8216.285956,-1184.329507,0.000000
838.925157,-8956.491898,-1924.535449,153.219100
838.925478,-9844.739029,-2294.638420,0.000000
838.925799,-9474.636058,-1850.514855,76.609550
838.926119,-10584.944971,-518.144159,842.705048
838.926440,-10436.903782,814.226536,1991.848295
838.926761,-10510.924376,888.247130,1915.238745
838.927081,-10436.903782,1110.308913,3753.867940
838.927402,-10436.903782,-518.144159,2145.067394
838.927723,-9844.739029,-814.226536,1455.581446
838.928043,-9696.697840,-666.185348,995.924147
838.928364,-8808.450710,222.061783,459.657299
838.928684,-8068.244768,1036.288319,689.485948
838.929005,-8290.306550,740.205942,459.657299
838.929326,-8216.285956,296.082377,536.266849
838.929646,-9622.677246,-1702.473667,0.000000
838.929967,-8808.450710,-2516.700203,-536.266849
838.930288,-10140.821405,-1480.411884,459.657299
838.930608,-10436.903782,-518.144159,1378.971896
838.930929,-10436.903782,74.020594,1991.848295
838.931250,-9918.759623,74.020594,1991.848295
838.931570,-10584.944971,0.000000,3447.429741
838.931891,-10214.842000,-962.267725,2528.115143
838.932212,-10066.800811,-1184.329507,2757.943793
838.932532,-9770.718434,-740.205942,1838.629195
838.932853,-8438.347739,-148.041188,1302.362347
838.933173,-8068.244768,222.061783,995.924147
838.933494,-8290.306550,74.020594,1072.533697
838.933815,-8364.327145,-740.205942,459.657299
838.934135,-9326.594869,-1702.473667,919.314598
838.934456,-9770.718434,-1924.535449,383.047749
838.934777,-10362.883188,-1480.411884,306.438199
838.935097,-10807.006753,-148.041188,1378.971896
838.935418,-10436.903782,1628.453072,1838.629195
838.935739,-10881.027347,1406.391290,2681.334243
838.936059,-10658.965565,740.205942,2681.334243
838.936380,-10214.842000,74.020594,2221.676944
838.936701,-9770.718434,-592.164754,1302.362347
838.937021,-8808.450710,-370.102971,536.266849
838.937342,-8216.285956,-148.041188,0.000000
838.937662,-7328.038826,222.061783,-536.266849
838.937983,-7920.203579,-222.061783,-612.876398
838.938304,-8734.430116,-1480.411884,-689.485948
838.938624,-9326.594869,-1924.535449,-689.485948
838.938945,-10288.862594,-1924.535449,76.609550
838.939266,-10807.006753,-1184.329507,536.266849
838.939586,-10288.862594,0.000000,1455.581446
838.939907,-10955.047942,444.123565,2451.505594
838.940228,-10510.924376,444.123565,2757.943793
838.940548,-9844.739029,-370.102971,2298.286494
838.940869,-10288.862594,-1036.288319,1915.238745
838.941190,-9030.512492,-740.205942,995.924147
838.941510,-8882.471304,-592.164754,689.485948
838.941831,-8142.265362,0.000000,229.828649
838.942152,-7772.162391,1258.350101,153.219100
838.942472,-8956.491898,148.041188,612.876398
838.942793,-8956.491898,-666.185348,153.219100
838.943114,-9696.697840,-1554.432478,383.047749
838.943434,-10807.006753,-1850.514855,919.314598
838.943755,-10732.986159,-1036.288319,536.266849
838.944076,-10955.047942,148.041188,2068.457845
838.944397,-10807.006753,888.247130,2987.772442
838.944717,-10955.047942,1628.453072,2757.943793
838.945038,-10807.006753,888.247130,2374.896044
838.945359,-9548.656652,-148.041188,2145.067394
838.945679,-9474.636058,-222.061783,612.876398
838.946000,-8956.491898,-222.061783,0.000000
838.946321,-8216.285956,296.082377,0.000000
838.946641,-7772.162391,296.082377,-383.047749
838.946962,-8364.327145,-222.061783,383.047749
838.947283,-9252.574275,-814.226536,0.000000
838.947604,-10362.883188,-1480.411884,383.047749
838.947924,-11029.068536,-1110.308913,842.705048
838.948245,-10732.986159,-592.164754,1915.238745
838.948566,-10362.883188,518.144159,2298.286494
838.948886,-10510.924376,222.061783,2681.334243
838.949207,-9844.739029,-148.041188,2681.334243
838.949528,-9918.759623,-296.082377,2374.896044
838.949849,-9474.636058,-1184.329507,1532.190996
838.950169,-9104.533087,-666.185348,1072.533697
838.950490,-8364.327145,222.061783,995.924147
838.950811,-7846.182985,666.185348,383.047749
838.951131,-7624.121203,0.000000,153.219100
838.951452,-8438.347739,-962.267725,0.000000
838.951773,-8956.491898,-1998.556043,0.000000
838.952094,-9548.656652,-2294.638420,459.657299
838.952414,-10140.821405,-1850.514855,842.705048
838.952735,-10436.903782,-370.102971,1378.971896
838.953056,-10066.800811,592.164754,1762.019645
838.953376,-10362.883188,740.205942,2374.896044
838.953697,-10436.903782,1110.308913,2145.067394
838.954018,-10436.903782,-518.144159,1455.581446
838.954338,-9844.739029,-814.226536,1225.752797
838.954659,-9030.512492,-296.082377,229.828649
838.954980,-8438.347739,666.185348,-383.047749
838.955301,-8142.265362,592.164754,153.219100
838.955621,-8290.306550,0.000000,0.000000
838.955942,-9030.512492,-888.247130,-383.047749
838.956263,-9474.636058,-740.205942,-306.438199
838.956583,-10807.006753,-1776.494261,306.438199
838.956904,-10436.903782,-296.082377,995.924147
838.957225,-10955.047942,-296.082377,1762.019645
838.957546,-10436.903782,518.144159,2068.457845
838.957866,-11399.171507,222.061783,2068.457845
838.958187,-10436.903782,-814.226536,2451.505594
838.958508,-9918.759623,-962.267725,1685.410096
838.958828,-9992.780217,-444.123565,1225.752797
838.959149,-9104.533087,592.164754,0.000000
838.959470,-8660.409521,888.247130,1225.752797
838.959790,-8438.347739,962.267725,995.924147
838.960111,-8512.368333,0.000000,689.485948
838.960432,-9178.553681,-1258.350101,536.266849
838.960753,-9178.553681,-2220.617826,0.000000
838.961073,-10214.842000,-2072.576638,153.219100
838.961394,-10436.903782,-888.247130,766.095498
838.961715,-10510.924376,296.082377,1685.410096
838.962035,-10436.903782,1036.288319,3447.429741
838.962356,-10362.883188,666.185348,2604.724693
838.962677,-10362.883188,-148.041188,2374.896044
838.962998,-9770.718434,-370.102971,1838.629195
838.963318,-9474.636058,0.000000,2987.772442
838.963639,-8438.347739,0.000000,536.266849
838.963960,-7920.203579,222.061783,536.266849
838.964280,-7846.182985,74.020594,229.828649
838.964601,-7994.224174,-518.144159,-153.219100
838.964922,-8512.368333,-1406.391290,0.000000
838.965243,-9992.780217,-1702.473667,459.657299
838.965563,-10362.883188,-1554.432478,689.485948
838.965884,-10807.006753,-666.185348,1378.971896
838.966205,-10955.047942,222.061783,2528.115143
838.966525,-10436.903782,814.226536,2298.286494
838.966846,-10584.944971,814.226536,2757.943793
838.967167,-10288.862594,-296.082377,2451.505594
838.967487,-9622.677246,-666.185348,2987.772442
838.967808,-9326.594869,-666.185348,612.876398
838.968129,-8438.347739,-518.144159,-153.219100
838.968450,-7920.203579,814.226536,76.609550
838.968770,-8068.244768,592.164754,-306.438199
838.969091,-8586.388927,592.164754,0.000000
838.969412,-9326.594869,-888.247130,-306.438199
838.969732,-10288.862594,-1332.370696,153.219100
838.970053,-11029.068536,-1258.350101,536.266849
838.970374,-11029.068536,-148.041188,1685.410096
838.970695,-11177.109724,222.061783,2834.553343
838.971015,-10658.965565,444.123565,3064.381992
838.971336,-10584.944971,0.000000,2757.943793
838.971657,-10362.883188,74.020594,2987.772442
838.971977,-9918.759623,-666.185348,1991.848295
838.972298,-9474.636058,-814.226536,1225.752797
838.972619,-8142.265362,-222.061783,229.828649
838.972940,-7994.224174,0.000000,0.000000
838.973260,-7624.121203,148.041188,306.438199
838.973581,-8734.430116,-518.144159,0.000000
838.973902,-9326.594869,-1776.494261,0.000000
838.974222,-9474.636058,-1628.453072,-383.047749
838.974543,-10955.047942,-1406.391290,0.000000
838.974864,-10214.842000,-222.061783,1378.971896
838.975184,-10658.965565,222.061783,2145.067394
838.975505,-10732.986159,592.164754,3294.210641
838.975826,-10362.883188,0.000000,2374.896044
838.976147,-10214.842000,-814.226536,2068.457845
838.976467,-9844.739029,-1036.288319,1685.410096
838.976788,-9104.533087,-222.061783,536.266849
838.977109,-8290.306550,666.185348,766.095498
838.977429,-7846.182985,1110.308913,229.828649
838.977750,-7920.203579,592.164754,459.657299
838.978071,-9030.512492,-148.041188,383.047749
838.978392,-9548.656652,-1628.453072,153.219100
838.978712,-9622.677246,-2294.638420,842.705048
838.979033,-10436.903782,-1776.494261,306.438199
838.979354,-10362.883188,-592.164754,1378.971896
838.979674,-10584.944971,518.144159,2298.286494
838.979995,-10881.027347,1184.329507,2298.286494
838.980316,-10436.903782,592.164754,2604.724693
838.980637,-9992.780217,-222.061783,1762.019645
838.980957,-9474.636058,-444.123565,689.485948
838.981278,-9178.553681,0.000000,689.485948
838.981599,-8364.327145,592.164754,612.876398
838.981919,-7994.224174,518.144159,229.828649
838.982240,-8438.347739,-444.123565,153.219100
838.982561,-9178.553681,-1332.370696,0.000000
838.982881,-9918.759623,-1628.453072,459.657299
838.983202,-10436.903782,-1924.535449,919.314598
838.983523,-10584.944971,-962.267725,766.095498
838.983844,-10807.006753,0.000000,1455.581446
838.984164,-9696.697840,592.164754,2145.067394
838.984485,-10436.903782,370.102971,2604.724693
838.984806,-10214.842000,0.000000,2221.676944
838.985126,-9622.677246,-740.205942,1532.190996
838.985447,-9474.636058,-592.164754,842.705048
838.985768,-8882.471304,0.000000,919.314598
838.986089,-8216.285956,74.020594,842.705048
838.986409,-8290.306550,518.144159,459.657299
838.986730,-8290.306550,0.000000,383.047749
838.987051,-8808.450710,-962.267725,229.828649
838.987371,-9622.677246,-1776.494261,229.828649
838.987692,-10807.006753,-1332.370696,306.438199
838.988013,-10732.986159,-296.082377,1072.533697
838.988334,-9474.636058,444.123565,2145.067394
838.988654,-10436.903782,222.061783,2528.115143
838.988975,-10362.883188,0.000000,2451.505594
838.989296,-10140.821405,-1184.329507,2068.457845
838.989616,-9918.759623,-666.185348,1838.629195
838.989937,-9622.677246,-370.102971,995.924147
838.990258,-8882.471304,222.061783,306.438199
838.990578,-8290.306550,888.247130,0.000000
838.990899,-7920.203579,518.144159,0.000000
838.991220,-8512.368333,-814.226536,0.000000
838.991541,-9178.553681,-1924.535449,-306.438199
838.991861,-9992.780217,-2368.659014,0.000000
838.992182,-10732.986159,-1924.535449,229.828649
838.992503,-9992.780217,-740.205942,1991.848295
838.992823,-10510.924376,370.102971,1455.581446
838.993144,-10584.944971,666.185348,2374.896044
838.993465,-10214.842000,518.144159,2451.505594
838.993786,-10140.821405,-814.226536,1225.752797
838.994106,-9770.718434,-740.205942,1225.752797
838.994427,-9474.636058,-444.123565,995.924147
838.994748,-8586.388927,296.082377,689.485948
838.995068,-7920.203579,1036.288319,459.657299
838.995389,-7772.162391,888.247130,229.828649
838.995710,-8586.388927,0.000000,306.438199
838.996031,-9474.636058,-1406.391290,76.609550
838.996351,-9770.718434,-2220.617826,-76.609550
838.996672,-10436.903782,-1998.556043,536.266849
838.996993,-10362.883188,-1184.329507,1302.362347
838.997313,-10288.862594,0.000000,2834.553343
838.997634,-10881.027347,0.000000,3140.991542
838.997955,-10584.944971,-370.102971,1762.019645
838.998275,-10288.862594,-1702.473667,2145.067394
838.998596,-9770.718434,-1332.370696,1455.581446
838.998917,-9252.574275,-962.267725,536.266849
838.999238,-8216.285956,0.000000,612.876398
838.999558,-7994.224174,592.164754,306.438199
838.999879,-7994.224174,222.061783,-153.219100
839.000200,-8660.409521,-740.205942,0.000000
839.000520,-9844.739029,-1702.473667,-229.828649
839.000841,-11029.068536,-2146.597232,1149.143247
839.001162,-10807.006753,-888.247130,383.047749
839.001483,-10584.944971,1036.288319,1685.410096
839.001803,-10362.883188,1258.350101,2068.457845
839.002124,-10140.821405,1184.329507,3370.820191
839.002445,-9992.780217,-148.041188,1762.019645
839.002765,-9844.739029,-740.205942,1225.752797
839.003086,-9474.636058,-666.185348,766.095498
839.003407,-9400.615463,0.000000,689.485948
839.003728,-8142.265362,518.144159,1149.143247
839.004048,-8068.244768,814.226536,689.485948
839.004369,-8364.327145,0.000000,459.657299
839.004690,-8956.491898,-962.267725,76.609550
839.005010,-11325.150913,-1332.370696,153.219100
839.005331,-10510.924376,-2220.617826,842.705048
839.005652,-10214.842000,-1702.473667,766.095498
839.005972,-9992.780217,-370.102971,1149.143247
839.006293,-9992.780217,0.000000,1149.143247
839.006614,-10288.862594,814.226536,2681.334243
839.006935,-10214.842000,74.020594,2681.334243
839.007255,-9918.759623,-370.102971,1762.019645
839.007576,-9770.718434,-370.102971,919.314598
839.007897,-8808.450710,-148.041188,383.047749
839.008217,-8438.347739,370.102971,536.266849
839.008538,-8290.306550,592.164754,612.876398
839.008859,-8290.306550,-222.061783,306.438199
839.009180,-9030.512492,-1702.473667,0.000000
839.009500,-9548.656652,-1480.411884,306.438199
839.009821,-10658.965565,-1480.411884,612.876398
839.010142,-10362.883188,0.000000,1149.143247
839.010462,-10140.821405,148.041188,1915.238745
839.010783,-9992.780217,888.247130,2145.067394
839.011104,-10658.965565,148.041188,2604.724693
839.011425,-9918.759623,-592.164754,2298.286494
839.011745,-9770.718434,-370.102971,1608.800546
839.012066,-9474.636058,296.082377,1532.190996
839.012387,-8882.471304,666.185348,1302.362347
839.012707,-8290.306550,1184.329507,1302.362347
839.013028,-8290.306550,222.061783,689.485948
839.013349,-8290.306550,-962.267725,919.314598
839.013669,-9474.636058,-1850.514855,76.609550
839.013990,-9992.780217,-1850.514855,229.828649
839.014311,-10510.924376,-1184.329507,383.047749
839.014632,-10288.862594,0.000000,1991.848295
839.014952,-10288.862594,592.164754,1685.410096
839.015273,-10436.903782,888.247130,2068.457845
839.015594,-10584.944971,222.061783,2145.067394
839.015914,-10436.903782,-740.205942,2145.067394
839.016235,-9992.780217,-1628.453072,1149.143247
839.016556,-9104.533087,-1184.329507,306.438199
839.016877,-8290.306550,-296.082377,0.000000
839.017197,-7772.162391,296.082377,0.000000
839.017518,-8808.450710,888.247130,-383.047749
839.017839,-9030.512492,-370.102971,-536.266849
839.018159,-9548.656652,-1480.411884,-766.095498
839.018480,-10436.903782,-1702.473667,-153.219100
839.018801,-10732.986159,-962.267725,1072.533697
839.019122,-10288.862594,-518.144159,1149.143247
839.019442,-10288.862594,148.041188,2451.505594
839.019763,-10436.903782,296.082377,2451.505594
839.020084,-10214.842000,-296.082377,2451.505594
839.020404,-10510.924376,-666.185348,2145.067394
839.020725,-9696.697840,-518.144159,1838.629195
839.021046,-9474.636058,0.000000,1225.752797
839.021366,-8660.409521,740.205942,1455.581446
839.021687,-7698.141797,0.000000,2068.457845
839.022008,-7920.203579,-370.102971,459.657299
839.022329,-8660.409521,-1702.473667,76.609550
839.022649,-9474.636058,-1998.556043,229.828649
839.022970,-10140.821405,-1924.535449,383.047749
839.023291,-10510.924376,-814.226536,1455.581446
839.023611,-10510.924376,370.102971,1685.410096
839.023932,-10584.944971,740.205942,2451.505594
839.024253,-10732.986159,296.082377,3217.601092
839.024574,-10362.883188,-814.226536,2451.505594
839.024894,-9844.739029,-1036.288319,1302.362347
839.025215,-9770.718434,-740.205942,919.314598
839.025536,-9030.512492,0.000000,306.438199
839.025856,-9030.512492,666.185348,459.657299
839.026177,-8142.265362,444.123565,0.000000
839.026498,-8512.368333,74.020594,-229.828649
839.026819,-9474.636058,-1480.411884,0.000000
839.027139,-10214.842000,-2294.638420,-229.828649
839.027460,-10436.903782,-1554.432478,459.657299
839.027781,-10510.924376,-888.247130,1302.362347
839.028101,-10362.883188,370.102971,1685.410096
839.028422,-10066.800811,888.247130,2374.896044
839.028743,-10214.842000,0.000000,2374.896044
839.029063,-9548.656652,-370.102971,1685.410096
839.029384,-9474.636058,-740.205942,1149.143247
839.029705,-9252.574275,0.000000,1225.752797
839.030026,-8364.327145,370.102971,1762.019645
839.030346,-8290.306550,370.102971,1532.190996
839.030667,-7920.203579,296.082377,842.705048
839.030988,-9030.512492,-444.123565,919.314598
839.031308,-9104.533087,-1480.411884,1838.629195
839.031629,-10436.903782,-1480.411884,1225.752797
839.031950,-10807.006753,-1184.329507,995.924147
839.032271,-9844.739029,-370.102971,919.314598
839.032591,-10362.883188,740.205942,1762.019645
839.032912,-10288.862594,1110.308913,2604.724693
839.033233,-10584.944971,740.205942,2528.115143
839.033553,-10140.821405,0.000000,2221.676944
839.033874,-9770.718434,-296.082377,1072.533697
839.034195,-9178.553681,74.020594,919.314598
839.034515,-9104.533087,370.102971,459.657299
839.034836,-7772.162391,888.247130,0.000000
839.035157,-8142.265362,370.102971,-383.047749
839.035478,-9696.697840,-296.082377,0.000000
839.035798,-9548.656652,-1184.329507,0.000000
839.036119,-10658.965565,-1480.411884,153.219100
839.036440,-11103.089130,-1184.329507,689.485948
839.036760,-10584.944971,74.020594,1072.533697
839.037081,-10362.883188,740.205942,1915.238745
839.037402,-10881.027347,666.185348,2528.115143
839.037723,-10362.883188,0.000000,2451.505594
839.038043,-9918.759623,-962.267725,1838.629195
839.038364,-9400.615463,-444.123565,1608.800546
839.038685,-9104.533087,-592.164754,689.485948
839.039005,-8438.347739,296.082377,1072.533697
839.039326,-7772.162391,74.020594,842.705048
839.039647,-8438.347739,0.000000,76.609550
839.039968,-8586.388927,-1184.329507,306.438199
839.040288,-9474.636058,-1924.535449,229.828649
839.040609,-10140.821405,-1480.411884,0.000000
839.040930,-10362.883188,-1184.329507,689.485948
839.041250,-10066.800811,-222.061783,1302.362347
839.041571,-10362.883188,444.123565,2374.896044
839.041892,-10955.047942,74.020594,2911.162892
839.042213,-10436.903782,-296.082377,2987.772442
839.042533,-10436.903782,-666.185348,1762.019645
839.042854,-9474.636058,-296.082377,1302.362347
839.043175,-8660.409521,370.102971,689.485948
839.043495,-8364.327145,0.000000,0.000000
839.043816,-7031.956449,888.247130,1149.143247
839.044137,-8142.265362,-222.061783,-612.876398
839.044458,-8808.450710,-1184.329507,-383.047749
839.044778,-10214.842000,-2442.679609,306.438199
839.045099,-10807.006753,-2146.597232,0.000000
839.045420,-10881.027347,-1258.350101,1225.752797
839.045741,-10955.047942,74.020594,1685.410096
839.046061,-10732.986159,666.185348,2911.162892
839.046382,-10955.047942,370.102971,2681.334243
839.046703,-10658.965565,-814.226536,3064.381992
839.047023,-9548.656652,-814.226536,1302.362347
839.047344,-9770.718434,-814.226536,1378.971896
839.047665,-9178.553681,0.000000,1455.581446
839.047986,-8586.388927,888.247130,229.828649
839.048306,-8216.285956,814.226536,689.485948
839.048627,-8808.450710,0.000000,76.609550
839.048948,-9326.594869,-814.226536,536.266849
839.049269,-10510.924376,-2368.659014,153.219100
839.049589,-10214.842000,-592.164754,459.657299
839.049910,-11029.068536,-740.205942,1302.362347
839.050231,-9992.780217,666.185348,1838.629195
839.050551,-10658.965565,1628.453072,2834.553343
839.050872,-11103.089130,1776.494261,2221.676944
839.051193,-10066.800811,0.000000,1762.019645
839.051514,-9622.677246,-370.102971,1225.752797
839.051834,-9400.615463,-444.123565,842.705048
839.052155,-8660.409521,-518.144159,383.047749
839.052476,-8068.244768,370.102971,842.705048
839.052797,-7624.121203,-296.082377,0.000000
839.053117,-8142.265362,-1258.350101,-459.657299
839.053438,-8956.491898,-1406.391290,0.000000
839.053759,-9770.718434,-1850.514855,0.000000
839.054079,-10510.924376,-1258.350101,689.485948
839.054400,-10732.986159,0.000000,1302.362347
839.054721,-10288.862594,888.247130,2374.896044
839.055042,-9696.697840,592.164754,2528.115143
839.055362,-10214.842000,0.000000,2604.724693
839.055683,-10140.821405,-740.205942,2068.457845
839.056004,-9474.636058,-518.144159,1455.581446
839.056325,-9326.594869,-296.082377,995.924147
839.056645,-8438.347739,444.123565,689.485948
839.056966,-8068.244768,888.247130,689.485948
839.057287,-8512.368333,74.020594,689.485948
839.057607,-8734.430116,-962.267725,76.609550
839.057928,-9252.574275,-2146.597232,-612.876398
839.058249,-10140.821405,-1554.432478,229.828649
839.058570,-10807.006753,-666.185348,612.876398
839.058890,-10584.944971,222.061783,1532.190996
839.059211,-9992.780217,1776.494261,2681.334243
839.059532,-10807.006753,666.185348,2451.505594
839.059853,-11029.068536,0.000000,2451.505594
839.060173,-10510.924376,-444.123565,1685.410096
839.060494,-9844.739029,-444.123565,1455.581446
839.060815,-9326.594869,370.102971,383.047749
839.061135,-8142.265362,1110.308913,0.000000
839.061456,-7994.224174,518.144159,-153.219100
839.061777,-8142.265362,74.020594,-459.657299
839.062098,-9030.512492,-1184.329507,-383.047749
839.062418,-9696.697840,-1998.556043,0.000000
839.062739,-10584.944971,-2146.597232,459.657299
839.063060,-10510.924376,-1258.350101,689.485948
839.063381,-9770.718434,370.102971,2757.943793
839.063701,-10214.842000,518.144159,2221.676944
839.064022,-10510.924376,370.102971,2681.334243
839.064343,-10362.883188,-518.144159,2451.505594
839.064663,-9474.636058,-1036.288319,3677.258390
839.064984,-9474.636058,-888.247130,919.314598
839.065305,-8808.450710,-296.082377,689.485948
839.065626,-8068.244768,0.000000,383.047749
839.065946,-7476.080014,148.041188,153.219100
839.066267,-7846.182985,-444.123565,-459.657299
839.066588,-8512.368333,-1776.494261,-229.828649
839.066909,-9770.718434,-2442.679609,0.000000
839.067229,-10436.903782,-2072.576638,229.828649
839.067550,-9770.718434,-1110.308913,1378.971896
839.067871,-9844.739029,0.000000,1838.629195
839.068191,-10140.821405,666.185348,2528.115143
839.068512,-10362.883188,518.144159,2834.553343
839.068833,-10436.903782,-370.102971,3447.429741
839.069154,-9844.739029,-888.247130,2451.505594
839.069474,-9770.718434,-740.205942,1838.629195
839.069795,-9104.533087,222.061783,1685.410096
839.070116,-8882.471304,518.144159,1455.581446
839.070437,-7920.203579,592.164754,1455.581446
839.070757,-8512.368333,-296.082377,995.924147
839.071078,-9770.718434,-1702.473667,919.314598
839.071399,-9844.739029,-1850.514855,459.657299
839.071719,-10881.027347,-1480.411884,459.657299
839.072040,-10510.924376,-148.041188,1455.581446
839.072361,-10066.800811,962.267725,2221.676944
839.072682,-10732.986159,1332.370696,2604.724693
839.073002,-10658.965565,814.226536,2145.067394
839.073323,-10288.862594,-222.061783,1838.629195
839.073644,-10140.821405,-592.164754,1455.581446
839.073965,-9474.636058,0.000000,612.876398
839.074285,-8956.491898,740.205942,459.657299
839.074606,-7920.203579,444.123565,612.876398
839.074927,-8068.244768,148.041188,-229.828649
839.075247,-8734.430116,-740.205942,0.000000
839.075568,-9548.656652,-1924.535449,-229.828649
839.075889,-9918.759623,-2220.617826,-383.047749
839.076210,-10510.924376,-1924.535449,153.219100
839.076530,-10362.883188,-518.144159,842.705048
839.076851,-10288.862594,222.061783,1915.238745
839.077172,-10510.924376,222.061783,2528.115143
839.077493,-10732.986159,0.000000,2221.676944
839.077813,-10140.821405,-222.061783,1762.019645
839.078134,-9474.636058,-370.102971,919.314598
839.078455,-8956.491898,296.082377,0.000000
839.078775,-8216.285956,1850.514855,-459.657299
839.079096,-7846.182985,888.247130,-153.219100
839.079417,-7698.141797,0.000000,-689.485948
839.079738,-8734.430116,-1184.329507,-766.095498
839.080058,-9548.656652,-2072.576638,-383.047749
839.080379,-10288.862594,-1554.432478,306.438199
839.080700,-11103.089130,-518.144159,306.438199
839.081021,-10288.862594,814.226536,1149.143247
839.081341,-10584.944971,1110.308913,2298.286494
839.081662,-10362.883188,1184.329507,2451.505594
839.081983,-10584.944971,-370.102971,2221.676944
839.082303,-9696.697840,-962.267725,1455.581446
839.082624,-9400.615463,-888.247130,995.924147
839.082945,-8956.491898,0.000000,1378.971896
839.083266,-8734.430116,1036.288319,1302.362347
839.083586,-8142.265362,666.185348,1225.752797
839.083907,-8290.306550,-148.041188,689.485948
839.084228,-9030.512492,-1554.432478,76.609550
839.084549,-9474.636058,-3182.885551,0.000000
839.084869,-10362.883188,-2664.741391,766.095498
839.085190,-10288.862594,-1554.432478,1302.362347
839.085511,-10436.903782,-666.185348,1915.238745
839.085831,-10288.862594,814.226536,2757.943793
839.086152,-11399.171507,222.061783,3907.087040
839.086473,-10732.986159,-148.041188,3217.601092
839.086794,-10436.903782,-962.267725,1991.848295
839.087114,-9548.656652,-962.267725,1072.533697
839.087435,-8438.347739,-296.082377,459.657299
839.087756,-8068.244768,444.123565,766.095498
839.088077,-7920.203579,444.123565,0.000000
839.088397,-7920.203579,74.020594,-229.828649
839.088718,-9104.533087,-962.267725,306.438199
839.089039,-9696.697840,-1258.350101,0.000000
839.089359,-10955.047942,-962.267725,766.095498
839.089680,-10658.965565,-370.102971,919.314598
839.090001,-10362.883188,666.185348,2374.896044
839.090322,-10510.924376,592.164754,1838.629195
839.090642,-10362.883188,592.164754,2451.505594
839.090963,-10658.965565,-296.082377,1991.848295
839.091284,-9622.677246,-296.082377,1838.629195
839.091605,-9400.615463,-666.185348,1149.143247
839.091925,-8512.368333,74.020594,536.266849
839.092246,-8216.285956,74.020594,536.266849
839.092567,-7920.203579,148.041188,383.047749
839.092887,-7920.203579,-1258.350101,-612.876398
839.093208,-8808.450710,-1776.494261,-612.876398
839.093529,-9696.697840,-1850.514855,-153.219100
839.093850,-10658.965565,-1332.370696,229.828649
839.094170,-10288.862594,-740.205942,1149.143247
839.094491,-10288.862594,296.082377,1685.410096
839.094812,-10288.862594,592.164754,2451.505594
839.095133,-10214.842000,0.000000,2374.896044
839.095453,-10362.883188,-592.164754,2451.505594
839.095774,-10066.800811,-814.226536,1915.238745
839.096095,-9400.615463,-592.164754,842.705048
839.096415,-8882.471304,222.061783,689.485948
839.096736,-8216.285956,592.164754,459.657299
839.097057,-8290.306550,296.082377,995.924147
839.097378,-8808.450710,-592.164754,459.657299
839.097698,-9622.677246,-1406.391290,153.219100
839.098019,-10362.883188,-1554.432478,153.219100
839.098340,-10658.965565,-740.205942,689.485948
839.098661,-10510.924376,-296.082377,1378.971896
839.098981,-10288.862594,370.102971,1762.019645
839.099302,-10436.903782,740.205942,2145.067394
839.099623,-10362.883188,370.102971,2068.457845
839.099943,-10214.842000,0.000000,1378.971896
839.100264,-10140.821405,0.000000,995.924147
839.100585,-9252.574275,0.000000,1225.752797
839.100906,-8438.347739,444.123565,612.876398
839.101226,-8216.285956,74.020594,766.095498
839.101547,-8216.285956,-222.061783,459.657299
839.101868,-9252.574275,-1332.370696,383.047749
839.102189,-9696.697840,-1480.411884,612.876398
839.102509,-10584.944971,-1332.370696,459.657299
839.102830,-10510.924376,-1036.288319,1149.143247
839.103151,-10288.862594,296.082377,2068.457845
839.103471,-10436.903782,666.185348,2757.943793
839.103792,-10140.821405,296.082377,2604.724693
839.104113,-10510.924376,0.000000,2681.334243
839.104434,-9844.739029,-814.226536,1378.971896
839.104754,-9474.636058,-740.205942,919.314598
839.105075,-9030.512492,0.000000,919.314598
839.105396,-7994.224174,222.061783,383.047749
839.105717,-8068.244768,444.123565,383.047749
839.106037,-8364.327145,-296.082377,306.438199
839.106358,-9030.512492,-1850.514855,76.609550
839.106679,-9918.759623,-2442.679609,-153.219100
839.106999,-10584.944971,-2220.617826,76.609550
839.107320,-10288.862594,-1258.350101,842.705048
839.107641,-10362.883188,222.061783,1532.190996
839.107962,-10140.821405,518.144159,2145.067394
839.108282,-10288.862594,370.102971,2374.896044
839.108603,-10584.944971,-518.144159,1762.019645
839.108924,-9770.718434,-592.164754,1302.362347
839.109245,-9622.677246,-370.102971,842.705048
839.109565,-8290.306550,148.041188,459.657299
839.109886,-8586.388927,814.226536,612.876398
839.110207,-8142.265362,518.144159,612.876398
839.110527,-8734.430116,-444.123565,459.657299
839.110848,-9400.615463,-1184.329507,919.314598
839.111169,-10214.842000,-1850.514855,383.047749
839.111490,-10658.965565,-1406.391290,459.657299
839.111810,-10288.862594,-296.082377,842.705048
839.112131,-10584.944971,592.164754,2068.457845
839.112452,-10658.965565,666.185348,2451.505594
839.112773,-10288.862594,222.061783,2451.505594
839.113093,-10436.903782,-740.205942,1838.629195
839.113414,-9770.718434,-370.102971,1149.143247
839.113735,-9622.677246,-296.082377,1455.581446
839.114055,-8956.491898,592.164754,459.657299
839.114376,-8068.244768,814.226536,612.876398
839.114697,-7994.224174,74.020594,-229.828649
839.115018,-8956.491898,-148.041188,-383.047749
839.115338,-9548.656652,-1554.432478,-153.219100
839.115659,-10066.800811,-1850.514855,153.219100
839.115980,-10658.965565,-1924.535449,0.000000
839.116301,-9918.759623,-444.123565,919.314598
839.116621,-9992.780217,74.020594,1762.019645
839.116942,-10066.800811,444.123565,2298.286494
839.117263,-9992.780217,-222.061783,2451.505594
839.117583,-10214.842000,-1184.329507,1838.629195
839.117904,-8956.491898,-1110.308913,1608.800546
839.118225,-9400.615463,-592.164754,995.924147
839.118546,-8438.347739,666.185348,1225.752797
839.118866,-8586.388927,592.164754,1149.143247
839.119187,-7846.182985,296.082377,919.314598
839.119508,-8882.471304,-962.267725,459.657299
839.119829,-9770.718434,-1702.473667,995.924147
839.120149,-10510.924376,-1702.473667,995.924147
839.120470,-10732.986159,-740.205942,1302.362347
839.120791,-9844.739029,296.082377,1838.629195
839.121111,-9918.759623,1258.350101,2298.286494
839.121432,-10584.944971,1258.350101,2528.115143
839.121753,-10732.986159,518.144159,2757.943793
839.122074,-9770.718434,-592.164754,1838.629195
839.122394,-9696.697840,0.000000,1072.533697
839.122715,-9474.636058,666.185348,842.705048
839.123036,-9030.512492,1258.350101,1149.143247
839.123357,-8364.327145,888.247130,1225.752797
839.123677,-8660.409521,222.061783,229.828649
839.123998,-9252.574275,-1480.411884,-153.219100
839.124319,-9918.759623,-2442.679609,-459.657299
839.124639,-10510.924376,-2072.576638,-383.047749
839.124960,-10732.986159,-740.205942,229.828649
839.125281,-10362.883188,370.102971,689.485948
839.125602,-10510.924376,1332.370696,1838.629195
839.125922,-10214.842000,444.123565,2298.286494
839.126243,-9770.718434,-962.267725,1455.581446
839.126564,-9696.697840,-1036.288319,842.705048
839.126885,-9400.615463,-962.267725,612.876398
839.127205,-8660.409521,-296.082377,306.438199
839.127526,-7772.162391,1332.370696,2451.505594
839.127847,-7772.162391,-222.061783,306.438199
839.128167,-7920.203579,-148.041188,76.609550
839.128488,-8734.430116,-1850.514855,0.000000
839.128809,-9548.656652,-1776.494261,612.876398
839.129130,-10436.903782,-1332.370696,689.485948
839.129450,-10510.924376,-592.164754,1455.581446
839.129771,-10066.800811,370.102971,2528.115143
839.130092,-10288.862594,518.144159,2987.772442
839.130413,-10214.842000,0.000000,3907.087040
839.130733,-10140.821405,-592.164754,2757.943793
839.131054,-9844.739029,-518.144159,1838.629195
839.131375,-9474.636058,-518.144159,1378.971896
839.131695,-8438.347739,888.247130,459.657299
839.132016,-8142.265362,962.267725,919.314598
839.132337,-8586.388927,-518.144159,383.047749
839.132658,-8068.244768,-222.061783,229.828649
839.132978,-9548.656652,-2368.659014,76.609550
839.133299,-9474.636058,-1554.432478,383.047749
839.133620,-10955.047942,-1554.432478,612.876398
839.133941,-10436.903782,-592.164754,689.485948
839.134261,-10214.842000,518.144159,1532.190996
839.134582,-10214.842000,296.082377,1991.848295
839.134903,-10066.800811,-222.061783,2374.896044
839.135223,-10584.944971,-1184.329507,1685.410096
839.135544,-9770.718434,-814.226536,1149.143247
839.135865,-8956.491898,-444.123565,766.095498
839.136186,-9030.512492,518.144159,995.924147
839.136506,-8586.388927,370.102971,919.314598
839.136827,-8364.327145,148.041188,383.047749
839.137148,-8956.491898,-962.267725,0.000000
839.137469,-9252.574275,-1480.411884,-306.438199
839.137789,-10214.842000,-1554.432478,612.876398
839.138110,-10362.883188,-740.205942,689.485948
839.138431,-10214.842000,666.185348,1302.362347
839.138751,-10584.944971,1184.329507,1991.848295
839.139072,-10362.883188,740.205942,2451.505594
839.139393,-10584.944971,296.082377,2374.896044
839.139714,-10288.862594,-518.144159,1991.848295
839.140034,-9696.697840,0.000000,2451.505594
839.140355,-9474.636058,0.000000,919.314598
839.140676,-8068.244768,222.061783,306.438199
839.140997,-7920.203579,370.102971,0.000000
839.141317,-8068.244768,0.000000,-459.657299
839.141638,-8142.265362,-1110.308913,-689.485948
839.141959,-9622.677246,-1258.350101,76.609550
839.142279,-10288.862594,-1480.411884,153.219100
839.142600,-10436.903782,-1036.288319,383.047749
839.142921,-9992.780217,0.000000,1225.752797
839.143242,-10288.862594,592.164754,1685.410096
839.143562,-10214.842000,666.185348,1991.848295
839.143883,-10288.862594,0.000000,2145.067394
839.144204,-8734.430116,-1258.350101,2681.334243
839.144525,-9474.636058,-518.144159,995.924147
839.144845,-9252.574275,0.000000,1149.143247
839.145166,-8586.388927,296.082377,1149.143247
839.145487,-8364.327145,444.123565,612.876398
839.145807,-8734.430116,0.000000,919.314598
839.146128,-9252.574275,-962.267725,842.705048
839.146449,-9770.718434,-1628.453072,766.095498
839.146770,-10436.903782,-1554.432478,1149.143247
839.147090,-10362.883188,-1184.329507,1302.362347
839.147411,-10362.883188,0.000000,1838.629195
839.147732,-10436.903782,1036.288319,2757.943793
839.148052,-10955.047942,592.164754,2987.772442
839.148373,-10288.862594,148.041188,5132.839837
839.148694,-10288.862594,-370.102971,2374.896044
839.149015,-9548.656652,-518.144159,1302.362347
839.149335,-9326.594869,148.041188,919.314598
839.149656,-8364.327145,518.144159,612.876398
839.149977,-8216.285956,148.041188,0.000000
839.150297,-8364.327145,0.000000,-153.219100
839.150618,-9326.594869,-1110.308913,76.609550
839.150939,-9992.780217,-1628.453072,459.657299
839.151260,-10140.821405,-1554.432478,689.485948
839.151580,-10140.821405,-1184.329507,459.657299
839.151901,-10066.800811,0.000000,1225.752797
839.152222,-10584.944971,370.102971,1838.629195
839.152542,-10436.903782,74.020594,2298.286494
839.152863,-10214.842000,-592.164754,2068.457845
839.153184,-9548.656652,-518.144159,1302.362347
839.153505,-9400.615463,-518.144159,536.266849
839.153825,-8512.368333,-296.082377,459.657299
839.154146,-8068.244768,-444.123565,0.000000
839.154467,-8068.244768,-814.226536,0.000000
839.154787,-8364.327145,-1554.432478,-306.438199
839.155108,-9178.553681,-2146.597232,-459.657299
839.155429,-9252.574275,-1702.473667,1149.143247
839.155750,-10510.924376,-1184.329507,306.438199
839.156070,-10288.862594,-592.164754,1302.362347
839.156391,-10288.862594,222.061783,1762.019645
839.156712,-10658.965565,296.082377,2451.505594
839.157032,-10658.965565,0.000000,2604.724693
839.157353,-10288.862594,-814.226536,2068.457845
839.157674,-9400.615463,-592.164754,1378.971896
839.157995,-9252.574275,0.000000,153.219100
839.158315,-8808.450710,1110.308913,153.219100
839.158636,-8216.285956,962.267725,0.000000
839.158957,-8290.306550,518.144159,76.609550
839.159277,-8882.471304,-666.185348,229.828649
839.159598,-9622.677246,-2072.576638,229.828649
839.159919,-10584.944971,-1998.556043,229.828649
839.160240,-10955.047942,-1332.370696,1225.752797
839.160560,-10807.006753,0.000000,1685.410096
839.160881,-10732.986159,740.205942,2681.334243
839.161202,-10436.903782,1110.308913,2528.115143
839.161523,-10510.924376,370.102971,2528.115143
839.161843,-10066.800811,-296.082377,1838.629195
839.162164,-9474.636058,-370.102971,1455.581446
839.162485,-8438.347739,0.000000,1225.752797
839.162805,-8512.368333,370.102971,842.705048
839.163126,-8142.265362,222.061783,536.266849
839.163447,-8364.327145,-222.061783,383.047749
839.163768,-8956.491898,-2664.741391,-383.047749
839.164088,-9474.636058,-1776.494261,0.000000
839.164409,-10288.862594,-1554.432478,0.000000
839.164730,-10214.842000,-740.205942,229.828649
839.165050,-9844.739029,370.102971,919.314598
839.165371,-10288.862594,1036.288319,2145.067394
839.165692,-10584.944971,666.185348,2681.334243
839.166013,-10584.944971,-444.123565,2834.553343
839.166333,-10288.862594,-888.247130,2374.896044
839.166654,-9696.697840,-666.185348,2221.676944
839.166975,-9474.636058,-296.082377,1915.238745
839.167295,-8068.244768,370.102971,1685.410096
839.167616,-8068.244768,0.000000,995.924147
839.167937,-7994.224174,-1850.514855,153.219100
839.168258,-8586.388927,-1850.514855,0.000000
839.168578,-9474.636058,-1850.514855,-229.828649
839.168899,-10362.883188,-592.164754,76.609550
839.169220,-10288.862594,74.020594,1149.143247
839.169540,-9992.780217,1776.494261,1608.800546
839.169861,-10214.842000,1184.329507,1915.238745
839.170182,-10214.842000,962.267725,2221.676944
839.170503,-10584.944971,0.000000,2298.286494
839.170823,-9844.739029,-370.102971,1762.019645
839.171144,-9770.718434,0.000000,1225.752797
839.171465,-9104.533087,222.061783,1072.533697
839.171785,-8364.327145,222.061783,383.047749
839.172106,-7105.977043,0.000000,842.705048
839.172427,-8216.285956,-1036.288319,-536.266849
839.172748,-8882.471304,-1850.514855,-842.705048
839.173068,-9918.759623,-2072.576638,-689.485948
839.173389,-10584.944971,-1258.350101,1072.533697
839.173710,-10658.965565,-666.185348,612.876398
839.174030,-10658.965565,296.082377,1685.410096
839.174351,-11029.068536,370.102971,2604.724693
839.174672,-10807.006753,0.000000,2604.724693
839.174993,-10658.965565,-1332.370696,1608.800546
839.175313,-9696.697840,-1110.308913,1072.533697
839.175634,-9178.553681,-518.144159,536.266849
839.175955,-8438.347739,148.041188,306.438199
839.176275,-7846.182985,1036.288319,-459.657299
839.176596,-7846.182985,740.205942,-229.828649
839.176917,-8660.409521,-666.185348,-383.047749
839.177238,-9622.677246,-1332.370696,306.438199
839.177558,-10436.903782,-1776.494261,153.219100
839.177879,-10807.006753,-1406.391290,766.095498
839.178200,-10436.903782,-148.041188,1762.019645
839.178520,-10214.842000,518.144159,2451.505594
839.178841,-10584.944971,814.226536,2604.724693
839.179162,-10362.883188,592.164754,3140.991542
839.179483,-9992.780217,-296.082377,2145.067394
839.179803,-9474.636058,-444.123565,1685.410096
839.180124,-8956.491898,-296.082377,1072.533697
839.180445,-8734.430116,592.164754,-76.609550
839.180765,-8068.244768,0.000000,995.924147
839.181086,-7920.203579,-666.185348,689.485948
839.181407,-8586.388927,-1850.514855,306.438199
839.181728,-9474.636058,-2294.638420,842.705048
839.182048,-10066.800811,-2294.638420,383.047749
839.182369,-10288.862594,-1110.308913,612.876398
839.182690,-10214.842000,370.102971,1838.629195
839.183010,-10288.862594,888.247130,2451.505594
839.183331,-10658.965565,518.144159,3753.867940
839.183652,-10436.903782,-666.185348,3064.381992
839.183973,-9844.739029,-1184.329507,1838.629195
839.184293,-9918.759623,-1110.308913,1072.533697
839.184614,-9030.512492,148.041188,229.828649
839.184935,-8364.327145,962.267725,842.705048
839.185255,-7994.224174,1332.370696,459.657299
839.185576,-8512.368333,370.102971,0.000000
839.185897,-8956.491898,-740.205942,842.705048
839.186218,-9992.780217,-2072.576638,0.000000
839.186538,-10584.944971,-1554.432478,229.828649
839.186859,-10732.986159,-296.082377,766.095498
839.187180,-10807.006753,666.185348,1685.410096
839.187500,-9918.759623,1406.391290,1838.629195
839.187821,-10584.944971,740.205942,2528.115143
839.188142,-10066.800811,0.000000,1762.019645
839.188463,-10140.821405,-592.164754,1608.800546
839.188783,-9696.697840,-444.123565,229.828649
839.189104,-9030.512492,370.102971,612.876398
839.189425,-8438.347739,962.267725,689.485948
839.189746,-8364.327145,888.247130,689.485948
839.190066,-8364.327145,888.247130,76.609550
839.190387,-9474.636058,-1110.308913,0.000000
839.190708,-9770.718434,-1702.473667,0.000000
839.191028,-10214.842000,-1480.411884,0.000000
839.191349,-10066.800811,-592.164754,383.047749
839.191670,-10140.821405,518.144159,995.924147
839.191991,-10140.821405,370.102971,1991.848295
839.192311,-10140.821405,296.082377,2451.505594
839.192632,-10288.862594,-444.123565,2298.286494
839.192953,-10066.800811,-666.185348,3753.867940
839.193273,-9474.636058,-222.061783,1685.410096
839.193594,-8734.430116,296.082377,1302.362347
839.193915,-7624.121203,148.041188,766.095498
839.194236,-7920.203579,-148.041188,2604.724693
839.194556,-8586.388927,-1332.370696,612.876398
839.194877,-9252.574275,-2294.638420,383.047749
839.195198,-10140.821405,-2146.597232,612.876398
839.195518,-10658.965565,-1554.432478,842.705048
839.195839,-10584.944971,-370.102971,1532.190996
839.196160,-10362.883188,592.164754,2451.505594
839.196481,-10066.800811,444.123565,2834.553343
839.196801,-10288.862594,-222.061783,2374.896044
839.197122,-10362.883188,-518.144159,2374.896044
839.197443,-9918.759623,-888.247130,1378.971896
839.197763,-9548.656652,-296.082377,919.314598
839.198084,-8586.388927,666.185348,1149.143247
839.198405,-8216.285956,1554.432478,1685.410096
839.198726,-8216.285956,444.123565,383.047749
839.199046,-8956.491898,-814.226536,76.609550
839.199367,-9622.677246,-1776.494261,-459.657299
839.199688,-10066.800811,-2072.576638,-842.705048
839.200008,-10362.883188,-1406.391290,-76.609550
839.200329,-10362.883188,-296.082377,306.438199
839.200650,-10140.821405,444.123565,1149.143247
839.200971,-10436.903782,592.164754,1915.238745
839.201291,-10510.924376,370.102971,1762.019645
839.201612,-10584.944971,-740.205942,1455.581446
839.201933,-10066.800811,-962.267725,766.095498
839.202253,-9400.615463,-518.144159,306.438199
839.202574,-8512.368333,740.205942,-689.485948
839.202895,-8068.244768,592.164754,0.000000
839.203216,-8142.265362,74.020594,0.000000
839.203536,-8882.471304,-592.164754,-536.266849
839.203857,-9770.718434,-1184.329507,153.219100
839.204178,-10288.862594,-1480.411884,919.314598
839.204498,-10584.944971,-962.267725,995.924147
839.204819,-10214.842000,0.000000,1685.410096
839.205140,-10066.800811,592.164754,2451.505594
839.205461,-10732.986159,592.164754,2681.334243
839.205781,-9918.759623,-814.226536,2528.115143
839.206102,-9548.656652,-1406.391290,2068.457845
839.206423,-9548.656652,-1628.453072,1302.362347
839.206743,-8882.471304,0.000000,3217.601092
839.207064,-8512.368333,814.226536,1455.581446
839.207385,-8290.306550,888.247130,1455.581446
839.207706,-8290.306550,370.102971,1225.752797
839.208026,-8956.491898,-1258.350101,612.876398
839.208347,-9548.656652,-1924.535449,383.047749
839.208668,-10436.903782,-1850.514855,612.876398
839.208988,-10214.842000,-888.247130,1072.533697
839.209309,-10066.800811,666.185348,1838.629195
839.209630,-10140.821405,1258.350101,2298.286494
839.209951,-10510.924376,962.267725,2911.162892
839.210271,-10584.944971,0.000000,2528.115143
839.210592,-10214.842000,-1110.308913,1685.410096
839.210913,-9474.636058,-518.144159,-153.219100
839.211233,-8956.491898,0.000000,766.095498
839.211554,-8290.306550,962.267725,995.924147
839.211875,-8438.347739,592.164754,383.047749
839.212196,-8512.368333,296.082377,-229.828649
839.212516,-9400.615463,-666.185348,-612.876398
839.212837,-10436.903782,-1406.391290,0.000000
839.213158,-10807.006753,-814.226536,306.438199
839.213478,-10658.965565,-296.082377,536.266849
839.213799,-9400.615463,1702.473667,2451.505594
839.214120,-10288.862594,592.164754,1762.019645
839.214441,-10140.821405,222.061783,2221.676944
839.214761,-10140.821405,-962.267725,1685.410096
839.215082,-9400.615463,-518.144159,2451.505594
839.215403,-9474.636058,-222.061783,689.485948
839.215724,-8882.471304,740.205942,919.314598
839.216044,-8290.306550,740.205942,919.314598
839.216365,-8438.347739,222.061783,612.876398
839.216686,-8438.347739,-1184.329507,536.266849
839.217006,-8808.450710,-2220.617826,-383.047749
839.217327,-9918.759623,-2220.617826,-383.047749
839.217648,-9992.780217,-1406.391290,-229.828649
839.217969,-9770.718434,-370.102971,1762.019645
839.218289,-9770.718434,888.247130,1532.190996
839.218610,-9992.780217,518.144159,2145.067394
839.218931,-10436.903782,-222.061783,2757.943793
839.219251,-10362.883188,-666.185348,2528.115143
839.219572,-9918.759623,-1110.308913,1685.410096
839.219893,-9548.656652,-814.226536,995.924147
839.220214,-8290.306550,0.000000,689.485948
839.220534,-7846.182985,222.061783,153.219100
839.220855,-8216.285956,0.000000,0.000000
839.221176,-8660.409521,-1258.350101,383.047749
839.221496,-9770.718434,-2072.576638,0.000000
839.221817,-9992.780217,-1332.370696,0.000000
839.222138,-11695.253884,-888.247130,459.657299
839.222459,-10658.965565,148.041188,1762.019645
839.222779,-10807.006753,296.082377,2681.334243
839.223100,-10658.965565,-296.082377,2604.724693
839.223421,-10658.965565,-666.185348,3753.867940
839.223741,-10881.027347,-1184.329507,1838.629195
839.224062,-9696.697840,-592.164754,995.924147
839.224383,-9770.718434,296.082377,919.314598
839.224704,-8808.450710,666.185348,766.095498
839.225024,-8290.306550,814.226536,536.266849
839.225345,-8734.430116,0.000000,0.000000
839.225666,-8956.491898,-1184.329507,383.047749
839.225986,-9622.677246,-2294.638420,153.219100
839.226307,-9474.636058,-2072.576638,-383.047749
839.226628,-9474.636058,-888.247130,76.609550
839.226949,-10288.862594,740.205942,1608.800546
839.227269,-9918.759623,1998.556043,2681.334243
839.227590,-10732.986159,1554.432478,2834.553343
839.227911,-10288.862594,-444.123565,2451.505594
839.228231,-10214.842000,-1480.411884,1762.019645
839.228552,-9622.677246,-962.267725,1838.629195
839.228873,-9178.553681,-814.226536,1455.581446
839.229194,-7698.141797,740.205942,612.876398
839.229514,-7698.141797,370.102971,153.219100
839.229835,-7772.162391,-444.123565,-229.828649
839.230156,-8586.388927,-1480.411884,0.000000
839.230476,-9770.718434,-1332.370696,153.219100
839.230797,-10362.883188,-1702.473667,0.000000
839.231118,-10214.842000,-518.144159,1072.533697
839.231439,-10214.842000,296.082377,1532.190996
839.231759,-10140.821405,592.164754,2834.553343
839.232080,-10436.903782,296.082377,2528.115143
839.232401,-10214.842000,-888.247130,2145.067394
839.232721,-9770.718434,-962.267725,1302.362347
839.233042,-9696.697840,74.020594,842.705048
839.233363,-9104.533087,962.267725,1149.143247
839.233684,-8438.347739,1850.514855,919.314598
839.234004,-8438.347739,1036.288319,689.485948
839.234325,-8586.388927,74.020594,536.266849
839.234646,-9400.615463,-814.226536,-1838.629195
839.234966,-10288.862594,-1480.411884,306.438199
839.235287,-10732.986159,-1258.350101,536.266849
839.235608,-10510.924376,0.000000,842.705048
839.235929,-10436.903782,888.247130,1838.629195
839.236249,-10436.903782,1184.329507,2374.896044
839.236570,-10510.924376,222.061783,2298.286494
839.236891,-10584.944971,-296.082377,2145.067394
839.237211,-9992.780217,-592.164754,1225.752797
839.237532,-9326.594869,-444.123565,612.876398
839.237853,-8956.491898,74.020594,919.314598
839.238174,-8290.306550,518.144159,229.828649
839.238494,-8290.306550,444.123565,76.609550
839.238815,-8586.388927,-1110.308913,1302.362347
839.239136,-9400.615463,-1184.329507,76.609550
839.239456,-10214.842000,-1554.432478,229.828649
839.239777,-10658.965565,-888.247130,919.314598
839.240098,-10214.842000,-148.041188,1915.238745
839.240419,-9696.697840,444.123565,1838.629195
839.240739,-10214.842000,74.020594,2221.676944
839.241060,-9918.759623,-370.102971,2298.286494
839.241381,-9844.739029,-1110.308913,1838.629195
839.241701,-9548.656652,-592.164754,1225.752797
839.242022,-9326.594869,0.000000,995.924147
839.242343,-8438.347739,1110.308913,1378.971896
839.242664,-8438.347739,740.205942,1072.533697
839.242984,-7920.203579,-518.144159,1072.533697
839.243305,-8808.450710,-1406.391290,306.438199
839.243626,-9252.574275,-2368.659014,76.609550
839.243947,-10214.842000,-2442.679609,153.219100
839.244267,-10066.800811,-1258.350101,2145.067394
839.244588,-9918.759623,148.041188,1455.581446
839.244909,-9992.780217,518.144159,2221.676944
839.245230,-10288.862594,296.082377,2374.896044
839.245550,-10214.842000,-592.164754,2528.115143
839.245871,-9696.697840,-1258.350101,1378.971896
839.246192,-9548.656652,-888.247130,1072.533697
839.246513,-9030.512492,0.000000,689.485948
839.246833,-8364.327145,592.164754,383.047749
839.247154,-8438.347739,740.205942,-612.876398
839.247475,-8734.430116,148.041188,76.609550
839.247796,-9400.615463,-1332.370696,0.000000
839.248116,-10140.821405,-1924.535449,536.266849
839.248437,-10658.965565,-1554.432478,536.266849
839.248758,-10510.924376,-962.267725,1225.752797
839.249078,-9844.739029,74.020594,1532.190996
839.249399,-9992.780217,592.164754,2068.457845
839.249720,-10362.883188,370.102971,2374.896044
839.250041,-10510.924376,-222.061783,2221.676944
839.250361,-9918.759623,-444.123565,1838.629195
839.250682,-10140.821405,-666.185348,1532.190996
839.251003,-9400.615463,148.041188,1378.971896
839.251324,-8882.471304,518.144159,1532.190996
839.251644,-8438.347739,74.020594,1378.971896
839.251965,-8660.409521,-592.164754,306.438199
839.252286,-9400.615463,-2072.576638,76.609550
839.252607,-9622.677246,-2294.638420,0.000000
839.252927,-10214.842000,-1258.350101,306.438199
839.253248,-10066.800811,0.000000,995.924147
839.253569,-10140.821405,1036.288319,1838.629195
839.253889,-10436.903782,1036.288319,2298.286494
839.254210,-10362.883188,0.000000,2987.772442
839.254531,-10140.821405,-962.267725,2528.115143
839.254852,-9918.759623,-1628.453072,1685.410096
839.255172,-9104.533087,-592.164754,689.485948
839.255493,-9030.512492,-740.205942,766.095498
839.255814,-7550.100608,222.061783,0.000000
839.256135,-7772.162391,296.082377,-536.266849
839.256455,-8734.430116,74.020594,-612.876398
839.256776,-9474.636058,-1184.329507,-306.438199
839.257097,-9548.656652,-1776.494261,229.828649
839.257418,-11029.068536,-1184.329507,842.705048
839.257738,-10140.821405,-444.123565,919.314598
839.258059,-11029.068536,666.185348,2451.505594
839.258380,-10066.800811,666.185348,1762.019645
839.258700,-10510.924376,222.061783,2145.067394
839.259021,-10288.862594,-518.144159,2145.067394
839.259342,-9548.656652,-444.123565,919.314598
839.259663,-9252.574275,0.000000,536.266849
839.259983,-9252.574275,518.144159,689.485948
839.260304,-7846.182985,1406.391290,383.047749
839.260625,-8660.409521,592.164754,-229.828649
839.260946,-8808.450710,-222.061783,76.609550
839.261266,-9400.615463,-1480.411884,-919.314598
839.261587,-10214.842000,-1924.535449,-536.266849
839.261908,-10510.924376,-1258.350101,-306.438199
839.262229,-10214.842000,0.000000,689.485948
839.262549,-9992.780217,296.082377,1838.629195
839.262870,-10066.800811,740.205942,2298.286494
839.263191,-10436.903782,0.000000,2145.067394
839.263511,-10140.821405,-1332.370696,2068.457845
839.263832,-9844.739029,-1406.391290,1685.410096
839.264153,-9326.594869,-962.267725,919.314598
839.264474,-8734.430116,-592.164754,1149.143247
839.264794,-8512.368333,148.041188,1915.238745
839.265115,-8882.471304,-814.226536,1915.238745
839.265436,-8586.388927,-1776.494261,995.924147
839.265757,-9918.759623,-2220.617826,1149.143247
839.266077,-10436.903782,-1406.391290,1149.143247
839.266398,-10362.883188,-592.164754,1378.971896
839.266719,-9252.574275,2294.638420,2987.772442
839.267040,-10362.883188,1110.308913,2757.943793
839.267360,-9918.759623,962.267725,2757.943793
839.267681,-10066.800811,-296.082377,2528.115143
839.268002,-9844.739029,-962.267725,2221.676944
839.268322,-9474.636058,-370.102971,1608.800546
839.268643,-9326.594869,370.102971,1455.581446
839.268964,-8660.409521,1036.288319,995.924147
839.269285,-7846.182985,370.102971,459.657299
839.269605,-8216.285956,-444.123565,229.828649
839.269926,-9178.553681,-1628.453072,306.438199
839.270247,-9844.739029,-1998.556043,0.000000
839.270568,-10288.862594,-1924.535449,0.000000
839.270888,-9252.574275,-962.267725,2221.676944
839.271209,-10510.924376,814.226536,1378.971896
839.271530,-10584.944971,1184.329507,2451.505594
839.271851,-10658.965565,444.123565,2298.286494
839.272171,-10436.903782,-814.226536,2221.676944
839.272492,-10214.842000,-1406.391290,1762.019645
839.272813,-9400.615463,-1110.308913,229.828649
839.273133,-8808.450710,-74.020594,306.438199
839.273454,-7698.141797,444.123565,0.000000
839.273775,-7254.018232,0.000000,-995.924147
839.274096,-8216.285956,-666.185348,-919.314598
839.274416,-9474.636058,-1850.514855,-689.485948
839.274737,-10288.862594,-1924.535449,-306.438199
839.275058,-10955.047942,-888.247130,229.828649
839.275379,-10584.944971,-518.144159,536.266849
839.275699,-10362.883188,518.144159,1608.800546
839.276020,-10584.944971,814.226536,2221.676944
839.276341,-10362.883188,518.144159,2298.286494
839.276662,-10362.883188,-370.102971,995.924147
839.276982,-9770.718434,-296.082377,1149.143247
839.277303,-9474.636058,0.000000,689.485948
839.277624,-8956.491898,592.164754,842.705048
839.277944,-8364.327145,1184.329507,612.876398
839.278265,-7920.203579,296.082377,383.047749
839.278586,-8512.368333,-1036.288319,76.609550
839.278907,-9548.656652,-1480.411884,306.438199
839.279227,-10881.027347,-1850.514855,383.047749
839.279548,-10658.965565,-1110.308913,766.095498
839.279869,-10436.903782,74.020594,1302.362347
839.280190,-10658.965565,740.205942,2681.334243
839.280510,-10732.986159,814.226536,2757.943793
839.280831,-10510.924376,0.000000,2987.772442
839.281152,-10214.842000,-592.164754,2068.457845
839.281473,-9474.636058,-444.123565,1991.848295
839.281793,-9696.697840,-814.226536,1072.533697
839.282114,-8438.347739,1332.370696,766.095498
839.282435,-8512.368333,592.164754,766.095498
839.282755,-7920.203579,444.123565,0.000000
839.283076,-9104.533087,-1258.350101,919.314598
839.283397,-9474.636058,-1554.432478,306.438199
839.283718,-10510.924376,-1702.473667,1072.533697
839.284038,-10807.006753,-1406.391290,919.314598
839.284359,-9770.718434,296.082377,1532.190996
839.284680,-10436.903782,518.144159,2221.676944
839.285001,-10362.883188,888.247130,2987.772442
839.285321,-10066.800811,-740.205942,2298.286494
839.285642,-9770.718434,-962.267725,1915.238745
839.285963,-9622.677246,-962.267725,1072.533697
839.286284,-8660.409521,0.000000,1072.533697
839.286604,-8438.347739,666.185348,919.314598
839.286925,-7846.182985,888.247130,536.266849
839.287246,-8290.306550,666.185348,459.657299
839.287566,-9770.718434,-962.267725,-153.219100
839.287887,-9918.759623,-1998.556043,459.657299
839.288208,-10362.883188,-2146.597232,459.657299
839.288529,-9918.759623,-888.247130,306.438199
839.288849,-9992.780217,444.123565,1608.800546
839.289170,-10140.821405,888.247130,2298.286494
839.289491,-10436.903782,814.226536,2451.505594
839.289812,-10140.821405,0.000000,1685.410096
839.290132,-9992.780217,-740.205942,1072.533697
839.290453,-9844.739029,-814.226536,689.485948
839.290774,-9030.512492,-518.144159,0.000000
839.291095,-8142.265362,444.123565,766.095498
839.291415,-8216.285956,444.123565,0.000000
839.291736,-8512.368333,222.061783,76.609550
839.292057,-9104.533087,-1850.514855,-229.828649
839.292378,-9844.739029,-2072.576638,-229.828649
839.292698,-10436.903782,-1554.432478,229.828649
839.293019,-10732.986159,-222.061783,842.705048
839.293340,-10658.965565,962.267725,1991.848295
839.293660,-10584.944971,814.226536,2528.115143
839.293981,-10510.924376,74.020594,2834.553343
839.294302,-10362.883188,-1110.308913,2451.505594
839.294623,-9770.718434,-888.247130,2221.676944
839.294943,-9844.739029,-740.205942,1685.410096
839.295264,-8882.471304,0.000000,1378.971896
839.295585,-8216.285956,740.205942,1532.190996
839.295906,-8660.409521,-222.061783,1532.190996
839.296226,-8364.327145,-962.267725,459.657299
839.296547,-9474.636058,-1850.514855,536.266849
839.296868,-9918.759623,-1998.556043,229.828649
839.297189,-10066.800811,-1332.370696,689.485948
839.297509,-10214.842000,-370.102971,1302.362347
839.297830,-10066.800811,592.164754,1532.190996
839.298151,-10140.821405,666.185348,2451.505594
839.298471,-10140.821405,0.000000,2681.334243
839.298792,-9770.718434,-1036.288319,1762.019645
839.299113,-9770.718434,-222.061783,1072.533697
839.299434,-9474.636058,0.000000,612.876398
839.299754,-8512.368333,962.267725,919.314598
839.300075,-7179.997637,444.123565,2145.067394
839.300396,-8290.306550,74.020594,0.000000
839.300717,-9178.553681,-666.185348,153.219100
839.301037,-10066.800811,-1480.411884,0.000000
839.301358,-10214.842000,-1702.473667,153.219100
839.301679,-10584.944971,-518.144159,306.438199
839.302000,-10584.944971,740.205942,689.485948
839.302320,-10362.883188,1628.453072,1608.800546
839.302641,-10436.903782,1406.391290,1838.629195
839.302962,-10658.965565,370.102971,1685.410096
839.303282,-10436.903782,-370.102971,995.924147
839.303603,-10066.800811,-444.123565,1149.143247
839.303924,-9548.656652,0.000000,919.314598
839.304245,-8438.347739,518.144159,536.266849
839.304565,-8586.388927,148.041188,1072.533697
839.304886,-8438.347739,0.000000,612.876398
839.305207,-9326.594869,-1036.288319,229.828649
839.305528,-9474.636058,-1480.411884,76.609550
839.305848,-10288.862594,-1480.411884,153.219100
839.306169,-10066.800811,-518.144159,612.876398
839.306490,-9770.718434,222.061783,1532.190996
839.306811,-10140.821405,814.226536,2221.676944
839.307131,-10510.924376,74.020594,2528.115143
839.307452,-10214.842000,-888.247130,2528.115143
839.307773,-9992.780217,-1406.391290,1915.238745
839.308093,-9474.636058,-962.267725,1225.752797
839.308414,-8808.450710,1480.411884,1302.362347
839.308735,-7624.121203,1406.391290,1072.533697
839.309056,-8142.265362,370.102971,536.266849
839.309376,-7402.059420,-222.061783,76.609550
839.309697,-9252.574275,-2146.597232,-153.219100
839.310018,-9474.636058,-2442.679609,229.828649
839.310339,-10214.842000,-2294.638420,229.828649
839.310659,-10362.883188,-592.164754,1149.143247
839.310980,-9918.759623,962.267725,1685.410096
839.311301,-10436.903782,666.185348,2298.286494
839.311622,-10214.842000,74.020594,2451.505594
839.311942,-10436.903782,-888.247130,2298.286494
839.312263,-9770.718434,-1110.308913,1915.238745
839.312584,-10066.800811,-148.041188,1915.238745
839.312904,-9030.512492,-592.164754,1225.752797
839.313225,-8586.388927,296.082377,766.095498
839.313546,-8808.450710,148.041188,919.314598
839.313867,-9178.553681,-370.102971,766.095498
839.314187,-9770.718434,-1184.329507,153.219100
839.314508,-10510.924376,-1702.473667,306.438199
839.314829,-10436.903782,-888.247130,383.047749
839.315150,-10658.965565,0.000000,766.095498
839.315470,-10436.903782,1036.288319,1762.019645
839.315791,-10436.903782,740.205942,1685.410096
839.316112,-10732.986159,0.000000,2451.505594
839.316433,-10510.924376,-666.185348,2221.676944
839.316753,-10066.800811,-888.247130,2834.553343
839.317074,-9696.697840,222.061783,1225.752797
839.317395,-8956.491898,814.226536,612.876398
839.317715,-8216.285956,666.185348,153.219100
839.318036,-8068.244768,148.041188,0.000000
839.318357,-8660.409521,-1406.391290,-229.828649
839.318678,-9326.594869,-2738.761985,-766.095498
839.318998,-9844.739029,-2738.761985,-306.438199
839.319319,-10510.924376,-1776.494261,-306.438199
839.319640,-9992.780217,148.041188,1149.143247
839.319961,-9918.759623,592.164754,1762.019645
839.320281,-9696.697840,444.123565,1991.848295
839.320602,-9918.759623,-962.267725,1762.019645
839.320923,-9844.739029,-962.267725,1072.533697
839.321244,-9918.759623,-1776.494261,1225.752797
839.321564,-9104.533087,-888.247130,1225.752797
839.321885,-8142.265362,222.061783,1149.143247
839.322206,-7846.182985,740.205942,919.314598
839.322526,-8216.285956,148.041188,383.047749
839.322847,-8660.409521,-1258.350101,383.047749
839.323168,-9178.553681,-2738.761985,0.000000
839.323489,-9696.697840,-1924.535449,0.000000
839.323809,-10732.986159,-1628.453072,0.000000
839.324130,-10140.821405,222.061783,1455.581446
839.324451,-10510.924376,1406.391290,2145.067394
839.324772,-10658.965565,1258.350101,2681.334243
839.325092,-10214.842000,444.123565,2145.067394
839.325413,-10955.047942,0.000000,2451.505594
839.325734,-10288.862594,0.000000,1608.800546
839.326055,-9474.636058,296.082377,1072.533697
839.326375,-8734.430116,1184.329507,766.095498
839.326696,-8290.306550,888.247130,689.485948
839.327017,-8660.409521,0.000000,76.609550
839.327337,-9326.594869,-1184.329507,0.000000
839.327658,-10066.800811,-2220.617826,0.000000
839.327979,-10510.924376,-1110.308913,612.876398
839.328300,-10658.965565,-296.082377,919.314598
839.328620,-10362.883188,666.185348,1762.019645
839.328941,-10732.986159,1258.350101,2604.724693
839.329262,-10436.903782,1036.288319,2681.334243
839.329583,-9622.677246,0.000000,2374.896044
839.329903,-10066.800811,-1036.288319,1838.629195
839.330224,-9474.636058,-1184.329507,1532.190996
839.330545,-8882.471304,-222.061783,1149.143247
839.330866,-8364.327145,592.164754,1455.581446
839.331186,-8142.265362,666.185348,1455.581446
839.331507,-8142.265362,-740.205942,842.705048
839.331828,-9178.553681,-1998.556043,229.828649
839.332148,-9474.636058,-2368.659014,0.000000
839.332469,-9770.718434,-1554.432478,459.657299
839.332790,-9770.718434,-592.164754,842.705048
839.333111,-9770.718434,518.144159,1608.800546
839.333431,-9918.759623,888.247130,2221.676944
839.333752,-10140.821405,74.020594,2604.724693
839.334073,-10066.800811,-666.185348,2298.286494
839.334394,-9918.759623,-1554.432478,1378.971896
839.334714,-9252.574275,-1036.288319,612.876398
839.335035,-8586.388927,74.020594,689.485948
839.335356,-7994.224174,814.226536,0.000000
839.335677,-7772.162391,814.226536,-459.657299
839.335997,-8586.388927,0.000000,-459.657299
839.336318,-9622.677246,-1036.288319,-306.438199
839.336639,-10584.944971,-1332.370696,536.266849
839.336959,-10732.986159,-1332.370696,229.828649
839.337280,-10658.965565,-444.123565,766.095498
839.337601,-10214.842000,370.102971,1302.362347
839.337922,-10510.924376,296.082377,1762.019645
839.338242,-10436.903782,-370.102971,2068.457845
839.338563,-10288.862594,-740.205942,1915.238745
839.338884,-10214.842000,-740.205942,1685.410096
839.339205,-9770.718434,0.000000,1302.362347
839.339525,-9992.780217,592.164754,1225.752797
839.339846,-8734.430116,1036.288319,1225.752797
839.340167,-8660.409521,444.123565,842.705048
839.340488,-9104.533087,-1332.370696,612.876398
839.340808,-9696.697840,-2294.638420,1072.533697
839.341129,-10362.883188,-2294.638420,536.266849
839.341450,-10510.924376,-1036.288319,919.314598
839.341770,-9992.780217,296.082377,1225.752797
839.342091,-10436.903782,1628.453072,2374.896044
839.342412,-10140.821405,1258.350101,2987.772442
839.342733,-10214.842000,444.123565,2604.724693
839.343053,-9992.780217,-666.185348,2298.286494
839.343374,-9622.677246,-1332.370696,1532.190996
839.343695,-9178.553681,-74.020594,919.314598
839.344016,-8142.265362,296.082377,1149.143247
839.344336,-8068.244768,592.164754,766.095498
839.344657,-7846.182985,296.082377,536.266849
839.344978,-8956.491898,-814.226536,1532.190996
839.345299,-9474.636058,-962.267725,229.828649
839.345619,-10584.944971,-1480.411884,229.828649
839.345940,-10214.842000,-962.267725,612.876398
839.346261,-9918.759623,-296.082377,919.314598
839.346582,-9622.677246,296.082377,1532.190996
839.346902,-9548.656652,740.205942,2145.067394
839.347223,-10362.883188,296.082377,2451.505594
839.347544,-10066.800811,0.000000,1685.410096
839.347865,-10288.862594,222.061783,459.657299
839.348185,-9178.553681,296.082377,612.876398
839.348506,-8586.388927,518.144159,919.314598
839.348827,-8808.450710,222.061783,383.047749
839.349148,-8882.471304,-1332.370696,229.828649
839.349469,-8882.471304,-2368.659014,-842.705048
839.349789,-9992.780217,-2590.720797,-383.047749
839.350110,-10658.965565,-1702.473667,0.000000
839.350431,-10807.006753,-296.082377,842.705048
839.350752,-9992.780217,814.226536,1838.629195
839.351072,-10214.842000,1110.308913,2145.067394
839.351393,-10584.944971,518.144159,2528.115143
839.351714,-10436.903782,-1110.308913,2298.286494
839.352035,-9696.697840,-1628.453072,1532.190996
839.352356,-9178.553681,-962.267725,383.047749
839.352676,-8512.368333,370.102971,153.219100
839.352997,-7994.224174,1480.411884,842.705048
839.353318,-8586.388927,1110.308913,229.828649
839.353639,-8512.368333,592.164754,536.266849
839.353959,-9622.677246,-1184.329507,0.000000
839.354280,-10436.903782,-1406.391290,612.876398
839.354601,-10436.903782,-1702.473667,536.266849
839.354922,-10658.965565,-518.144159,2298.286494
839.355242,-9770.718434,518.144159,2145.067394
839.355563,-10140.821405,962.267725,2298.286494
839.355884,-10214.842000,444.123565,3217.601092
839.356205,-10510.924376,-814.226536,1302.362347
839.356526,-9770.718434,-1258.350101,1762.019645
839.356846,-9252.574275,-1036.288319,1685.410096
839.357167,-8586.388927,-518.144159,1225.752797
839.357488,-8364.327145,0.000000,1302.362347
839.357809,-8290.306550,-518.144159,919.314598
839.358129,-8586.388927,-962.267725,995.924147
839.358450,-9474.636058,-2146.597232,306.438199
839.358771,-9992.780217,-1924.535449,306.438199
839.359092,-10658.965565,-1184.329507,689.485948
839.359413,-9548.656652,0.000000,1072.533697
839.359733,-9696.697840,518.144159,1685.410096
839.360054,-10066.800811,444.123565,2145.067394
839.360375,-10066.800811,-444.123565,2528.115143
839.360696,-9992.780217,-888.247130,1072.533697
839.361016,-9844.739029,-518.144159,1532.190996
839.361337,-9474.636058,0.000000,1072.533697
839.361658,-8808.450710,888.247130,766.095498
839.361979,-8364.327145,1110.308913,689.485948
839.362300,-8586.388927,444.123565,383.047749
839.362620,-9252.574275,-888.247130,0.000000
839.362941,-9992.780217,-1554.432478,76.609550
839.363262,-10066.800811,-1406.391290,612.876398
839.363583,-10510.924376,0.000000,766.095498
839.363903,-10510.924376,962.267725,1378.971896
839.364224,-10288.862594,1332.370696,2374.896044
839.364545,-10214.842000,370.102971,4366.744339
839.364866,-10658.965565,-666.185348,1915.238745
839.365187,-9696.697840,-1332.370696,995.924147
839.365507,-9696.697840,-1258.350101,459.657299
839.365828,-9104.533087,-296.082377,459.657299
839.366149,-8734.430116,814.226536,689.485948
839.366470,-8586.388927,370.102971,383.047749
839.366790,-8290.306550,0.000000,0.000000
839.367111,-9696.697840,-1480.411884,153.219100
839.367432,-9474.636058,-2146.597232,459.657299
839.367753,-10881.027347,-1850.514855,612.876398
839.368074,-10066.800811,-1110.308913,766.095498
839.368394,-9622.677246,0.000000,766.095498
839.368715,-9844.739029,518.144159,2911.162892
839.369036,-9918.759623,814.226536,2451.505594
839.369357,-10214.842000,0.000000,2298.286494
839.369677,-10066.800811,0.000000,2298.286494
839.369998,-9696.697840,74.020594,1685.410096
839.370319,-8956.491898,888.247130,1149.143247
839.370640,-8364.327145,1258.350101,1302.362347
839.370960,-8364.327145,222.061783,536.266849
839.371281,-8216.285956,-592.164754,229.828649
839.371602,-8586.388927,-2072.576638,-153.219100
839.371923,-9548.656652,-2146.597232,-383.047749
839.372244,-10214.842000,-1332.370696,459.657299
839.372564,-10066.800811,-296.082377,1455.581446
839.372885,-9770.718434,296.082377,2221.676944
839.373206,-10140.821405,444.123565,2604.724693
839.373527,-10436.903782,-444.123565,2757.943793
839.373847,-10436.903782,-1258.350101,2681.334243
839.374168,-9770.718434,-1110.308913,1915.238745
839.374489,-9400.615463,-518.144159,1302.362347
839.374810,-8660.409521,0.000000,1072.533697
839.375131,-7994.224174,444.123565,919.314598
839.375451,-8068.244768,0.000000,383.047749
839.375772,-9104.533087,-518.144159,0.000000
839.376093,-9326.594869,-2146.597232,-76.609550
839.376414,-9770.718434,-1998.556043,153.219100
839.376734,-10510.924376,-1702.473667,383.047749
839.377055,-10288.862594,518.144159,2604.724693
839.377376,-10288.862594,888.247130,2068.457845
839.377697,-10732.986159,1184.329507,2681.334243
839.378018,-11029.068536,222.061783,2834.553343
839.378338,-10658.965565,-444.123565,2298.286494
839.378659,-10066.800811,-666.185348,1762.019645
839.378980,-9400.615463,-444.123565,1302.362347
839.379301,-8586.388927,888.247130,383.047749
839.379621,-8216.285956,888.247130,0.000000
839.379942,-8364.327145,444.123565,0.000000
839.380263,-8808.450710,-222.061783,0.000000
839.380584,-9918.759623,-1406.391290,-306.438199
839.380905,-10288.862594,-1702.473667,-153.219100
839.381225,-10732.986159,-1258.350101,-919.314598
839.381546,-10288.862594,0.000000,1072.533697
839.381867,-10214.842000,518.144159,1838.629195
839.382188,-10214.842000,518.144159,2451.505594
839.382508,-10214.842000,-666.185348,2451.505594
839.382829,-10140.821405,-1332.370696,2298.286494
839.383150,-9622.677246,-1406.391290,1532.190996
839.383471,-9104.533087,-296.082377,1072.533697
839.383791,-8438.347739,666.185348,1149.143247
839.384112,-7105.977043,1110.308913,612.876398
839.384433,-8142.265362,0.000000,383.047749
839.384754,-8512.368333,-1480.411884,306.438199
839.385075,-9474.636058,-2368.659014,-153.219100
839.385395,-9992.780217,-2738.761985,1608.800546
839.385716,-10066.800811,-1480.411884,229.828649
839.386037,-10140.821405,74.020594,1378.971896
839.386358,-9918.759623,888.247130,2451.505594
839.386678,-10658.965565,1036.288319,3140.991542
839.386999,-10658.965565,148.041188,2911.162892
839.387320,-10362.883188,-592.164754,2298.286494
839.387641,-9844.739029,-148.041188,1455.581446
839.387962,-9252.574275,370.102971,1378.971896
839.388282,-8586.388927,1480.411884,612.876398
839.388603,-8290.306550,1480.411884,229.828649
839.388924,-8142.265362,666.185348,-383.047749
839.389245,-9252.574275,-888.247130,-536.266849
839.389565,-9770.718434,-1480.411884,-2221.676944
839.389886,-10510.924376,-1406.391290,-766.095498
839.390207,-10288.862594,-444.123565,0.000000
839.390528,-10214.842000,666.185348,1225.752797
839.390849,-10436.903782,592.164754,1915.238745
839.391169,-10436.903782,0.000000,2911.162892
839.391490,-10584.944971,-1036.288319,2604.724693
839.391811,-10584.944971,-1110.308913,2604.724693
839.392132,-10140.821405,-962.267725,2221.676944
839.392452,-8956.491898,-1184.329507,2451.505594
839.392773,-8438.347739,-222.061783,1991.848295
839.393094,-8364.327145,-222.061783,1225.752797
839.393415,-8512.368333,-740.205942,536.266849
839.393736,-9030.512492,-2812.782580,536.266849
839.394056,-9400.615463,-1850.514855,0.000000
839.394377,-10066.800811,-1332.370696,-153.219100
839.394698,-9918.759623,-148.041188,536.266849
839.395019,-9696.697840,444.123565,1225.752797
839.395339,-10436.903782,592.164754,1991.848295
839.395660,-10362.883188,-222.061783,2145.067394
839.395981,-10214.842000,-888.247130,1685.410096
839.396302,-9696.697840,-666.185348,919.314598
839.396622,-9474.636058,-296.082377,612.876398
839.396943,-8290.306550,666.185348,76.609550
839.397264,-8216.285956,888.247130,229.828649
839.397585,-8068.244768,444.123565,-612.876398
839.397906,-8808.450710,-518.144159,-842.705048
839.398226,-9326.594869,-1480.411884,-612.876398
839.398547,-10584.944971,-1776.494261,0.000000
839.398868,-10881.027347,-1924.535449,229.828649
839.399189,-10214.842000,-444.123565,766.095498
839.399509,-10140.821405,-444.123565,1225.752797
839.399830,-10066.800811,740.205942,1838.629195
839.400151,-10732.986159,-296.082377,2451.505594
839.400472,-9992.780217,-888.247130,1685.410096
839.400793,-9030.512492,-222.061783,1991.848295
839.401113,-9770.718434,148.041188,1302.362347
839.401434,-8142.265362,1332.370696,1072.533697
839.401755,-9030.512492,814.226536,1072.533697
839.402076,-8660.409521,0.000000,1455.581446
839.402396,-9178.553681,-1406.391290,842.705048
839.402717,-9992.780217,-2738.761985,383.047749
839.403038,-10288.862594,-2072.576638,842.705048
839.403359,-10881.027347,-1110.308913,1378.971896
839.403680,-10214.842000,444.123565,1532.190996
839.404000,-10362.883188,1184.329507,2451.505594
839.404321,-10436.903782,592.164754,2681.334243
839.404642,-10214.842000,0.000000,2911.162892
839.404963,-9696.697840,-296.082377,2528.115143
839.405283,-9474.636058,-888.247130,842.705048
839.405604,-9030.512492,-370.102971,919.314598
839.405925,-8068.244768,222.061783,612.876398
839.406246,-7624.121203,74.020594,842.705048
839.406567,-8364.327145,-444.123565,459.657299
839.406887,-8660.409521,-1554.432478,229.828649
839.407208,-9548.656652,-2442.679609,0.000000
839.407529,-10362.883188,-1702.473667,306.438199
839.407850,-9992.780217,-814.226536,1378.971896
839.408170,-9770.718434,370.102971,1685.410096
839.408491,-9844.739029,814.226536,2221.676944
839.408812,-10140.821405,222.061783,2374.896044
839.409133,-10214.842000,-518.144159,1915.238745
839.409453,-9918.759623,-962.267725,2068.457845
839.409774,-9474.636058,-518.144159,1455.581446
839.410095,-8956.491898,370.102971,1149.143247
839.410416,-8438.347739,962.267725,1302.362347
839.410737,-8364.327145,592.164754,842.705048
839.411057,-8882.471304,0.000000,229.828649
839.411378,-9474.636058,-1332.370696,0.000000
839.411699,-9844.739029,-1628.453072,-383.047749
839.412020,-10214.842000,-888.247130,-383.047749
839.412340,-10066.800811,296.082377,0.000000
839.412661,-10140.821405,1258.350101,1302.362347
839.412982,-10288.862594,1184.329507,1838.629195
839.413303,-10955.047942,222.061783,1685.410096
839.413624,-10881.027347,-296.082377,1915.238745
839.413944,-10288.862594,-814.226536,1762.019645
839.414265,-9770.718434,-592.164754,919.314598
839.414586,-9178.553681,888.247130,1302.362347
839.414907,-8438.347739,666.185348,459.657299
839.415227,-8290.306550,518.144159,153.219100
839.415548,-8882.471304,-592.164754,0.000000
839.415869,-9548.656652,-1332.370696,-229.828649
839.416190,-10066.800811,-1702.473667,0.000000
839.416511,-10214.842000,-1332.370696,383.047749
839.416831,-10288.862594,-296.082377,1072.533697
839.417152,-9770.718434,222.061783,2145.067394
839.417473,-10881.027347,814.226536,2681.334243
839.417794,-10214.842000,0.000000,3140.991542
839.418114,-9844.739029,-888.247130,2528.115143
839.418435,-9770.718434,-592.164754,1838.629195
839.418756,-8882.471304,444.123565,3064.381992
839.419077,-8660.409521,814.226536,1532.190996
839.419398,-7624.121203,888.247130,1072.533697
839.419718,-7994.224174,0.000000,689.485948
839.420039,-8364.327145,-1036.288319,306.438199
839.420360,-9178.553681,-2072.576638,229.828649
839.420681,-9696.697840,-2220.617826,229.828649
839.421001,-10584.944971,-1332.370696,689.485948
839.421322,-9696.697840,-370.102971,1302.362347
839.421643,-10732.986159,814.226536,2068.457845
839.421964,-10066.800811,148.041188,2604.724693
839.422284,-10510.924376,-518.144159,2604.724693
839.422605,-10066.800811,-1036.288319,2374.896044
839.422926,-9696.697840,-518.144159,2145.067394
839.423247,-9474.636058,0.000000,1378.971896
839.423568,-8808.450710,962.267725,919.314598
839.423888,-8438.347739,888.247130,229.828649
839.424209,-8512.368333,222.061783,0.000000
839.424530,-9178.553681,-1850.514855,-612.876398
839.424851,-9622.677246,-1850.514855,-306.438199
839.425171,-10584.944971,-1850.514855,0.000000
839.425492,-10362.883188,-888.247130,229.828649
839.425813,-10288.862594,222.061783,1072.533697
839.426134,-10436.903782,740.205942,1685.410096
839.426455,-10584.944971,518.144159,2145.067394
839.426775,-10658.965565,-666.185348,1838.629195
839.427096,-10066.800811,-592.164754,3600.648841
839.427417,-10214.842000,-592.164754,1455.581446
