#time,accel_x,accel_y,accel_z
1051.041992,-9548.656652,370.102971,2911.162892
1051.042313,-9474.636058,222.061783,2757.943793
1051.042634,-9326.594869,0.000000,2374.896044
1051.042954,-9548.656652,-148.041188,2528.115143
1051.043275,-9844.739029,74.020594,2987.772442
1051.043595,-9770.718434,222.061783,2604.724693
1051.043916,-9992.780217,518.144159,1915.238745
1051.044237,-9770.718434,888.247130,2068.457845
1051.044557,-9918.759623,370.102971,1838.629195
1051.044878,-9844.739029,444.123565,1685.410096
1051.045199,-9770.718434,148.041188,1455.581446
1051.045519,-10066.800811,370.102971,1685.410096
1051.045840,-9622.677246,74.020594,1991.848295
1051.046160,-9622.677246,-222.061783,2374.896044
1051.046481,-9622.677246,-666.185348,2528.115143
1051.046802,-9474.636058,-592.164754,1532.190996
1051.047122,-9548.656652,-962.267725,2298.286494
1051.047443,-9474.636058,-1110.308913,1762.019645
1051.047764,-9548.656652,-1184.329507,919.314598
1051.048084,-9326.594869,-444.123565,612.876398
1051.048405,-9252.574275,-444.123565,383.047749
1051.048726,-9548.656652,-370.102971,689.485948
1051.049046,-9474.636058,-370.102971,383.047749
1051.049367,-9918.759623,0.000000,689.485948
1051.049687,-10362.883188,-222.061783,459.657299
1051.050008,-10066.800811,-444.123565,1149.143247
1051.050329,-10066.800811,-296.082377,1302.362347
1051.050649,-9622.677246,-444.123565,995.924147
1051.050970,-9696.697840,-1110.308913,306.438199
1051.051291,-9474.636058,-74.020594,919.314598
1051.051611,-9326.594869,-370.102971,689.485948
1051.051932,-9400.615463,-370.102971,612.876398
1051.052252,-9326.594869,-518.144159,689.485948
1051.052573,-9474.636058,-296.082377,842.705048
1051.052894,-9474.636058,-444.123565,689.485948
1051.053214,-9474.636058,-444.123565,766.095498
1051.053535,-9622.677246,-444.123565,842.705048
1051.053856,-9696.697840,-814.226536,689.485948
1051.054176,-9844.739029,-518.144159,1072.533697
1051.054497,-9844.739029,-296.082377,1072.533697
1051.054818,-9844.739029,0.000000,1302.362347
1051.055138,-9770.718434,-296.082377,2145.067394
1051.055459,-9770.718434,0.000000,1072.533697
1051.055779,-9770.718434,-370.102971,1378.971896
1051.056100,-9474.636058,-296.082377,1302.362347
1051.056421,-9474.636058,-592.164754,1225.752797
1051.056741,-9474.636058,-888.247130,1149.143247
1051.057062,-9474.636058,-888.247130,1149.143247
1051.057383,-9474.636058,-962.267725,1455.581446
1051.057703,-9548.656652,-1036.288319,1762.019645
1051.058024,-9474.636058,-740.205942,1455.581446
1051.058345,-9770.718434,-592.164754,1455.581446
1051.058665,-9622.677246,-370.102971,1685.410096
1051.058986,-9548.656652,-444.123565,1302.362347
1051.059306,-9178.553681,0.000000,1838.629195
1051.059627,-9696.697840,-148.041188,919.314598
1051.059948,-9474.636058,222.061783,1072.533697
1051.060268,-9474.636058,222.061783,766.095498
1051.060589,-9474.636058,222.061783,536.266849
1051.060910,-9474.636058,0.000000,995.924147
1051.061230,-9548.656652,0.000000,919.314598
1051.061551,-9548.656652,-370.102971,919.314598
1051.061871,-9622.677246,-518.144159,1302.362347
1051.062192,-9696.697840,-814.226536,1302.362347
1051.062513,-9622.677246,-518.144159,1302.362347
1051.062833,-9548.656652,-518.144159,842.705048
1051.063154,-9400.615463,-518.144159,689.485948
1051.063475,-9622.677246,-370.102971,459.657299
1051.063795,-9474.636058,-148.041188,842.705048
1051.064116,-9622.677246,74.020594,842.705048
1051.064437,-9696.697840,-148.041188,459.657299
1051.064757,-9474.636058,-148.041188,383.047749
1051.065078,-9400.615463,-666.185348,459.657299
1051.065398,-9548.656652,-296.082377,919.314598
1051.065719,-9696.697840,-296.082377,919.314598
1051.066040,-9844.739029,-518.144159,689.485948
1051.066360,-9030.512492,-444.123565,383.047749
1051.066681,-9622.677246,-370.102971,766.095498
1051.067002,-9770.718434,-444.123565,1302.362347
1051.067322,-9474.636058,-444.123565,1302.362347
1051.067643,-9844.739029,-1036.288319,1838.629195
1051.067963,-9474.636058,-592.164754,1149.143247
1051.068284,-9622.677246,-296.082377,1532.190996
1051.068605,-9770.718434,-444.123565,1532.190996
1051.068925,-9770.718434,-518.144159,1378.971896
1051.069246,-9474.636058,0.000000,1302.362347
1051.069567,-9474.636058,0.000000,1149.143247
1051.069887,-9622.677246,-148.041188,1378.971896
1051.070208,-9548.656652,-148.041188,1608.800546
1051.070529,-9104.533087,-518.144159,1225.752797
1051.070849,-9474.636058,-370.102971,1072.533697
1051.071170,-9548.656652,-592.164754,995.924147
1051.071490,-9770.718434,-592.164754,1225.752797
1051.071811,-9622.677246,-962.267725,2451.505594
1051.072132,-9548.656652,-888.247130,1302.362347
1051.072452,-9548.656652,-888.247130,1225.752797
1051.072773,-9474.636058,-962.267725,995.924147
1051.073094,-9548.656652,-740.205942,1225.752797
1051.073414,-9400.615463,-592.164754,612.876398
1051.073735,-9326.594869,-370.102971,919.314598
1051.074056,-9474.636058,-296.082377,689.485948
1051.074376,-9770.718434,-296.082377,919.314598
1051.074697,-9030.512492,-444.123565,766.095498
1051.075017,-9622.677246,-148.041188,1072.533697
1051.075338,-9622.677246,-444.123565,229.828649
1051.075659,-9474.636058,-444.123565,229.828649
1051.075979,-9622.677246,-740.205942,0.000000
1051.076300,-9474.636058,-296.082377,919.314598
1051.076621,-9622.677246,-222.061783,1149.143247
1051.076941,-9622.677246,-518.144159,842.705048
1051.077262,-9474.636058,-222.061783,842.705048
1051.077582,-9326.594869,-444.123565,1455.581446
1051.077903,-9696.697840,-370.102971,1225.752797
1051.078224,-9548.656652,-296.082377,995.924147
1051.078544,-9622.677246,-222.061783,1072.533697
1051.078865,-9030.512492,-740.205942,842.705048
1051.079186,-9696.697840,0.000000,995.924147
1051.079506,-9992.780217,-74.020594,1302.362347
1051.079827,-9696.697840,0.000000,1378.971896
1051.080148,-9918.759623,296.082377,1149.143247
1051.080468,-9696.697840,-296.082377,1225.752797
1051.080789,-9918.759623,-666.185348,1378.971896
1051.081110,-9622.677246,-592.164754,1685.410096
1051.081431,-9696.697840,-666.185348,1455.581446
1051.081751,-9548.656652,-444.123565,1302.362347
1051.082072,-9696.697840,-444.123565,1455.581446
1051.082393,-9696.697840,-370.102971,1378.971896
1051.082714,-9548.656652,-296.082377,1378.971896
1051.083034,-9622.677246,0.000000,2068.457845
1051.083355,-9474.636058,-148.041188,1225.752797
1051.083676,-9622.677246,-296.082377,995.924147
1051.083996,-9622.677246,-740.205942,995.924147
1051.084317,-9474.636058,-296.082377,766.095498
1051.084638,-9622.677246,74.020594,919.314598
1051.084959,-9548.656652,-222.061783,842.705048
1051.085279,-9474.636058,-222.061783,842.705048
1051.085600,-9696.697840,-222.061783,842.705048
1051.085921,-9178.553681,296.082377,1455.581446
1051.086242,-9622.677246,-222.061783,612.876398
1051.086562,-9474.636058,-222.061783,1072.533697
1051.086883,-9622.677246,-222.061783,919.314598
1051.087204,-9474.636058,-222.061783,766.095498
1051.087524,-9178.553681,-222.061783,842.705048
1051.087845,-9326.594869,-296.082377,689.485948
1051.088166,-9474.636058,-222.061783,995.924147
1051.088487,-9696.697840,-148.041188,995.924147
1051.088807,-9918.759623,0.000000,689.485948
1051.089128,-9474.636058,-592.164754,919.314598
1051.089449,-9548.656652,-370.102971,842.705048
1051.089769,-9696.697840,-296.082377,1225.752797
1051.090090,-9474.636058,-444.123565,612.876398
1051.090411,-9548.656652,-296.082377,995.924147
1051.090732,-9622.677246,-222.061783,1072.533697
1051.091052,-9548.656652,-148.041188,1378.971896
1051.091373,-9474.636058,0.000000,1685.410096
1051.091694,-9770.718434,-296.082377,1991.848295
1051.092015,-9696.697840,-370.102971,1378.971896
1051.092335,-9548.656652,-370.102971,1302.362347
1051.092656,-9770.718434,-370.102971,1302.362347
1051.092977,-9918.759623,-370.102971,1455.581446
1051.093297,-9770.718434,-296.082377,1532.190996
1051.093618,-9622.677246,-296.082377,1302.362347
1051.093939,-9622.677246,-222.061783,1225.752797
1051.094260,-9622.677246,222.061783,1685.410096
1051.094580,-9770.718434,-74.020594,1455.581446
1051.094901,-9696.697840,-148.041188,1225.752797
1051.095222,-9474.636058,-222.061783,1302.362347
1051.095543,-9622.677246,0.000000,1225.752797
1051.095863,-9474.636058,-370.102971,1225.752797
1051.096184,-9622.677246,-370.102971,842.705048
1051.096505,-9474.636058,-148.041188,842.705048
1051.096825,-9548.656652,-222.061783,1149.143247
1051.097146,-8882.471304,0.000000,766.095498
1051.097467,-9548.656652,-296.082377,1225.752797
1051.097788,-9474.636058,-370.102971,842.705048
1051.098108,-9400.615463,-518.144159,842.705048
1051.098429,-9696.697840,148.041188,536.266849
1051.098750,-9622.677246,-518.144159,1149.143247
1051.099071,-9622.677246,-148.041188,1225.752797
1051.099391,-9622.677246,-296.082377,919.314598
1051.099712,-9474.636058,-592.164754,995.924147
1051.100033,-9400.615463,-592.164754,919.314598
1051.100353,-9474.636058,-148.041188,842.705048
1051.100674,-9548.656652,0.000000,1149.143247
1051.100995,-9474.636058,-296.082377,1072.533697
1051.101316,-9252.574275,0.000000,689.485948
1051.101636,-9548.656652,-296.082377,842.705048
1051.101957,-9548.656652,0.000000,766.095498
1051.102278,-9622.677246,-148.041188,1378.971896
1051.102599,-9622.677246,-296.082377,1225.752797
1051.102919,-9696.697840,-592.164754,995.924147
1051.103240,-9474.636058,-296.082377,689.485948
1051.103561,-9696.697840,-296.082377,1149.143247
1051.103881,-9622.677246,-222.061783,1378.971896
1051.104202,-9548.656652,-296.082377,1302.362347
1051.104523,-9474.636058,-518.144159,1072.533697
1051.104844,-9696.697840,-666.185348,1149.143247
1051.105164,-9696.697840,-518.144159,1225.752797
1051.105485,-9918.759623,-222.061783,766.095498
1051.105806,-9770.718434,-592.164754,1225.752797
1051.106127,-9474.636058,-222.061783,995.924147
1051.106447,-9548.656652,-148.041188,689.485948
1051.106768,-9696.697840,592.164754,1225.752797
1051.107089,-9770.718434,0.000000,919.314598
1051.107409,-9844.739029,-148.041188,919.314598
1051.107730,-9696.697840,-296.082377,919.314598
1051.108051,-9622.677246,-296.082377,842.705048
1051.108372,-9844.739029,-444.123565,1455.581446
1051.108692,-9844.739029,-444.123565,1532.190996
1051.109013,-9548.656652,-666.185348,1302.362347
1051.109334,-9622.677246,-666.185348,1149.143247
1051.109655,-10066.800811,-592.164754,76.609550
1051.109975,-9474.636058,-518.144159,1072.533697
1051.110296,-9548.656652,-296.082377,766.095498
1051.110617,-9474.636058,-222.061783,919.314598
1051.110937,-9474.636058,-222.061783,1149.143247
1051.111258,-9400.615463,0.000000,689.485948
1051.111579,-9474.636058,-148.041188,842.705048
1051.111900,-9548.656652,-222.061783,919.314598
1051.112220,-9548.656652,-222.061783,1149.143247
1051.112541,-9474.636058,-518.144159,842.705048
1051.112862,-9548.656652,0.000000,1302.362347
1051.113183,-9622.677246,-444.123565,1072.533697
1051.113503,-9474.636058,-740.205942,1149.143247
1051.113824,-9474.636058,-814.226536,995.924147
1051.114145,-9474.636058,-518.144159,766.095498
1051.114465,-9474.636058,-444.123565,612.876398
1051.114786,-9548.656652,-518.144159,995.924147
1051.115107,-9474.636058,0.000000,1072.533697
1051.115428,-9474.636058,-296.082377,919.314598
1051.115748,-9548.656652,-222.061783,689.485948
1051.116069,-9548.656652,-222.061783,689.485948
1051.116390,-9770.718434,-222.061783,689.485948
1051.116710,-9474.636058,-444.123565,1072.533697
1051.117031,-9622.677246,-296.082377,1225.752797
1051.117352,-9770.718434,-222.061783,1378.971896
1051.117673,-9770.718434,-296.082377,1149.143247
1051.117993,-9474.636058,222.061783,76.609550
1051.118314,-9696.697840,-370.102971,919.314598
1051.118635,-9474.636058,-370.102971,1149.143247
1051.118956,-9696.697840,-444.123565,1072.533697
1051.119276,-9474.636058,-444.123565,1072.533697
1051.119597,-9548.656652,-666.185348,995.924147
1051.119918,-9400.615463,-518.144159,689.485948
1051.120238,-9770.718434,-296.082377,1225.752797
1051.120559,-9770.718434,-222.061783,1455.581446
1051.120880,-9696.697840,-296.082377,1685.410096
1051.121201,-9918.759623,-296.082377,1378.971896
1051.121521,-9844.739029,-296.082377,1302.362347
1051.121842,-9696.697840,-148.041188,1225.752797
1051.122163,-9622.677246,-444.123565,1302.362347
1051.122484,-9696.697840,-222.061783,2528.115143
1051.122804,-9474.636058,-296.082377,1302.362347
1051.123125,-9400.615463,-370.102971,766.095498
1051.123446,-9474.636058,-296.082377,1072.533697
1051.123766,-9400.615463,-518.144159,689.485948
1051.124087,-9622.677246,-444.123565,1072.533697
1051.124408,-9474.636058,-518.144159,612.876398
1051.124729,-9474.636058,-444.123565,689.485948
1051.125049,-9622.677246,-296.082377,842.705048
1051.125370,-9622.677246,-296.082377,536.266849
1051.125691,-9770.718434,0.000000,1072.533697
1051.126012,-9696.697840,74.020594,1302.362347
1051.126332,-9622.677246,-148.041188,689.485948
1051.126653,-9696.697840,-370.102971,1149.143247
1051.126974,-9474.636058,-740.205942,919.314598
1051.127294,-9474.636058,-592.164754,1149.143247
1051.127615,-9548.656652,-592.164754,1149.143247
1051.127936,-9474.636058,-814.226536,612.876398
1051.128257,-9326.594869,-1998.556043,689.485948
1051.128577,-9474.636058,-518.144159,1302.362347
1051.128898,-9548.656652,-296.082377,919.314598
1051.129219,-9400.615463,0.000000,919.314598
1051.129540,-9474.636058,-222.061783,995.924147
1051.129860,-9770.718434,0.000000,1378.971896
1051.130181,-9770.718434,0.000000,1225.752797
1051.130502,-9622.677246,-148.041188,1302.362347
1051.130822,-9844.739029,0.000000,1149.143247
1051.131143,-9696.697840,0.000000,1378.971896
1051.131464,-9770.718434,-296.082377,1225.752797
1051.131785,-9696.697840,-296.082377,1225.752797
1051.132105,-9400.615463,-296.082377,1225.752797
1051.132426,-8586.388927,-888.247130,1838.629195
1051.132747,-9400.615463,-666.185348,1072.533697
1051.133068,-9548.656652,-666.185348,1302.362347
1051.133388,-9474.636058,-444.123565,1225.752797
1051.133709,-9548.656652,-370.102971,1149.143247
1051.134030,-9696.697840,-222.061783,1149.143247
1051.134350,-9770.718434,-148.041188,1072.533697
1051.134671,-9770.718434,0.000000,995.924147
1051.134992,-9548.656652,0.000000,1225.752797
1051.135313,-9770.718434,-148.041188,919.314598
1051.135633,-9770.718434,-370.102971,842.705048
1051.135954,-9474.636058,-592.164754,842.705048
1051.136275,-9474.636058,-148.041188,842.705048
1051.136596,-9918.759623,-444.123565,306.438199
1051.136916,-9548.656652,-296.082377,1072.533697
1051.137237,-9474.636058,-592.164754,1378.971896
1051.137558,-9548.656652,-592.164754,1378.971896
1051.137878,-9622.677246,-592.164754,1378.971896
1051.138199,-9474.636058,-370.102971,1532.190996
1051.138520,-9474.636058,-444.123565,1302.362347
1051.138841,-9474.636058,-148.041188,1378.971896
1051.139161,-9622.677246,-148.041188,1378.971896
1051.139482,-10214.842000,0.000000,1225.752797
1051.139803,-9548.656652,-222.061783,1225.752797
1051.140124,-9548.656652,-296.082377,689.485948
1051.140444,-9548.656652,0.000000,919.314598
1051.140765,-8586.388927,0.000000,2374.896044
1051.141086,-9844.739029,0.000000,1149.143247
1051.141406,-9474.636058,-296.082377,1225.752797
1051.141727,-9622.677246,-370.102971,1072.533697
1051.142048,-9622.677246,-296.082377,2681.334243
1051.142369,-9622.677246,-518.144159,1302.362347
1051.142689,-9548.656652,-296.082377,1455.581446
1051.143010,-9474.636058,-444.123565,1149.143247
1051.143331,-9474.636058,-370.102971,1072.533697
1051.143651,-9178.553681,-592.164754,766.095498
1051.143972,-9474.636058,-370.102971,1149.143247
1051.144293,-9770.718434,-148.041188,1072.533697
1051.144614,-9622.677246,-148.041188,919.314598
1051.144934,-9400.615463,0.000000,1991.848295
1051.145255,-9474.636058,-222.061783,1378.971896
1051.145576,-9918.759623,0.000000,1072.533697
1051.145897,-9548.656652,-370.102971,1225.752797
1051.146217,-9696.697840,-666.185348,1302.362347
1051.146538,-9548.656652,-666.185348,919.314598
1051.146859,-9548.656652,-518.144159,919.314598
1051.147179,-9548.656652,-74.020594,1378.971896
1051.147500,-9474.636058,-148.041188,1302.362347
1051.147821,-9400.615463,-444.123565,1149.143247
1051.148142,-9474.636058,-518.144159,995.924147
1051.148462,-9400.615463,-296.082377,689.485948
1051.148783,-9696.697840,-148.041188,1072.533697
1051.149104,-9992.780217,-444.123565,306.438199
1051.149425,-9622.677246,0.000000,1149.143247
1051.149745,-9770.718434,0.000000,1149.143247
1051.150066,-9548.656652,0.000000,842.705048
1051.150387,-9770.718434,-296.082377,1072.533697
1051.150707,-9918.759623,0.000000,1149.143247
1051.151028,-9548.656652,-444.123565,1225.752797
1051.151349,-9474.636058,-518.144159,1302.362347
1051.151670,-9400.615463,-444.123565,919.314598
1051.151990,-8586.388927,0.000000,0.000000
1051.152311,-9474.636058,-592.164754,1225.752797
1051.152632,-9622.677246,-296.082377,1072.533697
1051.152953,-9548.656652,-592.164754,919.314598
1051.153273,-9474.636058,-518.144159,842.705048
1051.153594,-9622.677246,-296.082377,842.705048
1051.153915,-9696.697840,-518.144159,919.314598
1051.154235,-9770.718434,0.000000,1225.752797
1051.154556,-9548.656652,-444.123565,919.314598
1051.154877,-9474.636058,-296.082377,919.314598
1051.155198,-9326.594869,-444.123565,995.924147
1051.155518,-9622.677246,-296.082377,1378.971896
1051.155839,-9770.718434,-296.082377,1378.971896
1051.156160,-9770.718434,-222.061783,766.095498
1051.156481,-9548.656652,-444.123565,1225.752797
1051.156801,-9474.636058,-740.205942,919.314598
1051.157122,-9474.636058,-518.144159,1225.752797
1051.157443,-9696.697840,-296.082377,919.314598
1051.157763,-9400.615463,-74.020594,995.924147
1051.158084,-9474.636058,0.000000,1072.533697
1051.158405,-9770.718434,0.000000,1225.752797
1051.158726,-9770.718434,-222.061783,1149.143247
1051.159046,-9622.677246,-592.164754,842.705048
1051.159367,-9622.677246,-74.020594,1378.971896
1051.159688,-9622.677246,-148.041188,1302.362347
1051.160009,-9326.594869,-592.164754,1225.752797
1051.160329,-9400.615463,-962.267725,919.314598
1051.160650,-9400.615463,-444.123565,1072.533697
1051.160971,-9474.636058,-518.144159,1225.752797
1051.161291,-9474.636058,-666.185348,1149.143247
1051.161612,-9474.636058,-592.164754,1225.752797
1051.161933,-9622.677246,-444.123565,1378.971896
1051.162254,-9696.697840,-296.082377,1149.143247
1051.162574,-9770.718434,-444.123565,1149.143247
1051.162895,-9696.697840,0.000000,1149.143247
1051.163216,-9622.677246,-222.061783,612.876398
1051.163537,-9696.697840,-148.041188,919.314598
1051.163857,-9474.636058,0.000000,919.314598
1051.164178,-9474.636058,0.000000,689.485948
1051.164499,-9844.739029,-518.144159,1991.848295
1051.164819,-9474.636058,-222.061783,919.314598
1051.165140,-9474.636058,-444.123565,1378.971896
1051.165461,-9622.677246,-518.144159,1072.533697
1051.165782,-9770.718434,-444.123565,1915.238745
1051.166102,-9770.718434,-370.102971,1225.752797
1051.166423,-9474.636058,-518.144159,1149.143247
1051.166744,-9770.718434,-296.082377,1378.971896
1051.167064,-9474.636058,-370.102971,1072.533697
1051.167385,-9548.656652,-296.082377,612.876398
1051.167706,-9844.739029,-296.082377,995.924147
1051.168027,-9548.656652,-148.041188,1225.752797
1051.168347,-9474.636058,-222.061783,1225.752797
1051.168668,-8808.450710,-444.123565,2221.676944
1051.168989,-9696.697840,0.000000,842.705048
1051.169310,-9696.697840,0.000000,1302.362347
1051.169630,-9548.656652,-148.041188,995.924147
1051.169951,-9696.697840,-222.061783,2911.162892
1051.170272,-9622.677246,-518.144159,612.876398
1051.170592,-9696.697840,-370.102971,919.314598
1051.170913,-9474.636058,-592.164754,995.924147
1051.171234,-9622.677246,-518.144159,842.705048
1051.171555,-9770.718434,-296.082377,1762.019645
1051.171875,-9622.677246,-740.205942,612.876398
1051.172196,-9474.636058,-814.226536,842.705048
1051.172517,-9474.636058,-518.144159,1072.533697
1051.172838,-9326.594869,-444.123565,612.876398
1051.173158,-9474.636058,296.082377,1455.581446
1051.173479,-9474.636058,0.000000,1072.533697
1051.173800,-9474.636058,-222.061783,842.705048
1051.174120,-9474.636058,-148.041188,76.609550
1051.174441,-9622.677246,0.000000,995.924147
1051.174762,-9622.677246,-296.082377,1378.971896
1051.175083,-9770.718434,-444.123565,1149.143247
1051.175403,-9400.615463,-592.164754,842.705048
1051.175724,-9030.512492,-666.185348,536.266849
1051.176045,-9474.636058,-444.123565,995.924147
1051.176366,-9548.656652,-296.082377,1302.362347
1051.176686,-9548.656652,-666.185348,1072.533697
1051.177007,-9104.533087,-888.247130,-306.438199
1051.177328,-9474.636058,-296.082377,612.876398
1051.177648,-9548.656652,-148.041188,1072.533697
1051.177969,-9770.718434,74.020594,1378.971896
1051.178290,-9696.697840,-74.020594,1532.190996
1051.178611,-9622.677246,0.000000,919.314598
1051.178931,-9696.697840,0.000000,842.705048
1051.179252,-9770.718434,-222.061783,842.705048
1051.179573,-9548.656652,-370.102971,1072.533697
1051.179893,-9622.677246,-666.185348,1378.971896
1051.180214,-9474.636058,-518.144159,919.314598
1051.180535,-9474.636058,-518.144159,842.705048
1051.180856,-9548.656652,-518.144159,842.705048
1051.181176,-9844.739029,-1184.329507,536.266849
1051.181497,-9548.656652,-296.082377,919.314598
1051.181818,-9548.656652,0.000000,919.314598
1051.182138,-9474.636058,0.000000,995.924147
1051.182459,-9696.697840,-296.082377,536.266849
1051.182780,-9474.636058,-444.123565,919.314598
1051.183100,-9622.677246,-444.123565,995.924147
1051.183421,-9622.677246,-222.061783,919.314598
1051.183742,-9696.697840,-296.082377,1072.533697
1051.184062,-10510.924376,222.061783,1149.143247
1051.184383,-9622.677246,-370.102971,1225.752797
1051.184704,-9474.636058,-518.144159,995.924147
1051.185025,-9548.656652,-444.123565,919.314598
1051.185345,-9548.656652,-296.082377,1378.971896
1051.185666,-9548.656652,-592.164754,842.705048
1051.185987,-9474.636058,-592.164754,919.314598
1051.186307,-9474.636058,-370.102971,919.314598
1051.186628,-9474.636058,0.000000,1455.581446
1051.186949,-9548.656652,-296.082377,842.705048
1051.187269,-9696.697840,-296.082377,1072.533697
1051.187590,-9770.718434,-148.041188,919.314598
1051.187911,-9770.718434,0.000000,1149.143247
1051.188231,-9992.780217,74.020594,842.705048
1051.188552,-9844.739029,-222.061783,1149.143247
1051.188873,-9770.718434,-518.144159,1072.533697
1051.189194,-9622.677246,-592.164754,1149.143247
1051.189514,-9474.636058,-370.102971,2604.724693
1051.189835,-9696.697840,-592.164754,1072.533697
1051.190156,-9326.594869,-666.185348,842.705048
1051.190476,-9474.636058,-296.082377,919.314598
1051.190797,-9696.697840,-370.102971,842.705048
1051.191118,-9622.677246,-370.102971,1838.629195
1051.191438,-9770.718434,-296.082377,842.705048
1051.191759,-9474.636058,-370.102971,1149.143247
1051.192080,-9844.739029,-148.041188,995.924147
1051.192400,-9622.677246,74.020594,2451.505594
1051.192721,-9844.739029,-148.041188,1149.143247
1051.193042,-9548.656652,0.000000,1149.143247
1051.193363,-9696.697840,-74.020594,1225.752797
1051.193683,-9400.615463,-370.102971,919.314598
1051.194004,-9474.636058,-592.164754,1149.143247
1051.194325,-9474.636058,-296.082377,1149.143247
1051.194645,-9474.636058,-444.123565,1455.581446
1051.194966,-9474.636058,-592.164754,1072.533697
1051.195287,-9326.594869,-222.061783,995.924147
1051.195607,-9696.697840,-592.164754,842.705048
1051.195928,-9548.656652,-370.102971,919.314598
1051.196249,-9622.677246,-222.061783,842.705048
1051.196569,-9030.512492,-518.144159,229.828649
1051.196890,-9474.636058,0.000000,919.314598
1051.197211,-9622.677246,0.000000,1149.143247
1051.197532,-9770.718434,-370.102971,919.314598
1051.197852,-9696.697840,-518.144159,766.095498
1051.198173,-9622.677246,-296.082377,1455.581446
1051.198494,-9474.636058,-370.102971,1378.971896
1051.198814,-9622.677246,-518.144159,1532.190996
1051.199135,-9400.615463,-592.164754,1455.581446
1051.199456,-9770.718434,-444.123565,383.047749
1051.199776,-9474.636058,-518.144159,919.314598
1051.200097,-9622.677246,-370.102971,1072.533697
1051.200418,-9474.636058,-148.041188,1302.362347
1051.200738,-8660.409521,222.061783,1762.019645
1051.201059,-9474.636058,-222.061783,919.314598
1051.201380,-9622.677246,-74.020594,919.314598
1051.201700,-9770.718434,-370.102971,1455.581446
1051.202021,-9696.697840,0.000000,2221.676944
1051.202342,-9770.718434,-148.041188,1302.362347
1051.202663,-9770.718434,-148.041188,1149.143247
1051.202983,-9474.636058,-444.123565,1302.362347
1051.203304,-9474.636058,-444.123565,1149.143247
1051.203625,-9548.656652,-222.061783,1685.410096
1051.203945,-9548.656652,-444.123565,1072.533697
1051.204266,-9474.636058,-592.164754,1225.752797
1051.204587,-9622.677246,-444.123565,1302.362347
1051.204907,-9622.677246,148.041188,842.705048
1051.205228,-9770.718434,-296.082377,1149.143247
1051.205549,-9548.656652,-444.123565,1302.362347
1051.205869,-9770.718434,0.000000,842.705048
1051.206190,-9696.697840,-296.082377,612.876398
1051.206511,-9844.739029,-296.082377,766.095498
1051.206832,-9622.677246,-148.041188,1378.971896
1051.207152,-9622.677246,-222.061783,842.705048
1051.207473,-9696.697840,-296.082377,1072.533697
1051.207794,-9326.594869,-444.123565,612.876398
1051.208114,-9696.697840,-518.144159,1378.971896
1051.208435,-9474.636058,-444.123565,919.314598
1051.208756,-9474.636058,-296.082377,919.314598
1051.209076,-9918.759623,0.000000,612.876398
1051.209397,-9474.636058,-518.144159,842.705048
1051.209718,-9400.615463,-518.144159,919.314598
1051.210038,-9474.636058,-222.061783,919.314598
1051.210359,-9622.677246,-222.061783,383.047749
1051.210680,-9622.677246,-370.102971,766.095498
1051.211001,-9474.636058,0.000000,842.705048
1051.211321,-9770.718434,0.000000,919.314598
1051.211642,-9696.697840,-148.041188,919.314598
1051.211963,-9548.656652,-296.082377,1149.143247
1051.212283,-9474.636058,-444.123565,1072.533697
1051.212604,-9622.677246,-518.144159,842.705048
1051.212925,-9474.636058,-518.144159,1302.362347
1051.213245,-9474.636058,148.041188,1072.533697
1051.213566,-9548.656652,-518.144159,919.314598
1051.213887,-9474.636058,-740.205942,995.924147
1051.214207,-9548.656652,-444.123565,842.705048
1051.214528,-9844.739029,-148.041188,229.828649
1051.214849,-9474.636058,0.000000,1149.143247
1051.215170,-9622.677246,-296.082377,1225.752797
1051.215490,-9770.718434,-518.144159,689.485948
1051.215811,-9400.615463,-148.041188,459.657299
1051.216132,-9696.697840,148.041188,1225.752797
1051.216452,-9622.677246,296.082377,995.924147
1051.216773,-9696.697840,0.000000,1532.190996
1051.217094,-9474.636058,-518.144159,1302.362347
1051.217414,-9474.636058,0.000000,0.000000
1051.217735,-9622.677246,-666.185348,995.924147
1051.218056,-9696.697840,-444.123565,1378.971896
1051.218376,-9548.656652,-518.144159,1532.190996
1051.218697,-9622.677246,-814.226536,1072.533697
1051.219018,-9326.594869,-888.247130,536.266849
1051.219339,-9548.656652,-296.082377,612.876398
1051.219659,-9622.677246,0.000000,1149.143247
1051.219980,-9474.636058,0.000000,842.705048
1051.220301,-9696.697840,-370.102971,766.095498
1051.220621,-9474.636058,-296.082377,459.657299
1051.220942,-9696.697840,0.000000,995.924147
1051.221263,-9696.697840,-296.082377,1149.143247
1051.221583,-9474.636058,-370.102971,689.485948
1051.221904,-9326.594869,-666.185348,153.219100
1051.222225,-9548.656652,-222.061783,919.314598
1051.222545,-9622.677246,-222.061783,919.314598
1051.222866,-9622.677246,-370.102971,1072.533697
1051.223187,-9474.636058,-296.082377,1149.143247
1051.223508,-9474.636058,-518.144159,995.924147
1051.223828,-9474.636058,-740.205942,995.924147
1051.224149,-9548.656652,-518.144159,766.095498
1051.224470,-9622.677246,-370.102971,1225.752797
1051.224790,-9104.533087,-518.144159,1762.019645
1051.225111,-9474.636058,0.000000,1225.752797
1051.225432,-9474.636058,-148.041188,766.095498
1051.225752,-9474.636058,-296.082377,995.924147
1051.226073,-10066.800811,592.164754,2298.286494
1051.226394,-9696.697840,-222.061783,1072.533697
1051.226714,-9696.697840,-222.061783,1149.143247
1051.227035,-9770.718434,0.000000,1302.362347
1051.227356,-9622.677246,-444.123565,1302.362347
1051.227677,-9770.718434,-518.144159,1225.752797
1051.227997,-9548.656652,-666.185348,1149.143247
1051.228318,-9548.656652,-444.123565,1225.752797
1051.228639,-9548.656652,-370.102971,1072.533697
1051.228959,-9030.512492,-592.164754,1455.581446
1051.229280,-9474.636058,-444.123565,689.485948
1051.229601,-9474.636058,-370.102971,919.314598
1051.229921,-9622.677246,-370.102971,1225.752797
1051.230242,-9844.739029,518.144159,842.705048
1051.230563,-9622.677246,-222.061783,919.314598
1051.230883,-9696.697840,0.000000,1072.533697
1051.231204,-9770.718434,0.000000,1302.362347
1051.231525,-9696.697840,0.000000,1072.533697
1051.231846,-9844.739029,-518.144159,995.924147
1051.232166,-9622.677246,-222.061783,995.924147
1051.232487,-9548.656652,0.000000,919.314598
1051.232808,-9548.656652,0.000000,1149.143247
1051.233128,-9030.512492,-370.102971,1378.971896
1051.233449,-9474.636058,-518.144159,1302.362347
1051.233770,-9474.636058,-518.144159,995.924147
1051.234090,-9548.656652,-370.102971,1302.362347
1051.234411,-8364.327145,-814.226536,2528.115143
1051.234732,-9474.636058,-296.082377,1149.143247
1051.235052,-9622.677246,-444.123565,1149.143247
1051.235373,-9622.677246,-370.102971,1072.533697
1051.235694,-9548.656652,-296.082377,842.705048
1051.236015,-9400.615463,-370.102971,919.314598
1051.236335,-9474.636058,-296.082377,995.924147
1051.236656,-9696.697840,-444.123565,1072.533697
1051.236977,-9844.739029,-296.082377,1072.533697
1051.237297,-9252.574275,-518.144159,689.485948
1051.237618,-9548.656652,-370.102971,995.924147
1051.237939,-9474.636058,-444.123565,995.924147
1051.238259,-9474.636058,-370.102971,1149.143247
1051.238580,-9992.780217,-148.041188,1149.143247
1051.238901,-9474.636058,-74.020594,1072.533697
1051.239221,-9770.718434,-592.164754,995.924147
1051.239542,-9474.636058,-444.123565,1149.143247
1051.239863,-9696.697840,-370.102971,842.705048
1051.240184,-9548.656652,-296.082377,919.314598
1051.240504,-9770.718434,-296.082377,842.705048
1051.240825,-9548.656652,-296.082377,1072.533697
1051.241146,-9622.677246,-370.102971,842.705048
1051.241466,-8956.491898,-444.123565,919.314598
1051.241787,-9844.739029,-148.041188,842.705048
1051.242108,-9474.636058,-296.082377,1455.581446
1051.242428,-9474.636058,-518.144159,842.705048
1051.242749,-9178.553681,-370.102971,766.095498
1051.243070,-9474.636058,-148.041188,842.705048
1051.243390,-9770.718434,-222.061783,1302.362347
1051.243711,-9548.656652,-370.102971,1149.143247
1051.244032,-9474.636058,-296.082377,1149.143247
1051.244353,-9622.677246,-444.123565,842.705048
1051.244673,-9474.636058,-296.082377,536.266849
1051.244994,-9622.677246,-222.061783,1225.752797
1051.245315,-9474.636058,-592.164754,919.314598
1051.245635,-9770.718434,-296.082377,919.314598
1051.245956,-9622.677246,-296.082377,995.924147
1051.246277,-9548.656652,-592.164754,995.924147
1051.246597,-9992.780217,-74.020594,1225.752797
1051.246918,-9992.780217,74.020594,1455.581446
1051.247239,-9548.656652,-222.061783,1149.143247
1051.247559,-9548.656652,-370.102971,995.924147
1051.247880,-9548.656652,-370.102971,995.924147
1051.248201,-9474.636058,-296.082377,919.314598
1051.248522,-9548.656652,-444.123565,1072.533697
1051.248842,-9696.697840,-296.082377,995.924147
1051.249163,-9696.697840,0.000000,1072.533697
1051.249484,-9548.656652,0.000000,919.314598
1051.249804,-9252.574275,-296.082377,1455.581446
1051.250125,-9770.718434,-370.102971,1149.143247
1051.250446,-9548.656652,-296.082377,1072.533697
1051.250766,-9696.697840,-296.082377,1072.533697
1051.251087,-9548.656652,-296.082377,1455.581446
1051.251408,-9474.636058,-444.123565,1455.581446
1051.251728,-9770.718434,-148.041188,995.924147
1051.252049,-9622.677246,-444.123565,1225.752797
1051.252370,-9696.697840,-222.061783,1149.143247
1051.252691,-9400.615463,-444.123565,919.314598
1051.253011,-9474.636058,-444.123565,919.314598
1051.253332,-9622.677246,-296.082377,919.314598
1051.253653,-9474.636058,-592.164754,1072.533697
1051.253973,-9326.594869,-444.123565,1838.629195
1051.254294,-9622.677246,-148.041188,1072.533697
1051.254615,-9696.697840,0.000000,1149.143247
1051.254935,-9622.677246,-222.061783,1072.533697
1051.255256,-9474.636058,-444.123565,1072.533697
1051.255577,-9844.739029,-296.082377,919.314598
1051.255897,-9622.677246,-296.082377,1302.362347
1051.256218,-9770.718434,-296.082377,919.314598
1051.256539,-9474.636058,-370.102971,1225.752797
1051.256860,-9326.594869,-222.061783,995.924147
1051.257180,-9622.677246,-296.082377,689.485948
1051.257501,-9474.636058,-296.082377,919.314598
1051.257822,-9622.677246,-740.205942,995.924147
1051.258142,-9252.574275,-148.041188,919.314598
1051.258463,-9622.677246,0.000000,995.924147
1051.258784,-9474.636058,-296.082377,919.314598
1051.259104,-9548.656652,-666.185348,1225.752797
1051.259425,-9844.739029,74.020594,1072.533697
1051.259746,-9548.656652,-444.123565,995.924147
1051.260066,-9622.677246,0.000000,1225.752797
1051.260387,-9770.718434,0.000000,1302.362347
1051.260708,-9474.636058,-370.102971,1072.533697
1051.261029,-9548.656652,-296.082377,1302.362347
1051.261349,-9474.636058,-148.041188,842.705048
1051.261670,-9622.677246,-296.082377,919.314598
1051.261991,-9770.718434,-370.102971,1149.143247
1051.262311,-9548.656652,-518.144159,459.657299
1051.262632,-9474.636058,-74.020594,995.924147
1051.262953,-9844.739029,-148.041188,1072.533697
1051.263273,-9696.697840,-296.082377,1302.362347
1051.263594,-9030.512492,-962.267725,995.924147
1051.263915,-9548.656652,-666.185348,995.924147
1051.264235,-9548.656652,-222.061783,842.705048
1051.264556,-9548.656652,-370.102971,1149.143247
1051.264877,-9548.656652,-518.144159,1072.533697
1051.265198,-9844.739029,0.000000,995.924147
1051.265518,-9474.636058,-296.082377,919.314598
1051.265839,-9844.739029,-148.041188,1072.533697
1051.266160,-9474.636058,-296.082377,842.705048
1051.266480,-9918.759623,-518.144159,919.314598
1051.266801,-9622.677246,0.000000,842.705048
1051.267122,-9622.677246,0.000000,919.314598
1051.267442,-9474.636058,0.000000,919.314598
1051.267763,-10140.821405,370.102971,919.314598
1051.268084,-9474.636058,-296.082377,1072.533697
1051.268404,-9770.718434,-444.123565,1072.533697
1051.268725,-9622.677246,-444.123565,1072.533697
1051.269046,-9548.656652,-148.041188,1455.581446
1051.269367,-9400.615463,-370.102971,1302.362347
1051.269687,-9474.636058,-518.144159,1072.533697
1051.270008,-9474.636058,-444.123565,1225.752797
1051.270329,-9474.636058,-592.164754,1149.143247
1051.270649,-9696.697840,-518.144159,919.314598
1051.270970,-9622.677246,-296.082377,842.705048
1051.271291,-9770.718434,-148.041188,842.705048
1051.271611,-9844.739029,0.000000,919.314598
1051.271932,-9400.615463,74.020594,2604.724693
1051.272253,-9622.677246,-296.082377,1149.143247
1051.272573,-9474.636058,-296.082377,1149.143247
1051.272894,-9696.697840,0.000000,1378.971896
1051.273215,-9548.656652,-444.123565,1302.362347
1051.273536,-9622.677246,-296.082377,1149.143247
1051.273856,-9474.636058,-518.144159,1149.143247
1051.274177,-9474.636058,-444.123565,995.924147
1051.274498,-9474.636058,-444.123565,1072.533697
1051.274818,-9474.636058,-592.164754,1685.410096
1051.275139,-9474.636058,-296.082377,995.924147
1051.275460,-9622.677246,-444.123565,766.095498
1051.275780,-9474.636058,-444.123565,995.924147
1051.276101,-9474.636058,-222.061783,2221.676944
1051.276422,-9548.656652,-148.041188,1225.752797
1051.276742,-9622.677246,-296.082377,919.314598
1051.277063,-9548.656652,-444.123565,919.314598
1051.277384,-9548.656652,-444.123565,766.095498
1051.277705,-9622.677246,-222.061783,536.266849
1051.278025,-9474.636058,-222.061783,1072.533697
1051.278346,-9548.656652,-444.123565,1072.533697
1051.278667,-9400.615463,-370.102971,919.314598
1051.278987,-9474.636058,-296.082377,766.095498
1051.279308,-9474.636058,-444.123565,1072.533697
1051.279629,-9622.677246,-444.123565,1225.752797
1051.279949,-9622.677246,-518.144159,1072.533697
1051.280270,-8882.471304,-1110.308913,2145.067394
1051.280591,-9622.677246,-148.041188,919.314598
1051.280911,-9622.677246,0.000000,1149.143247
1051.281232,-9622.677246,-296.082377,1072.533697
1051.281553,-9548.656652,-370.102971,766.095498
1051.281873,-9548.656652,-222.061783,1149.143247
1051.282194,-9622.677246,-148.041188,1072.533697
1051.282515,-9548.656652,-444.123565,1378.971896
1051.282835,-9474.636058,-592.164754,842.705048
1051.283156,-9326.594869,-666.185348,1685.410096
1051.283477,-9548.656652,-296.082377,842.705048
1051.283797,-9770.718434,-370.102971,1225.752797
1051.284118,-9622.677246,-296.082377,1302.362347
1051.284439,-9770.718434,-74.020594,1149.143247
1051.284759,-9474.636058,-370.102971,1225.752797
1051.285080,-9622.677246,-296.082377,1225.752797
1051.285401,-9770.718434,-222.061783,1532.190996
1051.285721,-9696.697840,-370.102971,995.924147
1051.286042,-9622.677246,-518.144159,919.314598
1051.286363,-9474.636058,-296.082377,1072.533697
1051.286683,-9474.636058,-296.082377,1149.143247
1051.287004,-9770.718434,-370.102971,1608.800546
1051.287325,-9696.697840,-296.082377,1378.971896
1051.287645,-9548.656652,-370.102971,995.924147
1051.287966,-9474.636058,-370.102971,766.095498
1051.288287,-9474.636058,-296.082377,995.924147
1051.288607,-9548.656652,-444.123565,1378.971896
1051.288928,-9400.615463,-296.082377,995.924147
1051.289248,-9548.656652,-296.082377,1072.533697
1051.289569,-9474.636058,-222.061783,995.924147
1051.289890,-9622.677246,-222.061783,1072.533697
1051.290210,-10066.800811,-444.123565,1225.752797
1051.290531,-9474.636058,-148.041188,1225.752797
1051.290852,-9622.677246,-296.082377,842.705048
1051.291172,-9474.636058,-518.144159,919.314598
1051.291493,-9622.677246,-370.102971,842.705048
1051.291814,-9918.759623,-148.041188,1302.362347
1051.292134,-9622.677246,-370.102971,1149.143247
1051.292455,-9474.636058,-592.164754,995.924147
1051.292776,-9474.636058,-518.144159,995.924147
1051.293096,-9326.594869,-666.185348,1685.410096
1051.293417,-9474.636058,-444.123565,1149.143247
1051.293738,-9474.636058,-296.082377,995.924147
1051.294058,-9474.636058,-370.102971,995.924147
1051.294379,-9400.615463,0.000000,2145.067394
1051.294700,-9548.656652,-296.082377,919.314598
1051.295020,-9622.677246,0.000000,1225.752797
1051.295341,-9622.677246,0.000000,1225.752797
1051.295662,-9918.759623,0.000000,1455.581446
1051.295982,-9622.677246,-222.061783,1072.533697
1051.296303,-9622.677246,-370.102971,766.095498
1051.296623,-9622.677246,-296.082377,995.924147
1051.296944,-9622.677246,-592.164754,1378.971896
1051.297265,-9400.615463,0.000000,536.266849
1051.297585,-9474.636058,-518.144159,919.314598
1051.297906,-9474.636058,-370.102971,919.314598
1051.298227,-9548.656652,-296.082377,1072.533697
1051.298547,-8956.491898,-370.102971,1302.362347
1051.298868,-9770.718434,-222.061783,1149.143247
1051.299189,-9622.677246,-296.082377,1149.143247
1051.299509,-9622.677246,-370.102971,995.924147
1051.299830,-9548.656652,-296.082377,842.705048
1051.300151,-9548.656652,-148.041188,1072.533697
1051.300471,-9474.636058,-222.061783,1149.143247
1051.300792,-9548.656652,0.000000,995.924147
1051.301113,-9770.718434,0.000000,919.314598
1051.301433,-9548.656652,-444.123565,1072.533697
1051.301754,-9474.636058,-518.144159,1149.143247
1051.302075,-9696.697840,-444.123565,1149.143247
1051.302395,-9548.656652,-592.164754,1072.533697
1051.302716,-9548.656652,-666.185348,1685.410096
1051.303037,-9622.677246,-296.082377,1072.533697
1051.303357,-9622.677246,-370.102971,1225.752797
1051.303678,-9474.636058,-148.041188,1225.752797
1051.303999,-9696.697840,-370.102971,1149.143247
1051.304319,-9548.656652,-370.102971,842.705048
1051.304640,-9474.636058,-370.102971,612.876398
1051.304960,-9622.677246,-222.061783,1072.533697
1051.305281,-9622.677246,0.000000,1225.752797
1051.305602,-9548.656652,-666.185348,689.485948
1051.305922,-9474.636058,-148.041188,1072.533697
1051.306243,-9474.636058,-370.102971,1149.143247
1051.306564,-9548.656652,-370.102971,1072.533697
1051.306884,-9844.739029,-370.102971,612.876398
1051.307205,-9474.636058,-518.144159,1225.752797
1051.307526,-9696.697840,-370.102971,1302.362347
1051.307846,-9622.677246,-444.123565,1072.533697
1051.308167,-9474.636058,-444.123565,919.314598
1051.308488,-9326.594869,-740.205942,995.924147
1051.308808,-9696.697840,-296.082377,1225.752797
1051.309129,-9844.739029,-222.061783,1149.143247
1051.309450,-9770.718434,-296.082377,1072.533697
1051.309770,-9770.718434,-296.082377,842.705048
1051.310091,-9696.697840,-222.061783,1302.362347
1051.310412,-9622.677246,-296.082377,1225.752797
1051.310732,-9548.656652,-296.082377,919.314598
1051.311053,-9178.553681,0.000000,2374.896044
1051.311374,-9770.718434,-222.061783,1149.143247
1051.311694,-9770.718434,-222.061783,1072.533697
1051.312015,-9474.636058,-296.082377,995.924147
1051.312335,-9622.677246,-296.082377,1149.143247
1051.312656,-9696.697840,-444.123565,1378.971896
1051.312977,-9622.677246,-592.164754,1455.581446
1051.313297,-9474.636058,-592.164754,766.095498
1051.313618,-9400.615463,-296.082377,842.705048
1051.313939,-9844.739029,-370.102971,919.314598
1051.314259,-9622.677246,-222.061783,1072.533697
1051.314580,-9696.697840,-148.041188,766.095498
1051.314901,-9548.656652,-296.082377,919.314598
1051.315221,-9326.594869,-296.082377,689.485948
1051.315542,-9844.739029,0.000000,1149.143247
1051.315863,-9918.759623,-296.082377,1455.581446
1051.316183,-9548.656652,-296.082377,919.314598
1051.316504,-9474.636058,-740.205942,919.314598
1051.316825,-9326.594869,-370.102971,766.095498
1051.317145,-9474.636058,-666.185348,1072.533697
1051.317466,-9474.636058,-592.164754,919.314598
1051.317787,-9474.636058,-296.082377,1149.143247
1051.318107,-10066.800811,0.000000,1455.581446
1051.318428,-9474.636058,-444.123565,1072.533697
1051.318749,-9474.636058,-444.123565,1072.533697
1051.319069,-9844.739029,-296.082377,1149.143247
1051.319390,-9992.780217,370.102971,1072.533697
1051.319711,-9622.677246,-444.123565,919.314598
1051.320031,-9622.677246,0.000000,919.314598
1051.320352,-9844.739029,0.000000,1149.143247
1051.320672,-9622.677246,-148.041188,1378.971896
1051.320993,-9400.615463,-222.061783,1532.190996
1051.321314,-9548.656652,-370.102971,995.924147
1051.321634,-9548.656652,-444.123565,995.924147
1051.321955,-9770.718434,-518.144159,1225.752797
1051.322276,-9696.697840,-370.102971,919.314598
1051.322596,-9474.636058,-370.102971,1225.752797
1051.322917,-9548.656652,-296.082377,1072.533697
1051.323238,-9474.636058,-444.123565,1072.533697
1051.323558,-9400.615463,-814.226536,383.047749
1051.323879,-9622.677246,0.000000,1072.533697
1051.324200,-9696.697840,-222.061783,995.924147
1051.324520,-9400.615463,-370.102971,1072.533697
1051.324841,-9622.677246,-370.102971,1072.533697
1051.325162,-9770.718434,0.000000,1378.971896
1051.325482,-9770.718434,-370.102971,1378.971896
1051.325803,-9548.656652,-370.102971,1149.143247
1051.326124,-9770.718434,-296.082377,1072.533697
1051.326444,-9918.759623,-296.082377,766.095498
1051.326765,-9548.656652,-296.082377,995.924147
1051.327086,-9770.718434,-222.061783,1072.533697
1051.327406,-9474.636058,-222.061783,919.314598
1051.327727,-10214.842000,592.164754,2451.505594
1051.328047,-9548.656652,-370.102971,842.705048
1051.328368,-9548.656652,-444.123565,1072.533697
1051.328689,-9548.656652,-296.082377,1225.752797
1051.329009,-9474.636058,0.000000,919.314598
1051.329330,-9474.636058,-222.061783,766.095498
1051.329651,-9622.677246,-370.102971,1302.362347
1051.329971,-9548.656652,-148.041188,1149.143247
1051.330292,-9696.697840,-518.144159,995.924147
1051.330613,-9178.553681,-1110.308913,153.219100
1051.330933,-9474.636058,0.000000,995.924147
1051.331254,-9474.636058,-296.082377,766.095498
1051.331575,-9548.656652,-222.061783,1072.533697
1051.331895,-9474.636058,-666.185348,919.314598
1051.332216,-9548.656652,-444.123565,1149.143247
1051.332537,-9696.697840,-296.082377,1072.533697
1051.332857,-9622.677246,-444.123565,1149.143247
1051.333178,-9474.636058,-222.061783,919.314598
1051.333499,-9770.718434,-148.041188,1685.410096
1051.333819,-9474.636058,-444.123565,1455.581446
1051.334140,-9696.697840,-444.123565,842.705048
1051.334461,-9474.636058,-370.102971,1532.190996
1051.334781,-9770.718434,0.000000,1149.143247
1051.335102,-9622.677246,-444.123565,995.924147
1051.335423,-9770.718434,-148.041188,1302.362347
1051.335743,-9770.718434,-444.123565,1149.143247
1051.336064,-9622.677246,296.082377,2834.553343
1051.336384,-9696.697840,-592.164754,1072.533697
1051.336705,-9696.697840,-592.164754,842.705048
1051.337026,-9696.697840,-444.123565,1072.533697
1051.337346,-9474.636058,-222.061783,919.314598
1051.337667,-9696.697840,0.000000,1072.533697
1051.337988,-9622.677246,74.020594,919.314598
1051.338308,-9622.677246,-74.020594,1072.533697
1051.338629,-9770.718434,-444.123565,1149.143247
1051.338950,-9400.615463,-222.061783,2068.457845
1051.339270,-9474.636058,-296.082377,1225.752797
1051.339591,-9548.656652,-370.102971,1149.143247
1051.339912,-9696.697840,-370.102971,1302.362347
1051.340232,-9104.533087,74.020594,153.219100
1051.340553,-9548.656652,-518.144159,689.485948
1051.340874,-9474.636058,-370.102971,1302.362347
1051.341194,-9548.656652,-296.082377,1149.143247
1051.341515,-9548.656652,-222.061783,1072.533697
1051.341836,-9474.636058,-148.041188,919.314598
1051.342156,-9622.677246,0.000000,1072.533697
1051.342477,-9474.636058,-296.082377,1072.533697
1051.342798,-9548.656652,-444.123565,1149.143247
1051.343118,-9696.697840,-444.123565,383.047749
1051.343439,-9696.697840,-296.082377,919.314598
1051.343759,-9622.677246,0.000000,995.924147
1051.344080,-9622.677246,0.000000,1149.143247
1051.344401,-9770.718434,-370.102971,1072.533697
1051.344721,-9548.656652,-296.082377,1149.143247
1051.345042,-9474.636058,-592.164754,612.876398
1051.345363,-9548.656652,-370.102971,1149.143247
1051.345683,-9696.697840,-592.164754,1072.533697
1051.346004,-9104.533087,-444.123565,1991.848295
1051.346325,-9326.594869,-370.102971,1149.143247
1051.346645,-9696.697840,-222.061783,1225.752797
1051.346966,-9548.656652,-74.020594,1072.533697
1051.347287,-9844.739029,-296.082377,1149.143247
1051.347607,-9548.656652,-370.102971,995.924147
1051.347928,-9548.656652,-148.041188,919.314598
1051.348249,-9548.656652,-296.082377,919.314598
1051.348569,-9622.677246,-370.102971,1149.143247
1051.348890,-9622.677246,0.000000,1225.752797
1051.349211,-9770.718434,-296.082377,919.314598
1051.349531,-9474.636058,0.000000,995.924147
1051.349852,-9622.677246,-222.061783,1072.533697
1051.350173,-8438.347739,-1036.288319,1762.019645
1051.350493,-9548.656652,-444.123565,1455.581446
1051.350814,-9548.656652,-296.082377,1072.533697
1051.351135,-9622.677246,-444.123565,1225.752797
1051.351455,-9548.656652,-444.123565,1225.752797
1051.351776,-9474.636058,-370.102971,842.705048
1051.352096,-9474.636058,-370.102971,919.314598
1051.352417,-9622.677246,-222.061783,1072.533697
1051.352738,-9844.739029,0.000000,919.314598
1051.353058,-9696.697840,0.000000,766.095498
1051.353379,-9622.677246,-444.123565,919.314598
1051.353700,-9770.718434,-370.102971,842.705048
1051.354020,-9622.677246,-74.020594,995.924147
1051.354341,-10214.842000,814.226536,766.095498
1051.354662,-9548.656652,-444.123565,1378.971896
1051.354982,-9474.636058,-592.164754,1149.143247
1051.355303,-9622.677246,-592.164754,995.924147
1051.355624,-9474.636058,-518.144159,995.924147
1051.355944,-9622.677246,-296.082377,1455.581446
1051.356265,-9770.718434,-370.102971,995.924147
1051.356586,-9474.636058,-444.123565,536.266849
1051.356906,-9474.636058,-518.144159,1149.143247
1051.357227,-10214.842000,222.061783,842.705048
1051.357548,-9696.697840,0.000000,1072.533697
1051.357868,-9844.739029,-222.061783,1225.752797
1051.358189,-9696.697840,-444.123565,1302.362347
1051.358510,-10140.821405,296.082377,459.657299
1051.358830,-9770.718434,-296.082377,1072.533697
1051.359151,-9548.656652,-444.123565,1378.971896
1051.359471,-9474.636058,-444.123565,1225.752797
1051.359792,-9548.656652,-740.205942,1149.143247
1051.360113,-9400.615463,-666.185348,689.485948
1051.360433,-9474.636058,-444.123565,842.705048
1051.360754,-9622.677246,-296.082377,1072.533697
1051.361075,-9474.636058,-296.082377,1072.533697
1051.361395,-9770.718434,444.123565,689.485948
1051.361716,-9622.677246,0.000000,1072.533697
1051.362037,-9844.739029,0.000000,1225.752797
1051.362357,-9844.739029,-148.041188,1378.971896
1051.362678,-9918.759623,0.000000,1608.800546
1051.362999,-9770.718434,-296.082377,995.924147
1051.363319,-9548.656652,-666.185348,919.314598
1051.363640,-9622.677246,-444.123565,842.705048
1051.363961,-9548.656652,-518.144159,1302.362347
1051.364281,-9622.677246,-296.082377,919.314598
1051.364602,-9474.636058,-592.164754,1072.533697
1051.364923,-9548.656652,-74.020594,1225.752797
1051.365243,-9696.697840,-518.144159,995.924147
1051.365564,-9252.574275,296.082377,383.047749
1051.365885,-9474.636058,-222.061783,1149.143247
1051.366205,-9548.656652,0.000000,1302.362347
1051.366526,-9548.656652,-370.102971,1302.362347
1051.366847,-9622.677246,-222.061783,1072.533697
1051.367167,-9992.780217,-296.082377,1072.533697
1051.367488,-9474.636058,-74.020594,995.924147
1051.367808,-9548.656652,-296.082377,842.705048
1051.368129,-9622.677246,-222.061783,1149.143247
1051.368450,-9474.636058,-296.082377,1762.019645
1051.368770,-9622.677246,-518.144159,1378.971896
1051.369091,-9696.697840,-592.164754,1149.143247
1051.369412,-9474.636058,-444.123565,1072.533697
1051.369732,-8660.409521,-74.020594,-536.266849
1051.370053,-9548.656652,-222.061783,1149.143247
1051.370374,-9474.636058,-296.082377,1149.143247
1051.370694,-9474.636058,-444.123565,995.924147
1051.371015,-9548.656652,-370.102971,766.095498
1051.371336,-9474.636058,-296.082377,842.705048
1051.371656,-9622.677246,-296.082377,919.314598
1051.371977,-9696.697840,-74.020594,612.876398
1051.372298,-9770.718434,0.000000,689.485948
1051.372618,-9844.739029,-444.123565,842.705048
1051.372939,-9400.615463,-370.102971,1072.533697
1051.373260,-9770.718434,-444.123565,1302.362347
1051.373580,-9770.718434,-296.082377,1378.971896
1051.373901,-9992.780217,148.041188,2298.286494
1051.374222,-9622.677246,-222.061783,1072.533697
1051.374542,-9548.656652,-444.123565,1225.752797
1051.374863,-9474.636058,-444.123565,1072.533697
1051.375183,-9474.636058,-518.144159,919.314598
1051.375504,-9326.594869,-518.144159,919.314598
1051.375825,-9622.677246,-296.082377,766.095498
1051.376145,-9622.677246,-148.041188,919.314598
1051.376466,-9770.718434,0.000000,1378.971896
1051.376787,-9622.677246,-592.164754,995.924147
1051.377107,-9622.677246,-370.102971,689.485948
1051.377428,-9622.677246,-296.082377,1149.143247
1051.377749,-9548.656652,-222.061783,1149.143247
1051.378069,-10214.842000,-444.123565,2221.676944
1051.378390,-9622.677246,-296.082377,1225.752797
1051.378711,-9622.677246,-296.082377,1225.752797
1051.379031,-9474.636058,-740.205942,766.095498
1051.379352,-9548.656652,-444.123565,2221.676944
1051.379673,-9548.656652,-518.144159,1149.143247
1051.379993,-9548.656652,-370.102971,919.314598
1051.380314,-9474.636058,-444.123565,1072.533697
1051.380635,-9474.636058,-444.123565,1149.143247
1051.380955,-9844.739029,-296.082377,1149.143247
1051.381276,-9548.656652,-518.144159,1149.143247
1051.381597,-9548.656652,-444.123565,1149.143247
1051.381917,-9844.739029,-222.061783,1302.362347
1051.382238,-9992.780217,148.041188,-689.485948
1051.382559,-9474.636058,-148.041188,995.924147
1051.382880,-9548.656652,-148.041188,1378.971896
1051.383200,-9548.656652,-370.102971,995.924147
1051.383521,-9622.677246,-222.061783,995.924147
1051.383842,-9622.677246,-296.082377,1072.533697
1051.384163,-9474.636058,-814.226536,919.314598
1051.384483,-9474.636058,-370.102971,1378.971896
1051.384804,-9548.656652,-666.185348,1149.143247
1051.385125,-10140.821405,222.061783,229.828649
1051.385446,-9696.697840,-370.102971,766.095498
1051.385766,-9696.697840,-518.144159,1149.143247
1051.386087,-9474.636058,-296.082377,919.314598
1051.386408,-9770.718434,74.020594,1302.362347
1051.386729,-9622.677246,0.000000,995.924147
1051.387049,-9474.636058,-148.041188,1149.143247
1051.387370,-9548.656652,-518.144159,1072.533697
1051.387691,-9474.636058,-444.123565,766.095498
1051.388012,-9326.594869,148.041188,1762.019645
1051.388332,-9548.656652,-444.123565,1225.752797
1051.388653,-9474.636058,-444.123565,1072.533697
1051.388974,-9622.677246,-370.102971,689.485948
1051.389295,-9622.677246,-148.041188,612.876398
1051.389615,-9548.656652,-370.102971,689.485948
1051.389936,-9474.636058,-222.061783,1072.533697
1051.390257,-9918.759623,-296.082377,995.924147
1051.390578,-9696.697840,-518.144159,919.314598
1051.390898,-9252.574275,-444.123565,1302.362347
1051.391219,-9622.677246,-296.082377,1302.362347
1051.391540,-9696.697840,-296.082377,1072.533697
1051.391861,-9622.677246,-370.102971,1072.533697
1051.392181,-8512.368333,0.000000,1762.019645
1051.392502,-9622.677246,-444.123565,995.924147
1051.392823,-9474.636058,-444.123565,919.314598
1051.393144,-9622.677246,-370.102971,995.924147
1051.393464,-9548.656652,0.000000,2451.505594
1051.393785,-9770.718434,-74.020594,995.924147
1051.394106,-9474.636058,-296.082377,612.876398
1051.394427,-9548.656652,-222.061783,1072.533697
1051.394747,-9844.739029,-148.041188,1378.971896
1051.395068,-9548.656652,-370.102971,1072.533697
1051.395389,-9622.677246,-444.123565,995.924147
1051.395710,-9548.656652,-296.082377,995.924147
1051.396030,-9622.677246,-222.061783,919.314598
1051.396351,-9104.533087,-740.205942,1685.410096
1051.396672,-9622.677246,-592.164754,1149.143247
1051.396993,-9474.636058,-296.082377,919.314598
1051.397313,-9770.718434,-222.061783,1072.533697
1051.397634,-9622.677246,0.000000,4213.525239
1051.397955,-9474.636058,-148.041188,689.485948
1051.398276,-9548.656652,0.000000,995.924147
1051.398596,-9622.677246,-296.082377,995.924147
1051.398917,-9548.656652,0.000000,919.314598
1051.399238,-9474.636058,-296.082377,842.705048
1051.399558,-9548.656652,-296.082377,1149.143247
1051.399879,-9622.677246,-148.041188,1072.533697
1051.400200,-9548.656652,-148.041188,995.924147
1051.400521,-9770.718434,-296.082377,2145.067394
1051.400841,-9474.636058,-518.144159,1149.143247
1051.401162,-9474.636058,-296.082377,842.705048
1051.401483,-9696.697840,-370.102971,1225.752797
1051.401804,-9474.636058,222.061783,1685.410096
1051.402124,-9770.718434,-370.102971,1225.752797
1051.402445,-9622.677246,-518.144159,1225.752797
1051.402766,-9622.677246,-370.102971,995.924147
1051.403087,-9548.656652,-296.082377,919.314598
1051.403407,-9474.636058,-370.102971,995.924147
1051.403728,-9548.656652,-370.102971,1149.143247
1051.404049,-9548.656652,-370.102971,1072.533697
1051.404370,-9548.656652,-222.061783,1149.143247
1051.404690,-9770.718434,0.000000,766.095498
1051.405011,-9622.677246,-370.102971,1302.362347
1051.405332,-9548.656652,-666.185348,995.924147
1051.405653,-9474.636058,-814.226536,995.924147
1051.405973,-9770.718434,-888.247130,842.705048
1051.406294,-9474.636058,-370.102971,1149.143247
1051.406615,-9474.636058,-222.061783,1072.533697
1051.406936,-9696.697840,-296.082377,1149.143247
1051.407256,-9474.636058,-148.041188,612.876398
1051.407577,-9622.677246,-296.082377,229.828649
1051.407898,-9548.656652,0.000000,1072.533697
1051.408219,-9696.697840,-222.061783,1225.752797
1051.408539,-9548.656652,-370.102971,995.924147
1051.408860,-9104.533087,-222.061783,1149.143247
1051.409181,-9548.656652,-296.082377,1532.190996
1051.409502,-9622.677246,-370.102971,1072.533697
1051.409822,-9548.656652,-666.185348,1149.143247
1051.410143,-8364.327145,-1184.329507,2221.676944
1051.410464,-9622.677246,-444.123565,995.924147
1051.410785,-9474.636058,-370.102971,1072.533697
1051.411105,-9474.636058,-222.061783,1455.581446
1051.411426,-9474.636058,-444.123565,919.314598
1051.411747,-9622.677246,-296.082377,919.314598
1051.412068,-9548.656652,-296.082377,1225.752797
1051.412388,-9696.697840,-222.061783,1072.533697
1051.412709,-9622.677246,-148.041188,842.705048
1051.413030,-9770.718434,0.000000,1072.533697
1051.413351,-9770.718434,-148.041188,1072.533697
1051.413671,-9474.636058,-296.082377,1225.752797
1051.413992,-9622.677246,-370.102971,1149.143247
1051.414313,-9770.718434,0.000000,1532.190996
1051.414634,-9474.636058,-444.123565,1149.143247
1051.414954,-9548.656652,-740.205942,919.314598
1051.415275,-9400.615463,-592.164754,1302.362347
1051.415596,-9326.594869,-888.247130,919.314598
1051.415917,-9696.697840,-444.123565,1225.752797
1051.416237,-9770.718434,-222.061783,1378.971896
1051.416558,-9770.718434,-296.082377,1378.971896
1051.416879,-9252.574275,-370.102971,766.095498
1051.417199,-9178.553681,-444.123565,1072.533697
1051.417520,-9696.697840,0.000000,919.314598
1051.417841,-9622.677246,-222.061783,842.705048
1051.418162,-9474.636058,-370.102971,1149.143247
1051.418482,-9474.636058,0.000000,1225.752797
1051.418803,-9622.677246,-296.082377,1149.143247
1051.419124,-9696.697840,0.000000,1455.581446
1051.419445,-9548.656652,-444.123565,1149.143247
1051.419765,-9548.656652,-370.102971,1225.752797
1051.420086,-9548.656652,-296.082377,1225.752797
1051.420407,-9622.677246,-518.144159,842.705048
1051.420728,-9622.677246,-222.061783,1225.752797
1051.421048,-9844.739029,-592.164754,1225.752797
1051.421369,-8956.491898,-444.123565,1915.238745
1051.421690,-9474.636058,-370.102971,919.314598
1051.422011,-9622.677246,-222.061783,1149.143247
1051.422331,-9696.697840,-222.061783,842.705048
1051.422652,-9548.656652,-222.061783,536.266849
1051.422973,-9474.636058,-444.123565,689.485948
1051.423294,-9622.677246,0.000000,919.314598
1051.423614,-10066.800811,-444.123565,1072.533697
1051.423935,-9474.636058,-592.164754,1455.581446
1051.424256,-9770.718434,-740.205942,919.314598
1051.424577,-9474.636058,-592.164754,919.314598
1051.424897,-9548.656652,-444.123565,995.924147
1051.425218,-9548.656652,-592.164754,1149.143247
1051.425539,-9474.636058,74.020594,1838.629195
1051.425860,-9548.656652,-370.102971,842.705048
1051.426180,-9548.656652,-222.061783,995.924147
1051.426501,-9548.656652,-148.041188,919.314598
1051.426822,-9548.656652,-222.061783,1149.143247
1051.427143,-9770.718434,0.000000,1225.752797
1051.427463,-9548.656652,0.000000,1378.971896
1051.427784,-9548.656652,-222.061783,919.314598
1051.428105,-9622.677246,-296.082377,1378.971896
1051.428426,-9696.697840,-296.082377,1378.971896
1051.428746,-9474.636058,-518.144159,1302.362347
1051.429067,-9622.677246,-666.185348,1225.752797
1051.429388,-9326.594869,-592.164754,1072.533697
1051.429709,-9474.636058,-740.205942,919.314598
1051.430029,-9622.677246,-444.123565,1225.752797
1051.430350,-9622.677246,-296.082377,1225.752797
1051.430671,-9622.677246,-518.144159,919.314598
1051.430992,-9474.636058,-444.123565,612.876398
1051.431312,-9548.656652,-296.082377,689.485948
1051.431633,-9770.718434,0.000000,1149.143247
1051.431954,-9696.697840,-148.041188,995.924147
1051.432275,-9696.697840,0.000000,1149.143247
1051.432595,-9548.656652,-296.082377,1072.533697
1051.432916,-9474.636058,-296.082377,1149.143247
1051.433237,-10066.800811,-370.102971,1378.971896
1051.433558,-9696.697840,-592.164754,1302.362347
1051.433878,-7994.224174,-1258.350101,1072.533697
1051.434199,-9474.636058,-518.144159,1225.752797
1051.434520,-9474.636058,-666.185348,1149.143247
1051.434841,-9696.697840,-518.144159,1378.971896
1051.435161,-9474.636058,-592.164754,612.876398
1051.435482,-9326.594869,-444.123565,766.095498
1051.435803,-9696.697840,148.041188,842.705048
1051.436123,-9622.677246,0.000000,766.095498
1051.436444,-9474.636058,148.041188,1072.533697
1051.436765,-9326.594869,0.000000,919.314598
1051.437086,-9770.718434,0.000000,1225.752797
1051.437406,-9844.739029,-370.102971,1149.143247
1051.437727,-9548.656652,-370.102971,919.314598
1051.438048,-9326.594869,-222.061783,1915.238745
1051.438369,-9474.636058,-518.144159,919.314598
1051.438689,-9474.636058,-592.164754,1149.143247
1051.439010,-9474.636058,-666.185348,1532.190996
1051.439331,-9400.615463,-518.144159,1225.752797
1051.439652,-9622.677246,-518.144159,1455.581446
1051.439972,-9474.636058,-666.185348,1225.752797
1051.440293,-9696.697840,-222.061783,1072.533697
1051.440614,-9622.677246,0.000000,1072.533697
1051.440935,-9548.656652,0.000000,1302.362347
1051.441255,-9474.636058,0.000000,1149.143247
1051.441576,-9696.697840,-518.144159,995.924147
1051.441897,-9770.718434,-148.041188,1072.533697
1051.442218,-9474.636058,0.000000,766.095498
1051.442538,-9844.739029,-148.041188,1149.143247
1051.442859,-9252.574275,-370.102971,1072.533697
1051.443180,-9474.636058,-444.123565,1072.533697
1051.443501,-9622.677246,-666.185348,459.657299
1051.443821,-9474.636058,-666.185348,1532.190996
1051.444142,-9474.636058,-962.267725,1149.143247
1051.444463,-9474.636058,-592.164754,1225.752797
1051.444784,-9474.636058,-222.061783,919.314598
1051.445104,-9548.656652,0.000000,1302.362347
1051.445425,-9696.697840,0.000000,842.705048
1051.445746,-9548.656652,-296.082377,919.314598
1051.446067,-9696.697840,-148.041188,842.705048
1051.446387,-9030.512492,-370.102971,919.314598
1051.446708,-9696.697840,0.000000,766.095498
1051.447029,-9844.739029,0.000000,1072.533697
1051.447350,-9548.656652,-222.061783,1225.752797
1051.447670,-9548.656652,0.000000,1378.971896
1051.447991,-9770.718434,-222.061783,842.705048
1051.448312,-9696.697840,-148.041188,1072.533697
1051.448633,-9622.677246,-370.102971,1072.533697
1051.448953,-9548.656652,-444.123565,1072.533697
1051.449274,-9400.615463,-370.102971,1455.581446
1051.449595,-9474.636058,-518.144159,1608.800546
1051.449916,-9474.636058,-592.164754,1149.143247
1051.450236,-9474.636058,-666.185348,766.095498
1051.450557,-8956.491898,-814.226536,1378.971896
1051.450878,-9844.739029,-222.061783,1302.362347
1051.451199,-9770.718434,-444.123565,919.314598
1051.451519,-9474.636058,-148.041188,689.485948
1051.451840,-9770.718434,0.000000,995.924147
1051.452161,-9548.656652,-222.061783,1149.143247
1051.452482,-9844.739029,-296.082377,1149.143247
1051.452802,-9622.677246,-444.123565,1915.238745
1051.453123,-9474.636058,-592.164754,919.314598
1051.453444,-9696.697840,0.000000,919.314598
1051.453764,-9474.636058,-518.144159,1378.971896
1051.454085,-9474.636058,-444.123565,842.705048
1051.454406,-9400.615463,-222.061783,1072.533697
1051.454727,-9992.780217,-1184.329507,689.485948
1051.455047,-9548.656652,-518.144159,919.314598
1051.455368,-9474.636058,-518.144159,766.095498
1051.455689,-9548.656652,-296.082377,1149.143247
1051.456010,-9622.677246,-148.041188,1378.971896
1051.456330,-9844.739029,-222.061783,1685.410096
1051.456651,-9622.677246,-518.144159,1455.581446
1051.456972,-9474.636058,-518.144159,842.705048
1051.457293,-9622.677246,-148.041188,1149.143247
1051.457613,-9474.636058,-592.164754,919.314598
1051.457934,-9474.636058,-444.123565,995.924147
1051.458255,-9474.636058,-740.205942,995.924147
1051.458576,-9474.636058,-296.082377,995.924147
1051.458896,-9844.739029,222.061783,842.705048
1051.459217,-9696.697840,-296.082377,1149.143247
1051.459538,-9474.636058,-296.082377,612.876398
1051.459859,-9696.697840,-222.061783,1149.143247
1051.460179,-9844.739029,-148.041188,1302.362347
1051.460500,-9696.697840,-148.041188,995.924147
1051.460821,-9548.656652,-74.020594,995.924147
1051.461142,-9622.677246,-296.082377,1149.143247
1051.461462,-9474.636058,-370.102971,1072.533697
1051.461783,-9696.697840,-444.123565,1378.971896
1051.462104,-9548.656652,-148.041188,1149.143247
1051.462425,-9474.636058,0.000000,1225.752797
1051.462745,-9770.718434,-148.041188,1302.362347
1051.463066,-9918.759623,-666.185348,306.438199
1051.463387,-9474.636058,-370.102971,919.314598
1051.463708,-9474.636058,-296.082377,995.924147
1051.464028,-9622.677246,-296.082377,1302.362347
1051.464349,-9474.636058,-296.082377,1455.581446
1051.464670,-9548.656652,0.000000,1225.752797
1051.464991,-9548.656652,0.000000,1302.362347
1051.465311,-9548.656652,-148.041188,1072.533697
1051.465632,-9770.718434,-296.082377,995.924147
1051.465953,-9844.739029,-518.144159,1685.410096
1051.466274,-9548.656652,-296.082377,995.924147
1051.466594,-9622.677246,-370.102971,1072.533697
1051.466915,-9474.636058,-592.164754,1378.971896
1051.467236,-9622.677246,-888.247130,612.876398
1051.467557,-9696.697840,-370.102971,995.924147
1051.467877,-9474.636058,-296.082377,612.876398
1051.468198,-9622.677246,-370.102971,995.924147
1051.468519,-9622.677246,-370.102971,842.705048
1051.468840,-9252.574275,-444.123565,1302.362347
1051.469160,-9770.718434,-370.102971,1378.971896
1051.469481,-9474.636058,-444.123565,995.924147
1051.469802,-9474.636058,-370.102971,766.095498
1051.470123,-9622.677246,74.020594,1072.533697
1051.470443,-9696.697840,0.000000,1072.533697
1051.470764,-9548.656652,-148.041188,919.314598
1051.471085,-9548.656652,-222.061783,842.705048
1051.471406,-9474.636058,-518.144159,842.705048
1051.471726,-9622.677246,-518.144159,1149.143247
1051.472047,-9622.677246,-370.102971,1149.143247
1051.472368,-9770.718434,-296.082377,1149.143247
1051.472688,-9770.718434,-296.082377,1225.752797
1051.473009,-9548.656652,-296.082377,229.828649
1051.473330,-9474.636058,-592.164754,1532.190996
1051.473651,-9548.656652,-296.082377,1149.143247
1051.473971,-9474.636058,-74.020594,1225.752797
1051.474292,-9326.594869,-444.123565,995.924147
1051.474613,-9326.594869,-592.164754,536.266849
1051.474934,-9548.656652,-370.102971,1149.143247
1051.475254,-9622.677246,-370.102971,1149.143247
1051.475575,-9770.718434,-444.123565,1225.752797
1051.475896,-9548.656652,-370.102971,1302.362347
1051.476217,-9696.697840,-444.123565,995.924147
1051.476537,-9622.677246,-296.082377,995.924147
1051.476858,-9770.718434,-148.041188,1072.533697
1051.477179,-9622.677246,-148.041188,1225.752797
1051.477500,-9696.697840,0.000000,1302.362347
1051.477820,-9622.677246,-296.082377,1149.143247
1051.478141,-9474.636058,-296.082377,919.314598
1051.478462,-9622.677246,-370.102971,842.705048
1051.478783,-8956.491898,518.144159,2145.067394
1051.479103,-9622.677246,0.000000,919.314598
1051.479424,-9770.718434,0.000000,1225.752797
1051.479745,-9622.677246,0.000000,995.924147
1051.480066,-9622.677246,-518.144159,995.924147
1051.480386,-9696.697840,-370.102971,766.095498
1051.480706,-9474.636058,-222.061783,995.924147
1051.481027,-9548.656652,-296.082377,1149.143247
1051.481348,-9474.636058,-148.041188,919.314598
1051.481669,-9770.718434,-296.082377,1302.362347
1051.481989,-9474.636058,-444.123565,995.924147
1051.482310,-9622.677246,-444.123565,1072.533697
1051.482631,-9696.697840,-222.061783,995.924147
1051.482952,-9474.636058,0.000000,919.314598
1051.483273,-9474.636058,0.000000,919.314598
1051.483593,-9474.636058,-592.164754,766.095498
1051.483914,-10436.903782,148.041188,995.924147
1051.484235,-9696.697840,-222.061783,1149.143247
1051.484556,-9622.677246,-148.041188,919.314598
1051.484876,-9696.697840,0.000000,1072.533697
1051.485197,-9770.718434,0.000000,1072.533697
1051.485518,-9770.718434,0.000000,766.095498
1051.485839,-9696.697840,-222.061783,2298.286494
1051.486160,-9548.656652,-296.082377,1378.971896
1051.486480,-9474.636058,-518.144159,995.924147
1051.486801,-9474.636058,-296.082377,1302.362347
1051.487122,-9474.636058,-592.164754,842.705048
1051.487443,-9400.615463,-518.144159,1302.362347
1051.487764,-9474.636058,-444.123565,919.314598
1051.488084,-9548.656652,-370.102971,1378.971896
1051.488405,-9770.718434,-222.061783,1455.581446
1051.488726,-9622.677246,0.000000,153.219100
1051.489047,-9622.677246,-370.102971,1072.533697
1051.489367,-9622.677246,-222.061783,766.095498
1051.489688,-9622.677246,-296.082377,995.924147
1051.490009,-9548.656652,-370.102971,383.047749
1051.490330,-9474.636058,-370.102971,919.314598
1051.490651,-9474.636058,-148.041188,766.095498
1051.490971,-9622.677246,-444.123565,766.095498
1051.491292,-9622.677246,-370.102971,1149.143247
1051.491613,-9548.656652,-518.144159,1378.971896
1051.491934,-9474.636058,-444.123565,995.924147
1051.492254,-9696.697840,-296.082377,995.924147
1051.492575,-9696.697840,-370.102971,1225.752797
1051.492896,-9844.739029,148.041188,383.047749
1051.493217,-9474.636058,-370.102971,1072.533697
1051.493538,-9770.718434,-518.144159,842.705048
1051.493858,-9548.656652,-296.082377,1072.533697
1051.494179,-9770.718434,-148.041188,919.314598
1051.494500,-9622.677246,-370.102971,995.924147
1051.494821,-9622.677246,-296.082377,919.314598
1051.495141,-9548.656652,-592.164754,995.924147
1051.495462,-9548.656652,-518.144159,995.924147
1051.495783,-9400.615463,-148.041188,1302.362347
1051.496104,-9622.677246,-444.123565,1149.143247
1051.496425,-9696.697840,-296.082377,1072.533697
1051.496745,-9622.677246,-518.144159,1072.533697
1051.497066,-9178.553681,-444.123565,612.876398
1051.497387,-9474.636058,-296.082377,1072.533697
1051.497708,-9548.656652,-518.144159,1455.581446
1051.498028,-9622.677246,-666.185348,1225.752797
1051.498349,-9770.718434,-296.082377,1302.362347
1051.498670,-9770.718434,0.000000,1302.362347
1051.498991,-9474.636058,-296.082377,1302.362347
1051.499312,-9474.636058,-296.082377,1378.971896
1051.499632,-9548.656652,-296.082377,919.314598
1051.499953,-9696.697840,-444.123565,919.314598
1051.500274,-9548.656652,-370.102971,995.924147
1051.500595,-9548.656652,-296.082377,1302.362347
1051.500915,-9770.718434,-222.061783,1302.362347
1051.501236,-9770.718434,-296.082377,383.047749
1051.501557,-9918.759623,-148.041188,919.314598
1051.501878,-9474.636058,0.000000,842.705048
1051.502199,-9844.739029,0.000000,919.314598
1051.502519,-9548.656652,0.000000,919.314598
1051.502840,-9622.677246,0.000000,1072.533697
1051.503161,-9696.697840,-296.082377,1072.533697
1051.503482,-9326.594869,-222.061783,612.876398
1051.503802,-9622.677246,-370.102971,1072.533697
1051.504123,-9030.512492,-1110.308913,1455.581446
1051.504444,-9474.636058,-444.123565,1149.143247
1051.504765,-9548.656652,-518.144159,1302.362347
1051.505086,-9474.636058,-370.102971,1225.752797
1051.505406,-9400.615463,-148.041188,383.047749
1051.505727,-9474.636058,-592.164754,1149.143247
1051.506048,-9474.636058,-444.123565,995.924147
1051.506369,-9622.677246,0.000000,995.924147
1051.506689,-9548.656652,-444.123565,1149.143247
1051.507010,-9622.677246,-74.020594,995.924147
1051.507331,-9622.677246,0.000000,919.314598
1051.507652,-9622.677246,148.041188,1072.533697
1051.507973,-9770.718434,-296.082377,919.314598
1051.508293,-9474.636058,0.000000,1302.362347
1051.508614,-9548.656652,-370.102971,995.924147
1051.508935,-9622.677246,-444.123565,1225.752797
1051.509256,-9696.697840,-370.102971,1225.752797
1051.509576,-9400.615463,-740.205942,612.876398
1051.509897,-9474.636058,-444.123565,919.314598
1051.510218,-9474.636058,-592.164754,1225.752797
1051.510539,-9474.636058,-222.061783,1149.143247
1051.510860,-9548.656652,-444.123565,919.314598
1051.511180,-9474.636058,-518.144159,842.705048
1051.511501,-9696.697840,-370.102971,842.705048
1051.511822,-9622.677246,-148.041188,1072.533697
1051.512143,-9770.718434,-296.082377,919.314598
1051.512463,-10066.800811,0.000000,689.485948
1051.512784,-9548.656652,-222.061783,919.314598
1051.513105,-9696.697840,-370.102971,1072.533697
1051.513426,-9696.697840,-592.164754,919.314598
1051.513747,-9474.636058,74.020594,1532.190996
1051.514067,-9844.739029,-370.102971,1302.362347
1051.514388,-9548.656652,-444.123565,1225.752797
1051.514709,-9696.697840,-222.061783,1072.533697
1051.515030,-9400.615463,-592.164754,1302.362347
1051.515350,-9474.636058,-592.164754,766.095498
1051.515671,-9474.636058,-444.123565,842.705048
1051.515992,-9622.677246,-222.061783,919.314598
1051.516313,-9474.636058,-222.061783,1072.533697
1051.516634,-9548.656652,370.102971,1455.581446
1051.516954,-9622.677246,-148.041188,1072.533697
1051.517275,-9622.677246,0.000000,995.924147
1051.517596,-9622.677246,-222.061783,1072.533697
1051.517917,-9992.780217,-222.061783,2145.067394
1051.518237,-9622.677246,-370.102971,1149.143247
1051.518558,-9474.636058,-666.185348,995.924147
1051.518879,-9548.656652,-518.144159,1072.533697
1051.519200,-9326.594869,-370.102971,1072.533697
1051.519521,-9622.677246,-518.144159,1225.752797
1051.519841,-9474.636058,-592.164754,1302.362347
1051.520162,-9622.677246,-444.123565,1149.143247
1051.520483,-9474.636058,-518.144159,689.485948
1051.520804,-8956.491898,-814.226536,1072.533697
1051.521124,-9770.718434,-222.061783,1378.971896
1051.521445,-9770.718434,0.000000,1225.752797
1051.521766,-9844.739029,0.000000,919.314598
1051.522087,-9992.780217,0.000000,919.314598
1051.522408,-9696.697840,-148.041188,1225.752797
1051.522728,-9696.697840,0.000000,1455.581446
1051.523049,-9474.636058,-370.102971,1302.362347
1051.523370,-9474.636058,-222.061783,919.314598
1051.523691,-9622.677246,-592.164754,1149.143247
1051.524011,-9474.636058,-592.164754,1149.143247
1051.524332,-9918.759623,-518.144159,919.314598
1051.524653,-9474.636058,-666.185348,1149.143247
1051.524974,-9474.636058,-592.164754,1225.752797
1051.525295,-9548.656652,-444.123565,919.314598
1051.525615,-9548.656652,-148.041188,919.314598
1051.525936,-9770.718434,-222.061783,1072.533697
1051.526257,-9622.677246,-296.082377,459.657299
1051.526578,-9622.677246,0.000000,1225.752797
1051.526899,-9548.656652,-296.082377,995.924147
1051.527219,-9622.677246,-222.061783,842.705048
1051.527540,-9696.697840,-74.020594,1225.752797
1051.527861,-9696.697840,-74.020594,1455.581446
1051.528182,-9474.636058,-592.164754,1378.971896
1051.528502,-9474.636058,-518.144159,1072.533697
1051.528823,-9622.677246,-518.144159,766.095498
1051.529144,-9474.636058,-222.061783,1915.238745
1051.529465,-9474.636058,-222.061783,919.314598
1051.529786,-9548.656652,-148.041188,1225.752797
1051.530106,-9548.656652,-296.082377,995.924147
1051.530427,-9770.718434,-370.102971,995.924147
1051.530748,-9622.677246,-74.020594,1225.752797
1051.531069,-9622.677246,-296.082377,1225.752797
1051.531389,-9696.697840,-296.082377,1302.362347
1051.531710,-9548.656652,-370.102971,1149.143247
1051.532031,-9474.636058,-222.061783,459.657299
1051.532352,-9844.739029,-148.041188,919.314598
1051.532673,-9622.677246,0.000000,1149.143247
1051.532993,-9548.656652,-444.123565,1302.362347
1051.533314,-9770.718434,0.000000,459.657299
1051.533635,-9548.656652,-444.123565,919.314598
1051.533956,-9622.677246,-444.123565,919.314598
1051.534276,-9622.677246,-296.082377,1225.752797
1051.534597,-9622.677246,-740.205942,919.314598
1051.534918,-9622.677246,-222.061783,1455.581446
1051.535239,-9622.677246,-370.102971,919.314598
1051.535560,-9548.656652,-148.041188,1225.752797
1051.535880,-9696.697840,0.000000,1072.533697
1051.536201,-9474.636058,0.000000,1455.581446
1051.536522,-9696.697840,-296.082377,919.314598
1051.536843,-9474.636058,-370.102971,919.314598
1051.537163,-9622.677246,-222.061783,919.314598
1051.537484,-9474.636058,-518.144159,995.924147
1051.537805,-9474.636058,-444.123565,919.314598
1051.538126,-9474.636058,-518.144159,766.095498
1051.538447,-9548.656652,-148.041188,1149.143247
1051.538767,-9474.636058,-444.123565,0.000000
1051.539088,-9548.656652,-296.082377,1072.533697
1051.539409,-9474.636058,-370.102971,919.314598
1051.539730,-9548.656652,-444.123565,842.705048
1051.540050,-9696.697840,-222.061783,1072.533697
1051.540371,-9844.739029,0.000000,1302.362347
1051.540692,-9548.656652,-370.102971,1072.533697
1051.541013,-9474.636058,-370.102971,919.314598
1051.541334,-9474.636058,-370.102971,919.314598
1051.541654,-9474.636058,-518.144159,612.876398
1051.541975,-9548.656652,-518.144159,1072.533697
1051.542296,-9548.656652,-296.082377,1149.143247
1051.542617,-9548.656652,-296.082377,995.924147
1051.542937,-9622.677246,-296.082377,383.047749
1051.543258,-9548.656652,-296.082377,1149.143247
1051.543579,-9696.697840,-370.102971,1225.752797
1051.543900,-9622.677246,-518.144159,1149.143247
1051.544221,-9474.636058,-222.061783,995.924147
1051.544541,-9622.677246,-296.082377,1149.143247
1051.544862,-9548.656652,-222.061783,995.924147
1051.545183,-9474.636058,0.000000,1072.533697
1051.545504,-9622.677246,-296.082377,1149.143247
1051.545824,-9622.677246,-370.102971,919.314598
1051.546145,-9770.718434,-444.123565,842.705048
1051.546466,-9548.656652,-592.164754,1072.533697
1051.546787,-9474.636058,-592.164754,1072.533697
1051.547108,-9474.636058,-296.082377,1225.752797
1051.547428,-9178.553681,-370.102971,1072.533697
1051.547749,-9326.594869,-518.144159,1225.752797
1051.548070,-9548.656652,-296.082377,995.924147
1051.548391,-9696.697840,-148.041188,1302.362347
1051.548711,-9474.636058,-370.102971,1532.190996
1051.549032,-9622.677246,0.000000,1149.143247
1051.549353,-9548.656652,-148.041188,842.705048
1051.549674,-9474.636058,-148.041188,1149.143247
1051.549995,-9696.697840,-148.041188,536.266849
1051.550315,-9770.718434,74.020594,689.485948
1051.550636,-9696.697840,-74.020594,1072.533697
1051.550957,-9474.636058,-296.082377,1302.362347
1051.551278,-9918.759623,-296.082377,1149.143247
1051.551598,-9178.553681,296.082377,919.314598
1051.551919,-9696.697840,-592.164754,1225.752797
1051.552240,-9474.636058,-296.082377,1302.362347
1051.552561,-9548.656652,-666.185348,919.314598
1051.552882,-9474.636058,-666.185348,1225.752797
1051.553202,-8734.430116,-370.102971,459.657299
1051.553523,-9474.636058,-296.082377,1149.143247
1051.553844,-9474.636058,-518.144159,1149.143247
1051.554165,-9474.636058,0.000000,766.095498
1051.554485,-9622.677246,0.000000,1072.533697
1051.554806,-9918.759623,0.000000,1149.143247
1051.555127,-9622.677246,-74.020594,919.314598
1051.555448,-9474.636058,-518.144159,842.705048
1051.555769,-9474.636058,-148.041188,919.314598
1051.556089,-9770.718434,-222.061783,842.705048
1051.556410,-9622.677246,-370.102971,1378.971896
1051.556731,-9474.636058,-296.082377,995.924147
1051.557052,-9548.656652,-740.205942,842.705048
1051.557372,-10066.800811,-444.123565,1608.800546
1051.557693,-9696.697840,-444.123565,1149.143247
1051.558014,-9474.636058,-370.102971,919.314598
1051.558335,-9474.636058,-370.102971,766.095498
1051.558656,-9474.636058,-296.082377,995.924147
1051.558976,-9474.636058,-518.144159,1225.752797
1051.559297,-9548.656652,-370.102971,1149.143247
1051.559618,-9622.677246,-296.082377,1072.533697
1051.559939,-9474.636058,-296.082377,766.095498
1051.560259,-9770.718434,-296.082377,1455.581446
1051.560580,-9548.656652,-148.041188,1225.752797
1051.560901,-9474.636058,-148.041188,919.314598
1051.561222,-9622.677246,-222.061783,919.314598
1051.561543,-9104.533087,0.000000,1455.581446
1051.561863,-9622.677246,0.000000,1378.971896
1051.562184,-9770.718434,-222.061783,1532.190996
1051.562505,-9770.718434,-370.102971,1072.533697
1051.562826,-9474.636058,-592.164754,1072.533697
1051.563146,-9622.677246,-518.144159,1072.533697
1051.563467,-9992.780217,-444.123565,1149.143247
1051.563788,-9770.718434,-518.144159,1072.533697
1051.564109,-9548.656652,-518.144159,995.924147
1051.564430,-9474.636058,-592.164754,306.438199
1051.564750,-9474.636058,0.000000,919.314598
1051.565071,-9622.677246,-148.041188,995.924147
1051.565392,-9696.697840,-222.061783,842.705048
1051.565713,-9992.780217,-666.185348,-306.438199
1051.566033,-9622.677246,-222.061783,689.485948
1051.566354,-9696.697840,-222.061783,1225.752797
1051.566675,-9548.656652,-370.102971,1685.410096
1051.566996,-9548.656652,-296.082377,1149.143247
1051.567317,-9474.636058,-666.185348,842.705048
1051.567637,-9474.636058,-296.082377,1149.143247
1051.567958,-9548.656652,-296.082377,1149.143247
1051.568279,-9622.677246,-444.123565,1378.971896
1051.568600,-9622.677246,0.000000,1608.800546
1051.568921,-9622.677246,-444.123565,1302.362347
1051.569241,-9474.636058,-370.102971,995.924147
1051.569562,-9696.697840,-148.041188,1225.752797
1051.569883,-9400.615463,592.164754,1072.533697
1051.570204,-9548.656652,-296.082377,1149.143247
1051.570524,-9474.636058,-592.164754,612.876398
1051.570845,-9696.697840,-148.041188,842.705048
1051.571166,-9770.718434,-222.061783,1225.752797
1051.571487,-9548.656652,-370.102971,842.705048
1051.571808,-9548.656652,-592.164754,1149.143247
1051.572128,-9474.636058,-444.123565,842.705048
1051.572449,-9474.636058,-222.061783,766.095498
1051.572770,-10066.800811,-518.144159,1149.143247
1051.573091,-9474.636058,-296.082377,1072.533697
1051.573411,-9696.697840,-592.164754,536.266849
1051.573732,-9474.636058,-222.061783,1149.143247
1051.574053,-9770.718434,-592.164754,1302.362347
1051.574374,-9770.718434,-222.061783,1225.752797
1051.574695,-9622.677246,-148.041188,1455.581446
1051.575015,-9548.656652,-444.123565,1149.143247
1051.575336,-9474.636058,-444.123565,1072.533697
1051.575657,-9548.656652,-296.082377,919.314598
1051.575978,-9918.759623,-370.102971,1149.143247
1051.576298,-9548.656652,-518.144159,1072.533697
1051.576619,-9474.636058,-148.041188,1225.752797
1051.576940,-9844.739029,74.020594,1455.581446
1051.577261,-9474.636058,-370.102971,1149.143247
1051.577582,-9770.718434,-222.061783,1149.143247
1051.577902,-9622.677246,-222.061783,1302.362347
1051.578223,-9474.636058,962.267725,3600.648841
1051.578544,-9696.697840,0.000000,1302.362347
1051.578865,-9474.636058,-592.164754,1072.533697
1051.579185,-9770.718434,-370.102971,1225.752797
1051.579506,-9622.677246,-296.082377,1302.362347
1051.579827,-9474.636058,-518.144159,1455.581446
1051.580148,-9548.656652,-666.185348,1149.143247
1051.580469,-9548.656652,-518.144159,995.924147
1051.580789,-9548.656652,-518.144159,919.314598
1051.581110,-9992.780217,-296.082377,995.924147
1051.581431,-9474.636058,-740.205942,1072.533697
1051.581752,-9400.615463,-74.020594,1072.533697
1051.582072,-9548.656652,-222.061783,766.095498
1051.582393,-9548.656652,0.000000,1149.143247
1051.582714,-9474.636058,-222.061783,995.924147
1051.583035,-9474.636058,-370.102971,919.314598
1051.583356,-9622.677246,-222.061783,689.485948
1051.583676,-9548.656652,-370.102971,1149.143247
1051.583997,-9770.718434,-296.082377,1532.190996
1051.584318,-9548.656652,-222.061783,1378.971896
1051.584639,-9548.656652,-444.123565,1991.848295
1051.584959,-9622.677246,-740.205942,995.924147
1051.585280,-9030.512492,-444.123565,1149.143247
1051.585601,-9622.677246,-370.102971,919.314598
1051.585922,-9844.739029,0.000000,1302.362347
1051.586243,-9474.636058,-148.041188,766.095498
1051.586563,-9400.615463,222.061783,689.485948
1051.586884,-9474.636058,-444.123565,1149.143247
1051.587205,-9474.636058,-74.020594,1149.143247
1051.587526,-9548.656652,-222.061783,1072.533697
1051.587846,-9622.677246,-222.061783,995.924147
1051.588167,-9326.594869,-666.185348,919.314598
1051.588488,-9474.636058,-518.144159,995.924147
1051.588809,-9474.636058,-666.185348,1072.533697
1051.589130,-9548.656652,-370.102971,1072.533697
1051.589450,-10214.842000,-74.020594,919.314598
1051.589771,-9548.656652,-444.123565,1072.533697
1051.590092,-9696.697840,-444.123565,1149.143247
1051.590413,-9622.677246,-222.061783,1225.752797
1051.590733,-9844.739029,0.000000,1225.752797
1051.591054,-9474.636058,-370.102971,1532.190996
1051.591375,-9474.636058,-370.102971,1072.533697
1051.591696,-9474.636058,-148.041188,1302.362347
1051.592017,-9622.677246,-444.123565,1455.581446
1051.592337,-9548.656652,-296.082377,919.314598
1051.592658,-9474.636058,-592.164754,1149.143247
1051.592979,-9474.636058,-518.144159,689.485948
1051.593300,-9622.677246,-296.082377,1072.533697
1051.593620,-9474.636058,-222.061783,1149.143247
1051.593941,-9696.697840,-370.102971,1302.362347
1051.594262,-9844.739029,-370.102971,1149.143247
1051.594583,-9474.636058,-740.205942,1225.752797
1051.594904,-9696.697840,-444.123565,76.609550
1051.595224,-9622.677246,-592.164754,995.924147
1051.595545,-9474.636058,-518.144159,1149.143247
1051.595866,-9770.718434,-148.041188,995.924147
1051.596187,-9474.636058,-296.082377,766.095498
1051.596507,-9474.636058,0.000000,1149.143247
1051.596828,-9622.677246,-148.041188,919.314598
1051.597149,-9548.656652,-148.041188,842.705048
1051.597470,-9770.718434,-296.082377,1072.533697
1051.597791,-8956.491898,74.020594,919.314598
1051.598111,-9548.656652,-370.102971,995.924147
1051.598432,-9770.718434,-444.123565,1149.143247
1051.598753,-9770.718434,-222.061783,1225.752797
1051.599074,-9622.677246,296.082377,2528.115143
1051.599394,-9696.697840,-592.164754,536.266849
1051.599715,-9326.594869,-370.102971,689.485948
1051.600036,-9696.697840,-370.102971,1149.143247
1051.600357,-9474.636058,-518.144159,1072.533697
1051.600678,-9474.636058,148.041188,842.705048
1051.600998,-9474.636058,-518.144159,995.924147
1051.601319,-9474.636058,-222.061783,995.924147
1051.601640,-9770.718434,-222.061783,1225.752797
1051.601961,-10066.800811,222.061783,1149.143247
1051.602281,-9844.739029,-222.061783,766.095498
1051.602602,-9770.718434,-518.144159,842.705048
1051.602923,-9622.677246,-222.061783,536.266849
1051.603244,-9622.677246,148.041188,1149.143247
1051.603565,-9400.615463,-296.082377,1225.752797
1051.603885,-9474.636058,-296.082377,919.314598
1051.604206,-9474.636058,-296.082377,919.314598
1051.604527,-9474.636058,-444.123565,919.314598
1051.604848,-9474.636058,0.000000,612.876398
1051.605168,-9474.636058,-370.102971,1455.581446
1051.605489,-9622.677246,-370.102971,1225.752797
1051.605810,-9474.636058,-222.061783,995.924147
1051.606131,-9696.697840,-518.144159,766.095498
1051.606451,-9622.677246,-370.102971,919.314598
1051.606772,-9474.636058,-444.123565,1225.752797
1051.607093,-9548.656652,-370.102971,842.705048
1051.607414,-9548.656652,0.000000,-536.266849
1051.607735,-9548.656652,0.000000,1225.752797
1051.608055,-9770.718434,-148.041188,1072.533697
1051.608376,-9622.677246,-444.123565,1302.362347
1051.608697,-9252.574275,-296.082377,766.095498
1051.609018,-9474.636058,-518.144159,1149.143247
1051.609338,-9474.636058,-296.082377,842.705048
1051.609659,-9696.697840,-222.061783,1072.533697
1051.609980,-9548.656652,-296.082377,1378.971896
1051.610301,-8956.491898,-888.247130,1532.190996
1051.610622,-9622.677246,-222.061783,1378.971896
1051.610942,-9770.718434,-296.082377,1455.581446
1051.611263,-9770.718434,-370.102971,1608.800546
1051.611584,-9474.636058,-148.041188,229.828649
1051.611905,-9400.615463,-444.123565,842.705048
1051.612225,-9622.677246,-222.061783,995.924147
1051.612546,-9548.656652,-148.041188,995.924147
1051.612867,-9474.636058,-370.102971,919.314598
1051.613188,-9474.636058,-370.102971,229.828649
1051.613509,-9474.636058,-444.123565,766.095498
1051.613829,-9844.739029,-296.082377,1378.971896
1051.614150,-9770.718434,0.000000,1149.143247
1051.614471,-10436.903782,-222.061783,995.924147
1051.614792,-9622.677246,-296.082377,995.924147
1051.615112,-9770.718434,-518.144159,995.924147
1051.615433,-9844.739029,-296.082377,1302.362347
1051.615754,-9548.656652,-296.082377,3140.991542
1051.616075,-9622.677246,-74.020594,1302.362347
1051.616396,-9474.636058,-370.102971,995.924147
1051.616716,-9474.636058,-592.164754,919.314598
1051.617037,-9622.677246,-518.144159,1149.143247
1051.617358,-9252.574275,-888.247130,766.095498
1051.617679,-9696.697840,-296.082377,1225.752797
1051.617999,-9474.636058,-296.082377,1072.533697
1051.618320,-9696.697840,-222.061783,1149.143247
1051.618641,-10732.986159,148.041188,995.924147
1051.618962,-9622.677246,-370.102971,995.924147
1051.619283,-9474.636058,-296.082377,1072.533697
1051.619603,-9474.636058,-444.123565,842.705048
1051.619924,-9622.677246,-148.041188,919.314598
1051.620245,-9474.636058,-148.041188,842.705048
1051.620566,-9548.656652,-222.061783,919.314598
1051.620886,-9474.636058,-222.061783,1072.533697
1051.621207,-9696.697840,-222.061783,995.924147
1051.621528,-9030.512492,-444.123565,919.314598
1051.621849,-9622.677246,-518.144159,842.705048
1051.622170,-9474.636058,-444.123565,1225.752797
1051.622490,-9622.677246,-518.144159,1225.752797
1051.622811,-9548.656652,-518.144159,919.314598
1051.623132,-9474.636058,-518.144159,1455.581446
1051.623453,-9548.656652,-74.020594,1225.752797
1051.623773,-9474.636058,-296.082377,1378.971896
1051.624094,-9326.594869,-444.123565,1072.533697
1051.624415,-9252.574275,-518.144159,1455.581446
1051.624736,-9474.636058,-296.082377,1225.752797
1051.625057,-9548.656652,-148.041188,1072.533697
1051.625377,-9474.636058,-370.102971,766.095498
1051.625698,-9252.574275,148.041188,-459.657299
1051.626019,-9696.697840,-222.061783,1378.971896
1051.626340,-9622.677246,-222.061783,1072.533697
1051.626660,-9548.656652,-74.020594,1225.752797
1051.626981,-9696.697840,-222.061783,1455.581446
1051.627302,-9474.636058,-370.102971,1378.971896
1051.627623,-9548.656652,-370.102971,1225.752797
1051.627944,-9622.677246,-370.102971,689.485948
1051.628264,-9474.636058,-296.082377,1149.143247
1051.628585,-9104.533087,-518.144159,842.705048
1051.628906,-9548.656652,-370.102971,1149.143247
1051.629227,-9400.615463,-296.082377,1149.143247
1051.629547,-9770.718434,-222.061783,995.924147
1051.629868,-9770.718434,74.020594,1072.533697
1051.630189,-9770.718434,-518.144159,1302.362347
1051.630510,-9696.697840,-518.144159,1225.752797
1051.630831,-9548.656652,-518.144159,1072.533697
1051.631151,-9770.718434,-370.102971,1149.143247
1051.631472,-9548.656652,-148.041188,1225.752797
1051.631793,-9622.677246,-222.061783,1072.533697
1051.632114,-9474.636058,-148.041188,842.705048
1051.632434,-9622.677246,0.000000,919.314598
1051.632755,-9548.656652,-370.102971,995.924147
1051.633076,-9474.636058,-518.144159,1072.533697
1051.633397,-9474.636058,-888.247130,612.876398
1051.633718,-9474.636058,-444.123565,612.876398
1051.634038,-8586.388927,-740.205942,383.047749
1051.634359,-9844.739029,-370.102971,919.314598
1051.634680,-9400.615463,-518.144159,1072.533697
1051.635001,-9844.739029,-518.144159,1149.143247
1051.635321,-9696.697840,-148.041188,1302.362347
1051.635642,-9474.636058,-370.102971,1302.362347
1051.635963,-9622.677246,-444.123565,1225.752797
1051.636284,-9474.636058,-444.123565,1072.533697
1051.636605,-9474.636058,-518.144159,1149.143247
1051.636925,-9178.553681,-444.123565,1302.362347
1051.637246,-9474.636058,0.000000,995.924147
1051.637567,-9400.615463,-296.082377,1225.752797
1051.637888,-9474.636058,-296.082377,1072.533697
1051.638208,-9178.553681,222.061783,1378.971896
1051.638529,-9622.677246,-222.061783,1149.143247
1051.638850,-9770.718434,-370.102971,1225.752797
1051.639171,-9622.677246,-370.102971,1225.752797
1051.639492,-9622.677246,-296.082377,1149.143247
1051.639812,-9770.718434,-222.061783,1149.143247
1051.640133,-9622.677246,-74.020594,1149.143247
1051.640454,-9770.718434,-296.082377,1302.362347
1051.640775,-9622.677246,-444.123565,1225.752797
1051.641095,-9548.656652,-370.102971,995.924147
1051.641416,-9622.677246,-444.123565,1072.533697
1051.641737,-9622.677246,-444.123565,1072.533697
1051.642058,-9474.636058,-444.123565,1225.752797
1051.642379,-9474.636058,-814.226536,1532.190996
1051.642699,-9474.636058,-814.226536,842.705048
1051.643020,-9696.697840,-296.082377,919.314598
1051.643341,-9474.636058,-296.082377,1072.533697
1051.643662,-9548.656652,0.000000,1149.143247
1051.643982,-9548.656652,0.000000,919.314598
1051.644303,-9548.656652,-296.082377,842.705048
1051.644624,-9548.656652,-222.061783,1072.533697
1051.644945,-9474.636058,0.000000,919.314598
1051.645266,-9770.718434,-148.041188,1225.752797
1051.645586,-9548.656652,-222.061783,995.924147
1051.645907,-9326.594869,-148.041188,995.924147
1051.646228,-9548.656652,-518.144159,995.924147
1051.646549,-9992.780217,296.082377,995.924147
1051.646869,-9474.636058,-740.205942,1378.971896
1051.647190,-9474.636058,-592.164754,1302.362347
1051.647511,-9548.656652,-518.144159,1302.362347
1051.647832,-9622.677246,-592.164754,1455.581446
1051.648153,-9622.677246,0.000000,842.705048
1051.648473,-9474.636058,0.000000,842.705048
1051.648794,-9622.677246,0.000000,995.924147
1051.649115,-9770.718434,0.000000,842.705048
1051.649436,-9178.553681,-518.144159,1302.362347
1051.649756,-9474.636058,-222.061783,995.924147
1051.650077,-9622.677246,-148.041188,919.314598
1051.650398,-9696.697840,-370.102971,1149.143247
1051.650719,-9622.677246,-518.144159,-153.219100
1051.651040,-9548.656652,-444.123565,995.924147
1051.651360,-9622.677246,-592.164754,842.705048
1051.651681,-9474.636058,-592.164754,1455.581446
1051.652002,-9622.677246,-518.144159,1378.971896
1051.652323,-9622.677246,-296.082377,766.095498
1051.652643,-9474.636058,-74.020594,919.314598
1051.652964,-9548.656652,-296.082377,1225.752797
1051.653285,-9474.636058,-296.082377,919.314598
1051.653606,-9474.636058,-222.061783,995.924147
1051.653927,-9548.656652,-444.123565,766.095498
1051.654247,-9548.656652,-148.041188,1149.143247
1051.654568,-9622.677246,-296.082377,1302.362347
1051.654889,-9474.636058,0.000000,1072.533697
1051.655210,-9696.697840,-296.082377,1149.143247
1051.655530,-9474.636058,-592.164754,1149.143247
1051.655851,-9622.677246,-518.144159,995.924147
1051.656172,-9548.656652,-592.164754,2145.067394
1051.656493,-9474.636058,-222.061783,995.924147
1051.656814,-9474.636058,-222.061783,919.314598
1051.657134,-9474.636058,-222.061783,1225.752797
1051.657455,-9548.656652,-222.061783,1532.190996
1051.657776,-9548.656652,-444.123565,1608.800546
1051.658097,-9622.677246,-518.144159,1072.533697
1051.658417,-9548.656652,-444.123565,1378.971896
1051.658738,-9474.636058,-296.082377,1149.143247
1051.659059,-8956.491898,0.000000,995.924147
1051.659380,-9770.718434,0.000000,995.924147
1051.659701,-9548.656652,-296.082377,1072.533697
1051.660021,-9548.656652,-296.082377,919.314598
1051.660342,-9474.636058,-296.082377,1302.362347
1051.660663,-9400.615463,-296.082377,1072.533697
1051.660984,-9474.636058,-518.144159,1149.143247
1051.661304,-9474.636058,-296.082377,1302.362347
1051.661625,-9474.636058,-518.144159,1302.362347
1051.661946,-9474.636058,-222.061783,689.485948
1051.662267,-9474.636058,-370.102971,919.314598
1051.662587,-9696.697840,-370.102971,919.314598
1051.662908,-9622.677246,-222.061783,1149.143247
1051.663229,-9548.656652,0.000000,995.924147
1051.663550,-9622.677246,-296.082377,1149.143247
1051.663871,-9622.677246,-370.102971,766.095498
1051.664191,-9696.697840,-222.061783,766.095498
1051.664512,-9770.718434,0.000000,3217.601092
1051.664833,-9622.677246,-296.082377,1378.971896
1051.665154,-9548.656652,-444.123565,1378.971896
1051.665474,-9548.656652,-296.082377,1072.533697
1051.665795,-9548.656652,-592.164754,919.314598
1051.666116,-9400.615463,-518.144159,1378.971896
1051.666437,-9548.656652,-370.102971,1149.143247
1051.666758,-9622.677246,-296.082377,1149.143247
1051.667078,-9400.615463,-444.123565,995.924147
1051.667399,-9622.677246,0.000000,3370.820191
1051.667720,-9622.677246,-148.041188,1302.362347
1051.668041,-9622.677246,-148.041188,842.705048
1051.668361,-9770.718434,-296.082377,1302.362347
1051.668682,-9696.697840,-148.041188,1149.143247
1051.669003,-9622.677246,0.000000,1072.533697
1051.669324,-9696.697840,-370.102971,1149.143247
1051.669645,-9474.636058,-148.041188,1302.362347
1051.669965,-9474.636058,-444.123565,1225.752797
1051.670286,-9622.677246,-592.164754,1532.190996
1051.670607,-9770.718434,-518.144159,1378.971896
1051.670928,-9548.656652,-518.144159,919.314598
1051.671248,-9474.636058,-592.164754,1225.752797
1051.671569,-8808.450710,0.000000,1455.581446
1051.671890,-9474.636058,-518.144159,1302.362347
1051.672211,-9622.677246,-222.061783,1072.533697
1051.672532,-9696.697840,0.000000,995.924147
1051.672852,-9696.697840,370.102971,842.705048
1051.673173,-9844.739029,0.000000,1302.362347
1051.673494,-9548.656652,-222.061783,995.924147
1051.673815,-9622.677246,-222.061783,1072.533697
1051.674135,-9548.656652,-222.061783,919.314598
1051.674456,-9474.636058,-444.123565,995.924147
1051.674777,-9474.636058,-518.144159,919.314598
1051.675098,-9474.636058,-814.226536,919.314598
1051.675419,-9474.636058,-592.164754,689.485948
1051.675739,-8808.450710,-370.102971,1225.752797
1051.676060,-9622.677246,-296.082377,1072.533697
1051.676381,-9622.677246,-222.061783,1225.752797
1051.676702,-9622.677246,-148.041188,1149.143247
1051.677022,-9474.636058,0.000000,0.000000
1051.677343,-9770.718434,0.000000,919.314598
1051.677664,-9474.636058,-296.082377,1302.362347
1051.677985,-9622.677246,-296.082377,1072.533697
1051.678306,-9622.677246,-296.082377,842.705048
1051.678626,-9400.615463,-148.041188,1072.533697
1051.678947,-9474.636058,-444.123565,1072.533697
1051.679268,-9474.636058,-518.144159,1149.143247
1051.679589,-9548.656652,-592.164754,995.924147
1051.679909,-9252.574275,0.000000,689.485948
1051.680230,-9474.636058,-148.041188,1378.971896
1051.680551,-9474.636058,-148.041188,1225.752797
1051.680872,-9548.656652,-222.061783,1302.362347
1051.681193,-9622.677246,-444.123565,995.924147
1051.681513,-9474.636058,0.000000,1225.752797
1051.681834,-9474.636058,-222.061783,1072.533697
1051.682155,-9474.636058,-296.082377,842.705048
1051.682476,-9622.677246,-296.082377,995.924147
1051.682796,-9696.697840,-296.082377,1149.143247
1051.683117,-9474.636058,-222.061783,1302.362347
1051.683438,-9548.656652,-296.082377,1225.752797
1051.683759,-9474.636058,-370.102971,1455.581446
1051.684079,-9474.636058,-666.185348,2604.724693
1051.684400,-9696.697840,-222.061783,1455.581446
1051.684721,-9548.656652,-444.123565,1378.971896
1051.685042,-9548.656652,0.000000,1149.143247
1051.685362,-9770.718434,-518.144159,2604.724693
1051.685683,-9326.594869,-518.144159,1685.410096
1051.686004,-9548.656652,-444.123565,995.924147
1051.686324,-9474.636058,-296.082377,1072.533697
1051.686645,-9474.636058,0.000000,919.314598
1051.686966,-9474.636058,-444.123565,766.095498
1051.687287,-9400.615463,-518.144159,1149.143247
1051.687607,-9474.636058,-296.082377,1378.971896
1051.687928,-9696.697840,-444.123565,1149.143247
1051.688249,-9474.636058,-666.185348,1149.143247
1051.688570,-9400.615463,-518.144159,842.705048
1051.688890,-9474.636058,-518.144159,919.314598
1051.689211,-9474.636058,-296.082377,1149.143247
1051.689532,-9622.677246,0.000000,1072.533697
1051.689853,-9844.739029,0.000000,1072.533697
1051.690173,-9622.677246,-296.082377,536.266849
1051.690494,-9696.697840,-148.041188,919.314598
1051.690815,-9474.636058,-222.061783,689.485948
1051.691135,-9178.553681,-370.102971,0.000000
1051.691456,-9548.656652,74.020594,766.095498
1051.691777,-9548.656652,0.000000,919.314598
1051.692098,-9474.636058,-444.123565,1149.143247
1051.692418,-9622.677246,-370.102971,1225.752797
1051.692739,-9548.656652,-666.185348,1225.752797
1051.693060,-9548.656652,-592.164754,1072.533697
1051.693381,-9696.697840,-518.144159,1455.581446
1051.693701,-9696.697840,-222.061783,1072.533697
1051.694022,-9178.553681,-444.123565,1685.410096
1051.694343,-9326.594869,-814.226536,1225.752797
1051.694664,-9622.677246,-444.123565,1072.533697
1051.694984,-9474.636058,-296.082377,1072.533697
1051.695305,-9474.636058,296.082377,229.828649
1051.695626,-9474.636058,-296.082377,1302.362347
1051.695946,-9622.677246,-222.061783,1302.362347
1051.696267,-9770.718434,-370.102971,1225.752797
1051.696588,-9622.677246,-148.041188,1072.533697
1051.696909,-9622.677246,-222.061783,1455.581446
1051.697229,-9474.636058,-518.144159,1455.581446
1051.697550,-9696.697840,-518.144159,1302.362347
1051.697871,-9474.636058,-296.082377,995.924147
1051.698192,-9622.677246,-444.123565,919.314598
1051.698512,-9548.656652,-370.102971,995.924147
1051.698833,-9474.636058,-518.144159,842.705048
1051.699154,-9474.636058,-370.102971,919.314598
1051.699475,-9178.553681,-222.061783,919.314598
1051.699795,-9474.636058,-296.082377,1149.143247
1051.700116,-9474.636058,-444.123565,1072.533697
1051.700437,-9474.636058,-296.082377,995.924147
1051.700757,-9622.677246,-222.061783,919.314598
1051.701078,-9400.615463,-296.082377,689.485948
1051.701399,-9548.656652,-222.061783,1225.752797
1051.701720,-9548.656652,-296.082377,1149.143247
1051.702040,-9474.636058,-518.144159,842.705048
1051.702361,-9696.697840,-222.061783,766.095498
1051.702682,-9622.677246,-444.123565,1302.362347
1051.703003,-9400.615463,-592.164754,995.924147
1051.703323,-9548.656652,-444.123565,919.314598
1051.703644,-9844.739029,74.020594,1838.629195
1051.703965,-9326.594869,-444.123565,1378.971896
1051.704285,-9474.636058,-296.082377,919.314598
1051.704606,-9548.656652,0.000000,1072.533697
1051.704927,-9622.677246,-518.144159,995.924147
1051.705248,-9474.636058,-296.082377,1378.971896
1051.705568,-9696.697840,-370.102971,995.924147
1051.705889,-9474.636058,-370.102971,1072.533697
1051.706210,-9770.718434,-222.061783,1225.752797
1051.706531,-9104.533087,-296.082377,1608.800546
1051.706851,-9548.656652,-444.123565,1072.533697
1051.707172,-9474.636058,-222.061783,919.314598
1051.707493,-9548.656652,-370.102971,612.876398
1051.707814,-9918.759623,222.061783,1302.362347
1051.708134,-9696.697840,-370.102971,1149.143247
1051.708455,-9474.636058,-740.205942,1149.143247
1051.708776,-9474.636058,-370.102971,919.314598
1051.709096,-9548.656652,-370.102971,919.314598
1051.709417,-9474.636058,0.000000,1149.143247
1051.709738,-9696.697840,0.000000,1302.362347
1051.710059,-9622.677246,0.000000,1225.752797
1051.710379,-9622.677246,0.000000,1149.143247
1051.710700,-9474.636058,-296.082377,1225.752797
1051.711021,-9474.636058,-296.082377,919.314598
1051.711342,-9696.697840,-296.082377,1149.143247
1051.711662,-9548.656652,-222.061783,995.924147
1051.711983,-9622.677246,-444.123565,383.047749
1051.712304,-9326.594869,-740.205942,766.095498
1051.712625,-9474.636058,-666.185348,1072.533697
1051.712945,-9770.718434,-296.082377,1302.362347
1051.713266,-9622.677246,-296.082377,1302.362347
1051.713587,-9474.636058,-592.164754,1072.533697
1051.713907,-9548.656652,-370.102971,1072.533697
1051.714228,-9622.677246,-222.061783,1225.752797
1051.714549,-9770.718434,-222.061783,1302.362347
1051.714870,-9252.574275,-370.102971,842.705048
1051.715190,-9400.615463,-296.082377,842.705048
1051.715511,-9622.677246,-296.082377,689.485948
1051.715832,-9400.615463,0.000000,995.924147
1051.716153,-9400.615463,0.000000,1225.752797
1051.716473,-9548.656652,-592.164754,1532.190996
1051.716794,-9622.677246,-592.164754,1072.533697
1051.717115,-9622.677246,-592.164754,1149.143247
1051.717436,-9474.636058,-296.082377,1072.533697
1051.717756,-9696.697840,-370.102971,1455.581446
1051.718077,-9400.615463,-370.102971,1302.362347
1051.718398,-9548.656652,-222.061783,1149.143247
1051.718718,-9474.636058,-518.144159,1149.143247
1051.719039,-9844.739029,0.000000,766.095498
1051.719360,-9548.656652,-518.144159,1072.533697
1051.719681,-9474.636058,-296.082377,1072.533697
1051.720001,-9622.677246,-222.061783,995.924147
1051.720322,-9474.636058,-740.205942,-306.438199
1051.720643,-9770.718434,-592.164754,689.485948
1051.720964,-9770.718434,-370.102971,1072.533697
1051.721284,-9770.718434,0.000000,919.314598
1051.721605,-9918.759623,0.000000,1072.533697
1051.721926,-9844.739029,74.020594,1072.533697
1051.722247,-9622.677246,-444.123565,1378.971896
1051.722567,-9548.656652,-518.144159,1302.362347
1051.722888,-9474.636058,-814.226536,1225.752797
1051.723209,-9474.636058,-814.226536,1225.752797
1051.723529,-9326.594869,-296.082377,1072.533697
1051.723850,-9474.636058,-370.102971,1149.143247
1051.724171,-9622.677246,-222.061783,1225.752797
1051.724492,-9548.656652,-296.082377,1302.362347
1051.724812,-9770.718434,-296.082377,919.314598
1051.725133,-9992.780217,-148.041188,1455.581446
1051.725454,-9696.697840,-222.061783,1302.362347
1051.725775,-9622.677246,-370.102971,995.924147
1051.726095,-9622.677246,0.000000,306.438199
1051.726416,-9474.636058,-370.102971,1072.533697
1051.726737,-9548.656652,-444.123565,1149.143247
1051.727057,-9400.615463,-370.102971,995.924147
1051.727378,-9474.636058,-296.082377,1149.143247
1051.727699,-9548.656652,-370.102971,1072.533697
1051.728020,-9548.656652,-296.082377,1225.752797
1051.728340,-9548.656652,-444.123565,919.314598
1051.728661,-9696.697840,-518.144159,995.924147
1051.728982,-10362.883188,-296.082377,459.657299
1051.729303,-9622.677246,-740.205942,1072.533697
1051.729623,-9474.636058,-148.041188,1072.533697
1051.729944,-9548.656652,-148.041188,1072.533697
1051.730265,-9696.697840,0.000000,3370.820191
1051.730586,-9548.656652,-370.102971,919.314598
1051.730906,-9622.677246,-148.041188,995.924147
1051.731227,-9622.677246,-296.082377,995.924147
1051.731548,-9474.636058,-370.102971,995.924147
1051.731868,-9548.656652,-444.123565,1302.362347
1051.732189,-9696.697840,-592.164754,1302.362347
1051.732510,-9548.656652,-518.144159,919.314598
1051.732831,-9474.636058,-592.164754,995.924147
1051.733151,-8586.388927,0.000000,536.266849
1051.733472,-9770.718434,0.000000,1149.143247
1051.733793,-9622.677246,0.000000,1225.752797
1051.734114,-9696.697840,0.000000,919.314598
1051.734434,-9474.636058,0.000000,995.924147
1051.734755,-9770.718434,0.000000,995.924147
1051.735076,-9548.656652,-296.082377,1685.410096
1051.735397,-9622.677246,-222.061783,1072.533697
1051.735717,-9474.636058,-592.164754,1225.752797
1051.736038,-9696.697840,-444.123565,1302.362347
1051.736359,-9474.636058,-814.226536,995.924147
1051.736679,-9474.636058,-592.164754,1072.533697
1051.737000,-9622.677246,-296.082377,1072.533697
1051.737321,-9474.636058,-740.205942,536.266849
1051.737642,-9622.677246,-370.102971,995.924147
1051.737962,-9696.697840,-148.041188,995.924147
1051.738283,-9992.780217,0.000000,842.705048
1051.738604,-9696.697840,0.000000,459.657299
1051.738925,-9844.739029,-222.061783,1225.752797
1051.739245,-9622.677246,-296.082377,1225.752797
1051.739566,-9400.615463,-518.144159,919.314598
1051.739887,-9548.656652,-148.041188,842.705048
1051.740208,-9844.739029,0.000000,1378.971896
1051.740528,-9696.697840,-222.061783,1302.362347
1051.740849,-9474.636058,-740.205942,1225.752797
1051.741170,-9474.636058,-814.226536,1072.533697
1051.741490,-9474.636058,-444.123565,1378.971896
1051.741811,-9548.656652,-814.226536,1072.533697
1051.742132,-9400.615463,-518.144159,1225.752797
1051.742453,-9622.677246,-444.123565,1149.143247
1051.742773,-9474.636058,-74.020594,2145.067394
1051.743094,-9474.636058,0.000000,766.095498
1051.743415,-9548.656652,74.020594,995.924147
1051.743736,-9622.677246,0.000000,612.876398
1051.744056,-9696.697840,0.000000,995.924147
1051.744377,-9844.739029,0.000000,919.314598
1051.744698,-9474.636058,-296.082377,612.876398
1051.745019,-9992.780217,-370.102971,1532.190996
1051.745339,-9696.697840,-444.123565,1608.800546
1051.745660,-10214.842000,74.020594,1762.019645
1051.745981,-9622.677246,-518.144159,919.314598
1051.746301,-9622.677246,-740.205942,1225.752797
1051.746622,-9474.636058,-666.185348,1072.533697
1051.746943,-9474.636058,-444.123565,1302.362347
1051.747264,-9770.718434,-148.041188,1532.190996
1051.747584,-9770.718434,-222.061783,1072.533697
1051.747905,-9622.677246,-222.061783,919.314598
1051.748226,-9548.656652,-296.082377,995.924147
1051.748547,-9474.636058,-370.102971,1915.238745
1051.748867,-9770.718434,0.000000,842.705048
1051.749188,-9770.718434,0.000000,766.095498
1051.749509,-9474.636058,0.000000,1149.143247
1051.749829,-9696.697840,-222.061783,1072.533697
1051.750150,-9992.780217,-74.020594,-459.657299
1051.750471,-9400.615463,-518.144159,1072.533697
1051.750792,-9548.656652,-518.144159,1149.143247
1051.751112,-9548.656652,-444.123565,1149.143247
1051.751433,-9474.636058,-518.144159,1532.190996
1051.751754,-9178.553681,-888.247130,1532.190996
1051.752075,-9474.636058,-370.102971,1225.752797
1051.752395,-9548.656652,-222.061783,1225.752797
1051.752716,-9548.656652,-370.102971,995.924147
1051.753037,-9696.697840,-296.082377,1149.143247
1051.753358,-10140.821405,-222.061783,919.314598
1051.753678,-9622.677246,0.000000,919.314598
1051.753999,-9622.677246,-296.082377,995.924147
1051.754320,-9548.656652,-222.061783,995.924147
1051.754640,-9770.718434,-296.082377,1149.143247
1051.754961,-9326.594869,-222.061783,2068.457845
1051.755282,-9548.656652,-666.185348,919.314598
1051.755603,-9622.677246,-518.144159,1378.971896
1051.755923,-9474.636058,-592.164754,1225.752797
1051.756244,-9622.677246,-592.164754,1149.143247
1051.756565,-9252.574275,-666.185348,612.876398
1051.756886,-9548.656652,-592.164754,919.314598
1051.757206,-9474.636058,-370.102971,995.924147
1051.757527,-9474.636058,-370.102971,1072.533697
1051.757848,-9770.718434,0.000000,919.314598
1051.758169,-9252.574275,-148.041188,0.000000
1051.758489,-9548.656652,-148.041188,1072.533697
1051.758810,-9622.677246,-296.082377,1225.752797
1051.759131,-9696.697840,-370.102971,1149.143247
1051.759451,-9770.718434,0.000000,995.924147
1051.759772,-9548.656652,0.000000,919.314598
1051.760093,-9696.697840,-296.082377,919.314598
1051.760414,-9548.656652,-370.102971,689.485948
1051.760734,-9622.677246,-444.123565,1072.533697
1051.761055,-9622.677246,-296.082377,1149.143247
1051.761376,-9770.718434,-370.102971,1915.238745
1051.761697,-9474.636058,-370.102971,689.485948
1051.762017,-9622.677246,-148.041188,995.924147
1051.762338,-9622.677246,-148.041188,919.314598
1051.762659,-9622.677246,0.000000,1302.362347
1051.762980,-9400.615463,-518.144159,1685.410096
1051.763300,-10066.800811,0.000000,1225.752797
1051.763621,-9770.718434,-222.061783,1455.581446
1051.763942,-9770.718434,-296.082377,1455.581446
1051.764262,-9696.697840,-370.102971,1378.971896
1051.764583,-10214.842000,-370.102971,995.924147
1051.764904,-9474.636058,-444.123565,1302.362347
1051.765225,-9548.656652,-592.164754,1072.533697
1051.765545,-9474.636058,-592.164754,842.705048
1051.765866,-9548.656652,-518.144159,1532.190996
1051.766187,-9474.636058,0.000000,766.095498
1051.766508,-9548.656652,-222.061783,1378.971896
1051.766828,-9622.677246,-148.041188,1149.143247
1051.767149,-9548.656652,-296.082377,1149.143247
1051.767470,-9696.697840,74.020594,919.314598
1051.767791,-9918.759623,-444.123565,1302.362347
1051.768111,-9770.718434,0.000000,1532.190996
1051.768432,-9696.697840,0.000000,1455.581446
1051.768753,-9474.636058,-148.041188,1072.533697
1051.769073,-9918.759623,-444.123565,2145.067394
1051.769394,-9548.656652,-518.144159,1072.533697
1051.769715,-9474.636058,-518.144159,1072.533697
1051.770036,-9474.636058,-666.185348,1149.143247
1051.770356,-9622.677246,-592.164754,842.705048
1051.770677,-9474.636058,-888.247130,612.876398
1051.770998,-9770.718434,-148.041188,995.924147
1051.771319,-9844.739029,0.000000,995.924147
1051.771639,-9918.759623,-222.061783,1149.143247
1051.771960,-9548.656652,-296.082377,1072.533697
1051.772281,-9400.615463,0.000000,536.266849
1051.772601,-9696.697840,0.000000,1378.971896
1051.772922,-9474.636058,-296.082377,1149.143247
1051.773243,-9548.656652,-444.123565,842.705048
1051.773564,-9548.656652,-296.082377,842.705048
1051.773884,-9770.718434,-592.164754,842.705048
1051.774205,-9770.718434,-444.123565,1455.581446
1051.774526,-9622.677246,-222.061783,1378.971896
1051.774847,-9548.656652,-666.185348,995.924147
1051.775167,-9696.697840,-666.185348,1225.752797
1051.775488,-9474.636058,-370.102971,766.095498
1051.775809,-9474.636058,-370.102971,1149.143247
1051.776130,-9622.677246,-296.082377,1302.362347
1051.776450,-9622.677246,-296.082377,1072.533697
1051.776771,-9548.656652,-148.041188,919.314598
1051.777092,-9548.656652,-370.102971,1225.752797
1051.777412,-9696.697840,-222.061783,1072.533697
1051.777733,-9622.677246,-592.164754,995.924147
1051.778054,-9474.636058,-518.144159,1378.971896
1051.778375,-9474.636058,-666.185348,1455.581446
1051.778695,-9622.677246,-222.061783,1149.143247
1051.779016,-9622.677246,-296.082377,1378.971896
1051.779337,-9474.636058,-296.082377,1149.143247
1051.779658,-9474.636058,-444.123565,1072.533697
1051.779978,-9474.636058,-222.061783,612.876398
1051.780299,-9474.636058,0.000000,1072.533697
1051.780620,-9548.656652,-370.102971,1072.533697
1051.780941,-9622.677246,-444.123565,1225.752797
1051.781261,-9622.677246,-592.164754,1072.533697
1051.781582,-9770.718434,-74.020594,612.876398
1051.781903,-9844.739029,-370.102971,1072.533697
1051.782223,-9548.656652,-444.123565,995.924147
1051.782544,-9326.594869,-370.102971,536.266849
1051.782865,-9622.677246,0.000000,459.657299
1051.783186,-9104.533087,-370.102971,306.438199
1051.783506,-9548.656652,-148.041188,1302.362347
1051.783827,-9622.677246,-296.082377,1532.190996
1051.784148,-9548.656652,-666.185348,1149.143247
1051.784469,-9696.697840,-518.144159,689.485948
1051.784789,-9992.780217,-518.144159,995.924147
1051.785110,-9770.718434,-296.082377,1302.362347
1051.785431,-9474.636058,-592.164754,1149.143247
1051.785752,-9400.615463,-444.123565,1149.143247
1051.786072,-9474.636058,-592.164754,766.095498
1051.786393,-9770.718434,0.000000,1072.533697
1051.786714,-9770.718434,-296.082377,995.924147
1051.787034,-9548.656652,-296.082377,842.705048
1051.787355,-9474.636058,-148.041188,995.924147
1051.787676,-9844.739029,-74.020594,766.095498
1051.787997,-9474.636058,-370.102971,1149.143247
1051.788317,-9770.718434,-222.061783,1149.143247
1051.788638,-9770.718434,-296.082377,919.314598
1051.788959,-9622.677246,-148.041188,1149.143247
1051.789280,-9770.718434,-148.041188,1455.581446
1051.789600,-9104.533087,0.000000,1149.143247
1051.789921,-9474.636058,-592.164754,1455.581446
1051.790242,-9548.656652,-962.267725,1149.143247
1051.790563,-9622.677246,-518.144159,1225.752797
1051.790883,-9474.636058,-518.144159,842.705048
1051.791204,-8956.491898,-370.102971,1532.190996
1051.791525,-9474.636058,-222.061783,1072.533697
1051.791846,-9696.697840,0.000000,1608.800546
1051.792166,-9474.636058,-370.102971,1455.581446
1051.792487,-9622.677246,74.020594,1532.190996
1051.792808,-9474.636058,-148.041188,612.876398
1051.793128,-9696.697840,-296.082377,995.924147
1051.793449,-9622.677246,-148.041188,919.314598
1051.793770,-9622.677246,-148.041188,995.924147
1051.794091,-9474.636058,222.061783,1532.190996
1051.794411,-9622.677246,-592.164754,1378.971896
1051.794732,-9474.636058,-444.123565,995.924147
1051.795053,-9622.677246,-370.102971,1149.143247
1051.795374,-9548.656652,-444.123565,1225.752797
1051.795694,-9770.718434,-296.082377,2068.457845
1051.796015,-9548.656652,-518.144159,1762.019645
1051.796336,-9622.677246,-592.164754,1072.533697
1051.796657,-9622.677246,-222.061783,1072.533697
1051.796977,-9696.697840,-370.102971,919.314598
1051.797298,-9474.636058,-148.041188,383.047749
1051.797619,-9696.697840,-370.102971,1149.143247
1051.797940,-9622.677246,0.000000,766.095498
1051.798260,-9622.677246,-296.082377,766.095498
1051.798581,-9770.718434,0.000000,919.314598
1051.798902,-9844.739029,518.144159,306.438199
1051.799222,-9474.636058,-296.082377,919.314598
1051.799543,-9622.677246,-296.082377,1225.752797
1051.799864,-9474.636058,0.000000,1225.752797
1051.800185,-9474.636058,-370.102971,1072.533697
1051.800505,-10288.862594,222.061783,306.438199
1051.800826,-9622.677246,-296.082377,1302.362347
1051.801147,-9548.656652,-666.185348,1302.362347
1051.801468,-9622.677246,-518.144159,1072.533697
1051.801788,-9622.677246,-592.164754,919.314598
1051.802109,-9548.656652,-148.041188,1149.143247
1051.802430,-9622.677246,-222.061783,1302.362347
1051.802751,-9474.636058,-222.061783,995.924147
1051.803071,-9622.677246,-148.041188,842.705048
1051.803392,-9622.677246,-222.061783,1225.752797
1051.803713,-10214.842000,370.102971,1302.362347
1051.804034,-9548.656652,-444.123565,919.314598
1051.804354,-9474.636058,-222.061783,1072.533697
1051.804675,-9622.677246,-148.041188,766.095498
1051.804996,-9548.656652,-370.102971,1149.143247
1051.805316,-9400.615463,74.020594,1378.971896
1051.805637,-9474.636058,-148.041188,842.705048
1051.805958,-9622.677246,-74.020594,1149.143247
1051.806279,-9622.677246,-444.123565,1225.752797
1051.806599,-9696.697840,-370.102971,1302.362347
1051.806920,-9400.615463,0.000000,2145.067394
1051.807241,-9622.677246,-592.164754,1072.533697
1051.807562,-9474.636058,-370.102971,842.705048
1051.807882,-9844.739029,-370.102971,1455.581446
1051.808203,-9696.697840,-296.082377,1072.533697
1051.808524,-9474.636058,-444.123565,1608.800546
1051.808845,-9622.677246,-296.082377,1302.362347
1051.809165,-9474.636058,0.000000,919.314598
1051.809486,-9474.636058,-148.041188,995.924147
1051.809807,-9622.677246,-592.164754,1302.362347
1051.810128,-9178.553681,0.000000,1838.629195
1051.810448,-9548.656652,0.000000,1225.752797
1051.810769,-9548.656652,-296.082377,1225.752797
1051.811090,-9400.615463,-444.123565,1072.533697
1051.811410,-9696.697840,-296.082377,1072.533697
1051.811731,-9104.533087,0.000000,919.314598
1051.812052,-9400.615463,-296.082377,919.314598
1051.812373,-9548.656652,-370.102971,1072.533697
1051.812693,-9474.636058,0.000000,919.314598
1051.813014,-9696.697840,-222.061783,1149.143247
1051.813335,-9104.533087,-222.061783,1378.971896
1051.813656,-9770.718434,0.000000,1149.143247
1051.813976,-9474.636058,-370.102971,1225.752797
1051.814297,-9622.677246,-222.061783,1225.752797
1051.814618,-9844.739029,-222.061783,1225.752797
1051.814939,-9326.594869,-666.185348,1838.629195
1051.815259,-9548.656652,-518.144159,995.924147
1051.815580,-9622.677246,-222.061783,1225.752797
1051.815901,-9474.636058,-370.102971,1302.362347
1051.816221,-9622.677246,-296.082377,1225.752797
1051.816542,-8956.491898,370.102971,0.000000
1051.816863,-9548.656652,-518.144159,612.876398
1051.817184,-9474.636058,-444.123565,919.314598
1051.817504,-9622.677246,-370.102971,1378.971896
1051.817825,-9622.677246,-148.041188,1225.752797
1051.818146,-9104.533087,-148.041188,1455.581446
1051.818467,-9548.656652,-370.102971,1378.971896
1051.818787,-9918.759623,-370.102971,1225.752797
1051.819108,-9548.656652,-518.144159,919.314598
1051.819429,-9474.636058,-518.144159,1149.143247
1051.819750,-9400.615463,0.000000,612.876398
1051.820070,-9474.636058,0.000000,1072.533697
1051.820391,-9622.677246,-370.102971,919.314598
1051.820712,-9474.636058,-444.123565,766.095498
1051.821033,-9474.636058,-370.102971,919.314598
1051.821353,-9400.615463,148.041188,766.095498
1051.821674,-9622.677246,-222.061783,1149.143247
1051.821995,-9696.697840,-444.123565,1149.143247
1051.822315,-9548.656652,-370.102971,689.485948
1051.822636,-9622.677246,-370.102971,995.924147
1051.822957,-9474.636058,-814.226536,1225.752797
1051.823278,-9622.677246,-592.164754,1685.410096
1051.823598,-9770.718434,-444.123565,1225.752797
1051.823919,-9326.594869,-444.123565,919.314598
1051.824240,-9474.636058,-444.123565,995.924147
1051.824561,-9326.594869,-1110.308913,1302.362347
1051.824881,-9622.677246,-518.144159,842.705048
1051.825202,-9474.636058,-592.164754,612.876398
1051.825523,-9548.656652,-444.123565,995.924147
1051.825844,-9474.636058,0.000000,919.314598
1051.826164,-9252.574275,-740.205942,1532.190996
1051.826485,-9474.636058,0.000000,1072.533697
1051.826806,-9622.677246,0.000000,1149.143247
1051.827127,-9770.718434,-148.041188,995.924147
1051.827447,-9622.677246,-222.061783,995.924147
1051.827768,-10584.944971,-148.041188,1608.800546
1051.828089,-9622.677246,0.000000,995.924147
1051.828409,-9770.718434,0.000000,1072.533697
1051.828730,-9696.697840,-148.041188,1225.752797
1051.829051,-9474.636058,-592.164754,1302.362347
1051.829372,-9326.594869,-296.082377,459.657299
1051.829692,-9474.636058,-888.247130,919.314598
1051.830013,-9696.697840,-148.041188,995.924147
1051.830334,-9696.697840,-518.144159,1302.362347
1051.830655,-9548.656652,-370.102971,1149.143247
1051.830975,-10288.862594,296.082377,1302.362347
1051.831296,-9474.636058,0.000000,1225.752797
1051.831617,-9696.697840,-296.082377,689.485948
1051.831938,-9696.697840,0.000000,919.314598
1051.832258,-9622.677246,0.000000,612.876398
1051.832579,-9992.780217,888.247130,766.095498
1051.832900,-9622.677246,-222.061783,919.314598
1051.833221,-9474.636058,-518.144159,995.924147
1051.833541,-9844.739029,-444.123565,1225.752797
1051.833862,-9474.636058,-444.123565,1149.143247
1051.834183,-9548.656652,-666.185348,2221.676944
1051.834503,-9474.636058,-444.123565,1302.362347
1051.834824,-9622.677246,-592.164754,1302.362347
1051.835145,-9770.718434,-518.144159,1302.362347
1051.835466,-9474.636058,-370.102971,1225.752797
1051.835786,-9326.594869,0.000000,1378.971896
1051.836107,-9770.718434,-370.102971,766.095498
1051.836428,-9474.636058,-370.102971,995.924147
1051.836749,-9622.677246,-148.041188,995.924147
1051.837069,-9622.677246,74.020594,1149.143247
1051.837390,-9178.553681,592.164754,1915.238745
1051.837711,-9622.677246,0.000000,1149.143247
1051.838032,-9696.697840,-148.041188,842.705048
1051.838352,-9622.677246,-222.061783,919.314598
1051.838673,-9622.677246,-370.102971,1225.752797
1051.838994,-9622.677246,-222.061783,459.657299
1051.839315,-9548.656652,-444.123565,1225.752797
1051.839635,-9474.636058,-592.164754,1149.143247
1051.839956,-9474.636058,-444.123565,1149.143247
1051.840277,-9548.656652,-296.082377,1608.800546
1051.840597,-9474.636058,0.000000,1915.238745
