#time,accel_x,accel_y,accel_z
968.234736,-9474.636058,-518.144159,1149.143247
968.235057,-9474.636058,0.000000,536.266849
968.235378,-9474.636058,-296.082377,1072.533697
968.235699,-9622.677246,-370.102971,1072.533697
968.236020,-9548.656652,-370.102971,1149.143247
968.236341,-10140.821405,0.000000,536.266849
968.236662,-9622.677246,-222.061783,766.095498
968.236983,-9622.677246,-444.123565,919.314598
968.237304,-9548.656652,-370.102971,1149.143247
968.237625,-9918.759623,-222.061783,995.924147
968.237946,-9474.636058,-370.102971,995.924147
968.238267,-9622.677246,-518.144159,919.314598
968.238588,-9622.677246,-296.082377,995.924147
968.238909,-9474.636058,-444.123565,919.314598
968.239230,-9474.636058,0.000000,153.219100
968.239551,-9474.636058,-296.082377,766.095498
968.239872,-9844.739029,-592.164754,612.876398
968.240193,-9474.636058,-518.144159,612.876398
968.240514,-10436.903782,0.000000,1532.190996
968.240835,-9548.656652,-444.123565,1149.143247
968.241156,-9696.697840,-148.041188,1532.190996
968.241477,-9844.739029,-592.164754,1455.581446
968.241798,-9548.656652,-296.082377,995.924147
968.242119,-9400.615463,-592.164754,919.314598
968.242440,-9400.615463,0.000000,1378.971896
968.242761,-9622.677246,-444.123565,1072.533697
968.243082,-9474.636058,-592.164754,919.314598
968.243403,-9178.553681,-814.226536,612.876398
968.243724,-9400.615463,-1110.308913,306.438199
968.244045,-9622.677246,-1184.329507,306.438199
968.244366,-9696.697840,-592.164754,383.047749
968.244687,-9548.656652,-1184.329507,153.219100
968.245008,-9474.636058,-666.185348,0.000000
968.245329,-9696.697840,-962.267725,-306.438199
968.245650,-9918.759623,-888.247130,153.219100
968.245971,-9622.677246,-740.205942,76.609550
968.246292,-9548.656652,-888.247130,0.000000
968.246613,-9548.656652,-962.267725,-766.095498
968.246934,-9474.636058,-1184.329507,-689.485948
968.247255,-9622.677246,-1480.411884,-766.095498
968.247576,-8216.285956,-1776.494261,-1455.581446
968.247897,-9474.636058,-1776.494261,-1608.800546
968.248218,-9474.636058,-1480.411884,-1608.800546
968.248539,-9252.574275,-1480.411884,-2451.505594
968.248860,-9548.656652,-666.185348,-1455.581446
968.249181,-9696.697840,-888.247130,-3447.429741
968.249502,-9918.759623,-962.267725,-3140.991542
968.249823,-9770.718434,-888.247130,-3753.867940
968.250144,-9770.718434,-814.226536,-4060.306139
968.250465,-10140.821405,-1184.329507,-4060.306139
968.250786,-9844.739029,-2220.617826,-3217.601092
968.251107,-9696.697840,-2590.720797,-2681.334243
968.251428,-9622.677246,-4071.132681,-2834.553343
968.251749,-9474.636058,-3849.070898,-2911.162892
968.252070,-9548.656652,-4515.256246,-2451.505594
968.252391,-9252.574275,-4589.276840,-1991.848295
968.252712,-9104.533087,-4737.318029,-2298.286494
968.253033,-9104.533087,-5033.400406,-2451.505594
968.253354,-8734.430116,-5255.462188,-2451.505594
968.253675,-9178.553681,-4885.359217,-2604.724693
968.253996,-9326.594869,-4663.297435,-2604.724693
968.254317,-9326.594869,-4145.153275,-2451.505594
968.254638,-9400.615463,-4219.173869,-2374.896044
968.254959,-9622.677246,-4071.132681,-2145.067394
968.255280,-9474.636058,-4219.173869,-1991.848295
968.255601,-9770.718434,-4737.318029,-842.705048
968.255922,-9770.718434,-4737.318029,-306.438199
968.256243,-9770.718434,-4589.276840,536.266849
968.256564,-9770.718434,-4293.194464,1149.143247
968.256885,-9400.615463,-4219.173869,995.924147
968.257206,-9326.594869,-3849.070898,689.485948
968.257527,-9252.574275,-3997.112087,612.876398
968.257848,-9104.533087,-3923.091493,0.000000
968.258169,-8956.491898,-4145.153275,-306.438199
968.258490,-9030.512492,-4145.153275,-1149.143247
968.258811,-9474.636058,-3478.967927,0.000000
968.259132,-10066.800811,-3330.926739,153.219100
968.259453,-10584.944971,-3701.029710,459.657299
968.259774,-10732.986159,-4219.173869,0.000000
968.260095,-10510.924376,-4737.318029,-995.924147
968.260415,-10362.883188,-3849.070898,0.000000
968.260736,-10214.842000,-3627.009116,1072.533697
968.261057,-9844.739029,-2960.823768,1455.581446
968.261378,-10066.800811,-2590.720797,1378.971896
968.261699,-9992.780217,-2590.720797,1762.019645
968.262020,-9770.718434,-2368.659014,1608.800546
968.262341,-9844.739029,-2072.576638,1225.752797
968.262662,-9104.533087,-1776.494261,383.047749
968.262983,-8734.430116,-2294.638420,-1762.019645
968.263304,-8364.327145,-1998.556043,-2374.896044
968.263625,-8512.368333,-2294.638420,-3677.258390
968.263946,-9400.615463,-2294.638420,-3524.039291
968.264267,-9770.718434,-1776.494261,-4903.011187
968.264588,-10066.800811,-2368.659014,-3907.087040
968.264909,-10288.862594,-2146.597232,-4213.525239
968.265230,-10807.006753,-1850.514855,-3907.087040
968.265551,-10436.903782,-1110.308913,-2757.943793
968.265872,-10584.944971,-1184.329507,-1991.848295
968.266193,-10214.842000,-1036.288319,-1455.581446
968.266514,-9696.697840,-1628.453072,-1225.752797
968.266835,-8882.471304,-1480.411884,-1532.190996
968.267156,-8438.347739,-1110.308913,-1608.800546
968.267477,-7994.224174,74.020594,-2681.334243
968.267798,-7846.182985,296.082377,-2834.553343
968.268119,-7698.141797,0.000000,-3447.429741
968.268440,-7476.080014,-1702.473667,-2681.334243
968.268761,-8660.409521,-2294.638420,-3677.258390
968.269082,-9696.697840,-2294.638420,-2451.505594
968.269403,-10288.862594,-1554.432478,-1378.971896
968.269724,-11473.192101,-296.082377,459.657299
968.270045,-11621.233289,-444.123565,1455.581446
968.270366,-11103.089130,-1776.494261,459.657299
968.270687,-10436.903782,-2368.659014,-689.485948
968.271008,-9844.739029,-1332.370696,-1072.533697
968.271329,-8438.347739,-888.247130,-612.876398
968.271650,-8956.491898,-1776.494261,-995.924147
968.271971,-6809.894666,-1776.494261,-1762.019645
968.272292,-8068.244768,-3108.864956,-2681.334243
968.272613,-7550.100608,-1776.494261,-2681.334243
968.272934,-8734.430116,-1554.432478,-383.047749
968.273255,-10658.965565,-740.205942,2374.896044
968.273576,-10955.047942,-1406.391290,1915.238745
968.273897,-11103.089130,-2812.782580,1532.190996
968.274218,-10807.006753,-2368.659014,1378.971896
968.274539,-10658.965565,-2664.741391,1991.848295
968.274860,-11399.171507,-2886.803174,1762.019645
968.275181,-10140.821405,-3034.844362,766.095498
968.275502,-8216.285956,-2220.617826,-766.095498
968.275823,-9030.512492,-1184.329507,-536.266849
968.276144,-9696.697840,-1110.308913,1149.143247
968.276465,-9770.718434,-2220.617826,612.876398
968.276786,-8586.388927,-2294.638420,0.000000
968.277107,-8068.244768,-3552.988522,-2374.896044
968.277428,-8290.306550,-3330.926739,-1762.019645
968.277749,-9474.636058,-4441.235652,-842.705048
968.278070,-9326.594869,-4367.215058,-459.657299
968.278391,-9696.697840,-4219.173869,-3064.381992
968.278712,-9030.512492,-3404.947333,-2757.943793
968.279033,-10584.944971,-2960.823768,-1991.848295
968.279354,-11177.109724,-2516.700203,-1762.019645
968.279675,-10955.047942,-2590.720797,-2757.943793
968.279996,-8438.347739,-2442.679609,-3830.477490
968.280317,-8660.409521,-2442.679609,-3907.087040
968.280638,-9474.636058,-3849.070898,-2451.505594
968.280959,-8882.471304,-3701.029710,-1685.410096
968.281280,-9252.574275,-2960.823768,-1532.190996
968.281601,-9474.636058,-2368.659014,-1302.362347
968.281922,-9474.636058,-2368.659014,-842.705048
968.282243,-9918.759623,-1924.535449,-1072.533697
968.282564,-9400.615463,-1850.514855,-1225.752797
968.282885,-8660.409521,-3034.844362,-2374.896044
968.283206,-8438.347739,-3923.091493,-3140.991542
968.283527,-8438.347739,-3478.967927,-3370.820191
968.283848,-10288.862594,-2664.741391,-2451.505594
968.284169,-10436.903782,-2738.761985,-1532.190996
968.284490,-10214.842000,-2516.700203,-2221.676944
968.284811,-10807.006753,-1850.514855,-2834.553343
968.285132,-10510.924376,-2368.659014,-3447.429741
968.285453,-9918.759623,-2664.741391,-766.095498
968.285774,-10436.903782,-2368.659014,1225.752797
968.286094,-10510.924376,-2886.803174,1915.238745
968.286415,-10140.821405,-3849.070898,1991.848295
968.286736,-9770.718434,-3256.906145,1608.800546
968.287057,-9918.759623,-1554.432478,1378.971896
968.287378,-8956.491898,-222.061783,536.266849
968.287699,-8364.327145,0.000000,306.438199
968.288020,-7550.100608,-888.247130,-1149.143247
968.288341,-8438.347739,-2590.720797,-1915.238745
968.288662,-9252.574275,-3552.988522,-1378.971896
968.288983,-9622.677246,-3478.967927,-1225.752797
968.289304,-10288.862594,-2072.576638,919.314598
968.289625,-10658.965565,-222.061783,766.095498
968.289946,-10732.986159,0.000000,2528.115143
968.290267,-11547.212695,-2738.761985,1915.238745
968.290588,-10140.821405,-2590.720797,0.000000
968.290909,-9622.677246,-2072.576638,-612.876398
968.291229,-9400.615463,-814.226536,612.876398
968.291550,-9252.574275,0.000000,1455.581446
968.291871,-9030.512492,-370.102971,1532.190996
968.292191,-9178.553681,-1258.350101,0.000000
968.292512,-8216.285956,-2294.638420,-842.705048
968.292833,-9844.739029,-2886.803174,-612.876398
968.293153,-9622.677246,-1554.432478,-306.438199
968.293474,-9548.656652,222.061783,612.876398
968.293795,-9548.656652,962.267725,1072.533697
968.294115,-10732.986159,-814.226536,689.485948
968.294436,-9622.677246,-1480.411884,-1532.190996
968.294757,-10288.862594,-962.267725,-2374.896044
968.295077,-10066.800811,888.247130,0.000000
968.295398,-9548.656652,0.000000,-2681.334243
968.295719,-6661.853478,1110.308913,-1225.752797
968.296039,-10510.924376,888.247130,-1378.971896
968.296360,-7476.080014,1258.350101,306.438199
968.296681,-10288.862594,-2146.597232,-612.876398
968.297001,-10881.027347,-1628.453072,1072.533697
968.297322,-7994.224174,-1998.556043,-2145.067394
968.297642,-10584.944971,-666.185348,2221.676944
968.297963,-9030.512492,-666.185348,2451.505594
968.298284,-9474.636058,-814.226536,-459.657299
968.298604,-9696.697840,-666.185348,153.219100
968.298925,-9178.553681,0.000000,0.000000
968.299246,-9326.594869,148.041188,-842.705048
968.299566,-11621.233289,-148.041188,2298.286494
968.299887,-9178.553681,-740.205942,459.657299
968.300208,-9400.615463,-296.082377,-612.876398
968.300528,-10436.903782,-592.164754,-229.828649
968.300849,-8586.388927,-296.082377,459.657299
968.301170,-9252.574275,-444.123565,1915.238745
968.301490,-10510.924376,-1628.453072,2987.772442
968.301811,-8882.471304,-2146.597232,2604.724693
968.302132,-9400.615463,-2220.617826,766.095498
968.302452,-10214.842000,-444.123565,2221.676944
968.302773,-9104.533087,1184.329507,2374.896044
968.303094,-9992.780217,814.226536,2528.115143
968.303414,-8956.491898,1702.473667,1762.019645
968.303735,-9030.512492,740.205942,-536.266849
968.304056,-9622.677246,1110.308913,306.438199
968.304376,-9622.677246,74.020594,1685.410096
968.304697,-9400.615463,-740.205942,1455.581446
968.305018,-9474.636058,-444.123565,2604.724693
968.305338,-9770.718434,-814.226536,2604.724693
968.305659,-9104.533087,-1036.288319,2145.067394
968.305980,-11769.274478,-1258.350101,3294.210641
968.306300,-10066.800811,-888.247130,3600.648841
968.306621,-8882.471304,-740.205942,2374.896044
968.306942,-9992.780217,-1776.494261,3294.210641
968.307262,-8808.450710,-2368.659014,1838.629195
968.307583,-8512.368333,-1776.494261,689.485948
968.307904,-10066.800811,-74.020594,1378.971896
968.308224,-9030.512492,1036.288319,919.314598
968.308545,-9104.533087,1628.453072,1225.752797
968.308866,-10881.027347,592.164754,2145.067394
968.309186,-9622.677246,0.000000,1149.143247
968.309507,-9474.636058,-1628.453072,0.000000
968.309828,-10584.944971,-1184.329507,0.000000
968.310148,-8956.491898,518.144159,153.219100
968.310469,-9844.739029,-148.041188,1072.533697
968.310790,-9992.780217,-592.164754,1302.362347
968.311110,-8216.285956,-370.102971,-1378.971896
968.311431,-8290.306550,-444.123565,-2374.896044
968.311751,-9548.656652,222.061783,-612.876398
968.312072,-8808.450710,1110.308913,536.266849
968.312393,-11103.089130,0.000000,2145.067394
968.312713,-9992.780217,-370.102971,1991.848295
968.313034,-10214.842000,-1924.535449,0.000000
968.313355,-11695.253884,-1554.432478,1072.533697
968.313675,-10214.842000,-444.123565,1072.533697
968.313996,-9696.697840,296.082377,536.266849
968.314317,-9474.636058,592.164754,612.876398
968.314637,-8734.430116,-444.123565,-766.095498
968.314958,-9030.512492,-1036.288319,-1838.629195
968.315279,-9548.656652,-1702.473667,-229.828649
968.315599,-8882.471304,-1036.288319,229.828649
968.315920,-9770.718434,-1258.350101,1915.238745
968.316241,-10436.903782,0.000000,2987.772442
968.316561,-10436.903782,-222.061783,1991.848295
968.316882,-9918.759623,222.061783,1915.238745
968.317203,-11843.295072,148.041188,536.266849
968.317523,-8364.327145,222.061783,1149.143247
968.317844,-9326.594869,-1332.370696,1072.533697
968.318165,-9548.656652,-1554.432478,1072.533697
968.318485,-8586.388927,-1110.308913,536.266849
968.318806,-10214.842000,-1110.308913,842.705048
968.319127,-9918.759623,0.000000,1149.143247
968.319447,-9030.512492,0.000000,766.095498
968.319768,-10362.883188,888.247130,2528.115143
968.320089,-10955.047942,666.185348,1762.019645
968.320409,-9474.636058,814.226536,689.485948
968.320730,-9844.739029,370.102971,1838.629195
968.321051,-8438.347739,-296.082377,76.609550
968.321371,-8438.347739,370.102971,1455.581446
968.321692,-9474.636058,0.000000,2451.505594
968.322013,-8660.409521,-666.185348,1072.533697
968.322333,-9696.697840,-962.267725,612.876398
968.322654,-9844.739029,-370.102971,1149.143247
968.322975,-9474.636058,888.247130,1915.238745
968.323295,-10362.883188,814.226536,3064.381992
968.323616,-10214.842000,-296.082377,3217.601092
968.323937,-8808.450710,-962.267725,383.047749
968.324257,-9178.553681,-1776.494261,-995.924147
968.324578,-9474.636058,-814.226536,0.000000
968.324899,-8068.244768,666.185348,0.000000
968.325219,-9178.553681,444.123565,919.314598
968.325540,-9918.759623,1184.329507,1915.238745
968.325861,-9622.677246,-370.102971,1149.143247
968.326181,-11251.130318,-1184.329507,2068.457845
968.326502,-11251.130318,-296.082377,3217.601092
968.326822,-10066.800811,-740.205942,3217.601092
968.327143,-10807.006753,296.082377,2681.334243
968.327464,-9474.636058,740.205942,1838.629195
968.327784,-8216.285956,-962.267725,-536.266849
968.328105,-9030.512492,222.061783,-459.657299
968.328426,-8956.491898,-222.061783,153.219100
968.328746,-8438.347739,-222.061783,-459.657299
968.329067,-10288.862594,518.144159,1838.629195
968.329388,-9548.656652,148.041188,1532.190996
968.329708,-10436.903782,-666.185348,1302.362347
968.330029,-11399.171507,-1406.391290,2145.067394
968.330350,-9252.574275,0.000000,1685.410096
968.330670,-9622.677246,0.000000,995.924147
968.330991,-10066.800811,-222.061783,2451.505594
968.331312,-8512.368333,-1258.350101,0.000000
968.331632,-9252.574275,-1850.514855,-766.095498
968.331953,-8808.450710,-518.144159,-153.219100
968.332274,-8142.265362,-148.041188,0.000000
968.332594,-9918.759623,0.000000,1838.629195
968.332915,-11177.109724,-592.164754,2145.067394
968.333236,-10436.903782,-1406.391290,383.047749
968.333556,-10436.903782,-1702.473667,0.000000
968.333877,-10881.027347,-666.185348,919.314598
968.334198,-10288.862594,1258.350101,1685.410096
968.334518,-11843.295072,1036.288319,3140.991542
968.334839,-10881.027347,296.082377,3140.991542
968.335160,-8586.388927,-1332.370696,-459.657299
968.335480,-9622.677246,-1998.556043,-1532.190996
968.335801,-6957.935855,-666.185348,-2145.067394
968.336122,-8142.265362,592.164754,-1072.533697
968.336442,-8068.244768,740.205942,76.609550
968.336763,-6735.874072,-1036.288319,-1608.800546
968.337084,-8364.327145,-148.041188,0.000000
968.337404,-11843.295072,-2590.720797,1302.362347
968.337725,-9622.677246,-888.247130,3370.820191
968.338046,-10436.903782,-296.082377,2604.724693
968.338366,-11251.130318,148.041188,3677.258390
968.338687,-8956.491898,740.205942,1991.848295
968.339008,-9548.656652,74.020594,612.876398
968.339328,-8956.491898,0.000000,76.609550
968.339649,-7846.182985,518.144159,-229.828649
968.339970,-8586.388927,-148.041188,536.266849
968.340290,-9474.636058,-444.123565,766.095498
968.340611,-9400.615463,0.000000,76.609550
968.340931,-8660.409521,814.226536,2528.115143
968.341252,-9178.553681,-1036.288319,1225.752797
968.341573,-9252.574275,148.041188,2145.067394
968.341893,-11399.171507,-888.247130,3447.429741
968.342214,-9992.780217,-888.247130,3600.648841
968.342535,-9400.615463,-666.185348,689.485948
968.342855,-10288.862594,-740.205942,1532.190996
968.343176,-8882.471304,222.061783,842.705048
968.343497,-9178.553681,0.000000,1225.752797
968.343817,-9474.636058,-444.123565,2298.286494
968.344138,-9326.594869,-592.164754,612.876398
968.344459,-10066.800811,-222.061783,1149.143247
968.344779,-11103.089130,-592.164754,2145.067394
968.345100,-9770.718434,296.082377,2451.505594
968.345421,-9326.594869,740.205942,2374.896044
968.345741,-10436.903782,-222.061783,2298.286494
968.346062,-8734.430116,-518.144159,153.219100
968.346383,-9770.718434,0.000000,-153.219100
968.346703,-10288.862594,962.267725,612.876398
968.347024,-9178.553681,888.247130,995.924147
968.347345,-10362.883188,222.061783,2298.286494
968.347665,-9844.739029,-1110.308913,766.095498
968.347986,-9178.553681,-1406.391290,-766.095498
968.348307,-10288.862594,-1406.391290,1072.533697
968.348627,-9400.615463,-814.226536,1149.143247
968.348948,-8734.430116,0.000000,1302.362347
968.349269,-9696.697840,-444.123565,2374.896044
968.349589,-9400.615463,-740.205942,919.314598
968.349910,-8956.491898,-1628.453072,-689.485948
968.350231,-10436.903782,-1258.350101,229.828649
968.350551,-9030.512492,-296.082377,-842.705048
968.350872,-9474.636058,-962.267725,459.657299
968.351193,-10140.821405,-666.185348,1608.800546
968.351513,-9474.636058,-1998.556043,1072.533697
968.351834,-10362.883188,-2220.617826,1149.143247
968.352155,-10732.986159,-666.185348,2221.676944
968.352475,-9548.656652,444.123565,1225.752797
968.352796,-10214.842000,444.123565,1225.752797
968.353117,-8586.388927,-518.144159,76.609550
968.353437,-6069.688724,-1776.494261,-4290.134789
968.353758,-7624.121203,-370.102971,-2757.943793
968.354079,-8290.306550,-296.082377,-1072.533697
968.354399,-9326.594869,1036.288319,1838.629195
968.354720,-11029.068536,148.041188,3217.601092
968.355040,-11843.295072,-444.123565,3600.648841
968.355361,-11103.089130,-1258.350101,2528.115143
968.355682,-12139.377449,-1258.350101,2834.553343
968.356002,-9622.677246,888.247130,2911.162892
968.356323,-8956.491898,1258.350101,2374.896044
968.356644,-8956.491898,74.020594,2451.505594
968.356964,-8068.244768,-1110.308913,0.000000
968.357285,-8734.430116,-962.267725,-1378.971896
968.357606,-9474.636058,-1184.329507,0.000000
968.357926,-8364.327145,740.205942,766.095498
968.358247,-9696.697840,1406.391290,2221.676944
968.358568,-10584.944971,1110.308913,2681.334243
968.358888,-9696.697840,1776.494261,3753.867940
968.359209,-10881.027347,-1480.411884,2451.505594
968.359530,-9696.697840,-666.185348,1838.629195
968.359850,-9252.574275,0.000000,1072.533697
968.360171,-9474.636058,1110.308913,1762.019645
968.360492,-9992.780217,1036.288319,2834.553343
968.360812,-8660.409521,-370.102971,689.485948
968.361133,-9474.636058,-1628.453072,153.219100
968.361454,-9104.533087,-888.247130,-229.828649
968.361774,-8734.430116,0.000000,0.000000
968.362095,-10288.862594,1110.308913,2298.286494
968.362416,-10362.883188,0.000000,2451.505594
968.362736,-8882.471304,-1480.411884,306.438199
968.363057,-9474.636058,-1480.411884,-612.876398
968.363378,-9104.533087,-148.041188,995.924147
968.363698,-9918.759623,1110.308913,2451.505594
968.364019,-10288.862594,1480.411884,3524.039291
968.364340,-9400.615463,-592.164754,1225.752797
968.364660,-8660.409521,-592.164754,-919.314598
968.364981,-10066.800811,-740.205942,-459.657299
968.365302,-8586.388927,-222.061783,-306.438199
968.365622,-8660.409521,-74.020594,153.219100
968.365943,-9400.615463,-888.247130,2451.505594
968.366264,-8586.388927,-444.123565,0.000000
968.366584,-11029.068536,-1258.350101,1149.143247
968.366905,-10955.047942,-1110.308913,2451.505594
968.367226,-9918.759623,-148.041188,2298.286494
968.367546,-11843.295072,-1110.308913,2604.724693
968.367867,-9844.739029,-740.205942,2145.067394
968.368188,-8956.491898,-1036.288319,-306.438199
968.368508,-9548.656652,0.000000,-459.657299
968.368829,-8512.368333,370.102971,-689.485948
968.369149,-8290.306550,1036.288319,-766.095498
968.369470,-9622.677246,740.205942,689.485948
968.369791,-9474.636058,222.061783,0.000000
968.370111,-9326.594869,296.082377,1378.971896
968.370432,-11251.130318,-1776.494261,1608.800546
968.370753,-9178.553681,0.000000,2298.286494
968.371073,-10140.821405,-1332.370696,2145.067394
968.371394,-9770.718434,0.000000,3983.696590
968.371715,-9474.636058,-444.123565,612.876398
968.372035,-9992.780217,-1036.288319,0.000000
968.372356,-8364.327145,1924.535449,0.000000
968.372677,-8734.430116,0.000000,-306.438199
968.372997,-8956.491898,-74.020594,1225.752797
968.373318,-10214.842000,-2368.659014,1225.752797
968.373639,-8660.409521,-3849.070898,-153.219100
968.373959,-9178.553681,-2220.617826,76.609550
968.374280,-11399.171507,222.061783,1455.581446
968.374601,-9622.677246,1998.556043,3983.696590
968.374921,-11843.295072,888.247130,4826.401637
968.375242,-9104.533087,1258.350101,3677.258390
968.375563,-9030.512492,-1998.556043,-1991.848295
968.375883,-7994.224174,-296.082377,-1915.238745
968.376204,-7772.162391,74.020594,-612.876398
968.376525,-6957.935855,962.267725,0.000000
968.376845,-8586.388927,444.123565,919.314598
968.377166,-8882.471304,0.000000,306.438199
968.377487,-10584.944971,-222.061783,1225.752797
968.377807,-11473.192101,-444.123565,2681.334243
968.378128,-10362.883188,296.082377,3983.696590
968.378449,-9844.739029,-370.102971,3677.258390
968.378769,-11177.109724,74.020594,3524.039291
968.379090,-8586.388927,0.000000,1378.971896
968.379411,-9622.677246,-666.185348,-229.828649
968.379731,-9474.636058,-444.123565,153.219100
968.380052,-8586.388927,1258.350101,536.266849
968.380373,-10362.883188,1406.391290,2068.457845
968.380693,-10066.800811,518.144159,1378.971896
968.381014,-9104.533087,148.041188,459.657299
968.381335,-10362.883188,-592.164754,1149.143247
968.381655,-9696.697840,-814.226536,1455.581446
968.381976,-9400.615463,0.000000,1915.238745
968.382297,-10658.965565,-1554.432478,3064.381992
968.382617,-8660.409521,-2220.617826,1455.581446
968.382938,-9474.636058,-1480.411884,-383.047749
968.383259,-10066.800811,-592.164754,0.000000
968.383579,-8882.471304,666.185348,689.485948
968.383900,-8882.471304,-148.041188,-153.219100
968.384220,-9992.780217,-1184.329507,1608.800546
968.384541,-9474.636058,-1776.494261,689.485948
968.384862,-10140.821405,-2368.659014,459.657299
968.385182,-10214.842000,-1850.514855,842.705048
968.385503,-8142.265362,-296.082377,766.095498
968.385824,-9252.574275,-370.102971,766.095498
968.386144,-10140.821405,-666.185348,1072.533697
968.386465,-8512.368333,-740.205942,-842.705048
968.386786,-8734.430116,-370.102971,919.314598
968.387106,-10214.842000,-296.082377,689.485948
968.387427,-8882.471304,0.000000,612.876398
968.387748,-10140.821405,0.000000,995.924147
968.388068,-9696.697840,296.082377,842.705048
968.388389,-9474.636058,-592.164754,-383.047749
968.388710,-10140.821405,-814.226536,919.314598
968.389030,-9992.780217,-1776.494261,459.657299
968.389351,-8808.450710,0.000000,459.657299
968.389672,-11325.150913,-370.102971,1762.019645
968.389994,-9252.574275,-1110.308913,1072.533697
968.390314,-10140.821405,-814.226536,536.266849
968.390635,-11325.150913,-518.144159,1532.190996
968.390956,-9326.594869,296.082377,536.266849
968.391277,-9622.677246,74.020594,1762.019645
968.391597,-10807.006753,-222.061783,2451.505594
968.391918,-9178.553681,-518.144159,1838.629195
968.392239,-10436.903782,-1110.308913,1378.971896
968.392560,-10214.842000,-222.061783,3140.991542
968.392880,-9474.636058,-1036.288319,1455.581446
968.393201,-9474.636058,-444.123565,2298.286494
968.393522,-9104.533087,-1628.453072,689.485948
968.393843,-7328.038826,-666.185348,-612.876398
968.394163,-7846.182985,-74.020594,-2145.067394
968.394484,-7624.121203,1554.432478,-306.438199
968.394805,-8216.285956,1702.473667,1378.971896
968.395126,-11103.089130,592.164754,3600.648841
968.395446,-11843.295072,-1332.370696,4213.525239
968.395767,-11325.150913,-2220.617826,3140.991542
968.396088,-11991.336260,-2146.597232,3677.258390
968.396409,-10066.800811,-962.267725,3600.648841
968.396729,-9770.718434,1036.288319,2604.724693
968.397050,-9474.636058,1184.329507,1838.629195
968.397371,-6587.832884,962.267725,-459.657299
968.397691,-7550.100608,-1110.308913,-2298.286494
968.398012,-9104.533087,-296.082377,-1532.190996
968.398333,-8068.244768,1036.288319,-229.828649
968.398654,-10066.800811,888.247130,2068.457845
968.398974,-10140.821405,1850.514855,3983.696590
968.399295,-10584.944971,-444.123565,1455.581446
968.399616,-10881.027347,-518.144159,2604.724693
968.399937,-11177.109724,-1258.350101,1915.238745
968.400257,-8586.388927,740.205942,1225.752797
968.400578,-9696.697840,1702.473667,2145.067394
968.400899,-9696.697840,962.267725,1685.410096
968.401220,-7772.162391,74.020594,-1149.143247
968.401540,-9400.615463,-814.226536,-1455.581446
968.401861,-8882.471304,296.082377,-689.485948
968.402182,-8512.368333,-592.164754,-612.876398
968.402503,-11399.171507,0.000000,3217.601092
968.402823,-11177.109724,-2146.597232,1685.410096
968.403144,-9474.636058,-2072.576638,0.000000
968.403465,-11029.068536,-2220.617826,2145.067394
968.403786,-9474.636058,74.020594,689.485948
968.404106,-10214.842000,1258.350101,1532.190996
968.404427,-11399.171507,740.205942,2528.115143
968.404748,-7920.203579,222.061783,-459.657299
968.405069,-9252.574275,-1036.288319,-919.314598
968.405389,-9992.780217,-666.185348,-536.266849
968.405710,-8216.285956,1406.391290,-76.609550
968.406031,-9918.759623,296.082377,1149.143247
968.406352,-7994.224174,-1406.391290,1072.533697
968.406672,-8438.347739,-2294.638420,-919.314598
968.406993,-10732.986159,-3404.947333,459.657299
968.407314,-10732.986159,-814.226536,1225.752797
968.407635,-10066.800811,592.164754,3830.477490
968.407955,-11325.150913,-296.082377,3983.696590
968.408276,-9622.677246,-740.205942,2834.553343
968.408597,-9622.677246,-2960.823768,459.657299
968.408918,-8586.388927,-1332.370696,0.000000
968.409238,-8882.471304,-888.247130,76.609550
968.409559,-7328.038826,0.000000,0.000000
968.409880,-8660.409521,888.247130,995.924147
968.410201,-8438.347739,-888.247130,536.266849
968.410521,-8734.430116,-2590.720797,-229.828649
968.410842,-10140.821405,-1776.494261,1685.410096
968.411163,-9770.718434,-1850.514855,2145.067394
968.411484,-9548.656652,444.123565,2221.676944
968.411804,-11621.233289,148.041188,4673.182538
968.412125,-8142.265362,74.020594,766.095498
968.412446,-9178.553681,518.144159,842.705048
968.412767,-9844.739029,814.226536,383.047749
968.413087,-8290.306550,1480.411884,919.314598
968.413408,-10955.047942,74.020594,2145.067394
968.413729,-9474.636058,-370.102971,1838.629195
968.414050,-9548.656652,-2146.597232,76.609550
968.414370,-10510.924376,-1628.453072,689.485948
968.414691,-9696.697840,-222.061783,2604.724693
968.415012,-10807.006753,666.185348,3753.867940
968.415333,-11251.130318,1110.308913,4673.182538
968.415653,-11177.109724,-962.267725,2298.286494
968.415974,-8586.388927,-1702.473667,-1685.410096
968.416295,-9030.512492,-1110.308913,-1072.533697
968.416616,-8364.327145,370.102971,-842.705048
968.416936,-8068.244768,1702.473667,689.485948
968.417257,-10658.965565,1258.350101,1532.190996
968.417578,-9474.636058,148.041188,2221.676944
968.417899,-10510.924376,-1258.350101,1455.581446
968.418219,-12583.501014,-888.247130,3753.867940
968.418540,-9622.677246,592.164754,3217.601092
968.418861,-9622.677246,0.000000,4060.306139
968.419182,-9030.512492,1406.391290,2451.505594
968.419502,-8068.244768,-1036.288319,0.000000
968.419823,-7698.141797,-1924.535449,-1455.581446
968.420144,-9030.512492,-1184.329507,-2298.286494
968.420465,-7846.182985,518.144159,-536.266849
968.420785,-10362.883188,-962.267725,919.314598
968.421106,-9178.553681,222.061783,1532.190996
968.421427,-9992.780217,-444.123565,306.438199
968.421748,-10584.944971,-888.247130,919.314598
968.422068,-9474.636058,-222.061783,1532.190996
968.422389,-8956.491898,-518.144159,1455.581446
968.422710,-9844.739029,-962.267725,1455.581446
968.423031,-8808.450710,-888.247130,-536.266849
968.423351,-8216.285956,-592.164754,-1608.800546
968.423672,-9844.739029,74.020594,-995.924147
968.423993,-8512.368333,888.247130,-229.828649
968.424314,-8956.491898,0.000000,-459.657299
968.424634,-10955.047942,-888.247130,1072.533697
968.424955,-9252.574275,-1850.514855,0.000000
968.425276,-10066.800811,-1480.411884,-229.828649
968.425597,-11177.109724,-592.164754,1302.362347
968.425917,-9548.656652,370.102971,383.047749
968.426238,-10584.944971,1628.453072,919.314598
968.426559,-10214.842000,518.144159,2298.286494
968.426880,-8956.491898,-1110.308913,0.000000
968.427200,-10140.821405,-2368.659014,-306.438199
968.427521,-10584.944971,-962.267725,689.485948
968.427842,-9178.553681,0.000000,536.266849
968.428163,-10658.965565,370.102971,2451.505594
968.428483,-9178.553681,-148.041188,1302.362347
968.428804,-9548.656652,-666.185348,-306.438199
968.429125,-10732.986159,-222.061783,612.876398
968.429446,-9474.636058,592.164754,2068.457845
968.429766,-9622.677246,0.000000,2681.334243
968.430087,-10214.842000,-740.205942,3064.381992
968.430408,-8956.491898,-1406.391290,1225.752797
968.430729,-8512.368333,-1184.329507,153.219100
968.431049,-10214.842000,-740.205942,1838.629195
968.431370,-9030.512492,0.000000,1302.362347
968.431691,-9474.636058,296.082377,2374.896044
968.432012,-9918.759623,-296.082377,2298.286494
968.432332,-8512.368333,-370.102971,1608.800546
968.432653,-9400.615463,-1184.329507,2221.676944
968.432974,-9696.697840,-962.267725,2528.115143
968.433295,-9104.533087,222.061783,2834.553343
968.433615,-9622.677246,-148.041188,2911.162892
968.433936,-9178.553681,-518.144159,2298.286494
968.434257,-9104.533087,-1554.432478,0.000000
968.434578,-9252.574275,-518.144159,383.047749
968.434898,-9252.574275,666.185348,76.609550
968.435219,-7994.224174,1998.556043,766.095498
968.435540,-10584.944971,370.102971,1762.019645
968.435861,-9548.656652,-814.226536,1302.362347
968.436181,-9770.718434,-1702.473667,76.609550
968.436502,-10807.006753,-2442.679609,536.266849
968.436823,-8734.430116,0.000000,306.438199
968.437144,-9400.615463,1554.432478,1455.581446
968.437464,-10214.842000,2072.576638,2068.457845
968.437785,-9770.718434,1184.329507,153.219100
968.438106,-8956.491898,666.185348,0.000000
968.438427,-10658.965565,-1258.350101,383.047749
968.438747,-9622.677246,-1110.308913,612.876398
968.439068,-11103.089130,-1850.514855,1838.629195
968.439389,-10584.944971,-444.123565,1225.752797
968.439710,-9770.718434,0.000000,0.000000
968.440030,-10658.965565,-814.226536,153.219100
968.440351,-9918.759623,-444.123565,612.876398
968.440672,-9104.533087,-888.247130,-689.485948
968.440993,-10140.821405,-444.123565,229.828649
968.441313,-9474.636058,-1406.391290,842.705048
968.441634,-9696.697840,-2294.638420,-766.095498
968.441955,-10658.965565,-814.226536,612.876398
968.442276,-10288.862594,148.041188,153.219100
968.442596,-8882.471304,1036.288319,-383.047749
968.442917,-10955.047942,370.102971,1378.971896
968.443238,-9104.533087,592.164754,1149.143247
968.443558,-10140.821405,-888.247130,459.657299
968.443879,-9030.512492,-1554.432478,1378.971896
968.444200,-7994.224174,0.000000,229.828649
968.444521,-10066.800811,-1184.329507,1991.848295
968.444841,-9622.677246,-370.102971,2528.115143
968.445162,-9992.780217,-888.247130,995.924147
968.445483,-9474.636058,-2072.576638,153.219100
968.445804,-9104.533087,-518.144159,919.314598
968.446124,-9252.574275,-518.144159,1225.752797
968.446445,-9474.636058,-296.082377,1838.629195
968.446766,-9400.615463,148.041188,1455.581446
968.447087,-7846.182985,-444.123565,383.047749
968.447407,-8660.409521,-1036.288319,153.219100
968.447728,-9548.656652,-1332.370696,1991.848295
968.448049,-10584.944971,-1406.391290,1685.410096
968.448370,-10214.842000,370.102971,3983.696590
968.448690,-10140.821405,-888.247130,3753.867940
968.449011,-9474.636058,-444.123565,2451.505594
968.449332,-11843.295072,-1554.432478,2681.334243
968.449653,-9178.553681,0.000000,1302.362347
968.449973,-9252.574275,222.061783,766.095498
968.450294,-9178.553681,1480.411884,1149.143247
968.450615,-8142.265362,370.102971,-766.095498
968.450936,-9252.574275,0.000000,-842.705048
968.451256,-9474.636058,-296.082377,306.438199
968.451577,-9326.594869,-148.041188,842.705048
968.451898,-11029.068536,518.144159,2451.505594
968.452219,-11991.336260,444.123565,2911.162892
968.452539,-10807.006753,-296.082377,1915.238745
968.452860,-9918.759623,-296.082377,1072.533697
968.453181,-9474.636058,-148.041188,153.219100
968.453502,-7994.224174,444.123565,306.438199
968.453822,-9030.512492,0.000000,229.828649
968.454143,-8808.450710,814.226536,-229.828649
968.454464,-8290.306550,518.144159,-689.485948
968.454785,-10066.800811,-370.102971,-229.828649
968.455105,-10140.821405,888.247130,1072.533697
968.455426,-10807.006753,1110.308913,1608.800546
968.455747,-11621.233289,1110.308913,4136.915689
968.456068,-11621.233289,-518.144159,3447.429741
968.456388,-10436.903782,-2146.597232,0.000000
968.456709,-9696.697840,-888.247130,-919.314598
968.457030,-7624.121203,370.102971,-1838.629195
968.457351,-6883.915261,74.020594,-383.047749
968.457671,-8142.265362,962.267725,-766.095498
968.457992,-8364.327145,-518.144159,-766.095498
968.458313,-10288.862594,-518.144159,-842.705048
968.458634,-10807.006753,-1850.514855,1302.362347
968.458954,-10510.924376,-518.144159,2987.772442
968.459275,-12213.398043,-592.164754,3983.696590
968.459596,-10881.027347,-666.185348,4060.306139
968.459917,-9918.759623,-1258.350101,2834.553343
968.460237,-8068.244768,-2368.659014,-153.219100
968.460558,-9622.677246,-1036.288319,-842.705048
968.460879,-7328.038826,-148.041188,383.047749
968.461200,-8586.388927,-370.102971,0.000000
968.461520,-8956.491898,-1036.288319,459.657299
968.461841,-9104.533087,-2664.741391,459.657299
968.462162,-9918.759623,-1258.350101,1302.362347
968.462483,-11547.212695,-666.185348,2451.505594
968.462803,-10510.924376,-296.082377,2604.724693
968.463124,-11177.109724,518.144159,3447.429741
968.463445,-10436.903782,-740.205942,1762.019645
968.463766,-9400.615463,-518.144159,-1302.362347
968.464086,-9548.656652,-1480.411884,0.000000
968.464407,-9030.512492,-1776.494261,-383.047749
968.464728,-8438.347739,-740.205942,0.000000
968.465049,-10362.883188,-592.164754,1685.410096
968.465369,-9030.512492,444.123565,536.266849
968.465690,-10732.986159,222.061783,612.876398
968.466011,-9992.780217,592.164754,1149.143247
968.466332,-10955.047942,0.000000,1991.848295
968.466652,-9178.553681,1628.453072,2451.505594
968.466973,-11399.171507,-2072.576638,2451.505594
968.467294,-8068.244768,-592.164754,-153.219100
968.467615,-10066.800811,-1184.329507,229.828649
968.467935,-9400.615463,-1110.308913,995.924147
968.468256,-8290.306550,1554.432478,0.000000
968.468577,-10288.862594,1776.494261,1762.019645
968.468898,-9252.574275,1258.350101,842.705048
968.469218,-8882.471304,962.267725,0.000000
968.469539,-10066.800811,-222.061783,1072.533697
968.469860,-9548.656652,-1332.370696,766.095498
968.470181,-9474.636058,-222.061783,1378.971896
968.470501,-10658.965565,-222.061783,3064.381992
968.470822,-9400.615463,-444.123565,1532.190996
968.471143,-8660.409521,0.000000,612.876398
968.471464,-9770.718434,-222.061783,766.095498
968.471784,-9030.512492,518.144159,766.095498
968.472105,-9474.636058,444.123565,1149.143247
968.472426,-10510.924376,-296.082377,2374.896044
968.472747,-8808.450710,-518.144159,766.095498
968.473067,-9992.780217,-814.226536,459.657299
968.473388,-9844.739029,0.000000,1762.019645
968.473709,-9252.574275,296.082377,1838.629195
968.474030,-9918.759623,444.123565,2911.162892
968.474350,-10881.027347,-296.082377,3907.087040
968.474671,-10436.903782,-1554.432478,1762.019645
968.474992,-10362.883188,-222.061783,1762.019645
968.475313,-10658.965565,-148.041188,1378.971896
968.475633,-7846.182985,814.226536,919.314598
968.475954,-9696.697840,814.226536,766.095498
968.476275,-8882.471304,1924.535449,1762.019645
968.476596,-9030.512492,-370.102971,-766.095498
968.476916,-9992.780217,-1258.350101,306.438199
968.477237,-9474.636058,-1554.432478,612.876398
968.477558,-9400.615463,-1036.288319,306.438199
968.477879,-11621.233289,-740.205942,3524.039291
968.478199,-10066.800811,-1036.288319,2451.505594
968.478520,-10066.800811,-2442.679609,612.876398
968.478841,-10288.862594,-2220.617826,229.828649
968.479162,-8216.285956,-888.247130,-1762.019645
968.479482,-8364.327145,518.144159,-1532.190996
968.479803,-9252.574275,1406.391290,-1072.533697
968.480124,-7179.997637,1110.308913,-2528.115143
968.480445,-9474.636058,444.123565,-995.924147
968.480765,-11325.150913,-148.041188,1072.533697
968.481086,-10362.883188,0.000000,2604.724693
968.481407,-13101.645173,-1850.514855,4596.572988
968.481728,-11177.109724,-1332.370696,4136.915689
968.482048,-9474.636058,-1924.535449,1302.362347
968.482369,-10288.862594,0.000000,1915.238745
968.482690,-9178.553681,148.041188,919.314598
968.483011,-6439.791695,222.061783,-1149.143247
968.483331,-7402.059420,-444.123565,306.438199
968.483652,-7402.059420,-148.041188,-1302.362347
968.483973,-8734.430116,-1406.391290,-1378.971896
968.484294,-11103.089130,-518.144159,1915.238745
968.484614,-9918.759623,74.020594,2221.676944
968.484935,-9696.697840,296.082377,3370.820191
968.485256,-12583.501014,-1850.514855,3907.087040
968.485577,-8142.265362,-666.185348,1838.629195
968.485897,-9992.780217,-1332.370696,1072.533697
968.486218,-9104.533087,-444.123565,766.095498
968.486539,-7402.059420,222.061783,76.609550
968.486860,-8956.491898,0.000000,229.828649
968.487180,-8438.347739,962.267725,459.657299
968.487501,-8734.430116,740.205942,0.000000
968.487822,-10362.883188,-666.185348,612.876398
968.488143,-10214.842000,-370.102971,1915.238745
968.488463,-9252.574275,0.000000,2451.505594
968.488784,-10510.924376,-740.205942,2681.334243
968.489105,-9696.697840,-1628.453072,2451.505594
968.489425,-9548.656652,-1258.350101,1072.533697
968.489746,-10732.986159,-222.061783,1302.362347
968.490067,-9326.594869,1332.370696,2068.457845
968.490387,-9696.697840,1628.453072,3217.601092
968.490708,-11177.109724,740.205942,3217.601092
968.491029,-10510.924376,148.041188,1532.190996
968.491349,-9548.656652,-296.082377,612.876398
968.491670,-9474.636058,-518.144159,3294.210641
968.491991,-8660.409521,518.144159,1302.362347
968.492311,-9252.574275,1036.288319,1991.848295
968.492632,-10436.903782,296.082377,2374.896044
968.492953,-8586.388927,-666.185348,383.047749
968.493273,-9696.697840,-1110.308913,0.000000
968.493594,-9992.780217,-1480.411884,1149.143247
968.493914,-8660.409521,-962.267725,766.095498
968.494235,-9696.697840,0.000000,1225.752797
968.494556,-9474.636058,0.000000,1915.238745
968.494876,-8438.347739,518.144159,-612.876398
968.495197,-10510.924376,-592.164754,766.095498
968.495518,-9474.636058,-740.205942,842.705048
968.495838,-8438.347739,-666.185348,306.438199
968.496159,-10288.862594,-1702.473667,1532.190996
968.496480,-9548.656652,-2812.782580,995.924147
968.496800,-9252.574275,-1924.535449,76.609550
968.497121,-11325.150913,-1554.432478,1762.019645
968.497442,-9548.656652,148.041188,919.314598
968.497762,-7105.977043,1924.535449,1149.143247
968.498083,-10436.903782,814.226536,766.095498
968.498404,-7698.141797,1110.308913,-612.876398
968.498724,-8290.306550,-1702.473667,-1838.629195
968.499045,-8956.491898,-1332.370696,-459.657299
968.499366,-7179.997637,-148.041188,-919.314598
968.499686,-10807.006753,296.082377,2757.943793
968.500007,-11177.109724,888.247130,4136.915689
968.500327,-10288.862594,-296.082377,1685.410096
968.500648,-11695.253884,-740.205942,2068.457845
968.500969,-10510.924376,-814.226536,1915.238745
968.501289,-8882.471304,0.000000,1225.752797
968.501610,-10658.965565,-962.267725,2221.676944
968.501931,-8438.347739,-1702.473667,153.219100
968.502251,-7846.182985,-2442.679609,-1762.019645
968.502572,-9992.780217,-2072.576638,-1149.143247
968.502893,-9326.594869,888.247130,0.000000
968.503213,-9844.739029,1480.411884,1455.581446
968.503534,-11547.212695,962.267725,2757.943793
968.503855,-9992.780217,-370.102971,766.095498
968.504175,-10140.821405,-1850.514855,2604.724693
968.504496,-11769.274478,-1776.494261,2374.896044
968.504817,-9474.636058,-1628.453072,1149.143247
968.505137,-8734.430116,-296.082377,0.000000
968.505458,-9474.636058,740.205942,306.438199
968.505778,-7105.977043,370.102971,-1225.752797
968.506099,-9252.574275,592.164754,-383.047749
968.506420,-10140.821405,148.041188,919.314598
968.506740,-8512.368333,-296.082377,689.485948
968.507061,-10436.903782,0.000000,2298.286494
968.507382,-10436.903782,-444.123565,3907.087040
968.507702,-9548.656652,-2146.597232,1072.533697
968.508023,-9992.780217,-740.205942,1149.143247
968.508344,-8808.450710,-592.164754,2528.115143
968.508664,-7994.224174,74.020594,0.000000
968.508985,-10140.821405,962.267725,1455.581446
968.509306,-8882.471304,1258.350101,1455.581446
968.509626,-9326.594869,370.102971,76.609550
968.509947,-10288.862594,148.041188,1302.362347
968.510268,-9696.697840,74.020594,2068.457845
968.510588,-9474.636058,-444.123565,2374.896044
968.510909,-11103.089130,-814.226536,3064.381992
968.511230,-9326.594869,-370.102971,1915.238745
968.511550,-10140.821405,-740.205942,919.314598
968.511871,-9918.759623,296.082377,1532.190996
968.512191,-8290.306550,888.247130,459.657299
968.512512,-9844.739029,1110.308913,-229.828649
968.512833,-9474.636058,666.185348,1762.019645
968.513153,-9474.636058,0.000000,536.266849
968.513474,-9770.718434,-1628.453072,995.924147
968.513795,-9696.697840,-1554.432478,689.485948
968.514115,-9770.718434,0.000000,1608.800546
968.514436,-10807.006753,370.102971,3217.601092
968.514757,-10510.924376,370.102971,3677.258390
968.515077,-9992.780217,-1850.514855,1762.019645
968.515398,-8438.347739,-1554.432478,1225.752797
968.515719,-9696.697840,-1776.494261,-229.828649
968.516039,-8438.347739,-666.185348,229.828649
968.516360,-9030.512492,-1776.494261,-229.828649
968.516681,-8216.285956,74.020594,153.219100
968.517001,-8660.409521,0.000000,-1378.971896
968.517322,-10214.842000,370.102971,536.266849
968.517643,-9844.739029,1332.370696,1455.581446
968.517963,-10214.842000,962.267725,1762.019645
968.518284,-11843.295072,-518.144159,2681.334243
968.518604,-9548.656652,-1924.535449,1608.800546
968.518925,-9844.739029,-2960.823768,76.609550
968.519246,-9770.718434,-518.144159,229.828649
968.519566,-8734.430116,1332.370696,689.485948
968.519887,-9252.574275,222.061783,919.314598
968.520208,-8660.409521,-222.061783,-229.828649
968.520528,-7994.224174,-518.144159,-1915.238745
968.520849,-8808.450710,-1332.370696,-1838.629195
968.521170,-8660.409521,-814.226536,-689.485948
968.521490,-9622.677246,888.247130,1302.362347
968.521811,-9844.739029,962.267725,3447.429741
968.522132,-10436.903782,-740.205942,3064.381992
968.522452,-9622.677246,-1332.370696,1455.581446
968.522773,-10732.986159,-1258.350101,1455.581446
968.523094,-9770.718434,-1554.432478,383.047749
968.523414,-8438.347739,1406.391290,1302.362347
968.523735,-10140.821405,148.041188,1838.629195
968.524055,-7179.997637,222.061783,-766.095498
968.524376,-9548.656652,-518.144159,-536.266849
968.524697,-9622.677246,-1110.308913,919.314598
968.525017,-9474.636058,-592.164754,919.314598
968.525338,-9548.656652,444.123565,2834.553343
968.525659,-10732.986159,0.000000,3294.210641
968.525979,-9622.677246,-1036.288319,1762.019645
968.526300,-10584.944971,-888.247130,1685.410096
968.526621,-9770.718434,1036.288319,919.314598
968.526941,-9326.594869,962.267725,1455.581446
968.527262,-9696.697840,1036.288319,1838.629195
968.527583,-10436.903782,-296.082377,1915.238745
968.527903,-8438.347739,-1480.411884,0.000000
968.528224,-10214.842000,-1776.494261,1072.533697
968.528545,-9474.636058,-814.226536,1838.629195
968.528865,-9918.759623,-370.102971,1532.190996
968.529186,-10807.006753,1628.453072,3677.258390
968.529507,-10732.986159,0.000000,3294.210641
968.529827,-9474.636058,-814.226536,1685.410096
968.530148,-11029.068536,-1480.411884,1072.533697
968.530468,-7994.224174,-444.123565,-229.828649
968.530789,-8586.388927,-666.185348,536.266849
968.531110,-9252.574275,0.000000,1225.752797
968.531430,-8142.265362,-222.061783,766.095498
968.531751,-9622.677246,-1036.288319,0.000000
968.532072,-9992.780217,814.226536,1762.019645
968.532392,-10140.821405,0.000000,2221.676944
968.532713,-10288.862594,74.020594,3217.601092
968.533034,-10881.027347,-666.185348,2987.772442
968.533354,-8956.491898,-962.267725,383.047749
968.533675,-9326.594869,-1554.432478,-306.438199
968.533996,-9030.512492,-222.061783,0.000000
968.534316,-7846.182985,-666.185348,-612.876398
968.534637,-8586.388927,-740.205942,-306.438199
968.534958,-8808.450710,370.102971,-766.095498
968.535278,-8364.327145,74.020594,-1685.410096
968.535599,-11029.068536,-1184.329507,383.047749
968.535919,-9400.615463,222.061783,689.485948
968.536240,-10510.924376,296.082377,1455.581446
968.536561,-11251.130318,-518.144159,2374.896044
968.536881,-9918.759623,-1184.329507,995.924147
968.537202,-9474.636058,-1554.432478,-459.657299
968.537523,-10658.965565,-296.082377,0.000000
968.537843,-9474.636058,1036.288319,536.266849
968.538164,-9992.780217,444.123565,1149.143247
968.538485,-9992.780217,0.000000,1532.190996
968.538805,-9696.697840,-1110.308913,-612.876398
968.539126,-9844.739029,-1998.556043,-919.314598
968.539447,-8512.368333,-1776.494261,-229.828649
968.539767,-9178.553681,0.000000,-612.876398
968.540088,-9474.636058,2368.659014,1072.533697
968.540409,-10214.842000,1406.391290,2987.772442
968.540729,-9326.594869,0.000000,842.705048
968.541050,-10510.924376,-370.102971,995.924147
968.541371,-10881.027347,-444.123565,2451.505594
968.541691,-9622.677246,-370.102971,2681.334243
968.542012,-9770.718434,222.061783,2834.553343
968.542332,-9104.533087,-666.185348,1915.238745
968.542653,-7994.224174,-1184.329507,612.876398
968.542974,-9104.533087,-1998.556043,0.000000
968.543294,-7031.956449,-1924.535449,0.000000
968.543615,-8586.388927,-444.123565,766.095498
968.543936,-8956.491898,1110.308913,3140.991542
968.544256,-10288.862594,-148.041188,3524.039291
968.544577,-9622.677246,-370.102971,2528.115143
968.544898,-10807.006753,-2146.597232,2298.286494
968.545218,-8438.347739,-740.205942,1685.410096
968.545539,-9548.656652,-1110.308913,1685.410096
968.545860,-9622.677246,-518.144159,2145.067394
968.546180,-8660.409521,-148.041188,536.266849
968.546501,-8882.471304,-148.041188,76.609550
968.546822,-8808.450710,0.000000,842.705048
968.547142,-8586.388927,296.082377,1149.143247
968.547463,-9918.759623,1036.288319,3370.820191
968.547784,-11251.130318,-592.164754,3217.601092
968.548104,-9770.718434,-1924.535449,1378.971896
968.548425,-9844.739029,-1850.514855,919.314598
968.548745,-10436.903782,0.000000,1225.752797
968.549066,-9474.636058,1406.391290,1608.800546
968.549387,-10658.965565,592.164754,1685.410096
968.549707,-9252.574275,0.000000,689.485948
968.550028,-9178.553681,-1258.350101,-1455.581446
968.550349,-9548.656652,-444.123565,-766.095498
968.550669,-9326.594869,814.226536,306.438199
968.550990,-9548.656652,1184.329507,689.485948
968.551311,-11029.068536,962.267725,2374.896044
968.551631,-9548.656652,-1110.308913,536.266849
968.551952,-10214.842000,-3034.844362,-153.219100
968.552273,-10214.842000,-1702.473667,689.485948
968.552593,-9474.636058,-1850.514855,-383.047749
968.552914,-8512.368333,666.185348,76.609550
968.553235,-10584.944971,-222.061783,-153.219100
968.553555,-8438.347739,148.041188,-1378.971896
968.553876,-10140.821405,-888.247130,-842.705048
968.554196,-9548.656652,0.000000,229.828649
968.554517,-8956.491898,0.000000,1455.581446
968.554838,-10510.924376,1184.329507,2451.505594
968.555158,-10807.006753,814.226536,2451.505594
968.555479,-9326.594869,370.102971,1532.190996
968.555800,-10214.842000,-888.247130,1838.629195
968.556120,-9474.636058,-370.102971,2221.676944
968.556441,-9178.553681,-1184.329507,2145.067394
968.556762,-9622.677246,-1702.473667,1455.581446
968.557082,-8142.265362,0.000000,383.047749
968.557403,-7994.224174,-444.123565,-1608.800546
968.557724,-8660.409521,592.164754,-1225.752797
968.558044,-7254.018232,2294.638420,1378.971896
968.558365,-10510.924376,-370.102971,1991.848295
968.558686,-9030.512492,0.000000,3294.210641
968.559006,-10436.903782,-2664.741391,2451.505594
968.559327,-10658.965565,-2294.638420,1149.143247
968.559648,-10066.800811,148.041188,3140.991542
968.559968,-9326.594869,740.205942,1991.848295
968.560289,-8438.347739,888.247130,2451.505594
968.560609,-9104.533087,-222.061783,459.657299
968.560930,-7550.100608,-1184.329507,-1762.019645
968.561251,-8882.471304,-148.041188,-1378.971896
968.561571,-8364.327145,148.041188,0.000000
968.561892,-7476.080014,1850.514855,612.876398
968.562213,-10288.862594,1628.453072,2451.505594
968.562533,-11325.150913,0.000000,4290.134789
968.562854,-11399.171507,-1258.350101,3064.381992
968.563175,-12805.562797,-1406.391290,4290.134789
968.563495,-11325.150913,-888.247130,2757.943793
968.563816,-9992.780217,888.247130,2681.334243
968.564137,-9918.759623,1036.288319,2528.115143
968.564457,-8586.388927,-222.061783,229.828649
968.564778,-7920.203579,0.000000,-995.924147
968.565099,-9622.677246,-1406.391290,-842.705048
968.565419,-7994.224174,518.144159,-153.219100
968.565740,-10658.965565,1184.329507,2068.457845
968.566061,-11029.068536,1184.329507,3677.258390
968.566381,-10288.862594,518.144159,3217.601092
968.566702,-11177.109724,-2146.597232,1225.752797
968.567022,-9474.636058,-1998.556043,1991.848295
968.567343,-9474.636058,-888.247130,1072.533697
968.567664,-9400.615463,222.061783,1762.019645
968.567984,-9622.677246,0.000000,842.705048
968.568305,-8142.265362,-444.123565,-689.485948
968.568626,-8882.471304,-1480.411884,-1532.190996
968.568946,-9474.636058,-888.247130,-536.266849
968.569267,-9104.533087,0.000000,76.609550
968.569588,-10658.965565,-592.164754,2068.457845
968.569908,-9548.656652,-1924.535449,1608.800546
968.570229,-9252.574275,-2664.741391,0.000000
968.570550,-10288.862594,-3108.864956,459.657299
968.570870,-8956.491898,-1258.350101,383.047749
968.571191,-9474.636058,-148.041188,0.000000
968.571512,-9474.636058,-222.061783,766.095498
968.571832,-7772.162391,-370.102971,-689.485948
968.572153,-9252.574275,-1184.329507,-1455.581446
968.572473,-9326.594869,-1110.308913,0.000000
968.572794,-8512.368333,-740.205942,536.266849
968.573115,-10732.986159,296.082377,2298.286494
968.573435,-12287.418637,0.000000,3677.258390
968.573756,-10732.986159,-1258.350101,1685.410096
968.574077,-10658.965565,-1110.308913,919.314598
968.574397,-10066.800811,-1998.556043,383.047749
968.574718,-8216.285956,0.000000,76.609550
968.575039,-10214.842000,-518.144159,1762.019645
968.575359,-7772.162391,-592.164754,1532.190996
968.575680,-9400.615463,-444.123565,-612.876398
968.576001,-10140.821405,666.185348,306.438199
968.576321,-9474.636058,1332.370696,1225.752797
968.576642,-9918.759623,2294.638420,2298.286494
968.576963,-11621.233289,1628.453072,4136.915689
968.577283,-9622.677246,0.000000,2528.115143
968.577604,-10658.965565,-1406.391290,842.705048
968.577925,-9992.780217,-1554.432478,1225.752797
968.578245,-8734.430116,-814.226536,1149.143247
968.578566,-9696.697840,222.061783,2221.676944
968.578886,-10140.821405,0.000000,1991.848295
968.579207,-9104.533087,888.247130,1838.629195
968.579528,-11399.171507,-518.144159,1762.019645
968.579848,-10436.903782,-1184.329507,612.876398
968.580169,-8660.409521,-740.205942,689.485948
968.580490,-9326.594869,-148.041188,919.314598
968.580810,-9400.615463,444.123565,2528.115143
968.581131,-8660.409521,-1184.329507,766.095498
968.581452,-9474.636058,-740.205942,76.609550
968.581772,-9622.677246,-740.205942,995.924147
968.582093,-8586.388927,0.000000,1302.362347
968.582414,-10955.047942,444.123565,3600.648841
968.582734,-9992.780217,962.267725,2757.943793
968.583055,-9992.780217,-74.020594,1532.190996
968.583376,-10140.821405,0.000000,1685.410096
968.583696,-9030.512492,-592.164754,2451.505594
968.584017,-9770.718434,-3849.070898,-229.828649
968.584337,-7105.977043,296.082377,1455.581446
968.584658,-10732.986159,-370.102971,306.438199
968.584979,-8586.388927,0.000000,459.657299
968.585299,-9474.636058,-296.082377,76.609550
968.585620,-10955.047942,1480.411884,2451.505594
968.585941,-9030.512492,518.144159,1072.533697
968.586261,-12509.480420,-296.082377,3370.820191
968.586582,-8364.327145,-1924.535449,1915.238745
968.586903,-9474.636058,-2220.617826,-1532.190996
968.587223,-9696.697840,-666.185348,383.047749
968.587544,-7328.038826,1110.308913,229.828649
968.587865,-9474.636058,2738.761985,0.000000
968.588185,-11695.253884,1406.391290,2374.896044
968.588506,-7476.080014,-740.205942,-1608.800546
968.588827,-10658.965565,-1554.432478,-995.924147
968.589147,-11103.089130,-1924.535449,0.000000
968.589468,-8808.450710,-1258.350101,919.314598
968.589789,-11251.130318,-962.267725,2374.896044
968.590109,-9548.656652,-962.267725,459.657299
968.590430,-9030.512492,-444.123565,-766.095498
968.590750,-10732.986159,-814.226536,0.000000
968.591071,-8586.388927,740.205942,153.219100
968.591392,-9918.759623,1258.350101,459.657299
968.591712,-10214.842000,592.164754,1378.971896
968.592033,-8438.347739,518.144159,-306.438199
968.592354,-9326.594869,-1628.453072,0.000000
968.592674,-10584.944971,-1850.514855,1072.533697
968.592995,-8216.285956,0.000000,1302.362347
968.593316,-9696.697840,148.041188,2068.457845
968.593636,-11473.192101,0.000000,2374.896044
968.593957,-8068.244768,-518.144159,766.095498
968.594278,-9918.759623,-2220.617826,0.000000
968.594599,-7772.162391,666.185348,306.438199
968.594919,-9696.697840,-444.123565,689.485948
968.595240,-10214.842000,592.164754,2757.943793
968.595561,-10140.821405,-1036.288319,2911.162892
968.595881,-9104.533087,-2664.741391,919.314598
968.596202,-10140.821405,-888.247130,1762.019645
968.596523,-10881.027347,518.144159,2987.772442
968.596843,-8956.491898,444.123565,2834.553343
968.597164,-9992.780217,0.000000,2451.505594
968.597485,-7402.059420,-666.185348,0.000000
968.597805,-8290.306550,-1036.288319,-1225.752797
968.598126,-8438.347739,-370.102971,-919.314598
968.598447,-7550.100608,222.061783,383.047749
968.598767,-9474.636058,222.061783,1225.752797
968.599088,-10436.903782,-666.185348,3677.258390
968.599409,-10436.903782,-1480.411884,1838.629195
968.599729,-10807.006753,-1702.473667,1685.410096
968.600050,-10584.944971,-592.164754,2451.505594
968.600371,-10140.821405,962.267725,2604.724693
968.600691,-10066.800811,296.082377,2604.724693
968.601012,-10140.821405,-370.102971,1225.752797
968.601333,-8364.327145,0.000000,-153.219100
968.601653,-10288.862594,-1406.391290,-536.266849
968.601974,-9474.636058,1110.308913,306.438199
968.602295,-9178.553681,2072.576638,612.876398
968.602615,-9992.780217,2072.576638,1455.581446
968.602936,-9844.739029,814.226536,1072.533697
968.603257,-9252.574275,-888.247130,0.000000
968.603577,-10732.986159,-222.061783,995.924147
968.603898,-10510.924376,0.000000,1455.581446
968.604219,-9918.759623,148.041188,2145.067394
968.604539,-10955.047942,-1258.350101,2451.505594
968.604860,-9252.574275,-888.247130,842.705048
968.605181,-9844.739029,-1110.308913,76.609550
968.605501,-10436.903782,-592.164754,1532.190996
968.605822,-8216.285956,666.185348,689.485948
968.606143,-9252.574275,74.020594,842.705048
968.606464,-10214.842000,-296.082377,2068.457845
968.606784,-8586.388927,-2146.597232,229.828649
968.607105,-9400.615463,-2664.741391,-536.266849
968.607426,-8808.450710,-1702.473667,-919.314598
968.607746,-8142.265362,-740.205942,76.609550
968.608067,-10140.821405,-296.082377,1915.238745
968.608388,-9770.718434,-888.247130,1608.800546
968.608708,-8956.491898,-962.267725,0.000000
968.609029,-10066.800811,-1554.432478,76.609550
968.609350,-9474.636058,-740.205942,459.657299
968.609670,-8956.491898,962.267725,766.095498
968.609991,-10510.924376,1332.370696,2987.772442
968.610312,-8882.471304,888.247130,2221.676944
968.610632,-9474.636058,-2220.617826,229.828649
968.610953,-9252.574275,-2368.659014,-229.828649
968.611274,-8438.347739,-1332.370696,-229.828649
968.611594,-10140.821405,-1554.432478,306.438199
968.611915,-9844.739029,-370.102971,1608.800546
968.612236,-9400.615463,-296.082377,612.876398
968.612556,-8438.347739,74.020594,-995.924147
968.612877,-10807.006753,888.247130,1072.533697
968.613198,-8956.491898,2146.597232,1378.971896
968.613518,-11029.068536,1480.411884,3294.210641
968.613839,-10955.047942,518.144159,2451.505594
968.614160,-8660.409521,-814.226536,995.924147
968.614480,-11251.130318,-2072.576638,842.705048
968.614801,-10362.883188,666.185348,2221.676944
968.615122,-9548.656652,-444.123565,2068.457845
968.615442,-9622.677246,-296.082377,2145.067394
968.615763,-8290.306550,-962.267725,459.657299
968.616084,-8734.430116,-592.164754,-842.705048
968.616404,-9770.718434,0.000000,995.924147
968.616725,-8956.491898,0.000000,1072.533697
968.617046,-8660.409521,888.247130,1072.533697
968.617366,-9918.759623,814.226536,2528.115143
968.617687,-9918.759623,-962.267725,2221.676944
968.618008,-9918.759623,-1332.370696,1685.410096
968.618329,-10732.986159,-1258.350101,1608.800546
968.618649,-8660.409521,74.020594,612.876398
968.618970,-8734.430116,1110.308913,1072.533697
968.619291,-10584.944971,222.061783,2604.724693
968.619611,-7846.182985,-740.205942,229.828649
968.619932,-8808.450710,-370.102971,-919.314598
968.620253,-9400.615463,-962.267725,1072.533697
968.620573,-9104.533087,888.247130,1685.410096
968.620894,-10807.006753,666.185348,3217.601092
968.621215,-10436.903782,444.123565,3370.820191
968.621535,-8956.491898,-1480.411884,689.485948
968.621856,-10140.821405,-1554.432478,0.000000
968.622177,-10436.903782,-518.144159,919.314598
968.622497,-9622.677246,222.061783,612.876398
968.622818,-9992.780217,1776.494261,2068.457845
968.623139,-10584.944971,518.144159,1685.410096
968.623459,-8660.409521,-148.041188,76.609550
968.623780,-10955.047942,-2294.638420,-306.438199
968.624101,-7920.203579,0.000000,-612.876398
968.624421,-9474.636058,666.185348,0.000000
968.624742,-10510.924376,592.164754,2451.505594
968.625063,-9474.636058,-888.247130,689.485948
968.625383,-9178.553681,-1480.411884,-919.314598
968.625704,-10140.821405,-2146.597232,0.000000
968.626025,-9548.656652,-444.123565,842.705048
968.626345,-10584.944971,-370.102971,2374.896044
968.626666,-11325.150913,-1184.329507,2145.067394
968.626987,-8734.430116,0.000000,-229.828649
968.627307,-10066.800811,-1184.329507,0.000000
968.627628,-9104.533087,-296.082377,0.000000
968.627949,-9104.533087,1480.411884,536.266849
968.628269,-10807.006753,1332.370696,1072.533697
968.628590,-10066.800811,444.123565,2298.286494
968.628911,-9104.533087,-2072.576638,229.828649
968.629231,-10214.842000,-2516.700203,76.609550
968.629552,-9474.636058,-666.185348,689.485948
968.629873,-8808.450710,74.020594,766.095498
968.630194,-9696.697840,-444.123565,1685.410096
968.630514,-8586.388927,-888.247130,766.095498
968.630835,-8290.306550,-1258.350101,-459.657299
968.631156,-10214.842000,-1036.288319,766.095498
968.631476,-9252.574275,0.000000,1378.971896
968.631797,-8438.347739,1406.391290,1991.848295
968.632118,-11177.109724,-1110.308913,3064.381992
968.632438,-7031.956449,-666.185348,1532.190996
968.632759,-10140.821405,-1628.453072,1302.362347
968.633080,-9770.718434,-962.267725,1225.752797
968.633400,-8734.430116,0.000000,995.924147
968.633721,-9622.677246,518.144159,2221.676944
968.634042,-9474.636058,222.061783,1991.848295
968.634362,-8290.306550,222.061783,0.000000
968.634683,-9548.656652,-888.247130,0.000000
968.635004,-9474.636058,148.041188,1532.190996
968.635324,-9326.594869,740.205942,1455.581446
968.635645,-10732.986159,888.247130,3370.820191
968.635966,-10362.883188,148.041188,3370.820191
968.636286,-9252.574275,-1628.453072,919.314598
968.636607,-10510.924376,-666.185348,1378.971896
968.636928,-9622.677246,0.000000,1302.362347
968.637248,-9030.512492,1332.370696,1149.143247
968.637569,-10140.821405,1184.329507,2834.553343
968.637890,-8956.491898,-1258.350101,229.828649
968.638210,-9474.636058,-1036.288319,-153.219100
968.638531,-11399.171507,-814.226536,1302.362347
968.638852,-9474.636058,444.123565,1149.143247
968.639172,-10214.842000,1332.370696,2221.676944
968.639493,-10807.006753,1332.370696,3753.867940
968.639814,-8956.491898,-518.144159,76.609550
968.640134,-9918.759623,-1184.329507,-383.047749
968.640455,-9474.636058,-1628.453072,-229.828649
968.640776,-8216.285956,962.267725,1532.190996
968.641096,-11029.068536,-1110.308913,153.219100
968.641417,-7105.977043,74.020594,1762.019645
968.641738,-10584.944971,-962.267725,-536.266849
968.642058,-9548.656652,-814.226536,1455.581446
968.642379,-9104.533087,-1628.453072,0.000000
968.642700,-10807.006753,740.205942,2374.896044
968.643021,-9400.615463,-370.102971,536.266849
968.643341,-9326.594869,-518.144159,612.876398
968.643662,-8290.306550,-370.102971,-689.485948
968.643983,-8734.430116,-222.061783,-2221.676944
968.644303,-8586.388927,518.144159,0.000000
968.644624,-8586.388927,518.144159,842.705048
968.644945,-9992.780217,148.041188,1685.410096
968.645265,-11917.315666,-1480.411884,3830.477490
968.645586,-9474.636058,-3256.906145,1532.190996
968.645907,-11029.068536,-3330.926739,1915.238745
968.646227,-9696.697840,-1110.308913,1378.971896
968.646548,-9104.533087,814.226536,1608.800546
968.646869,-10214.842000,1406.391290,2911.162892
968.647189,-8808.450710,-518.144159,-306.438199
968.647510,-8660.409521,-740.205942,-766.095498
968.647831,-9548.656652,-740.205942,-306.438199
968.648151,-7920.203579,-296.082377,383.047749
968.648472,-10140.821405,370.102971,2757.943793
968.648793,-10214.842000,-1998.556043,1915.238745
968.649113,-9474.636058,-1110.308913,1532.190996
968.649434,-10362.883188,-2072.576638,306.438199
968.649755,-9400.615463,222.061783,995.924147
968.650075,-11399.171507,1406.391290,2298.286494
968.650396,-11029.068536,2368.659014,3294.210641
968.650717,-9622.677246,814.226536,2221.676944
968.651037,-9400.615463,148.041188,383.047749
968.651358,-9918.759623,-592.164754,229.828649
968.651679,-8438.347739,-1406.391290,0.000000
968.651999,-7698.141797,-222.061783,-1072.533697
968.652320,-9474.636058,-444.123565,306.438199
968.652641,-8734.430116,-74.020594,0.000000
968.652961,-8586.388927,222.061783,-229.828649
968.653282,-10140.821405,888.247130,1991.848295
968.653603,-8438.347739,962.267725,1762.019645
968.653923,-10140.821405,962.267725,2374.896044
968.654244,-10510.924376,-814.226536,2681.334243
968.654565,-8660.409521,-1776.494261,2221.676944
968.654886,-10584.944971,-2516.700203,2145.067394
968.655206,-9770.718434,-1110.308913,2528.115143
968.655527,-9474.636058,592.164754,2145.067394
968.655848,-10066.800811,1776.494261,2911.162892
968.656168,-10658.965565,1406.391290,2834.553343
968.656489,-9326.594869,-1258.350101,0.000000
968.656810,-8734.430116,-1628.453072,-842.705048
968.657130,-8216.285956,-666.185348,-612.876398
968.657451,-8438.347739,1184.329507,842.705048
968.657772,-9548.656652,0.000000,2451.505594
968.658092,-9622.677246,-740.205942,1072.533697
968.658413,-9104.533087,-814.226536,-689.485948
968.658734,-11399.171507,0.000000,766.095498
968.659054,-9770.718434,518.144159,1685.410096
968.659375,-10066.800811,814.226536,1838.629195
968.659696,-10510.924376,0.000000,1532.190996
968.660016,-8364.327145,0.000000,0.000000
968.660337,-10140.821405,-2146.597232,-612.876398
968.660658,-9178.553681,-1628.453072,0.000000
968.660978,-8808.450710,-444.123565,306.438199
968.661299,-10288.862594,370.102971,1608.800546
968.661620,-10658.965565,-592.164754,2528.115143
968.661940,-8512.368333,-1702.473667,459.657299
968.662261,-10140.821405,-1554.432478,-153.219100
968.662582,-9918.759623,74.020594,229.828649
968.662902,-9474.636058,148.041188,1072.533697
968.663223,-10066.800811,-444.123565,3294.210641
968.663544,-9400.615463,-888.247130,612.876398
968.663864,-9178.553681,-1628.453072,-1225.752797
968.664185,-9918.759623,-1110.308913,-153.219100
968.664506,-9400.615463,74.020594,536.266849
968.664826,-9918.759623,1702.473667,1532.190996
968.665147,-11103.089130,1184.329507,2834.553343
968.665468,-10436.903782,-370.102971,2221.676944
968.665788,-9770.718434,-2590.720797,459.657299
968.666109,-10807.006753,-1776.494261,1225.752797
968.666430,-9474.636058,-592.164754,842.705048
968.666751,-9252.574275,518.144159,1532.190996
968.667071,-9400.615463,296.082377,1149.143247
968.667392,-7994.224174,222.061783,1838.629195
968.667713,-9622.677246,-1036.288319,-306.438199
968.668033,-9844.739029,-518.144159,842.705048
968.668354,-8882.471304,-222.061783,919.314598
968.668675,-10066.800811,0.000000,2757.943793
968.668995,-10510.924376,-444.123565,3140.991542
968.669316,-9178.553681,-1036.288319,2145.067394
968.669637,-10584.944971,-2664.741391,383.047749
968.669957,-7031.956449,-592.164754,612.876398
968.670278,-7846.182985,-962.267725,-306.438199
968.670599,-8438.347739,1036.288319,1991.848295
968.670919,-9844.739029,-444.123565,2068.457845
968.671240,-8068.244768,-814.226536,76.609550
968.671561,-9992.780217,296.082377,766.095498
968.671881,-9844.739029,74.020594,2298.286494
968.672202,-9918.759623,1554.432478,3217.601092
968.672523,-11991.336260,0.000000,3983.696590
968.672843,-8216.285956,-1036.288319,1608.800546
968.673164,-9030.512492,-1554.432478,-612.876398
968.673485,-9474.636058,-1110.308913,-306.438199
968.673805,-8512.368333,1406.391290,766.095498
968.674126,-10288.862594,1406.391290,1915.238745
968.674447,-9918.759623,888.247130,2068.457845
968.674767,-9104.533087,-222.061783,536.266849
968.675088,-11103.089130,-1036.288319,1302.362347
968.675409,-10140.821405,-222.061783,1915.238745
968.675729,-9400.615463,740.205942,1608.800546
968.676050,-10066.800811,888.247130,2911.162892
968.676371,-9918.759623,0.000000,1455.581446
968.676691,-9474.636058,-592.164754,459.657299
968.677012,-10362.883188,-592.164754,612.876398
968.677333,-9030.512492,-296.082377,-153.219100
968.677653,-9474.636058,0.000000,0.000000
968.677974,-10214.842000,0.000000,459.657299
968.678295,-10140.821405,-444.123565,612.876398
968.678616,-9844.739029,-962.267725,1225.752797
968.678936,-11399.171507,-1554.432478,1685.410096
968.679257,-9918.759623,0.000000,1685.410096
968.679578,-10066.800811,0.000000,766.095498
968.679898,-8660.409521,-370.102971,0.000000
968.680219,-7179.997637,-1480.411884,-1608.800546
968.680540,-7698.141797,-740.205942,-2221.676944
968.680860,-9104.533087,-1036.288319,-1225.752797
968.681181,-7476.080014,-1184.329507,-1302.362347
968.681502,-9474.636058,0.000000,1455.581446
968.681822,-11177.109724,-1702.473667,2451.505594
968.682143,-9770.718434,-1332.370696,1838.629195
968.682464,-11029.068536,-1702.473667,1838.629195
968.682784,-9844.739029,-592.164754,766.095498
968.683105,-8438.347739,-370.102971,995.924147
968.683426,-10066.800811,-740.205942,1915.238745
968.683746,-8438.347739,-1332.370696,229.828649
968.684067,-6735.874072,-2368.659014,-306.438199
968.684388,-9548.656652,-518.144159,536.266849
968.684708,-9030.512492,814.226536,1149.143247
968.685029,-9918.759623,1184.329507,2068.457845
968.685350,-11251.130318,0.000000,2681.334243
968.685670,-8290.306550,444.123565,0.000000
968.685991,-8956.491898,-1258.350101,-306.438199
968.686312,-9992.780217,-962.267725,612.876398
968.686632,-8512.368333,592.164754,2221.676944
968.686953,-10807.006753,-592.164754,1915.238745
968.687274,-10658.965565,740.205942,3294.210641
968.687594,-10658.965565,-444.123565,1608.800546
968.687915,-11103.089130,-370.102971,2068.457845
968.688236,-11251.130318,518.144159,2298.286494
968.688556,-9474.636058,370.102971,1915.238745
968.688877,-9400.615463,222.061783,1685.410096
968.689198,-9770.718434,-148.041188,1302.362347
968.689518,-8734.430116,-1258.350101,-459.657299
968.689839,-9548.656652,-1480.411884,459.657299
968.690160,-8660.409521,-296.082377,689.485948
968.690481,-8290.306550,888.247130,76.609550
968.690801,-11103.089130,2072.576638,3447.429741
968.691122,-10362.883188,370.102971,3753.867940
968.691443,-10066.800811,-444.123565,1455.581446
968.691763,-11621.233289,-592.164754,919.314598
968.692084,-8142.265362,222.061783,306.438199
968.692405,-9326.594869,444.123565,-459.657299
968.692726,-9622.677246,962.267725,2451.505594
968.693046,-8512.368333,222.061783,536.266849
968.693367,-9030.512492,1110.308913,-383.047749
968.693688,-10288.862594,-444.123565,306.438199
968.694008,-8660.409521,0.000000,306.438199
968.694329,-9770.718434,-296.082377,1685.410096
968.694650,-10066.800811,-296.082377,2374.896044
968.694971,-8734.430116,-888.247130,306.438199
968.695291,-8808.450710,-1406.391290,459.657299
968.695612,-9104.533087,-740.205942,766.095498
968.695933,-9178.553681,1702.473667,1532.190996
968.696254,-11769.274478,2146.597232,4673.182538
968.696574,-10436.903782,0.000000,3983.696590
968.696895,-9474.636058,-740.205942,2604.724693
968.697216,-11547.212695,-2368.659014,1762.019645
968.697537,-8660.409521,-370.102971,842.705048
968.697857,-8364.327145,0.000000,-536.266849
968.698178,-7624.121203,888.247130,-1149.143247
968.698499,-7476.080014,74.020594,-2451.505594
968.698820,-7920.203579,74.020594,-1915.238745
968.699140,-10881.027347,-1332.370696,-689.485948
968.699461,-9696.697840,-962.267725,-229.828649
968.699782,-11843.295072,-2072.576638,1838.629195
968.700102,-10658.965565,-2368.659014,3447.429741
968.700423,-10584.944971,-3923.091493,1455.581446
968.700744,-10288.862594,-2738.761985,842.705048
968.701065,-10584.944971,-1184.329507,766.095498
968.701385,-8364.327145,0.000000,0.000000
968.701706,-9548.656652,888.247130,1302.362347
968.702027,-9844.739029,-296.082377,2068.457845
968.702348,-9030.512492,-1184.329507,-306.438199
968.702668,-10658.965565,-1554.432478,0.000000
968.702989,-9844.739029,-1036.288319,612.876398
968.703310,-8586.388927,-1702.473667,229.828649
968.703631,-10510.924376,-2368.659014,1072.533697
968.703951,-9252.574275,-1406.391290,1149.143247
968.704272,-9326.594869,-1332.370696,76.609550
968.704593,-9992.780217,-1332.370696,1455.581446
968.704913,-8364.327145,-666.185348,459.657299
968.705234,-9400.615463,0.000000,1225.752797
968.705555,-10658.965565,518.144159,3064.381992
968.705876,-9252.574275,-74.020594,1915.238745
968.706196,-8364.327145,-518.144159,1302.362347
968.706517,-10881.027347,-2738.761985,1149.143247
968.706838,-8586.388927,-444.123565,1455.581446
968.707159,-10881.027347,-370.102971,3294.210641
968.707479,-9770.718434,-1702.473667,2068.457845
968.707800,-7179.997637,-666.185348,612.876398
968.708121,-10066.800811,-1850.514855,0.000000
968.708442,-8438.347739,0.000000,306.438199
968.708762,-8438.347739,1480.411884,1072.533697
968.709083,-11029.068536,1184.329507,2757.943793
968.709404,-8660.409521,518.144159,1762.019645
968.709724,-9770.718434,-814.226536,76.609550
968.710045,-10140.821405,-518.144159,1149.143247
968.710366,-9548.656652,-222.061783,536.266849
968.710687,-8808.450710,222.061783,842.705048
968.711007,-10436.903782,148.041188,1072.533697
968.711328,-9252.574275,74.020594,459.657299
968.711649,-9770.718434,-1110.308913,229.828649
968.711970,-10955.047942,-222.061783,1991.848295
968.712290,-9326.594869,1480.411884,1149.143247
968.712611,-10881.027347,1702.473667,2604.724693
968.712932,-11547.212695,1924.535449,4213.525239
968.713253,-9548.656652,0.000000,995.924147
968.713573,-10066.800811,-592.164754,-919.314598
968.713894,-9326.594869,740.205942,-536.266849
968.714215,-7624.121203,814.226536,-1072.533697
968.714535,-9770.718434,1110.308913,229.828649
968.714856,-9918.759623,1332.370696,1072.533697
968.715177,-8660.409521,222.061783,1532.190996
968.715498,-10807.006753,-1110.308913,1302.362347
968.715818,-9918.759623,-370.102971,2221.676944
968.716139,-9918.759623,444.123565,1915.238745
968.716460,-9992.780217,444.123565,4673.182538
968.716781,-8660.409521,222.061783,2221.676944
968.717101,-8660.409521,-1110.308913,0.000000
968.717422,-9400.615463,-1036.288319,-612.876398
968.717743,-8512.368333,370.102971,-229.828649
968.718064,-8068.244768,-444.123565,-536.266849
968.718384,-9326.594869,0.000000,842.705048
968.718705,-9326.594869,-666.185348,153.219100
968.719026,-10288.862594,-1184.329507,0.000000
968.719347,-10436.903782,-1036.288319,2145.067394
968.719667,-9696.697840,148.041188,2604.724693
968.719988,-11029.068536,-296.082377,2451.505594
968.720309,-9622.677246,0.000000,2374.896044
968.720629,-8660.409521,-1332.370696,612.876398
968.720950,-8216.285956,-1850.514855,-383.047749
968.721271,-8956.491898,-592.164754,-306.438199
968.721592,-8586.388927,-666.185348,229.828649
968.721912,-9326.594869,-370.102971,1072.533697
968.722233,-10732.986159,-1554.432478,2451.505594
968.722554,-10214.842000,-1998.556043,1685.410096
968.722875,-10881.027347,-3108.864956,1608.800546
968.723195,-10362.883188,-222.061783,2451.505594
968.723516,-10362.883188,592.164754,3370.820191
968.723837,-9992.780217,592.164754,2911.162892
968.724158,-10288.862594,-740.205942,1991.848295
968.724478,-9030.512492,-2368.659014,-383.047749
968.724799,-10140.821405,-1406.391290,-919.314598
968.725120,-9252.574275,0.000000,842.705048
968.725440,-10436.903782,740.205942,1302.362347
968.725761,-10362.883188,888.247130,2681.334243
968.726082,-8734.430116,-1258.350101,0.000000
968.726403,-8512.368333,-2294.638420,-1532.190996
968.726723,-9548.656652,-2146.597232,-995.924147
968.727044,-8142.265362,222.061783,-229.828649
968.727365,-9770.718434,2368.659014,1762.019645
968.727686,-11621.233289,1628.453072,5439.278036
968.728006,-9030.512492,148.041188,2374.896044
968.728327,-11621.233289,-2220.617826,1302.362347
968.728648,-9400.615463,-1184.329507,1225.752797
968.728969,-9696.697840,-1184.329507,1991.848295
968.729289,-10584.944971,-666.185348,3294.210641
968.729610,-9178.553681,-962.267725,1302.362347
968.729931,-7402.059420,-666.185348,-1072.533697
968.730251,-9104.533087,-444.123565,-995.924147
968.730572,-8882.471304,370.102971,229.828649
968.730893,-9252.574275,1332.370696,995.924147
968.731214,-9844.739029,814.226536,3447.429741
968.731534,-9770.718434,-1702.473667,1608.800546
968.731855,-9770.718434,-2072.576638,766.095498
968.732176,-11843.295072,-2442.679609,1378.971896
968.732497,-8660.409521,814.226536,1762.019645
968.732817,-10140.821405,518.144159,1762.019645
968.733138,-9622.677246,1184.329507,1838.629195
968.733459,-9178.553681,222.061783,0.000000
968.733780,-10214.842000,-1184.329507,0.000000
968.734100,-9622.677246,-592.164754,689.485948
968.734421,-9178.553681,-740.205942,919.314598
968.734742,-10140.821405,-222.061783,1532.190996
968.735063,-10362.883188,592.164754,2604.724693
968.735383,-10214.842000,-888.247130,1608.800546
968.735704,-10658.965565,-518.144159,612.876398
968.736025,-10066.800811,-222.061783,229.828649
968.736345,-8956.491898,1998.556043,229.828649
968.736666,-11473.192101,-1406.391290,2221.676944
968.736987,-8586.388927,-1554.432478,1378.971896
968.737308,-8438.347739,-2220.617826,-2145.067394
968.737628,-12065.356855,-740.205942,153.219100
968.737949,-8808.450710,370.102971,995.924147
968.738270,-10214.842000,888.247130,1838.629195
968.738591,-12213.398043,2368.659014,4596.572988
968.738911,-8438.347739,1110.308913,306.438199
968.739232,-12657.521608,444.123565,1838.629195
968.739553,-9696.697840,-1480.411884,919.314598
968.739874,-8734.430116,-666.185348,-689.485948
968.740194,-9252.574275,-1184.329507,2528.115143
968.740515,-7550.100608,-814.226536,229.828649
968.740836,-8512.368333,-2072.576638,-536.266849
968.741156,-10214.842000,-1776.494261,306.438199
968.741477,-8734.430116,0.000000,995.924147
968.741798,-9770.718434,370.102971,1149.143247
968.742119,-11547.212695,888.247130,2757.943793
968.742439,-9770.718434,0.000000,2987.772442
968.742760,-8808.450710,-1184.329507,1532.190996
968.743081,-10214.842000,-2738.761985,-153.219100
968.743402,-6883.915261,444.123565,0.000000
968.743722,-7994.224174,222.061783,-153.219100
968.744043,-9252.574275,1628.453072,1762.019645
968.744364,-8290.306550,0.000000,2681.334243
968.744685,-8586.388927,-1406.391290,-306.438199
968.745005,-9696.697840,-740.205942,1378.971896
968.745326,-9104.533087,-666.185348,1225.752797
968.745647,-10066.800811,518.144159,1991.848295
968.745967,-11177.109724,0.000000,3447.429741
968.746288,-8586.388927,-370.102971,536.266849
968.746609,-9622.677246,-592.164754,842.705048
968.746930,-9770.718434,-518.144159,612.876398
968.747250,-9030.512492,1036.288319,995.924147
968.747571,-10510.924376,666.185348,1838.629195
968.747892,-9474.636058,592.164754,1915.238745
968.748213,-9326.594869,-962.267725,1149.143247
968.748533,-10436.903782,-2072.576638,919.314598
968.748854,-9178.553681,-962.267725,1838.629195
968.749175,-9400.615463,0.000000,1302.362347
968.749496,-10288.862594,1406.391290,2451.505594
968.749816,-10510.924376,518.144159,2451.505594
968.750137,-9326.594869,-1036.288319,306.438199
968.750458,-9770.718434,-962.267725,459.657299
968.750778,-9474.636058,-1480.411884,536.266849
968.751099,-8808.450710,0.000000,383.047749
968.751420,-10658.965565,-1036.288319,919.314598
968.751741,-9030.512492,-740.205942,1149.143247
968.752061,-9178.553681,-1184.329507,306.438199
968.752382,-10881.027347,-1110.308913,842.705048
968.752703,-8512.368333,296.082377,842.705048
968.753024,-9992.780217,148.041188,1838.629195
968.753344,-10288.862594,74.020594,2604.724693
968.753665,-8142.265362,-518.144159,306.438199
968.753986,-10140.821405,-740.205942,0.000000
968.754307,-9918.759623,-296.082377,842.705048
968.754627,-8660.409521,-370.102971,229.828649
968.754948,-9770.718434,74.020594,1915.238745
968.755269,-9992.780217,-592.164754,536.266849
968.755590,-9104.533087,-444.123565,-459.657299
968.755910,-9844.739029,-1184.329507,0.000000
968.756231,-9030.512492,-666.185348,-153.219100
968.756552,-9178.553681,-666.185348,153.219100
968.756872,-10066.800811,-888.247130,1225.752797
968.757193,-10214.842000,-1480.411884,1762.019645
968.757514,-9400.615463,-1924.535449,306.438199
968.757835,-10436.903782,-814.226536,1072.533697
968.758155,-10066.800811,370.102971,1302.362347
968.758476,-9548.656652,1258.350101,1608.800546
968.758797,-10214.842000,888.247130,2451.505594
968.759118,-9178.553681,-1628.453072,383.047749
968.759438,-8512.368333,-3330.926739,-1149.143247
968.759759,-10732.986159,-3182.885551,-995.924147
968.760080,-8438.347739,-370.102971,306.438199
968.760401,-9918.759623,444.123565,842.705048
968.760721,-10881.027347,2072.576638,3217.601092
968.761042,-9844.739029,-296.082377,1072.533697
968.761363,-10140.821405,-740.205942,766.095498
968.761683,-11029.068536,0.000000,1838.629195
968.762004,-9178.553681,0.000000,1149.143247
968.762325,-10140.821405,666.185348,1838.629195
968.762646,-8660.409521,666.185348,3907.087040
968.762966,-7994.224174,-592.164754,0.000000
968.763287,-9474.636058,-962.267725,229.828649
968.763608,-9252.574275,-222.061783,536.266849
968.763929,-9400.615463,1406.391290,1838.629195
968.764249,-10584.944971,1702.473667,3753.867940
968.764570,-9992.780217,518.144159,3140.991542
968.764891,-9474.636058,-666.185348,1378.971896
968.765212,-9548.656652,-222.061783,1072.533697
968.765532,-9548.656652,0.000000,2374.896044
968.765853,-9252.574275,74.020594,2451.505594
968.766174,-10140.821405,0.000000,2528.115143
968.766494,-8956.491898,-888.247130,306.438199
968.766815,-6587.832884,-740.205942,-2834.553343
968.767136,-9622.677246,0.000000,0.000000
968.767457,-7698.141797,1480.411884,-383.047749
968.767777,-9030.512492,2294.638420,1762.019645
968.768098,-10510.924376,0.000000,3294.210641
968.768419,-9918.759623,-2146.597232,2374.896044
968.768740,-11399.171507,-3034.844362,2068.457845
968.769060,-12139.377449,-2664.741391,2604.724693
968.769381,-9030.512492,444.123565,2068.457845
968.769702,-10658.965565,1184.329507,2757.943793
968.770023,-9844.739029,1110.308913,2221.676944
968.770343,-8290.306550,-148.041188,0.000000
968.770664,-9474.636058,-2294.638420,-1149.143247
968.770985,-9252.574275,-296.082377,76.609550
968.771306,-8586.388927,370.102971,0.000000
968.771626,-10807.006753,0.000000,2221.676944
968.771947,-9400.615463,-148.041188,1455.581446
968.772268,-9548.656652,-444.123565,153.219100
968.772588,-11769.274478,-518.144159,1685.410096
968.772909,-11177.109724,-740.205942,995.924147
968.773230,-9474.636058,148.041188,1532.190996
968.773551,-10584.944971,-1554.432478,842.705048
968.773871,-7624.121203,0.000000,-1302.362347
968.774192,-10288.862594,-1110.308913,-919.314598
968.774513,-10140.821405,-518.144159,76.609550
968.774834,-9030.512492,592.164754,306.438199
968.775154,-10955.047942,148.041188,1455.581446
968.775475,-11843.295072,666.185348,3830.477490
968.775796,-10807.006753,-2146.597232,1455.581446
968.776117,-10732.986159,-1406.391290,536.266849
968.776437,-9326.594869,-518.144159,-536.266849
968.776758,-7402.059420,148.041188,-1608.800546
968.777079,-9178.553681,962.267725,229.828649
968.777399,-8734.430116,-592.164754,689.485948
968.777720,-7698.141797,-1628.453072,-1302.362347
968.778041,-8586.388927,-1850.514855,919.314598
968.778362,-9992.780217,-888.247130,1838.629195
968.778682,-10510.924376,740.205942,2834.553343
968.779003,-11991.336260,74.020594,4826.401637
968.779324,-8216.285956,0.000000,3753.867940
968.779645,-8586.388927,-3404.947333,-842.705048
968.779965,-8512.368333,-1850.514855,76.609550
968.780286,-7994.224174,-444.123565,76.609550
968.780607,-8364.327145,-592.164754,766.095498
968.780928,-8882.471304,148.041188,2221.676944
968.781248,-9104.533087,-666.185348,1838.629195
968.781569,-10436.903782,-1110.308913,1838.629195
968.781890,-11695.253884,-740.205942,3753.867940
968.782210,-9474.636058,370.102971,1455.581446
968.782531,-10807.006753,814.226536,2528.115143
968.782852,-10214.842000,296.082377,1685.410096
968.783173,-6883.915261,148.041188,-306.438199
968.783493,-9252.574275,-962.267725,-766.095498
968.783814,-8142.265362,222.061783,-612.876398
968.784135,-8438.347739,1110.308913,-153.219100
968.784456,-10732.986159,814.226536,2374.896044
968.784776,-9992.780217,0.000000,2451.505594
968.785097,-11325.150913,-592.164754,1838.629195
968.785418,-10807.006753,-1554.432478,1685.410096
968.785739,-9474.636058,444.123565,1762.019645
968.786059,-9622.677246,1850.514855,2298.286494
968.786380,-10658.965565,148.041188,2451.505594
968.786701,-9178.553681,-666.185348,1072.533697
968.787022,-8290.306550,-666.185348,-995.924147
968.787342,-9548.656652,-444.123565,-536.266849
968.787663,-8882.471304,518.144159,383.047749
968.787984,-9992.780217,518.144159,1532.190996
968.788304,-10658.965565,370.102971,2681.334243
968.788625,-9326.594869,-296.082377,1225.752797
968.788946,-10955.047942,-1924.535449,1149.143247
968.789267,-9622.677246,-1036.288319,1532.190996
968.789587,-8956.491898,-296.082377,1149.143247
968.789908,-10436.903782,740.205942,1838.629195
968.790229,-9326.594869,296.082377,1608.800546
968.790550,-9104.533087,-1480.411884,-1072.533697
968.790870,-9178.553681,-1184.329507,-153.219100
968.791191,-9474.636058,-1924.535449,0.000000
968.791512,-8956.491898,-74.020594,689.485948
968.791832,-10362.883188,-296.082377,2068.457845
968.792153,-9696.697840,-222.061783,1838.629195
968.792474,-9844.739029,-814.226536,1762.019645
968.792794,-11621.233289,-1850.514855,2451.505594
968.793115,-9326.594869,-1184.329507,1762.019645
968.793436,-9326.594869,-148.041188,612.876398
968.793756,-9918.759623,-962.267725,1532.190996
968.794077,-8068.244768,-1702.473667,-306.438199
968.794398,-7994.224174,-1036.288319,-2298.286494
968.794718,-9104.533087,962.267725,-1608.800546
968.795039,-8216.285956,1924.535449,-689.485948
968.795360,-9992.780217,3034.844362,2068.457845
968.795680,-11325.150913,74.020594,2604.724693
968.796001,-9474.636058,-1184.329507,766.095498
968.796322,-11399.171507,-2368.659014,2221.676944
968.796643,-10436.903782,-3404.947333,1685.410096
968.796963,-8438.347739,-740.205942,1302.362347
968.797284,-11177.109724,370.102971,3140.991542
968.797605,-9474.636058,222.061783,919.314598
968.797925,-8512.368333,0.000000,-306.438199
968.798246,-10732.986159,-518.144159,229.828649
968.798567,-8438.347739,740.205942,153.219100
968.798887,-9252.574275,666.185348,919.314598
968.799208,-10584.944971,222.061783,2681.334243
968.799529,-9178.553681,-888.247130,1302.362347
968.799849,-9770.718434,-2146.597232,459.657299
968.800170,-10510.924376,-2146.597232,1378.971896
968.800491,-8734.430116,-370.102971,1072.533697
968.800811,-10584.944971,1258.350101,1838.629195
968.801132,-10214.842000,1924.535449,2834.553343
968.801453,-8142.265362,74.020594,76.609550
968.801773,-9326.594869,-814.226536,766.095498
968.802094,-9992.780217,-740.205942,1072.533697
968.802415,-8586.388927,-962.267725,919.314598
968.802735,-10362.883188,-814.226536,2068.457845
968.803056,-9622.677246,-370.102971,2451.505594
968.803377,-8660.409521,-1184.329507,1455.581446
968.803697,-10362.883188,-1554.432478,766.095498
968.804018,-9178.553681,222.061783,1608.800546
968.804339,-8956.491898,814.226536,153.219100
968.804660,-10140.821405,1628.453072,4519.963438
968.804980,-9696.697840,-296.082377,2451.505594
968.805301,-9030.512492,-1036.288319,76.609550
968.805622,-10658.965565,-1850.514855,383.047749
968.805942,-8586.388927,-666.185348,-612.876398
968.806263,-8734.430116,370.102971,1225.752797
968.806584,-10658.965565,444.123565,2451.505594
968.806904,-9474.636058,148.041188,1455.581446
968.807225,-9770.718434,-1850.514855,153.219100
968.807546,-9844.739029,-1924.535449,229.828649
968.807866,-8734.430116,-296.082377,0.000000
968.808187,-11029.068536,1110.308913,1915.238745
968.808508,-10362.883188,814.226536,3294.210641
968.808828,-9400.615463,1110.308913,1225.752797
968.809149,-9992.780217,-2516.700203,-306.438199
968.809470,-8586.388927,-1184.329507,0.000000
968.809790,-9326.594869,-1850.514855,-306.438199
968.810111,-8438.347739,-518.144159,-1915.238745
968.810432,-8956.491898,370.102971,-229.828649
968.810752,-7698.141797,74.020594,-2145.067394
968.811073,-10510.924376,0.000000,76.609550
968.811394,-10955.047942,-444.123565,1532.190996
968.811714,-10510.924376,444.123565,2451.505594
968.812035,-13323.706956,74.020594,4443.353888
968.812356,-10881.027347,222.061783,2911.162892
968.812676,-10436.903782,-370.102971,1149.143247
968.812997,-10881.027347,1258.350101,1991.848295
968.813318,-8438.347739,1702.473667,383.047749
968.813639,-8068.244768,518.144159,-1455.581446
968.813959,-9030.512492,1110.308913,0.000000
968.814280,-8808.450710,0.000000,0.000000
968.814601,-9770.718434,-888.247130,0.000000
968.814921,-10658.965565,-962.267725,1838.629195
968.815242,-10066.800811,-296.082377,2451.505594
968.815563,-11399.171507,-222.061783,3983.696590
968.815883,-11843.295072,-1480.411884,5132.839837
968.816204,-9474.636058,-1184.329507,2528.115143
968.816525,-10214.842000,-2072.576638,0.000000
968.816845,-7846.182985,0.000000,-153.219100
968.817166,-6439.791695,-444.123565,-2987.772442
968.817487,-8364.327145,1258.350101,-459.657299
968.817807,-8586.388927,-148.041188,76.609550
968.818128,-6957.935855,-1776.494261,-383.047749
968.818449,-9622.677246,-3627.009116,689.485948
968.818769,-10214.842000,-2886.803174,2681.334243
968.819090,-10807.006753,0.000000,4826.401637
968.819411,-11769.274478,0.000000,5515.887586
968.819731,-9178.553681,74.020594,3140.991542
968.820052,-8808.450710,1776.494261,995.924147
968.820373,-9178.553681,296.082377,1149.143247
968.820693,-6883.915261,-1184.329507,-919.314598
968.821014,-6587.832884,296.082377,-995.924147
968.821335,-9918.759623,-1702.473667,229.828649
968.821656,-8068.244768,0.000000,1149.143247
968.821976,-10955.047942,-370.102971,3140.991542
968.822297,-12731.542202,1036.288319,4596.572988
968.822618,-10658.965565,1628.453072,4903.011187
968.822938,-13101.645173,740.205942,4903.011187
968.823259,-11473.192101,-518.144159,3447.429741
968.823580,-8068.244768,-1628.453072,-1608.800546
968.823900,-8438.347739,-370.102971,-1762.019645
968.824221,-7105.977043,74.020594,-1685.410096
968.824542,-6291.750507,1554.432478,-2068.457845
968.824862,-9844.739029,888.247130,76.609550
968.825183,-10288.862594,-666.185348,842.705048
968.825504,-10881.027347,-2146.597232,-153.219100
968.825824,-13175.665768,-2886.803174,1532.190996
968.826145,-10214.842000,518.144159,2068.457845
968.826466,-10807.006753,1628.453072,1915.238745
968.826786,-10584.944971,592.164754,3064.381992
968.827107,-8660.409521,-1184.329507,536.266849
968.827428,-8290.306550,-2664.741391,-2451.505594
968.827748,-8956.491898,-2294.638420,-2068.457845
968.828069,-8438.347739,-148.041188,-1378.971896
968.828390,-9474.636058,1258.350101,306.438199
968.828710,-10510.924376,0.000000,1762.019645
968.829031,-8956.491898,-888.247130,1072.533697
968.829352,-10881.027347,-3108.864956,76.609550
968.829673,-10658.965565,-2294.638420,1149.143247
968.829993,-9474.636058,-1702.473667,1532.190996
968.830314,-10214.842000,-740.205942,2987.772442
968.830635,-8882.471304,-592.164754,2068.457845
968.830955,-7772.162391,-1480.411884,-1149.143247
968.831276,-9326.594869,-888.247130,-919.314598
968.831597,-8882.471304,0.000000,229.828649
968.831917,-9252.574275,222.061783,1532.190996
968.832238,-10436.903782,0.000000,2221.676944
968.832559,-8808.450710,-888.247130,1225.752797
968.832879,-10584.944971,-1406.391290,1378.971896
968.833200,-10732.986159,-1702.473667,2374.896044
968.833521,-9622.677246,-592.164754,2374.896044
968.833841,-10066.800811,222.061783,3753.867940
968.834162,-10732.986159,0.000000,2757.943793
968.834483,-9178.553681,-1110.308913,1685.410096
968.834803,-8882.471304,0.000000,-612.876398
968.835124,-9474.636058,888.247130,76.609550
968.835445,-8142.265362,1036.288319,153.219100
968.835765,-9178.553681,1258.350101,1302.362347
968.836086,-9696.697840,-222.061783,1762.019645
968.836407,-9548.656652,-518.144159,766.095498
968.836727,-11843.295072,-1110.308913,1838.629195
968.837048,-10140.821405,-666.185348,2298.286494
968.837369,-9992.780217,1036.288319,2528.115143
968.837690,-11325.150913,1110.308913,4060.306139
968.838010,-9622.677246,666.185348,3370.820191
968.838331,-9474.636058,-1406.391290,459.657299
968.838652,-9474.636058,-1258.350101,0.000000
968.838972,-8734.430116,0.000000,306.438199
968.839293,-9548.656652,962.267725,1915.238745
968.839614,-9548.656652,444.123565,2298.286494
968.839934,-8956.491898,-148.041188,766.095498
968.840255,-9474.636058,-1036.288319,612.876398
968.840576,-10214.842000,-592.164754,1378.971896
968.840896,-9030.512492,-222.061783,1302.362347
968.841217,-9696.697840,814.226536,2298.286494
968.841538,-10140.821405,0.000000,1991.848295
968.841858,-7328.038826,1110.308913,1991.848295
968.842179,-12509.480420,-4885.359217,-995.924147
968.842500,-5477.523971,3701.029710,536.266849
968.842820,-11991.336260,-1332.370696,-1838.629195
968.843141,-9030.512492,2368.659014,1685.410096
968.843462,-8438.347739,592.164754,229.828649
968.843782,-10732.986159,-2072.576638,919.314598
968.844103,-9918.759623,-2072.576638,153.219100
968.844424,-8734.430116,-1184.329507,-766.095498
968.844744,-10436.903782,-222.061783,2068.457845
968.845065,-8068.244768,-222.061783,919.314598
968.845386,-10584.944971,-148.041188,1685.410096
968.845707,-9548.656652,-1998.556043,766.095498
968.846027,-7920.203579,-370.102971,-1838.629195
968.846348,-9770.718434,296.082377,-1302.362347
968.846669,-9474.636058,444.123565,383.047749
968.846989,-9622.677246,0.000000,1302.362347
968.847310,-9992.780217,-2294.638420,-306.438199
968.847631,-9252.574275,-1480.411884,-306.438199
968.847951,-9770.718434,-1702.473667,229.828649
968.848272,-10658.965565,-1110.308913,1072.533697
968.848593,-10807.006753,1036.288319,1915.238745
968.848913,-10881.027347,518.144159,2681.334243
968.849234,-9622.677246,296.082377,306.438199
968.849555,-10807.006753,-518.144159,995.924147
968.849875,-9474.636058,0.000000,1072.533697
968.850196,-9474.636058,296.082377,1302.362347
968.850517,-9474.636058,0.000000,995.924147
968.850837,-9400.615463,-1776.494261,306.438199
968.851158,-9104.533087,-1258.350101,919.314598
968.851479,-10510.924376,-2146.597232,1302.362347
968.851799,-9252.574275,-444.123565,1072.533697
968.852120,-9844.739029,148.041188,1838.629195
968.852441,-9696.697840,740.205942,2298.286494
968.852761,-10066.800811,-148.041188,2145.067394
968.853082,-9992.780217,-1702.473667,1225.752797
968.853403,-9178.553681,-2072.576638,919.314598
968.853724,-9178.553681,-1628.453072,689.485948
968.854044,-8586.388927,-296.082377,1072.533697
968.854365,-9844.739029,814.226536,2604.724693
968.854686,-8364.327145,-444.123565,3140.991542
968.855006,-8660.409521,-1258.350101,229.828649
968.855327,-9326.594869,-296.082377,536.266849
968.855648,-8660.409521,-222.061783,919.314598
968.855968,-10214.842000,814.226536,2451.505594
968.856289,-10807.006753,0.000000,3907.087040
968.856610,-8216.285956,-1554.432478,459.657299
968.856930,-8512.368333,-1332.370696,-995.924147
968.857251,-8512.368333,0.000000,-1149.143247
968.857572,-8512.368333,1998.556043,-689.485948
968.857892,-9622.677246,2738.761985,1838.629195
968.858213,-9696.697840,148.041188,2298.286494
968.858534,-9474.636058,-1480.411884,229.828649
968.858854,-11621.233289,-2516.700203,2068.457845
968.859175,-11029.068536,-1628.453072,2528.115143
968.859496,-10140.821405,814.226536,4213.525239
968.859816,-11103.089130,1332.370696,3983.696590
968.860137,-9918.759623,370.102971,2681.334243
968.860458,-8882.471304,-444.123565,-995.924147
968.860778,-9400.615463,-592.164754,-459.657299
968.861099,-8216.285956,-592.164754,-995.924147
968.861420,-8734.430116,1036.288319,459.657299
968.861741,-11177.109724,-370.102971,2221.676944
968.862061,-8734.430116,222.061783,536.266849
968.862382,-10732.986159,-518.144159,1455.581446
968.862703,-11251.130318,-296.082377,2374.896044
968.863023,-9548.656652,740.205942,2451.505594
968.863344,-10955.047942,1406.391290,3064.381992
968.863665,-9992.780217,-148.041188,2298.286494
968.863985,-8364.327145,-1480.411884,-536.266849
968.864306,-9326.594869,-1110.308913,-1532.190996
968.864627,-8882.471304,0.000000,-919.314598
968.864947,-8808.450710,888.247130,-383.047749
968.865268,-9918.759623,148.041188,2068.457845
968.865589,-9918.759623,-1332.370696,1532.190996
968.865909,-8660.409521,-1628.453072,995.924147
968.866230,-11399.171507,-2220.617826,1378.971896
968.866551,-9918.759623,296.082377,1685.410096
968.866871,-9548.656652,1998.556043,2528.115143
968.867192,-10510.924376,592.164754,2834.553343
968.867513,-8068.244768,-518.144159,0.000000
968.867833,-9252.574275,-2072.576638,-1915.238745
968.868154,-9104.533087,-1184.329507,-612.876398
968.868475,-7994.224174,-518.144159,-842.705048
968.868795,-9474.636058,-148.041188,1072.533697
968.869116,-10288.862594,-666.185348,1608.800546
968.869437,-9030.512492,-666.185348,383.047749
968.869758,-10510.924376,-1628.453072,766.095498
968.870078,-8438.347739,814.226536,0.000000
968.870399,-9770.718434,888.247130,689.485948
968.870720,-10436.903782,148.041188,1455.581446
968.871040,-8290.306550,592.164754,1685.410096
968.871361,-9622.677246,-3478.967927,842.705048
968.871682,-8808.450710,-2072.576638,153.219100
968.872002,-10881.027347,-1776.494261,1915.238745
968.872323,-9622.677246,0.000000,1608.800546
968.872644,-11769.274478,1776.494261,3753.867940
968.872964,-9918.759623,-518.144159,1685.410096
968.873285,-8216.285956,148.041188,-689.485948
968.873606,-11177.109724,-666.185348,459.657299
968.873926,-7920.203579,814.226536,153.219100
968.874247,-9326.594869,1110.308913,919.314598
968.874568,-10214.842000,592.164754,2374.896044
968.874888,-9252.574275,-1258.350101,766.095498
968.875209,-10362.883188,-1554.432478,459.657299
968.875530,-10288.862594,-1036.288319,1608.800546
968.875850,-9474.636058,370.102971,1838.629195
968.876171,-10214.842000,1406.391290,2681.334243
968.876492,-10436.903782,518.144159,2681.334243
968.876812,-9400.615463,0.000000,689.485948
968.877133,-8290.306550,0.000000,842.705048
968.877454,-10436.903782,-1628.453072,842.705048
968.877775,-7846.182985,1184.329507,1302.362347
968.878095,-10732.986159,-592.164754,2528.115143
968.878416,-7846.182985,-1184.329507,2374.896044
968.878737,-9474.636058,-1628.453072,842.705048
968.879057,-11251.130318,-2442.679609,1302.362347
968.879378,-9178.553681,-518.144159,1378.971896
968.879699,-9844.739029,-1258.350101,1608.800546
968.880019,-10140.821405,-814.226536,2145.067394
968.880340,-9474.636058,-666.185348,1838.629195
968.880661,-9770.718434,-1406.391290,612.876398
968.880981,-9548.656652,0.000000,1225.752797
968.881302,-7994.224174,0.000000,536.266849
968.881623,-9252.574275,888.247130,383.047749
968.881943,-9252.574275,1406.391290,2068.457845
968.882264,-9252.574275,-1924.535449,-842.705048
968.882585,-9104.533087,-444.123565,-842.705048
968.882905,-9844.739029,-1110.308913,306.438199
968.883226,-8438.347739,-2146.597232,-1608.800546
968.883547,-8882.471304,740.205942,842.705048
968.883867,-11325.150913,-222.061783,2451.505594
968.884188,-9326.594869,888.247130,919.314598
968.884509,-11177.109724,-666.185348,919.314598
968.884829,-8882.471304,888.247130,1302.362347
968.885150,-9326.594869,814.226536,842.705048
968.885471,-10658.965565,444.123565,1762.019645
968.885792,-9030.512492,-444.123565,1991.848295
968.886112,-8438.347739,-3182.885551,-995.924147
968.886433,-9474.636058,-2072.576638,-612.876398
968.886754,-9474.636058,-1702.473667,842.705048
968.887074,-9178.553681,740.205942,1915.238745
968.887395,-10955.047942,592.164754,2528.115143
968.887716,-9548.656652,296.082377,1532.190996
968.888036,-9178.553681,-814.226536,76.609550
968.888357,-10510.924376,-444.123565,1838.629195
968.888678,-9474.636058,1258.350101,2834.553343
968.888998,-10288.862594,1406.391290,3830.477490
968.889319,-10140.821405,74.020594,4366.744339
968.889640,-9030.512492,-592.164754,2604.724693
968.889960,-9844.739029,-148.041188,1685.410096
968.890281,-10288.862594,666.185348,2528.115143
968.890602,-9030.512492,2146.597232,2528.115143
968.890922,-9770.718434,1924.535449,3447.429741
968.891243,-9474.636058,74.020594,2298.286494
968.891564,-8586.388927,444.123565,1608.800546
968.891884,-10807.006753,-740.205942,1991.848295
968.892205,-9474.636058,962.267725,2145.067394
968.892526,-9548.656652,2220.617826,2451.505594
968.892846,-10288.862594,2886.803174,3140.991542
968.893167,-9696.697840,3478.967927,3064.381992
968.893488,-9918.759623,1406.391290,1532.190996
968.893809,-10140.821405,814.226536,1225.752797
968.894129,-8956.491898,222.061783,1685.410096
968.894450,-8512.368333,-444.123565,1302.362347
968.894771,-9696.697840,222.061783,3907.087040
968.895091,-9400.615463,0.000000,5822.325785
968.895412,-8586.388927,-444.123565,2681.334243
968.895733,-9696.697840,666.185348,4060.306139
968.896053,-9326.594869,1628.453072,3370.820191
968.896374,-9770.718434,2072.576638,3370.820191
968.896695,-9844.739029,4737.318029,5132.839837
968.897016,-9104.533087,3627.009116,4826.401637
968.897336,-10066.800811,1776.494261,3830.477490
968.897657,-9992.780217,1184.329507,3753.867940
968.897978,-9104.533087,1406.391290,2298.286494
968.898298,-9474.636058,1258.350101,2374.896044
968.898619,-8660.409521,2442.679609,2757.943793
968.898940,-8512.368333,3404.947333,2834.553343
968.899260,-9918.759623,1702.473667,2451.505594
968.899581,-8882.471304,1258.350101,2145.067394
968.899902,-9104.533087,1628.453072,2221.676944
968.900223,-10881.027347,2294.638420,3370.820191
968.900543,-11399.171507,2368.659014,4903.011187
968.900864,-9400.615463,1776.494261,5209.449386
968.901185,-9474.636058,666.185348,4519.963438
968.901505,-10881.027347,-296.082377,3600.648841
968.901826,-9474.636058,1110.308913,2068.457845
968.902147,-8586.388927,2442.679609,612.876398
968.902467,-8882.471304,3404.947333,1378.971896
968.902788,-8364.327145,3552.988522,1455.581446
968.903109,-9252.574275,2146.597232,2298.286494
968.903430,-9178.553681,1480.411884,2757.943793
968.903750,-11473.192101,-592.164754,3447.429741
968.904071,-11103.089130,-518.144159,4749.792088
968.904392,-10807.006753,740.205942,4903.011187
968.904712,-11399.171507,1406.391290,4443.353888
968.905033,-10362.883188,2590.720797,4673.182538
968.905354,-8660.409521,2368.659014,3447.429741
968.905674,-8734.430116,2294.638420,2604.724693
968.905995,-9400.615463,2442.679609,2834.553343
968.906316,-9474.636058,1998.556043,2987.772442
968.906637,-9474.636058,1110.308913,2987.772442
968.906957,-9696.697840,1258.350101,2528.115143
968.907278,-9400.615463,2072.576638,2911.162892
968.907599,-9474.636058,1702.473667,3830.477490
968.907919,-9844.739029,740.205942,3217.601092
968.908240,-9474.636058,592.164754,1991.848295
968.908561,-9548.656652,1036.288319,2298.286494
968.908881,-9918.759623,1776.494261,3677.258390
968.909202,-10288.862594,1776.494261,3524.039291
968.909523,-10140.821405,1850.514855,4060.306139
968.909844,-8512.368333,2368.659014,3294.210641
968.910164,-9030.512492,1850.514855,3217.601092
968.910485,-9030.512492,592.164754,1378.971896
968.910806,-8586.388927,1184.329507,2528.115143
968.911126,-9178.553681,2960.823768,3217.601092
968.911447,-9548.656652,2368.659014,4366.744339
968.911768,-9622.677246,3034.844362,5439.278036
968.912088,-10658.965565,1998.556043,4903.011187
968.912409,-9918.759623,444.123565,2987.772442
968.912730,-9252.574275,1406.391290,2834.553343
968.913051,-9622.677246,888.247130,2911.162892
968.913371,-9178.553681,1406.391290,2528.115143
968.913692,-9844.739029,814.226536,1838.629195
968.914013,-9400.615463,1036.288319,1225.752797
968.914333,-9178.553681,2072.576638,1532.190996
968.914654,-10362.883188,3775.050304,4136.915689
968.914975,-10584.944971,3182.885551,4749.792088
968.915295,-10881.027347,2220.617826,4519.963438
968.915616,-9992.780217,1998.556043,3677.258390
968.915937,-9548.656652,2072.576638,3907.087040
968.916258,-10066.800811,2072.576638,4749.792088
968.916578,-10066.800811,2072.576638,5132.839837
968.916899,-9104.533087,1776.494261,3447.429741
968.917220,-8586.388927,2220.617826,1762.019645
968.917540,-9252.574275,2738.761985,2221.676944
968.917861,-9622.677246,3478.967927,2987.772442
968.918182,-10807.006753,3627.009116,4979.620737
968.918502,-10732.986159,2738.761985,4903.011187
968.918823,-9844.739029,1776.494261,4443.353888
968.919144,-9918.759623,1332.370696,3524.039291
968.919464,-9622.677246,1480.411884,3370.820191
968.919785,-9326.594869,1332.370696,3140.991542
968.920106,-8512.368333,2368.659014,2298.286494
968.920427,-8216.285956,1924.535449,1225.752797
968.920747,-8660.409521,1406.391290,1302.362347
968.921068,-9696.697840,740.205942,2451.505594
968.921389,-10214.842000,370.102971,3447.429741
968.921709,-10140.821405,370.102971,4060.306139
968.922030,-9918.759623,1184.329507,4826.401637
968.922351,-10362.883188,1332.370696,5745.716235
968.922671,-10214.842000,1406.391290,5898.935335
968.922992,-10214.842000,1258.350101,4290.134789
968.923313,-9104.533087,2220.617826,4136.915689
968.923634,-8882.471304,2368.659014,2298.286494
968.923954,-8438.347739,2886.803174,2145.067394
968.924275,-8882.471304,2442.679609,1991.848295
968.924596,-8364.327145,1776.494261,1532.190996
968.924916,-9252.574275,814.226536,1762.019645
968.925237,-9474.636058,222.061783,1532.190996
968.925558,-10214.842000,0.000000,1762.019645
968.925878,-10066.800811,592.164754,2374.896044
968.926199,-10584.944971,2294.638420,2987.772442
968.926520,-9992.780217,2442.679609,3524.039291
968.926841,-10140.821405,2368.659014,3524.039291
968.927161,-9770.718434,1850.514855,3600.648841
968.927482,-10214.842000,1258.350101,4826.401637
968.927803,-10140.821405,1776.494261,5286.058936
968.928123,-9992.780217,1776.494261,5592.497135
968.928444,-9548.656652,2368.659014,4903.011187
968.928765,-9252.574275,2738.761985,4366.744339
968.929085,-8956.491898,2368.659014,3600.648841
968.929406,-8660.409521,2146.597232,2528.115143
968.929727,-9104.533087,1110.308913,1302.362347
968.930048,-9030.512492,1406.391290,-612.876398
968.930368,-9548.656652,370.102971,0.000000
968.930689,-9770.718434,814.226536,766.095498
968.931010,-10362.883188,888.247130,842.705048
968.931330,-10584.944971,370.102971,2145.067394
968.931651,-10658.965565,888.247130,2834.553343
968.931972,-10510.924376,444.123565,3524.039291
968.932292,-10214.842000,592.164754,4136.915689
968.932613,-9844.739029,1110.308913,4903.011187
968.932934,-9474.636058,1406.391290,4290.134789
968.933255,-8734.430116,1110.308913,4519.963438
968.933575,-8364.327145,1184.329507,4136.915689
968.933896,-8438.347739,1110.308913,3753.867940
968.934217,-8734.430116,1628.453072,3830.477490
968.934537,-9400.615463,1702.473667,3830.477490
968.934858,-9474.636058,1628.453072,3217.601092
968.935179,-9770.718434,2072.576638,3370.820191
968.935499,-9992.780217,2072.576638,3064.381992
968.935820,-10214.842000,2072.576638,3217.601092
968.936141,-10140.821405,2072.576638,3447.429741
968.936462,-9992.780217,2072.576638,3830.477490
968.936782,-10066.800811,2220.617826,4136.915689
968.937103,-9992.780217,2072.576638,4826.401637
968.937424,-9770.718434,1998.556043,4826.401637
968.937744,-9326.594869,1776.494261,4826.401637
968.938065,-9178.553681,1480.411884,4519.963438
968.938386,-9474.636058,1924.535449,3907.087040
968.938706,-9252.574275,1554.432478,3753.867940
968.939027,-9474.636058,1702.473667,3140.991542
968.939348,-9474.636058,1924.535449,2451.505594
968.939669,-9400.615463,2738.761985,2145.067394
968.939989,-9844.739029,1924.535449,1838.629195
968.940310,-9992.780217,2072.576638,1608.800546
968.940631,-10214.842000,2220.617826,1838.629195
968.940951,-10140.821405,1998.556043,1455.581446
968.941272,-10288.862594,1998.556043,2604.724693
968.941593,-10066.800811,1776.494261,2528.115143
968.941913,-9844.739029,1850.514855,2757.943793
968.942234,-9548.656652,1776.494261,2987.772442
968.942555,-9992.780217,1776.494261,1608.800546
968.942876,-9178.553681,962.267725,2374.896044
968.943196,-8882.471304,74.020594,1991.848295
968.943517,-8956.491898,-518.144159,1685.410096
968.943838,-8660.409521,0.000000,919.314598
968.944158,-9400.615463,-592.164754,1532.190996
968.944479,-9770.718434,296.082377,1378.971896
968.944800,-10362.883188,592.164754,1685.410096
968.945120,-10584.944971,1258.350101,1991.848295
968.945441,-10288.862594,1480.411884,2068.457845
968.945762,-10066.800811,1184.329507,1532.190996
968.946083,-9844.739029,1628.453072,1149.143247
968.946403,-9400.615463,888.247130,306.438199
968.946724,-8808.450710,1554.432478,689.485948
968.947045,-8808.450710,1110.308913,1149.143247
968.947365,-9104.533087,888.247130,1149.143247
968.947686,-9326.594869,444.123565,2068.457845
968.948007,-9622.677246,518.144159,3753.867940
968.948327,-9770.718434,222.061783,2757.943793
968.948648,-9918.759623,296.082377,3217.601092
968.948969,-9918.759623,592.164754,2757.943793
968.949290,-9918.759623,592.164754,3294.210641
968.949610,-9622.677246,1036.288319,3524.039291
968.949931,-9622.677246,1332.370696,3064.381992
968.950252,-9622.677246,1850.514855,3677.258390
968.950572,-9992.780217,1776.494261,3907.087040
968.950893,-10436.903782,1924.535449,4979.620737
968.951214,-9992.780217,1924.535449,4903.011187
968.951534,-10140.821405,1924.535449,5209.449386
968.951855,-9992.780217,1924.535449,5592.497135
968.952176,-10140.821405,3034.844362,7737.564530
968.952497,-9918.759623,1998.556043,6128.763984
968.952817,-9474.636058,2146.597232,6128.763984
968.953138,-9474.636058,2146.597232,6052.154434
968.953459,-9474.636058,2368.659014,6358.592633
968.953779,-9474.636058,2516.700203,5822.325785
968.954100,-9474.636058,2516.700203,6128.763984
968.954421,-9548.656652,2590.720797,6358.592633
968.954741,-9844.739029,2442.679609,6281.983084
968.955062,-8734.430116,1998.556043,8120.612279
968.955383,-10066.800811,2886.803174,6741.640382
968.955703,-9992.780217,3256.906145,6971.469032
968.956024,-9844.739029,3256.906145,6435.202183
968.956345,-9474.636058,3404.947333,5132.839837
968.956666,-9326.594869,3552.988522,4213.525239
968.956986,-8882.471304,3552.988522,4443.353888
968.957307,-9400.615463,3478.967927,4290.134789
968.957628,-8734.430116,2886.803174,3983.696590
968.957948,-8882.471304,2516.700203,2911.162892
968.958269,-9400.615463,2516.700203,2911.162892
968.958590,-9548.656652,2442.679609,2451.505594
968.958910,-9696.697840,2516.700203,1991.848295
968.959231,-9400.615463,2664.741391,536.266849
968.959552,-8956.491898,2368.659014,-689.485948
968.959873,-9030.512492,2220.617826,-612.876398
968.960193,-9400.615463,2368.659014,-612.876398
968.960514,-9770.718434,1998.556043,0.000000
968.960835,-10214.842000,2072.576638,1302.362347
968.961155,-9992.780217,2294.638420,1991.848295
968.961476,-10807.006753,2368.659014,2681.334243
968.961797,-10510.924376,2294.638420,3217.601092
968.962117,-9548.656652,2368.659014,2757.943793
968.962438,-9474.636058,2368.659014,2221.676944
968.962759,-9178.553681,2516.700203,2451.505594
968.963080,-8956.491898,2146.597232,2298.286494
968.963400,-9548.656652,1924.535449,2145.067394
968.963721,-9252.574275,1184.329507,1685.410096
968.964042,-9474.636058,1036.288319,1072.533697
968.964362,-9326.594869,740.205942,995.924147
968.964683,-9622.677246,1036.288319,689.485948
968.965004,-9918.759623,666.185348,536.266849
968.965324,-9992.780217,592.164754,2451.505594
968.965645,-9918.759623,962.267725,3524.039291
968.965966,-10584.944971,592.164754,3983.696590
968.966287,-10732.986159,1332.370696,5975.544884
968.966607,-9992.780217,888.247130,6281.983084
968.966928,-9400.615463,1776.494261,6435.202183
968.967249,-9400.615463,2442.679609,7354.516781
968.967569,-9326.594869,1480.411884,6741.640382
968.967890,-7772.162391,0.000000,5056.230287
968.968211,-8586.388927,0.000000,3753.867940
968.968531,-8660.409521,148.041188,2451.505594
968.968852,-8290.306550,962.267725,2451.505594
968.969173,-10288.862594,1628.453072,3600.648841
968.969494,-10066.800811,814.226536,2911.162892
968.969814,-10288.862594,0.000000,2374.896044
968.970135,-11325.150913,0.000000,3447.429741
968.970456,-11103.089130,0.000000,4519.963438
968.970776,-11399.171507,740.205942,6128.763984
968.971097,-10584.944971,666.185348,7431.126331
968.971418,-9548.656652,666.185348,6052.154434
968.971738,-9400.615463,-222.061783,5209.449386
968.972059,-8882.471304,-222.061783,4903.011187
968.972380,-7920.203579,888.247130,3677.258390
968.972701,-8956.491898,1332.370696,3753.867940
968.973021,-8660.409521,2516.700203,4136.915689
968.973342,-9178.553681,1924.535449,3677.258390
968.973663,-9844.739029,1110.308913,2681.334243
968.973983,-10362.883188,1258.350101,3064.381992
968.974304,-10881.027347,1554.432478,2911.162892
968.974625,-10584.944971,1776.494261,1915.238745
968.974945,-9844.739029,3108.864956,459.657299
968.975266,-9474.636058,3034.844362,-612.876398
968.975587,-9030.512492,2590.720797,0.000000
968.975908,-9326.594869,2220.617826,766.095498
968.976228,-9030.512492,1258.350101,-306.438199
968.976549,-9030.512492,1480.411884,612.876398
968.976870,-9178.553681,2442.679609,1991.848295
968.977190,-10288.862594,2738.761985,4596.572988
968.977511,-10584.944971,2368.659014,4366.744339
968.977832,-9992.780217,1628.453072,3447.429741
968.978152,-9474.636058,2072.576638,2298.286494
968.978473,-9400.615463,3256.906145,2451.505594
968.978794,-9622.677246,3552.988522,3753.867940
968.979115,-9770.718434,3552.988522,4290.134789
968.979435,-9770.718434,2960.823768,2451.505594
968.979756,-9548.656652,3478.967927,2145.067394
968.980077,-10510.924376,2664.741391,2834.553343
968.980397,-10510.924376,2886.803174,2987.772442
968.980718,-10140.821405,2812.782580,3294.210641
968.981039,-9178.553681,3182.885551,3217.601092
968.981359,-9252.574275,2072.576638,4060.306139
968.981680,-9400.615463,1406.391290,4213.525239
968.982001,-10362.883188,740.205942,5056.230287
968.982322,-10436.903782,444.123565,5439.278036
968.982642,-9992.780217,888.247130,5362.668486
968.982963,-9622.677246,888.247130,4979.620737
968.983284,-8882.471304,1924.535449,4749.792088
968.983604,-10140.821405,1480.411884,5822.325785
968.983925,-9178.553681,2664.741391,6052.154434
968.984246,-9252.574275,1998.556043,5669.106685
968.984566,-8882.471304,1998.556043,4673.182538
968.984887,-9548.656652,1554.432478,4366.744339
968.985208,-9400.615463,2368.659014,2911.162892
968.985529,-8734.430116,4293.194464,3447.429741
968.985849,-9770.718434,5255.462188,5745.716235
968.986170,-9918.759623,3552.988522,4979.620737
968.986491,-9326.594869,1406.391290,3524.039291
968.986811,-9770.718434,0.000000,3217.601092
968.987132,-9474.636058,-1110.308913,2451.505594
968.987453,-9622.677246,0.000000,3064.381992
968.987773,-8290.306550,296.082377,1685.410096
968.988094,-8586.388927,740.205942,1915.238745
968.988415,-8586.388927,222.061783,2451.505594
968.988736,-11029.068536,1480.411884,3140.991542
968.989056,-11769.274478,296.082377,3907.087040
968.989377,-11029.068536,1332.370696,3140.991542
968.989698,-9770.718434,1998.556043,2528.115143
968.990018,-8734.430116,2220.617826,1532.190996
968.990339,-9474.636058,1702.473667,1762.019645
968.990660,-8512.368333,888.247130,1455.581446
968.990980,-8808.450710,0.000000,0.000000
968.991301,-9104.533087,-2072.576638,-2068.457845
968.991622,-8660.409521,148.041188,-1838.629195
968.991943,-9400.615463,2072.576638,229.828649
968.992263,-9844.739029,2220.617826,1455.581446
968.992584,-9548.656652,962.267725,2068.457845
968.992905,-8956.491898,-1258.350101,1991.848295
968.993225,-10658.965565,-2294.638420,766.095498
968.993546,-10881.027347,-740.205942,1225.752797
968.993867,-10510.924376,962.267725,3294.210641
968.994187,-9178.553681,2294.638420,3447.429741
968.994508,-9400.615463,2590.720797,2374.896044
968.994829,-8956.491898,1850.514855,2451.505594
968.995149,-9474.636058,-814.226536,1072.533697
968.995470,-9178.553681,-1924.535449,1225.752797
968.995790,-9622.677246,-370.102971,1685.410096
968.996111,-9844.739029,-666.185348,3140.991542
968.996432,-9992.780217,-222.061783,3907.087040
968.996752,-10288.862594,74.020594,4213.525239
968.997073,-10140.821405,-888.247130,3983.696590
968.997394,-9252.574275,592.164754,612.876398
968.997714,-10214.842000,1776.494261,1378.971896
968.998035,-9622.677246,1480.411884,1608.800546
968.998356,-9474.636058,0.000000,1072.533697
968.998676,-10140.821405,-1184.329507,2068.457845
968.998997,-9104.533087,-2368.659014,536.266849
968.999318,-9622.677246,-2294.638420,995.924147
968.999638,-10510.924376,-1406.391290,3370.820191
968.999959,-9696.697840,-2368.659014,2987.772442
969.000280,-9474.636058,-1184.329507,4060.306139
969.000600,-10362.883188,-1480.411884,3447.429741
969.000921,-8512.368333,0.000000,1149.143247
969.001242,-9474.636058,1480.411884,766.095498
969.001562,-9474.636058,1258.350101,1838.629195
969.001883,-7550.100608,1702.473667,1225.752797
969.002204,-9548.656652,666.185348,1072.533697
969.002524,-9770.718434,148.041188,1685.410096
969.002845,-9400.615463,-1554.432478,76.609550
969.003166,-9918.759623,148.041188,1302.362347
969.003486,-9548.656652,1480.411884,2451.505594
969.003807,-9622.677246,1850.514855,2451.505594
969.004128,-10584.944971,814.226536,2681.334243
969.004448,-9622.677246,-2146.597232,919.314598
969.004769,-8660.409521,-1702.473667,-459.657299
969.005090,-10362.883188,-1776.494261,459.657299
969.005410,-8956.491898,1480.411884,1149.143247
969.005731,-8882.471304,296.082377,383.047749
969.006052,-9770.718434,370.102971,76.609550
969.006372,-9104.533087,-222.061783,-1532.190996
969.006693,-9326.594869,-814.226536,-2451.505594
969.007014,-10436.903782,814.226536,-766.095498
969.007334,-9844.739029,1036.288319,-612.876398
969.007655,-9548.656652,1628.453072,0.000000
969.007976,-10732.986159,0.000000,689.485948
969.008296,-9770.718434,-444.123565,-1762.019645
969.008617,-10066.800811,-888.247130,-1532.190996
969.008937,-10436.903782,-444.123565,459.657299
969.009258,-8956.491898,-444.123565,76.609550
969.009579,-9474.636058,296.082377,459.657299
969.009899,-9918.759623,-888.247130,0.000000
969.010220,-8586.388927,-1628.453072,-1685.410096
969.010541,-9104.533087,-370.102971,-689.485948
969.010861,-9400.615463,1258.350101,1225.752797
969.011182,-9622.677246,1184.329507,1762.019645
969.011503,-10362.883188,518.144159,3064.381992
969.011823,-9474.636058,-1850.514855,1838.629195
969.012144,-8438.347739,-740.205942,536.266849
969.012465,-11473.192101,222.061783,2911.162892
969.012785,-9548.656652,0.000000,3524.039291
969.013106,-9030.512492,-296.082377,2374.896044
969.013427,-9326.594869,-1332.370696,1608.800546
969.013747,-8956.491898,-4737.318029,-1991.848295
969.014068,-6069.688724,2294.638420,689.485948
969.014389,-13323.706956,-1924.535449,3753.867940
969.014709,-8142.265362,1702.473667,5975.544884
969.015030,-9770.718434,-2738.761985,2757.943793
969.015351,-11843.295072,-3182.885551,2911.162892
969.015671,-7105.977043,0.000000,0.000000
969.015992,-9474.636058,444.123565,1302.362347
969.016313,-9992.780217,2664.741391,3907.087040
969.016633,-6069.688724,1332.370696,153.219100
969.016954,-11843.295072,222.061783,842.705048
969.017275,-8882.471304,-1628.453072,1225.752797
969.017595,-9844.739029,-1924.535449,-612.876398
969.017916,-11917.315666,-962.267725,1149.143247
969.018237,-9030.512492,370.102971,383.047749
969.018557,-7920.203579,1406.391290,0.000000
969.018878,-11621.233289,814.226536,919.314598
969.019199,-10658.965565,0.000000,1838.629195
969.019519,-9992.780217,-1110.308913,1532.190996
969.019840,-12139.377449,-2442.679609,2681.334243
969.020161,-10066.800811,-2294.638420,2145.067394
969.020481,-10436.903782,-2960.823768,1991.848295
969.020802,-10436.903782,-3034.844362,2068.457845
969.021123,-8586.388927,-1184.329507,0.000000
969.021443,-8068.244768,-1406.391290,-2374.896044
969.021764,-9104.533087,0.000000,0.000000
969.022085,-9178.553681,814.226536,-612.876398
969.022405,-9548.656652,740.205942,76.609550
969.022726,-10881.027347,0.000000,2298.286494
969.023046,-8438.347739,-888.247130,0.000000
969.023367,-10510.924376,-1184.329507,-459.657299
969.023688,-9918.759623,-296.082377,1455.581446
969.024008,-8512.368333,444.123565,536.266849
969.024329,-10732.986159,518.144159,1149.143247
969.024650,-9622.677246,666.185348,76.609550
969.024970,-7920.203579,222.061783,-1762.019645
969.025291,-9178.553681,814.226536,-1225.752797
969.025612,-8068.244768,1258.350101,536.266849
969.025932,-9252.574275,0.000000,306.438199
969.026253,-10807.006753,-444.123565,1838.629195
969.026574,-10436.903782,-2368.659014,1838.629195
969.026894,-9474.636058,-1258.350101,76.609550
969.027215,-10807.006753,1480.411884,2834.553343
969.027536,-10732.986159,0.000000,2221.676944
969.027856,-7624.121203,2442.679609,919.314598
969.028177,-10436.903782,-1110.308913,0.000000
969.028498,-6735.874072,-370.102971,-1762.019645
969.028818,-8216.285956,-518.144159,-2681.334243
969.029139,-9474.636058,518.144159,2298.286494
969.029460,-8512.368333,2146.597232,2834.553343
969.029780,-9770.718434,-1110.308913,2604.724693
969.030101,-11769.274478,-1628.453072,3600.648841
969.030422,-9844.739029,-2294.638420,2528.115143
969.030742,-11621.233289,-1554.432478,3294.210641
969.031063,-11473.192101,0.000000,4519.963438
969.031384,-8882.471304,666.185348,2757.943793
969.031704,-8882.471304,-962.267725,1072.533697
969.032025,-8142.265362,-814.226536,2374.896044
969.032346,-7550.100608,-1628.453072,-689.485948
969.032666,-10362.883188,-1480.411884,459.657299
969.032987,-9104.533087,2220.617826,2528.115143
969.033308,-9474.636058,444.123565,2604.724693
969.033628,-10510.924376,74.020594,2681.334243
969.033949,-10214.842000,740.205942,2451.505594
969.034270,-9770.718434,-518.144159,1072.533697
969.034590,-9474.636058,296.082377,842.705048
969.034911,-9104.533087,592.164754,1532.190996
969.035232,-9474.636058,-518.144159,1762.019645
969.035552,-9548.656652,-962.267725,612.876398
969.035873,-9030.512492,-2590.720797,-612.876398
969.036193,-8068.244768,-296.082377,-842.705048
969.036514,-11473.192101,148.041188,1225.752797
969.036835,-9770.718434,2442.679609,2604.724693
969.037155,-11399.171507,666.185348,3140.991542
969.037476,-10214.842000,-1998.556043,995.924147
969.037797,-8216.285956,-1036.288319,0.000000
969.038117,-10955.047942,-740.205942,-76.609550
969.038438,-9474.636058,222.061783,1915.238745
969.038759,-9178.553681,-148.041188,919.314598
969.039079,-8956.491898,-444.123565,0.000000
969.039400,-9104.533087,-1776.494261,-1378.971896
