#time,accel_x,accel_y,accel_z
742.611562,-10140.821405,-1702.473667,-459.657299
742.611883,-10288.862594,-888.247130,153.219100
742.612204,-10436.903782,1110.308913,1302.362347
742.612525,-11029.068536,592.164754,229.828649
742.612846,-10807.006753,1184.329507,383.047749
742.613168,-10584.944971,1406.391290,459.657299
742.613489,-10436.903782,666.185348,1072.533697
742.613810,-9622.677246,-296.082377,919.314598
742.614131,-9770.718434,-962.267725,612.876398
742.614452,-9474.636058,-1480.411884,842.705048
742.614773,-9178.553681,-1628.453072,1225.752797
742.615094,-8586.388927,-1776.494261,1378.971896
742.615416,-9400.615463,-1406.391290,1455.581446
742.615737,-9326.594869,-1480.411884,1225.752797
742.616058,-9474.636058,-1110.308913,1532.190996
742.616379,-9104.533087,-1184.329507,1915.238745
742.616700,-9474.636058,-592.164754,1455.581446
742.617021,-9400.615463,-444.123565,1532.190996
742.617343,-9474.636058,-444.123565,1149.143247
742.617664,-9252.574275,-518.144159,919.314598
742.617985,-9400.615463,0.000000,766.095498
742.618306,-9400.615463,0.000000,842.705048
742.618627,-9326.594869,0.000000,919.314598
742.618948,-9252.574275,-296.082377,536.266849
742.619270,-8808.450710,-296.082377,76.609550
742.619591,-8660.409521,-740.205942,383.047749
742.619912,-9030.512492,-518.144159,459.657299
742.620233,-9104.533087,-592.164754,612.876398
742.620554,-9252.574275,-1036.288319,306.438199
742.620875,-9400.615463,-1776.494261,229.828649
742.621196,-9474.636058,-1332.370696,76.609550
742.621518,-9992.780217,-962.267725,689.485948
742.621839,-9992.780217,-592.164754,536.266849
742.622160,-9918.759623,-370.102971,229.828649
742.622481,-9844.739029,-444.123565,-229.828649
742.622802,-9844.739029,-814.226536,-229.828649
742.623123,-9844.739029,-888.247130,229.828649
742.623445,-10066.800811,-1258.350101,842.705048
742.623766,-9844.739029,-814.226536,0.000000
742.624087,-9844.739029,-1184.329507,0.000000
742.624408,-9548.656652,-1110.308913,-153.219100
742.624729,-10066.800811,-1406.391290,-306.438199
742.625050,-9548.656652,-1480.411884,-459.657299
742.625372,-9770.718434,-1776.494261,-612.876398
742.625693,-9770.718434,-1850.514855,-536.266849
742.626014,-9696.697840,-2220.617826,-919.314598
742.626335,-9252.574275,-2516.700203,-1149.143247
742.626656,-9548.656652,-2294.638420,-1225.752797
742.626977,-9400.615463,-2220.617826,-1225.752797
742.627298,-9622.677246,-1998.556043,-1225.752797
742.627620,-9030.512492,-1480.411884,-612.876398
742.627941,-9696.697840,-1924.535449,-689.485948
742.628262,-9696.697840,-2146.597232,-153.219100
742.628583,-9474.636058,-1924.535449,-306.438199
742.628904,-9400.615463,-1628.453072,76.609550
742.629225,-9252.574275,-2146.597232,306.438199
742.629547,-9104.533087,-2146.597232,76.609550
742.629868,-9178.553681,-1998.556043,0.000000
742.630189,-9030.512492,-1702.473667,459.657299
742.630510,-8660.409521,-1850.514855,-229.828649
742.630831,-8956.491898,-1332.370696,229.828649
742.631152,-9104.533087,-1332.370696,153.219100
742.631473,-9400.615463,-888.247130,459.657299
742.631795,-8660.409521,-888.247130,919.314598
742.632116,-9918.759623,-666.185348,919.314598
742.632437,-10214.842000,-888.247130,919.314598
742.632758,-9992.780217,-370.102971,1685.410096
742.633079,-9844.739029,-222.061783,1608.800546
742.633400,-9844.739029,-740.205942,2298.286494
742.633722,-10066.800811,-592.164754,2068.457845
742.634043,-9474.636058,-296.082377,1915.238745
742.634363,-9474.636058,-444.123565,2221.676944
742.634684,-9474.636058,-296.082377,2068.457845
742.635005,-9548.656652,-74.020594,2451.505594
742.635326,-9622.677246,0.000000,1685.410096
742.635646,-9844.739029,0.000000,2145.067394
742.635967,-9326.594869,592.164754,1915.238745
742.636288,-10066.800811,0.000000,2374.896044
742.636609,-10288.862594,222.061783,2298.286494
742.636929,-10288.862594,74.020594,1991.848295
742.637250,-10288.862594,740.205942,3370.820191
742.637571,-10214.842000,148.041188,1838.629195
742.637892,-9844.739029,222.061783,2145.067394
742.638212,-9622.677246,444.123565,1532.190996
742.638533,-9548.656652,296.082377,1532.190996
742.638854,-9400.615463,814.226536,1532.190996
742.639174,-9622.677246,814.226536,2068.457845
742.639495,-9474.636058,888.247130,1991.848295
742.639816,-9622.677246,814.226536,2068.457845
742.640137,-8956.491898,1628.453072,1302.362347
742.640457,-9548.656652,1110.308913,1685.410096
742.640778,-9400.615463,1110.308913,1378.971896
742.641099,-9474.636058,1036.288319,1378.971896
742.641420,-9474.636058,1036.288319,536.266849
742.641740,-9474.636058,740.205942,919.314598
742.642061,-9326.594869,888.247130,459.657299
742.642382,-9474.636058,740.205942,612.876398
742.642703,-9474.636058,962.267725,459.657299
742.643023,-9622.677246,740.205942,1302.362347
742.643344,-9474.636058,592.164754,766.095498
742.643665,-9622.677246,518.144159,842.705048
742.643985,-9326.594869,666.185348,612.876398
742.644306,-9326.594869,962.267725,1149.143247
742.644627,-9252.574275,444.123565,919.314598
742.644948,-9474.636058,0.000000,459.657299
742.645268,-9252.574275,222.061783,536.266849
742.645589,-9252.574275,74.020594,153.219100
742.645910,-9474.636058,0.000000,229.828649
742.646231,-9474.636058,0.000000,459.657299
742.646551,-9474.636058,-444.123565,383.047749
742.646872,-9696.697840,-370.102971,383.047749
742.647193,-9696.697840,-740.205942,76.609550
742.647514,-9770.718434,-592.164754,612.876398
742.647834,-9844.739029,-370.102971,459.657299
742.648155,-9844.739029,-518.144159,689.485948
742.648476,-9400.615463,-962.267725,536.266849
742.648797,-9696.697840,-814.226536,1225.752797
742.649117,-9918.759623,-814.226536,1302.362347
742.649438,-9696.697840,-962.267725,1302.362347
742.649759,-9622.677246,-888.247130,1302.362347
742.650079,-9474.636058,-1110.308913,1378.971896
742.650400,-9474.636058,-1184.329507,1302.362347
742.650721,-9622.677246,-1258.350101,919.314598
742.651042,-9548.656652,-1332.370696,1302.362347
742.651362,-9474.636058,-1480.411884,1378.971896
742.651683,-9474.636058,-1332.370696,995.924147
742.652004,-9696.697840,-1258.350101,995.924147
742.652325,-9770.718434,-1110.308913,1378.971896
742.652645,-9030.512492,-1924.535449,1302.362347
742.652966,-9474.636058,-1406.391290,1455.581446
742.653287,-9474.636058,-1184.329507,1378.971896
742.653608,-9474.636058,-1184.329507,1455.581446
742.653928,-9400.615463,-1258.350101,1378.971896
742.654249,-9326.594869,-1110.308913,1302.362347
742.654570,-9252.574275,-962.267725,1455.581446
742.654890,-9030.512492,-1036.288319,1072.533697
742.655211,-9252.574275,-888.247130,995.924147
742.655532,-9178.553681,-1036.288319,1072.533697
742.655853,-9474.636058,-888.247130,1225.752797
742.656173,-9474.636058,-740.205942,1149.143247
742.656494,-9548.656652,-592.164754,919.314598
742.656815,-9548.656652,-518.144159,459.657299
742.657136,-9770.718434,-666.185348,919.314598
742.657456,-9844.739029,-444.123565,919.314598
742.657777,-9622.677246,-518.144159,612.876398
742.658098,-9696.697840,-296.082377,-842.705048
742.658419,-9622.677246,-148.041188,842.705048
742.658739,-9770.718434,-148.041188,1455.581446
742.659060,-9770.718434,0.000000,1455.581446
742.659381,-9992.780217,0.000000,1072.533697
742.659701,-9548.656652,74.020594,1455.581446
742.660022,-9622.677246,0.000000,1532.190996
742.660343,-9622.677246,0.000000,1225.752797
742.660664,-9918.759623,0.000000,1302.362347
742.660984,-9622.677246,-74.020594,2298.286494
742.661305,-9918.759623,222.061783,1378.971896
742.661626,-9696.697840,296.082377,919.314598
742.661947,-9918.759623,148.041188,1072.533697
742.662267,-9844.739029,370.102971,1149.143247
742.662588,-9992.780217,370.102971,1532.190996
742.662909,-9770.718434,444.123565,995.924147
742.663230,-9770.718434,222.061783,1378.971896
742.663550,-9548.656652,370.102971,1608.800546
742.663871,-9770.718434,666.185348,1532.190996
742.664192,-9548.656652,666.185348,1608.800546
742.664512,-9474.636058,666.185348,1685.410096
742.664833,-9474.636058,370.102971,1532.190996
742.665154,-9474.636058,0.000000,2451.505594
742.665475,-9474.636058,296.082377,1455.581446
742.665795,-9474.636058,370.102971,1072.533697
742.666116,-9474.636058,74.020594,1225.752797
742.666437,-9400.615463,0.000000,1532.190996
742.666758,-9400.615463,0.000000,1225.752797
742.667078,-9622.677246,148.041188,919.314598
742.667399,-9474.636058,-148.041188,689.485948
742.667720,-9474.636058,-148.041188,995.924147
742.668041,-9474.636058,-296.082377,1072.533697
742.668361,-9400.615463,-592.164754,689.485948
742.668682,-9252.574275,-592.164754,612.876398
742.669003,-9474.636058,-444.123565,766.095498
742.669323,-10066.800811,666.185348,229.828649
742.669644,-9474.636058,-592.164754,383.047749
742.669965,-9474.636058,-666.185348,689.485948
742.670286,-9400.615463,-592.164754,689.485948
742.670606,-9918.759623,-740.205942,459.657299
742.670927,-9770.718434,-888.247130,612.876398
742.671248,-9696.697840,-888.247130,306.438199
742.671569,-9548.656652,-888.247130,76.609550
742.671889,-9474.636058,-740.205942,229.828649
742.672210,-9844.739029,-592.164754,383.047749
742.672531,-9770.718434,-888.247130,229.828649
742.672852,-9696.697840,-962.267725,383.047749
742.673172,-9844.739029,-814.226536,383.047749
742.673493,-9918.759623,-888.247130,0.000000
742.673814,-9844.739029,-814.226536,1302.362347
742.674134,-9844.739029,-592.164754,1302.362347
742.674455,-9622.677246,-592.164754,919.314598
742.674776,-9622.677246,-666.185348,1149.143247
742.675097,-9548.656652,-592.164754,1378.971896
742.675417,-9548.656652,-740.205942,1225.752797
742.675738,-9474.636058,-888.247130,1072.533697
742.676059,-9548.656652,-740.205942,1225.752797
742.676380,-9252.574275,-592.164754,1762.019645
742.676700,-9548.656652,-888.247130,1149.143247
742.677021,-9622.677246,-888.247130,1378.971896
742.677342,-9474.636058,-1036.288319,919.314598
742.677663,-9252.574275,-1258.350101,536.266849
742.677983,-9696.697840,-962.267725,1149.143247
742.678304,-9474.636058,-1110.308913,1302.362347
742.678625,-9474.636058,-888.247130,1072.533697
742.678946,-9548.656652,-962.267725,1608.800546
742.679266,-9548.656652,-962.267725,1225.752797
742.679587,-9548.656652,-814.226536,1991.848295
742.679908,-9252.574275,-814.226536,1991.848295
742.680228,-9474.636058,-666.185348,1762.019645
742.680549,-9622.677246,-74.020594,1838.629195
742.680870,-9474.636058,-518.144159,1455.581446
742.681191,-9400.615463,-444.123565,1608.800546
742.681511,-9548.656652,-296.082377,1532.190996
742.681832,-9770.718434,0.000000,1915.238745
742.682153,-9622.677246,222.061783,1685.410096
742.682474,-9622.677246,148.041188,1378.971896
742.682794,-9770.718434,148.041188,1762.019645
742.683115,-9770.718434,148.041188,1455.581446
742.683436,-10140.821405,370.102971,1685.410096
742.683757,-9770.718434,296.082377,1685.410096
742.684077,-9918.759623,370.102971,1455.581446
742.684398,-9844.739029,370.102971,1455.581446
742.684719,-10066.800811,518.144159,1455.581446
742.685039,-9622.677246,666.185348,1455.581446
742.685360,-9770.718434,518.144159,1149.143247
742.685681,-9400.615463,296.082377,689.485948
742.686002,-10362.883188,740.205942,1762.019645
742.686322,-9844.739029,222.061783,919.314598
742.686643,-9770.718434,296.082377,612.876398
742.686964,-9548.656652,0.000000,459.657299
742.687285,-9474.636058,0.000000,536.266849
742.687605,-9992.780217,222.061783,229.828649
742.687926,-9770.718434,74.020594,306.438199
742.688247,-9548.656652,-148.041188,383.047749
742.688568,-9696.697840,0.000000,459.657299
742.688888,-9400.615463,0.000000,0.000000
742.689209,-9474.636058,-444.123565,612.876398
742.689530,-9622.677246,-370.102971,306.438199
742.689850,-9400.615463,-222.061783,766.095498
742.690171,-9548.656652,592.164754,0.000000
742.690492,-9252.574275,-592.164754,459.657299
742.690813,-9474.636058,-592.164754,766.095498
742.691133,-9474.636058,-592.164754,766.095498
742.691454,-9326.594869,-666.185348,0.000000
742.691775,-9252.574275,-814.226536,689.485948
742.692096,-9400.615463,-518.144159,306.438199
742.692416,-9474.636058,-666.185348,612.876398
742.692737,-9622.677246,-666.185348,842.705048
742.693058,-9326.594869,-666.185348,689.485948
742.693379,-9548.656652,-296.082377,995.924147
742.693699,-9622.677246,-518.144159,1072.533697
742.694020,-9770.718434,-592.164754,919.314598
742.694341,-9326.594869,-888.247130,1838.629195
742.694661,-9474.636058,-518.144159,1072.533697
742.694982,-9696.697840,-222.061783,1302.362347
742.695303,-9622.677246,-666.185348,1302.362347
742.695624,-9696.697840,-666.185348,612.876398
742.695944,-9474.636058,-666.185348,1302.362347
742.696265,-9844.739029,-740.205942,1532.190996
742.696586,-9622.677246,-1036.288319,1532.190996
742.696907,-9992.780217,-1036.288319,1149.143247
742.697227,-9252.574275,-1110.308913,842.705048
742.697548,-9844.739029,-592.164754,1225.752797
742.697869,-9696.697840,-814.226536,1685.410096
742.698190,-9770.718434,-592.164754,1455.581446
742.698510,-9770.718434,-888.247130,919.314598
742.698831,-9622.677246,-370.102971,1915.238745
742.699152,-9696.697840,-518.144159,1532.190996
742.699472,-9696.697840,-444.123565,1455.581446
742.699793,-9622.677246,-518.144159,1991.848295
742.700114,-9474.636058,-518.144159,1762.019645
742.700435,-9622.677246,-518.144159,1838.629195
742.700755,-9474.636058,-370.102971,1302.362347
742.701076,-9474.636058,-370.102971,1762.019645
742.701397,-9474.636058,-370.102971,1072.533697
742.701718,-9474.636058,-148.041188,1302.362347
742.702038,-9474.636058,0.000000,1532.190996
742.702359,-9474.636058,74.020594,1378.971896
742.702680,-9474.636058,518.144159,1149.143247
742.703001,-9548.656652,148.041188,1302.362347
742.703321,-9400.615463,222.061783,1532.190996
742.703642,-9548.656652,148.041188,1225.752797
742.703963,-9474.636058,518.144159,1225.752797
742.704283,-9474.636058,148.041188,1762.019645
742.704604,-9474.636058,222.061783,1455.581446
742.704925,-9474.636058,444.123565,1149.143247
742.705246,-9474.636058,148.041188,1455.581446
742.705566,-9696.697840,370.102971,1685.410096
742.705887,-9548.656652,296.082377,1302.362347
742.706208,-9474.636058,592.164754,919.314598
742.706529,-9844.739029,444.123565,1149.143247
742.706849,-9326.594869,148.041188,459.657299
742.707170,-9770.718434,74.020594,995.924147
742.707491,-9770.718434,296.082377,766.095498
742.707812,-9844.739029,444.123565,689.485948
742.708132,-9400.615463,814.226536,1838.629195
742.708453,-9844.739029,0.000000,919.314598
742.708774,-9844.739029,0.000000,459.657299
742.709095,-9548.656652,-370.102971,459.657299
742.709415,-9474.636058,0.000000,536.266849
742.709736,-9548.656652,-370.102971,766.095498
742.710057,-9622.677246,-370.102971,459.657299
742.710377,-9474.636058,-518.144159,383.047749
742.710698,-9696.697840,-370.102971,459.657299
742.711019,-9178.553681,-888.247130,0.000000
742.711340,-9622.677246,-740.205942,459.657299
742.711660,-9548.656652,-814.226536,459.657299
742.711981,-9696.697840,-740.205942,689.485948
742.712302,-9844.739029,-1110.308913,459.657299
742.712623,-9770.718434,-888.247130,612.876398
742.712943,-9474.636058,-888.247130,612.876398
742.713264,-9474.636058,-888.247130,842.705048
742.713585,-9548.656652,-888.247130,689.485948
742.713906,-9770.718434,-814.226536,766.095498
742.714226,-9474.636058,-888.247130,612.876398
742.714547,-9474.636058,-1184.329507,1072.533697
742.714868,-9474.636058,-1110.308913,1149.143247
742.715188,-9548.656652,-592.164754,1225.752797
742.715509,-9474.636058,-962.267725,1762.019645
742.715830,-9474.636058,-962.267725,1378.971896
742.716151,-9252.574275,-888.247130,1608.800546
742.716471,-8882.471304,-444.123565,2451.505594
742.716792,-9548.656652,-1036.288319,1455.581446
742.717113,-9548.656652,-962.267725,1532.190996
742.717434,-9326.594869,-666.185348,1455.581446
742.717754,-9474.636058,-962.267725,995.924147
742.718075,-9474.636058,-740.205942,1378.971896
742.718396,-9474.636058,-1184.329507,995.924147
742.718717,-9474.636058,-888.247130,1072.533697
742.719037,-9622.677246,-814.226536,995.924147
742.719358,-9992.780217,-592.164754,1225.752797
742.719679,-9844.739029,-740.205942,1378.971896
742.719999,-9622.677246,-592.164754,1072.533697
742.720320,-9696.697840,-296.082377,1532.190996
742.720641,-9178.553681,222.061783,2145.067394
742.720962,-9770.718434,-148.041188,1455.581446
742.721282,-9844.739029,-296.082377,1302.362347
742.721603,-9548.656652,-222.061783,1302.362347
742.721924,-9622.677246,0.000000,2604.724693
742.722245,-9622.677246,0.000000,1685.410096
742.722565,-9474.636058,0.000000,1378.971896
742.722886,-9696.697840,74.020594,1455.581446
742.723207,-9474.636058,0.000000,1378.971896
742.723528,-9770.718434,296.082377,1608.800546
742.723848,-9622.677246,222.061783,1455.581446
742.724169,-9918.759623,74.020594,1302.362347
742.724490,-9622.677246,148.041188,1149.143247
742.724810,-9178.553681,888.247130,1608.800546
742.725131,-9622.677246,370.102971,1302.362347
742.725452,-9622.677246,518.144159,1762.019645
742.725773,-9474.636058,296.082377,1302.362347
742.726093,-9474.636058,148.041188,1302.362347
742.726414,-9474.636058,0.000000,689.485948
742.726735,-9548.656652,0.000000,766.095498
742.727056,-9400.615463,74.020594,766.095498
742.727376,-9548.656652,0.000000,536.266849
742.727697,-9104.533087,0.000000,459.657299
742.728018,-9474.636058,0.000000,306.438199
742.728339,-9474.636058,-222.061783,842.705048
742.728659,-9622.677246,0.000000,536.266849
742.728980,-9622.677246,296.082377,536.266849
742.729301,-9696.697840,-148.041188,153.219100
742.729621,-9474.636058,-296.082377,306.438199
742.729942,-9844.739029,-518.144159,0.000000
742.730263,-9474.636058,-296.082377,766.095498
742.730584,-9622.677246,-370.102971,459.657299
742.730904,-9474.636058,-518.144159,842.705048
742.731225,-9400.615463,-370.102971,153.219100
742.731546,-9548.656652,-370.102971,689.485948
742.731867,-9252.574275,-444.123565,76.609550
742.732187,-9474.636058,-592.164754,612.876398
742.732508,-9770.718434,-444.123565,689.485948
742.732829,-9844.739029,-592.164754,306.438199
742.733150,-9548.656652,-518.144159,1378.971896
742.733470,-9918.759623,-444.123565,1149.143247
742.733791,-9918.759623,-518.144159,1072.533697
742.734112,-9844.739029,-518.144159,1149.143247
742.734432,-9844.739029,-592.164754,919.314598
742.734753,-9326.594869,-740.205942,1149.143247
742.735074,-9548.656652,-666.185348,919.314598
742.735394,-9474.636058,-518.144159,842.705048
742.735715,-9770.718434,-740.205942,1302.362347
742.736035,-9844.739029,-222.061783,1991.848295
742.736356,-9326.594869,-962.267725,1149.143247
742.736677,-9474.636058,-592.164754,1378.971896
742.736997,-9474.636058,-888.247130,1455.581446
742.737318,-9474.636058,-888.247130,1838.629195
742.737639,-9474.636058,-888.247130,1149.143247
742.737959,-9400.615463,-740.205942,1149.143247
742.738280,-9474.636058,-888.247130,1149.143247
742.738601,-9622.677246,-814.226536,1685.410096
742.738921,-9326.594869,-1110.308913,919.314598
742.739242,-9770.718434,-740.205942,1225.752797
742.739563,-9548.656652,-666.185348,1302.362347
742.739883,-9474.636058,-888.247130,1149.143247
742.740204,-9844.739029,-740.205942,1608.800546
742.740525,-9474.636058,-592.164754,1225.752797
742.740845,-9622.677246,-740.205942,1302.362347
742.741166,-9474.636058,-518.144159,1225.752797
742.741487,-9474.636058,0.000000,76.609550
742.741807,-9548.656652,0.000000,1532.190996
742.742128,-9622.677246,-444.123565,1302.362347
742.742448,-9474.636058,-370.102971,1072.533697
742.742769,-9474.636058,0.000000,1072.533697
742.743090,-9696.697840,0.000000,1225.752797
742.743410,-9622.677246,0.000000,1608.800546
742.743731,-9622.677246,0.000000,995.924147
742.744052,-9622.677246,148.041188,1302.362347
742.744372,-9474.636058,0.000000,612.876398
742.744693,-9770.718434,148.041188,1685.410096
742.745014,-9622.677246,296.082377,1455.581446
742.745334,-9474.636058,592.164754,1378.971896
742.745655,-9696.697840,370.102971,2145.067394
742.745976,-9548.656652,592.164754,2221.676944
742.746296,-9770.718434,296.082377,1302.362347
742.746617,-9474.636058,222.061783,1072.533697
742.746938,-9474.636058,148.041188,1608.800546
742.747258,-9696.697840,222.061783,1762.019645
742.747579,-9844.739029,0.000000,1225.752797
742.747900,-9474.636058,0.000000,995.924147
742.748220,-9844.739029,-222.061783,1072.533697
742.748541,-9696.697840,-518.144159,612.876398
742.748861,-9844.739029,-222.061783,1072.533697
742.749182,-9548.656652,-148.041188,1149.143247
742.749503,-9622.677246,0.000000,612.876398
742.749823,-9548.656652,222.061783,842.705048
742.750144,-9770.718434,-222.061783,919.314598
742.750465,-9474.636058,-444.123565,766.095498
742.750785,-9474.636058,-592.164754,459.657299
742.751106,-9252.574275,-518.144159,306.438199
742.751427,-9474.636058,-592.164754,383.047749
742.751747,-9400.615463,-592.164754,536.266849
742.752068,-9622.677246,-592.164754,766.095498
742.752389,-9918.759623,-666.185348,689.485948
742.752709,-9770.718434,-148.041188,383.047749
742.753030,-9622.677246,-740.205942,383.047749
742.753351,-9548.656652,-740.205942,383.047749
742.753671,-9622.677246,-592.164754,612.876398
742.753992,-9548.656652,0.000000,-229.828649
742.754313,-9770.718434,-444.123565,919.314598
742.754633,-9844.739029,-666.185348,842.705048
742.754954,-9696.697840,-370.102971,919.314598
742.755274,-9622.677246,-370.102971,995.924147
742.755595,-9548.656652,-370.102971,1455.581446
742.755916,-9548.656652,-740.205942,1762.019645
742.756236,-9696.697840,-1036.288319,1149.143247
742.756557,-9474.636058,-1110.308913,1302.362347
742.756878,-9400.615463,0.000000,689.485948
742.757198,-9622.677246,-888.247130,1532.190996
742.757519,-9548.656652,-962.267725,1225.752797
742.757840,-9474.636058,-888.247130,689.485948
742.758160,-9548.656652,-740.205942,842.705048
742.758481,-9844.739029,-518.144159,1302.362347
742.758802,-9844.739029,-962.267725,612.876398
742.759122,-9770.718434,-740.205942,919.314598
742.759443,-9770.718434,-666.185348,1072.533697
742.759764,-9696.697840,-296.082377,1915.238745
742.760084,-9548.656652,-592.164754,1225.752797
742.760405,-9770.718434,-370.102971,1149.143247
742.760725,-9474.636058,-370.102971,1455.581446
742.761046,-9548.656652,-444.123565,1302.362347
742.761367,-9326.594869,0.000000,1838.629195
742.761687,-9474.636058,-296.082377,1685.410096
742.762008,-9474.636058,0.000000,1608.800546
742.762329,-9474.636058,0.000000,1608.800546
742.762649,-9326.594869,222.061783,1608.800546
742.762970,-9548.656652,148.041188,1225.752797
742.763291,-9548.656652,370.102971,1378.971896
742.763611,-9696.697840,222.061783,1302.362347
742.763932,-9696.697840,74.020594,1608.800546
742.764253,-10140.821405,-222.061783,766.095498
742.764573,-9474.636058,0.000000,1915.238745
742.764894,-9548.656652,0.000000,1915.238745
742.765215,-9400.615463,0.000000,1838.629195
742.765535,-9474.636058,148.041188,1991.848295
742.765856,-8438.347739,0.000000,1455.581446
742.766177,-9474.636058,0.000000,1762.019645
742.766497,-9252.574275,296.082377,1455.581446
742.766818,-9622.677246,222.061783,1225.752797
742.767138,-9548.656652,222.061783,1225.752797
742.767459,-9326.594869,148.041188,612.876398
742.767780,-9548.656652,0.000000,536.266849
742.768100,-9770.718434,0.000000,919.314598
742.768421,-9696.697840,-148.041188,689.485948
742.768742,-8438.347739,-1332.370696,1149.143247
742.769062,-9622.677246,-518.144159,459.657299
742.769383,-9770.718434,-296.082377,612.876398
742.769704,-9770.718434,-370.102971,459.657299
742.770024,-9622.677246,-666.185348,842.705048
742.770345,-9548.656652,-296.082377,459.657299
742.770666,-9474.636058,-296.082377,689.485948
742.770986,-9622.677246,-444.123565,229.828649
742.771307,-9474.636058,-296.082377,536.266849
742.771628,-8882.471304,-518.144159,1072.533697
742.771948,-9622.677246,-296.082377,459.657299
742.772269,-9844.739029,-370.102971,612.876398
742.772590,-9770.718434,-518.144159,689.485948
742.772910,-9844.739029,-740.205942,689.485948
742.773231,-9844.739029,-888.247130,766.095498
742.773551,-9696.697840,-962.267725,766.095498
742.773872,-9844.739029,-740.205942,536.266849
742.774193,-9622.677246,-740.205942,766.095498
742.774513,-9252.574275,-592.164754,1302.362347
742.774834,-9548.656652,-592.164754,1072.533697
742.775155,-9474.636058,-962.267725,1225.752797
742.775475,-9474.636058,-962.267725,1378.971896
742.775796,-9474.636058,-1406.391290,459.657299
742.776117,-9548.656652,-666.185348,1225.752797
742.776437,-9474.636058,-814.226536,1378.971896
742.776758,-9474.636058,-814.226536,766.095498
742.777079,-9474.636058,-962.267725,1225.752797
742.777399,-9252.574275,-740.205942,2068.457845
742.777720,-9770.718434,-888.247130,1455.581446
742.778041,-9474.636058,-370.102971,1149.143247
742.778361,-9844.739029,-888.247130,612.876398
742.778682,-9844.739029,-814.226536,1149.143247
742.779003,-9622.677246,-888.247130,842.705048
742.779323,-9696.697840,-814.226536,1378.971896
742.779644,-9474.636058,-740.205942,1072.533697
742.779964,-9548.656652,-518.144159,1225.752797
742.780285,-9548.656652,-518.144159,766.095498
742.780606,-9548.656652,-296.082377,1302.362347
742.780926,-9548.656652,-222.061783,1608.800546
742.781247,-9770.718434,0.000000,1225.752797
742.781568,-9400.615463,0.000000,1915.238745
742.781888,-9548.656652,-222.061783,1455.581446
742.782209,-9474.636058,-222.061783,1455.581446
742.782530,-9548.656652,0.000000,1532.190996
742.782850,-9474.636058,0.000000,919.314598
742.783171,-9474.636058,0.000000,1455.581446
742.783492,-9696.697840,0.000000,1072.533697
742.783812,-9548.656652,74.020594,1149.143247
742.784133,-9696.697840,0.000000,1149.143247
742.784454,-9696.697840,-74.020594,1225.752797
742.784774,-9770.718434,148.041188,1685.410096
742.785095,-9622.677246,148.041188,1838.629195
742.785415,-9770.718434,222.061783,1608.800546
742.785736,-9548.656652,74.020594,1838.629195
742.786057,-8216.285956,-222.061783,1378.971896
742.786377,-9400.615463,74.020594,1225.752797
742.786698,-9474.636058,370.102971,1455.581446
742.787019,-9400.615463,222.061783,1149.143247
742.787339,-9400.615463,222.061783,1991.848295
742.787660,-9326.594869,0.000000,1225.752797
742.787981,-9474.636058,0.000000,612.876398
742.788301,-9474.636058,0.000000,842.705048
742.788622,-9622.677246,-296.082377,766.095498
742.788943,-9548.656652,0.000000,1532.190996
742.789263,-9696.697840,0.000000,995.924147
742.789584,-9696.697840,0.000000,995.924147
742.789905,-9548.656652,-148.041188,612.876398
742.790225,-9474.636058,-592.164754,1225.752797
742.790546,-9622.677246,-518.144159,612.876398
742.790867,-9474.636058,-592.164754,995.924147
742.791187,-9548.656652,-592.164754,766.095498
742.791508,-9474.636058,-592.164754,229.828649
742.791828,-9622.677246,-296.082377,612.876398
742.792149,-9696.697840,-222.061783,612.876398
742.792470,-9770.718434,-370.102971,842.705048
742.792790,-9844.739029,-666.185348,766.095498
742.793111,-9696.697840,-740.205942,536.266849
742.793432,-9696.697840,-666.185348,229.828649
742.793752,-9622.677246,-814.226536,459.657299
742.794073,-9622.677246,-740.205942,306.438199
742.794394,-9474.636058,-814.226536,842.705048
742.794714,-9770.718434,-666.185348,689.485948
742.795035,-9548.656652,-814.226536,995.924147
742.795356,-9844.739029,-962.267725,689.485948
742.795676,-9622.677246,-814.226536,766.095498
742.795997,-9770.718434,-666.185348,1762.019645
742.796318,-9844.739029,-814.226536,1685.410096
742.796638,-9474.636058,-740.205942,1302.362347
742.796959,-9548.656652,-888.247130,1302.362347
742.797280,-9844.739029,-740.205942,1072.533697
742.797600,-9548.656652,-666.185348,1378.971896
742.797921,-9474.636058,-740.205942,1608.800546
742.798241,-9548.656652,-666.185348,1072.533697
742.798562,-9030.512492,-1110.308913,2681.334243
742.798883,-9548.656652,-1036.288319,1225.752797
742.799203,-9548.656652,-962.267725,1378.971896
742.799524,-9918.759623,-740.205942,919.314598
742.799845,-9474.636058,-814.226536,995.924147
742.800165,-9474.636058,-814.226536,689.485948
742.800486,-9696.697840,-814.226536,1149.143247
742.800807,-9770.718434,-444.123565,1302.362347
742.801127,-9548.656652,-740.205942,1455.581446
742.801448,-9474.636058,-444.123565,2221.676944
742.801769,-9474.636058,-592.164754,1608.800546
742.802089,-9622.677246,-444.123565,1532.190996
742.802410,-9548.656652,-370.102971,1532.190996
742.802731,-8882.471304,-444.123565,2451.505594
742.803051,-9474.636058,0.000000,1685.410096
742.803372,-9474.636058,74.020594,1532.190996
742.803693,-9548.656652,222.061783,1455.581446
742.804013,-9474.636058,370.102971,1532.190996
742.804334,-9474.636058,0.000000,1608.800546
742.804654,-9696.697840,148.041188,1455.581446
742.804975,-9622.677246,222.061783,1608.800546
742.805296,-9622.677246,0.000000,1302.362347
742.805616,-9992.780217,296.082377,1378.971896
742.805937,-9918.759623,296.082377,1608.800546
742.806258,-9918.759623,296.082377,1762.019645
742.806578,-9474.636058,222.061783,1532.190996
742.806899,-9400.615463,0.000000,766.095498
742.807220,-9400.615463,296.082377,1455.581446
742.807540,-9548.656652,296.082377,1532.190996
742.807861,-9696.697840,0.000000,1149.143247
742.808182,-9474.636058,0.000000,842.705048
742.808502,-9400.615463,0.000000,766.095498
742.808823,-9548.656652,0.000000,612.876398
742.809144,-9770.718434,74.020594,766.095498
742.809464,-9548.656652,0.000000,536.266849
742.809785,-9622.677246,0.000000,1149.143247
742.810106,-9474.636058,-222.061783,536.266849
742.810426,-9622.677246,-148.041188,766.095498
742.810747,-9770.718434,-370.102971,306.438199
742.811067,-8882.471304,370.102971,-229.828649
742.811388,-9474.636058,-222.061783,459.657299
742.811709,-9548.656652,0.000000,459.657299
742.812029,-9474.636058,-444.123565,459.657299
742.812350,-9622.677246,-296.082377,229.828649
742.812671,-9548.656652,-370.102971,766.095498
742.812991,-9474.636058,-296.082377,459.657299
742.813312,-9622.677246,-444.123565,459.657299
742.813633,-9622.677246,-444.123565,612.876398
742.813953,-9252.574275,-518.144159,766.095498
742.814274,-9696.697840,-740.205942,536.266849
742.814595,-9548.656652,-592.164754,459.657299
742.814915,-9696.697840,-518.144159,459.657299
742.815236,-9104.533087,-814.226536,1072.533697
742.815557,-9770.718434,-444.123565,919.314598
742.815877,-9622.677246,-518.144159,1149.143247
742.816198,-9770.718434,-518.144159,1072.533697
742.816518,-9474.636058,-666.185348,1378.971896
742.816839,-9622.677246,-814.226536,1072.533697
742.817160,-9474.636058,-740.205942,1072.533697
742.817480,-9548.656652,-740.205942,1072.533697
742.817801,-9548.656652,-740.205942,1608.800546
742.818122,-9770.718434,-740.205942,1225.752797
742.818442,-9548.656652,-814.226536,1455.581446
742.818763,-9622.677246,-888.247130,1302.362347
742.819084,-9770.718434,-888.247130,1072.533697
742.819404,-9474.636058,-1480.411884,1149.143247
742.819725,-9622.677246,-740.205942,1149.143247
742.820046,-9474.636058,-1036.288319,995.924147
742.820366,-9474.636058,-888.247130,1225.752797
742.820687,-9548.656652,-814.226536,1072.533697
742.821008,-9622.677246,-740.205942,919.314598
742.821328,-9622.677246,-962.267725,1302.362347
742.821649,-9696.697840,-740.205942,919.314598
742.821970,-9474.636058,-370.102971,1378.971896
742.822290,-9770.718434,-74.020594,1302.362347
742.822611,-9474.636058,-592.164754,1072.533697
742.822931,-9548.656652,-518.144159,1225.752797
742.823252,-9474.636058,-444.123565,1072.533697
742.823573,-9474.636058,-888.247130,842.705048
742.823893,-9474.636058,-222.061783,1149.143247
742.824214,-9622.677246,-222.061783,1072.533697
742.824535,-9474.636058,0.000000,1378.971896
742.824855,-9696.697840,148.041188,1838.629195
742.825176,-9548.656652,222.061783,1532.190996
742.825497,-9696.697840,0.000000,1532.190996
742.825817,-9770.718434,222.061783,1302.362347
742.826138,-9622.677246,222.061783,1149.143247
742.826459,-9548.656652,296.082377,1608.800546
742.826779,-9548.656652,296.082377,1302.362347
742.827100,-9474.636058,296.082377,1225.752797
742.827421,-9622.677246,444.123565,1072.533697
742.827741,-9474.636058,592.164754,1225.752797
742.828062,-9548.656652,148.041188,1225.752797
742.828383,-9474.636058,148.041188,995.924147
742.828703,-9548.656652,74.020594,689.485948
742.829024,-9696.697840,0.000000,766.095498
742.829344,-9548.656652,0.000000,1225.752797
742.829665,-9696.697840,-296.082377,689.485948
742.829986,-9474.636058,0.000000,995.924147
742.830306,-9622.677246,-296.082377,459.657299
742.830627,-9548.656652,0.000000,1685.410096
742.830948,-9548.656652,-444.123565,459.657299
742.831268,-9548.656652,-222.061783,612.876398
742.831589,-9696.697840,-444.123565,689.485948
742.831910,-9400.615463,-666.185348,1991.848295
742.832230,-9548.656652,-740.205942,689.485948
742.832551,-9844.739029,-444.123565,689.485948
742.832872,-9474.636058,-814.226536,536.266849
742.833192,-9474.636058,-370.102971,1072.533697
742.833513,-9548.656652,-518.144159,612.876398
742.833834,-9548.656652,-666.185348,689.485948
742.834155,-9474.636058,-666.185348,536.266849
742.834475,-9548.656652,-666.185348,306.438199
742.834796,-9696.697840,0.000000,919.314598
742.835117,-9844.739029,-370.102971,842.705048
742.835438,-9548.656652,-592.164754,1149.143247
742.835758,-9770.718434,-518.144159,1225.752797
742.836079,-9252.574275,-962.267725,2068.457845
742.836400,-9770.718434,-814.226536,1225.752797
742.836721,-9992.780217,-592.164754,1149.143247
742.837041,-9548.656652,-592.164754,1532.190996
742.837362,-9548.656652,-518.144159,1455.581446
742.837683,-9474.636058,-666.185348,995.924147
742.838004,-9474.636058,-888.247130,1225.752797
742.838324,-9548.656652,-814.226536,1149.143247
742.838645,-9918.759623,-814.226536,1225.752797
742.838966,-9844.739029,-1332.370696,612.876398
742.839287,-9622.677246,-740.205942,689.485948
742.839607,-9844.739029,-666.185348,1149.143247
742.839928,-9696.697840,-888.247130,1072.533697
742.840249,-9548.656652,-1110.308913,0.000000
742.840570,-9474.636058,-592.164754,1072.533697
742.840891,-9622.677246,-814.226536,919.314598
742.841211,-9844.739029,-740.205942,1302.362347
742.841532,-9474.636058,-888.247130,1225.752797
742.841853,-9622.677246,-444.123565,995.924147
742.842174,-9474.636058,-518.144159,1532.190996
742.842494,-9548.656652,-222.061783,1532.190996
742.842815,-9474.636058,-222.061783,1685.410096
742.843136,-9474.636058,-222.061783,2911.162892
742.843457,-9474.636058,-370.102971,1225.752797
742.843777,-9696.697840,0.000000,1302.362347
742.844098,-9770.718434,0.000000,1302.362347
742.844419,-9548.656652,74.020594,1762.019645
742.844740,-9696.697840,148.041188,1838.629195
742.845060,-9548.656652,0.000000,1302.362347
742.845381,-9696.697840,0.000000,1608.800546
742.845702,-9844.739029,74.020594,1685.410096
742.846023,-9474.636058,74.020594,1532.190996
742.846343,-9548.656652,222.061783,1378.971896
742.846664,-9696.697840,518.144159,1455.581446
742.846985,-9326.594869,74.020594,1838.629195
742.847306,-9474.636058,0.000000,1225.752797
742.847626,-9400.615463,0.000000,1378.971896
742.847947,-9400.615463,74.020594,1455.581446
742.848268,-9474.636058,0.000000,1149.143247
742.848589,-9548.656652,0.000000,0.000000
742.848909,-9622.677246,222.061783,995.924147
742.849230,-9696.697840,74.020594,689.485948
742.849551,-9474.636058,0.000000,842.705048
742.849872,-9548.656652,-444.123565,766.095498
742.850192,-9696.697840,-148.041188,612.876398
742.850513,-9696.697840,-296.082377,995.924147
742.850834,-9696.697840,-444.123565,306.438199
742.851155,-9770.718434,-444.123565,459.657299
742.851475,-9474.636058,148.041188,0.000000
742.851796,-9844.739029,-444.123565,689.485948
742.852117,-9474.636058,-370.102971,612.876398
742.852438,-9474.636058,-222.061783,229.828649
742.852758,-9474.636058,222.061783,1149.143247
742.853079,-9696.697840,-296.082377,536.266849
742.853400,-9622.677246,-222.061783,919.314598
742.853721,-9696.697840,-666.185348,612.876398
742.854041,-9622.677246,-592.164754,459.657299
742.854362,-9918.759623,-518.144159,842.705048
742.854683,-9844.739029,-592.164754,842.705048
742.855004,-9770.718434,-370.102971,1072.533697
742.855325,-9548.656652,-518.144159,919.314598
742.855645,-10066.800811,-370.102971,1455.581446
742.855966,-9400.615463,-592.164754,1072.533697
742.856287,-9844.739029,-592.164754,1378.971896
742.856608,-9548.656652,-518.144159,1455.581446
742.856928,-9474.636058,-666.185348,-153.219100
742.857249,-9474.636058,-518.144159,1149.143247
742.857570,-9622.677246,-296.082377,1225.752797
742.857891,-9844.739029,-518.144159,1302.362347
742.858211,-9474.636058,-518.144159,1072.533697
742.858532,-9474.636058,-888.247130,1072.533697
742.858853,-9696.697840,-666.185348,1302.362347
742.859174,-9622.677246,-962.267725,842.705048
742.859494,-9770.718434,-962.267725,1149.143247
742.859815,-9622.677246,-814.226536,1149.143247
742.860136,-9622.677246,-962.267725,919.314598
742.860457,-9474.636058,-814.226536,1302.362347
742.860777,-9622.677246,-740.205942,1302.362347
742.861098,-9252.574275,-592.164754,536.266849
742.861419,-9474.636058,-592.164754,1149.143247
742.861740,-9474.636058,-592.164754,1149.143247
742.862060,-9474.636058,-518.144159,1378.971896
742.862381,-9400.615463,-592.164754,1532.190996
742.862702,-9696.697840,-518.144159,383.047749
742.863023,-9474.636058,-296.082377,842.705048
742.863343,-9474.636058,-444.123565,1225.752797
742.863664,-9770.718434,-296.082377,1149.143247
742.863985,-9030.512492,0.000000,919.314598
742.864306,-9548.656652,-296.082377,1149.143247
742.864626,-9622.677246,-370.102971,1225.752797
742.864947,-9474.636058,0.000000,1455.581446
742.865268,-9622.677246,0.000000,1378.971896
742.865589,-9548.656652,296.082377,1532.190996
742.865909,-9844.739029,74.020594,1762.019645
742.866230,-9622.677246,444.123565,1455.581446
742.866551,-9622.677246,444.123565,1685.410096
742.866872,-9992.780217,296.082377,1455.581446
742.867192,-9548.656652,222.061783,1302.362347
742.867513,-9474.636058,222.061783,1378.971896
742.867834,-9474.636058,-148.041188,1149.143247
742.868155,-9622.677246,148.041188,306.438199
742.868475,-9622.677246,-148.041188,1072.533697
742.868796,-9400.615463,0.000000,1149.143247
742.869117,-9918.759623,0.000000,1302.362347
742.869438,-9548.656652,0.000000,919.314598
742.869759,-9918.759623,-148.041188,919.314598
742.870079,-9844.739029,-222.061783,766.095498
742.870400,-9696.697840,-296.082377,919.314598
742.870721,-9548.656652,-296.082377,766.095498
742.871042,-9400.615463,-518.144159,306.438199
742.871362,-9474.636058,-444.123565,536.266849
742.871683,-9622.677246,-444.123565,612.876398
742.872004,-9474.636058,-740.205942,766.095498
742.872325,-10066.800811,370.102971,0.000000
742.872645,-9474.636058,-518.144159,383.047749
742.872966,-9474.636058,-666.185348,383.047749
742.873287,-9622.677246,-518.144159,459.657299
742.873608,-9770.718434,-740.205942,612.876398
742.873928,-9770.718434,-222.061783,766.095498
742.874249,-9622.677246,-518.144159,689.485948
742.874570,-9622.677246,-592.164754,383.047749
742.874891,-9474.636058,-370.102971,612.876398
742.875211,-9770.718434,-740.205942,459.657299
742.875532,-9622.677246,-592.164754,612.876398
742.875853,-9918.759623,-666.185348,919.314598
742.876174,-9474.636058,-740.205942,612.876398
742.876494,-9474.636058,-518.144159,1838.629195
742.876815,-9696.697840,-518.144159,1378.971896
742.877136,-9770.718434,-444.123565,1532.190996
742.877457,-9622.677246,-444.123565,1532.190996
742.877777,-9844.739029,-518.144159,1149.143247
742.878098,-9548.656652,-444.123565,1225.752797
742.878419,-9622.677246,-592.164754,1149.143247
742.878740,-9474.636058,-666.185348,1149.143247
742.879060,-9622.677246,-740.205942,842.705048
742.879381,-9474.636058,-888.247130,842.705048
742.879702,-9622.677246,-740.205942,919.314598
742.880023,-9474.636058,-888.247130,842.705048
742.880343,-9548.656652,-740.205942,689.485948
742.880664,-9104.533087,-740.205942,2451.505594
742.880985,-9548.656652,-814.226536,919.314598
742.881306,-9770.718434,-666.185348,1149.143247
742.881626,-9548.656652,-740.205942,1225.752797
742.881947,-9252.574275,-592.164754,1455.581446
742.882268,-9474.636058,-518.144159,1455.581446
742.882589,-9622.677246,-592.164754,1762.019645
742.882910,-9622.677246,0.000000,1838.629195
742.883230,-9622.677246,0.000000,1838.629195
742.883551,-9326.594869,0.000000,2298.286494
742.883872,-9326.594869,148.041188,1685.410096
742.884193,-9252.574275,0.000000,1532.190996
742.884513,-9474.636058,148.041188,1225.752797
742.884834,-9400.615463,222.061783,612.876398
742.885155,-9548.656652,296.082377,1225.752797
742.885476,-9622.677246,370.102971,1072.533697
742.885796,-9696.697840,518.144159,1991.848295
742.886117,-9918.759623,296.082377,1838.629195
742.886438,-9548.656652,740.205942,1455.581446
742.886759,-9770.718434,518.144159,1915.238745
742.887079,-9918.759623,370.102971,1991.848295
742.887400,-9696.697840,222.061783,1762.019645
742.887721,-9622.677246,370.102971,1149.143247
742.888042,-9474.636058,444.123565,1072.533697
742.888362,-9400.615463,222.061783,995.924147
742.888683,-9622.677246,0.000000,1149.143247
742.889004,-9326.594869,0.000000,2145.067394
742.889325,-9400.615463,74.020594,612.876398
742.889645,-9770.718434,0.000000,612.876398
742.889966,-9474.636058,-370.102971,306.438199
742.890287,-9844.739029,0.000000,459.657299
742.890608,-9918.759623,-222.061783,995.924147
742.890928,-9696.697840,-296.082377,842.705048
742.891249,-9474.636058,-518.144159,229.828649
742.891570,-9548.656652,-592.164754,536.266849
742.891891,-9474.636058,-740.205942,689.485948
742.892211,-9548.656652,-444.123565,536.266849
742.892532,-9400.615463,-518.144159,306.438199
742.892853,-9400.615463,-444.123565,153.219100
742.893174,-8956.491898,-1110.308913,919.314598
742.893494,-9548.656652,-444.123565,842.705048
742.893815,-9474.636058,-370.102971,612.876398
742.894136,-9770.718434,-370.102971,612.876398
742.894457,-9770.718434,-296.082377,459.657299
742.894777,-9770.718434,-518.144159,689.485948
742.895098,-9844.739029,-592.164754,1072.533697
742.895419,-9844.739029,-592.164754,612.876398
742.895740,-9770.718434,-592.164754,1072.533697
742.896060,-9622.677246,-740.205942,612.876398
742.896381,-9474.636058,-592.164754,1149.143247
742.896702,-9696.697840,-592.164754,1149.143247
742.897023,-9622.677246,-592.164754,1378.971896
742.897344,-9770.718434,-296.082377,1838.629195
742.897664,-9548.656652,-370.102971,1225.752797
742.897985,-9474.636058,-666.185348,1608.800546
742.898306,-9474.636058,-814.226536,1302.362347
742.898627,-9474.636058,-1110.308913,1378.971896
742.898947,-9622.677246,-592.164754,1225.752797
742.899268,-9770.718434,-666.185348,1378.971896
742.899589,-9548.656652,-666.185348,1149.143247
742.899910,-9548.656652,-222.061783,1225.752797
742.900230,-9622.677246,-518.144159,919.314598
742.900551,-9844.739029,-592.164754,1149.143247
742.900872,-9548.656652,-814.226536,1302.362347
742.901193,-9622.677246,-740.205942,1225.752797
742.901513,-9918.759623,-222.061783,1149.143247
742.901834,-9548.656652,-740.205942,1302.362347
742.902155,-9474.636058,-518.144159,1225.752797
742.902476,-9770.718434,-444.123565,1455.581446
742.902796,-9400.615463,-666.185348,2145.067394
742.903117,-9474.636058,-444.123565,1685.410096
742.903438,-9548.656652,-296.082377,1302.362347
742.903759,-9696.697840,0.000000,1455.581446
742.904079,-9548.656652,-222.061783,1608.800546
742.904400,-9400.615463,-370.102971,1149.143247
742.904721,-9474.636058,0.000000,1302.362347
742.905042,-9474.636058,-148.041188,1149.143247
742.905362,-9474.636058,0.000000,1302.362347
742.905683,-8956.491898,-222.061783,1532.190996
742.906004,-9622.677246,222.061783,1302.362347
742.906325,-9770.718434,222.061783,1378.971896
742.906645,-9770.718434,296.082377,1608.800546
742.906966,-9474.636058,444.123565,76.609550
742.907287,-9474.636058,666.185348,1302.362347
742.907608,-9622.677246,518.144159,1455.581446
742.907928,-9326.594869,296.082377,1302.362347
742.908249,-9622.677246,148.041188,1225.752797
742.908570,-9474.636058,0.000000,995.924147
742.908891,-9548.656652,148.041188,1302.362347
742.909211,-9474.636058,0.000000,919.314598
742.909532,-9622.677246,0.000000,995.924147
742.909853,-9474.636058,-222.061783,1149.143247
742.910174,-9622.677246,-148.041188,766.095498
742.910495,-9844.739029,-148.041188,689.485948
742.910815,-9622.677246,-296.082377,689.485948
742.911136,-9104.533087,-370.102971,536.266849
742.911457,-9622.677246,-296.082377,689.485948
742.911778,-9696.697840,-148.041188,459.657299
742.912098,-9622.677246,-592.164754,919.314598
742.912419,-9548.656652,-666.185348,842.705048
742.912740,-9474.636058,-592.164754,766.095498
742.913061,-9548.656652,-888.247130,612.876398
742.913381,-9474.636058,-666.185348,306.438199
742.913702,-9400.615463,-1036.288319,153.219100
742.914023,-9252.574275,-444.123565,1608.800546
742.914344,-9770.718434,-814.226536,536.266849
742.914664,-9696.697840,-444.123565,536.266849
742.914985,-9770.718434,-592.164754,612.876398
742.915306,-9104.533087,0.000000,1072.533697
742.915627,-9918.759623,-370.102971,459.657299
742.915947,-9622.677246,-592.164754,689.485948
742.916268,-9770.718434,-740.205942,1149.143247
742.916589,-9622.677246,-444.123565,1072.533697
742.916910,-9918.759623,-444.123565,1225.752797
742.917230,-9622.677246,-518.144159,1455.581446
742.917551,-9622.677246,-444.123565,1225.752797
742.917872,-9622.677246,-592.164754,1455.581446
742.918193,-9474.636058,-444.123565,1225.752797
742.918513,-9474.636058,-592.164754,1378.971896
742.918834,-9622.677246,-666.185348,1378.971896
742.919155,-9696.697840,-518.144159,1225.752797
742.919476,-9474.636058,-296.082377,1378.971896
742.919796,-9696.697840,-444.123565,919.314598
742.920117,-9696.697840,-740.205942,919.314598
742.920438,-9696.697840,-740.205942,842.705048
742.920759,-9548.656652,-740.205942,1225.752797
742.921079,-9622.677246,-962.267725,995.924147
742.921400,-9622.677246,-888.247130,1608.800546
742.921721,-9474.636058,-962.267725,1532.190996
742.922042,-9696.697840,-888.247130,1225.752797
742.922362,-10140.821405,-666.185348,1532.190996
742.922683,-9400.615463,-592.164754,1378.971896
742.923004,-9622.677246,-370.102971,1608.800546
742.923325,-9474.636058,-444.123565,1608.800546
742.923645,-9104.533087,-666.185348,689.485948
742.923966,-9326.594869,-370.102971,1608.800546
742.924287,-9400.615463,-296.082377,1455.581446
742.924608,-9622.677246,-444.123565,1608.800546
742.924929,-9326.594869,-222.061783,1762.019645
742.925249,-9474.636058,-370.102971,1302.362347
742.925570,-9548.656652,0.000000,1608.800546
742.925891,-9548.656652,74.020594,1685.410096
742.926212,-9622.677246,0.000000,1685.410096
742.926532,-9770.718434,0.000000,1455.581446
742.926853,-9548.656652,296.082377,1455.581446
742.927174,-9770.718434,518.144159,1608.800546
742.927495,-9548.656652,370.102971,1532.190996
742.927815,-9918.759623,888.247130,306.438199
742.928136,-9474.636058,296.082377,919.314598
742.928457,-9696.697840,666.185348,1072.533697
742.928778,-9326.594869,296.082377,1225.752797
742.929098,-9622.677246,370.102971,842.705048
742.929419,-9474.636058,0.000000,536.266849
742.929740,-9622.677246,74.020594,76.609550
742.930061,-9770.718434,0.000000,612.876398
742.930381,-9696.697840,-148.041188,536.266849
742.930702,-9548.656652,0.000000,612.876398
742.931023,-9844.739029,0.000000,153.219100
742.931344,-9548.656652,-148.041188,459.657299
742.931664,-9622.677246,-222.061783,536.266849
742.931985,-9400.615463,-296.082377,689.485948
742.932306,-9696.697840,-148.041188,459.657299
742.932627,-9696.697840,-370.102971,153.219100
742.932947,-9622.677246,-296.082377,612.876398
742.933268,-9696.697840,-444.123565,689.485948
742.933589,-9548.656652,-296.082377,842.705048
742.933910,-9474.636058,-518.144159,612.876398
742.934230,-9474.636058,-666.185348,842.705048
742.934551,-9770.718434,-666.185348,766.095498
742.934872,-9770.718434,-814.226536,1072.533697
742.935193,-9696.697840,-666.185348,919.314598
742.935513,-9474.636058,-740.205942,919.314598
742.935834,-9696.697840,-370.102971,842.705048
742.936155,-10066.800811,148.041188,689.485948
742.936476,-9696.697840,-296.082377,1302.362347
742.936796,-9770.718434,-518.144159,1455.581446
742.937117,-9548.656652,-444.123565,1838.629195
742.937438,-9548.656652,-518.144159,1455.581446
742.937758,-9696.697840,-296.082377,1838.629195
742.938079,-9474.636058,-666.185348,1608.800546
742.938400,-9474.636058,-740.205942,1532.190996
742.938720,-9770.718434,-592.164754,1225.752797
742.939041,-9844.739029,-1036.288319,1762.019645
742.939362,-9548.656652,-592.164754,1302.362347
742.939683,-9622.677246,-888.247130,1225.752797
742.940003,-9622.677246,-444.123565,1072.533697
742.940324,-9770.718434,-296.082377,1455.581446
742.940645,-9844.739029,-518.144159,1225.752797
742.940965,-9918.759623,-518.144159,1302.362347
742.941286,-9474.636058,-814.226536,1302.362347
742.941607,-9844.739029,-592.164754,1302.362347
742.941928,-9474.636058,-518.144159,1378.971896
742.942248,-9474.636058,-666.185348,1455.581446
742.942569,-9474.636058,-592.164754,1072.533697
742.942890,-9548.656652,-740.205942,1225.752797
742.943210,-9622.677246,0.000000,3064.381992
742.943531,-9474.636058,-666.185348,1455.581446
742.943852,-9474.636058,-370.102971,1149.143247
742.944172,-9548.656652,-518.144159,995.924147
742.944493,-9400.615463,-222.061783,1378.971896
742.944814,-9548.656652,-296.082377,1225.752797
742.945135,-9474.636058,-148.041188,1225.752797
742.945455,-9474.636058,-74.020594,1455.581446
742.945776,-9622.677246,0.000000,1072.533697
742.946097,-9252.574275,74.020594,842.705048
742.946417,-9696.697840,148.041188,1378.971896
742.946738,-9474.636058,0.000000,1532.190996
742.947059,-9622.677246,0.000000,1532.190996
742.947379,-9844.739029,-370.102971,1915.238745
742.947700,-9548.656652,148.041188,1838.629195
742.948021,-9326.594869,0.000000,1378.971896
742.948342,-9252.574275,0.000000,1149.143247
742.948662,-9474.636058,296.082377,1302.362347
742.948983,-9474.636058,148.041188,1378.971896
742.949304,-9548.656652,296.082377,1225.752797
742.949624,-9696.697840,222.061783,1072.533697
742.949945,-9770.718434,0.000000,689.485948
742.950266,-9844.739029,0.000000,842.705048
742.950587,-9844.739029,0.000000,689.485948
742.950907,-10066.800811,-148.041188,919.314598
742.951228,-9474.636058,-370.102971,766.095498
742.951549,-9770.718434,-444.123565,612.876398
742.951869,-9548.656652,148.041188,689.485948
742.952190,-9622.677246,-296.082377,689.485948
742.952511,-9474.636058,-444.123565,612.876398
742.952831,-9696.697840,-296.082377,842.705048
742.953152,-9548.656652,-370.102971,536.266849
742.953473,-9474.636058,-740.205942,383.047749
742.953794,-9622.677246,-592.164754,689.485948
742.954114,-9844.739029,-370.102971,612.876398
742.954435,-9474.636058,-296.082377,995.924147
742.954756,-9696.697840,-444.123565,689.485948
742.955076,-9770.718434,-592.164754,306.438199
742.955397,-9770.718434,-518.144159,229.828649
742.955718,-10066.800811,0.000000,229.828649
742.956038,-9622.677246,-666.185348,612.876398
742.956359,-9548.656652,-666.185348,766.095498
742.956680,-9548.656652,-518.144159,459.657299
742.957001,-9622.677246,-740.205942,919.314598
742.957321,-9696.697840,-444.123565,995.924147
742.957642,-9622.677246,-444.123565,1302.362347
742.957963,-9474.636058,-518.144159,1225.752797
742.958283,-9622.677246,-518.144159,1378.971896
742.958604,-9474.636058,-518.144159,1685.410096
742.958925,-9622.677246,-592.164754,1302.362347
742.959246,-9400.615463,-370.102971,1149.143247
742.959566,-9548.656652,-666.185348,1149.143247
742.959887,-8956.491898,-888.247130,842.705048
742.960208,-9696.697840,-518.144159,1225.752797
742.960528,-9474.636058,-444.123565,995.924147
742.960849,-9770.718434,-592.164754,1149.143247
742.961170,-9622.677246,-740.205942,-383.047749
742.961490,-9474.636058,-962.267725,995.924147
742.961811,-9548.656652,-888.247130,1149.143247
742.962132,-9474.636058,-666.185348,1072.533697
742.962453,-9696.697840,-666.185348,1378.971896
742.962773,-9548.656652,-666.185348,1762.019645
742.963094,-9474.636058,-740.205942,1455.581446
742.963415,-9474.636058,-518.144159,1762.019645
742.963735,-9918.759623,-444.123565,1915.238745
742.964056,-9252.574275,-444.123565,1378.971896
742.964377,-9696.697840,-222.061783,1838.629195
742.964697,-9474.636058,0.000000,1762.019645
742.965018,-9622.677246,0.000000,1608.800546
742.965339,-9548.656652,74.020594,1762.019645
742.965660,-9474.636058,148.041188,1378.971896
742.965980,-9548.656652,148.041188,1838.629195
742.966301,-9622.677246,0.000000,1685.410096
742.966622,-9548.656652,0.000000,1762.019645
742.966942,-9770.718434,74.020594,2068.457845
742.967263,-9622.677246,0.000000,1608.800546
742.967584,-9622.677246,296.082377,1532.190996
742.967905,-9622.677246,296.082377,1532.190996
742.968225,-9326.594869,0.000000,536.266849
742.968546,-9474.636058,222.061783,842.705048
742.968867,-9474.636058,296.082377,1532.190996
742.969187,-9548.656652,296.082377,1072.533697
742.969508,-9474.636058,296.082377,1225.752797
742.969829,-9474.636058,370.102971,919.314598
742.970149,-9400.615463,-148.041188,536.266849
742.970470,-9548.656652,0.000000,689.485948
742.970791,-9622.677246,0.000000,612.876398
742.971112,-9474.636058,-148.041188,153.219100
742.971432,-9474.636058,0.000000,612.876398
742.971753,-9696.697840,-296.082377,306.438199
742.972074,-9474.636058,-296.082377,459.657299
742.972394,-8512.368333,0.000000,766.095498
742.972715,-9622.677246,-444.123565,229.828649
742.973036,-9548.656652,-370.102971,153.219100
742.973356,-9622.677246,-518.144159,229.828649
742.973677,-9696.697840,-444.123565,153.219100
742.973998,-9622.677246,-518.144159,76.609550
742.974319,-9474.636058,-518.144159,919.314598
742.974639,-9474.636058,-444.123565,612.876398
742.974960,-9548.656652,-666.185348,842.705048
742.975281,-9474.636058,-592.164754,689.485948
742.975601,-9548.656652,-666.185348,612.876398
742.975922,-9918.759623,-370.102971,995.924147
742.976243,-9696.697840,-444.123565,995.924147
742.976564,-9696.697840,-666.185348,1685.410096
742.976884,-9918.759623,-518.144159,995.924147
742.977205,-9696.697840,-444.123565,1378.971896
742.977526,-9992.780217,-518.144159,1532.190996
742.977846,-9548.656652,-444.123565,2681.334243
742.978167,-9622.677246,-666.185348,1302.362347
742.978488,-9622.677246,-814.226536,1149.143247
742.978808,-9474.636058,-740.205942,919.314598
742.979129,-9548.656652,-666.185348,1455.581446
742.979450,-9252.574275,-666.185348,1378.971896
742.979771,-9474.636058,-962.267725,1532.190996
742.980091,-9548.656652,-962.267725,1225.752797
742.980412,-9844.739029,-814.226536,1302.362347
742.980733,-9474.636058,-296.082377,1455.581446
742.981053,-9548.656652,-1110.308913,1072.533697
742.981374,-9474.636058,-888.247130,1455.581446
742.981695,-9696.697840,-814.226536,1225.752797
742.982015,-9548.656652,-740.205942,995.924147
742.982336,-9474.636058,-1036.288319,919.314598
742.982657,-9252.574275,-888.247130,1455.581446
742.982978,-9548.656652,-888.247130,1225.752797
742.983298,-9326.594869,-666.185348,1455.581446
742.983619,-9622.677246,-666.185348,1302.362347
742.983940,-9622.677246,-518.144159,1149.143247
742.984260,-9400.615463,-592.164754,995.924147
742.984581,-9770.718434,-444.123565,1302.362347
742.984902,-9474.636058,0.000000,1072.533697
742.985223,-9548.656652,-370.102971,766.095498
742.985543,-9400.615463,-148.041188,919.314598
742.985864,-9474.636058,-370.102971,689.485948
742.986185,-9474.636058,0.000000,1455.581446
742.986505,-9992.780217,74.020594,1302.362347
742.986826,-9622.677246,0.000000,1455.581446
742.987147,-9696.697840,222.061783,1072.533697
742.987467,-9474.636058,518.144159,1455.581446
742.987788,-9622.677246,444.123565,1915.238745
742.988109,-9622.677246,592.164754,1532.190996
742.988430,-9622.677246,444.123565,1455.581446
742.988750,-9622.677246,518.144159,1378.971896
742.989071,-9474.636058,518.144159,1455.581446
742.989392,-9548.656652,370.102971,1072.533697
742.989712,-9622.677246,518.144159,766.095498
742.990033,-9622.677246,0.000000,1072.533697
742.990354,-9474.636058,444.123565,842.705048
742.990674,-9622.677246,0.000000,995.924147
742.990995,-9770.718434,0.000000,842.705048
742.991316,-9770.718434,0.000000,689.485948
742.991637,-9696.697840,0.000000,612.876398
742.991957,-9622.677246,0.000000,612.876398
742.992278,-9474.636058,-370.102971,842.705048
742.992599,-9474.636058,-370.102971,689.485948
742.992919,-9474.636058,-444.123565,459.657299
742.993240,-9252.574275,-888.247130,383.047749
742.993561,-9474.636058,-740.205942,842.705048
742.993882,-9474.636058,-814.226536,766.095498
742.994202,-9400.615463,-296.082377,995.924147
742.994523,-8956.491898,0.000000,612.876398
742.994844,-9474.636058,-370.102971,919.314598
742.995164,-9622.677246,-518.144159,612.876398
742.995485,-9622.677246,-666.185348,842.705048
742.995806,-9548.656652,-222.061783,459.657299
742.996126,-9474.636058,-444.123565,766.095498
742.996447,-9696.697840,-222.061783,1072.533697
742.996768,-9696.697840,-592.164754,1072.533697
742.997089,-9622.677246,-444.123565,1149.143247
742.997409,-9400.615463,-1184.329507,919.314598
742.997730,-9622.677246,-518.144159,1302.362347
742.998051,-9622.677246,-370.102971,1762.019645
742.998371,-9548.656652,-592.164754,1838.629195
742.998692,-9622.677246,-740.205942,1455.581446
742.999013,-9622.677246,-518.144159,1762.019645
742.999333,-9770.718434,-592.164754,1378.971896
742.999654,-9622.677246,-370.102971,1149.143247
742.999975,-9548.656652,-666.185348,995.924147
743.000296,-9252.574275,-814.226536,689.485948
743.000616,-9770.718434,-962.267725,689.485948
743.000937,-9548.656652,-740.205942,766.095498
743.001258,-9770.718434,-888.247130,612.876398
743.001578,-9252.574275,-74.020594,459.657299
743.001899,-9844.739029,-814.226536,766.095498
743.002220,-9696.697840,-962.267725,842.705048
743.002541,-9770.718434,-962.267725,919.314598
743.002861,-9918.759623,-740.205942,842.705048
743.003182,-9770.718434,-666.185348,1225.752797
743.003503,-9696.697840,-518.144159,1378.971896
743.003823,-9252.574275,-518.144159,1378.971896
743.004144,-9474.636058,0.000000,1838.629195
743.004465,-9178.553681,0.000000,2068.457845
743.004785,-9474.636058,0.000000,1915.238745
743.005106,-9252.574275,74.020594,1455.581446
743.005427,-9548.656652,-74.020594,1302.362347
743.005748,-9622.677246,814.226536,2068.457845
743.006068,-9474.636058,148.041188,1532.190996
743.006389,-9622.677246,148.041188,1532.190996
743.006710,-9622.677246,222.061783,1225.752797
743.007030,-9622.677246,444.123565,1378.971896
743.007351,-9918.759623,222.061783,1532.190996
743.007672,-9696.697840,148.041188,1608.800546
743.007992,-9770.718434,296.082377,1608.800546
743.008313,-9474.636058,148.041188,2068.457845
743.008634,-9622.677246,74.020594,1991.848295
743.008955,-9400.615463,148.041188,1608.800546
743.009275,-9326.594869,222.061783,1532.190996
743.009596,-9252.574275,74.020594,1225.752797
743.009917,-9474.636058,222.061783,1225.752797
743.010237,-9770.718434,1110.308913,1762.019645
743.010558,-9548.656652,296.082377,612.876398
743.010879,-9696.697840,0.000000,612.876398
743.011200,-9622.677246,-222.061783,536.266849
743.011520,-9844.739029,-296.082377,689.485948
743.011841,-9770.718434,0.000000,459.657299
743.012162,-9770.718434,-222.061783,306.438199
743.012482,-9770.718434,-296.082377,459.657299
743.012803,-9770.718434,-148.041188,536.266849
743.013124,-9104.533087,518.144159,-459.657299
743.013444,-9474.636058,-74.020594,383.047749
743.013765,-9326.594869,-222.061783,766.095498
743.014086,-9474.636058,-296.082377,229.828649
743.014407,-9474.636058,-518.144159,153.219100
743.014727,-9326.594869,-370.102971,306.438199
743.015048,-9474.636058,-370.102971,766.095498
743.015369,-9696.697840,-740.205942,383.047749
743.015689,-9548.656652,-592.164754,306.438199
743.016010,-9770.718434,-444.123565,76.609550
743.016331,-9918.759623,-296.082377,612.876398
743.016651,-9844.739029,-740.205942,766.095498
743.016972,-9696.697840,-592.164754,842.705048
743.017293,-9622.677246,-592.164754,536.266849
743.017614,-9622.677246,-148.041188,-842.705048
743.017934,-9770.718434,-592.164754,1225.752797
743.018255,-9622.677246,-592.164754,1378.971896
743.018576,-9548.656652,-962.267725,1302.362347
743.018896,-9474.636058,-814.226536,1532.190996
743.019217,-9252.574275,-888.247130,1225.752797
743.019538,-9474.636058,-814.226536,1225.752797
743.019859,-9474.636058,-740.205942,1532.190996
743.020179,-9548.656652,-740.205942,1302.362347
743.020500,-9474.636058,-1332.370696,536.266849
743.020821,-9770.718434,-814.226536,1378.971896
743.021141,-9474.636058,-740.205942,1532.190996
743.021462,-9770.718434,-814.226536,1302.362347
743.021783,-9548.656652,-740.205942,1302.362347
743.022103,-9548.656652,-740.205942,1149.143247
743.022424,-9622.677246,-740.205942,1838.629195
743.022745,-9696.697840,-962.267725,1608.800546
743.023066,-9400.615463,-740.205942,1302.362347
743.023386,-9770.718434,-296.082377,1915.238745
743.023707,-9474.636058,-592.164754,1532.190996
743.024028,-9696.697840,-518.144159,1532.190996
743.024348,-9548.656652,-444.123565,1302.362347
743.024669,-9400.615463,-444.123565,1225.752797
743.024990,-9622.677246,-222.061783,1455.581446
743.025310,-9548.656652,-370.102971,1378.971896
743.025631,-9622.677246,-296.082377,1225.752797
743.025952,-9548.656652,-296.082377,1455.581446
743.026273,-9622.677246,-148.041188,1225.752797
743.026593,-9474.636058,-222.061783,1072.533697
743.026914,-9844.739029,0.000000,1225.752797
743.027235,-9696.697840,0.000000,1149.143247
743.027555,-9844.739029,370.102971,1455.581446
743.027876,-9474.636058,74.020594,1685.410096
743.028197,-9770.718434,370.102971,1762.019645
743.028518,-9696.697840,296.082377,1608.800546
743.028838,-9622.677246,222.061783,1225.752797
743.029159,-9030.512492,296.082377,1455.581446
743.029480,-9474.636058,296.082377,1072.533697
743.029800,-9474.636058,518.144159,1225.752797
743.030121,-9622.677246,222.061783,1225.752797
743.030442,-9770.718434,666.185348,689.485948
743.030762,-9622.677246,222.061783,919.314598
743.031083,-9844.739029,222.061783,842.705048
743.031404,-9918.759623,222.061783,995.924147
743.031725,-8808.450710,-444.123565,2145.067394
743.032045,-9770.718434,74.020594,842.705048
743.032366,-9622.677246,0.000000,689.485948
743.032687,-9474.636058,0.000000,536.266849
743.033007,-9622.677246,-370.102971,612.876398
743.033328,-9474.636058,-148.041188,919.314598
743.033649,-9474.636058,-518.144159,383.047749
743.033969,-9178.553681,-740.205942,766.095498
743.034290,-9474.636058,-370.102971,459.657299
743.034611,-9474.636058,-370.102971,1225.752797
743.034932,-9622.677246,-518.144159,842.705048
743.035252,-9474.636058,-592.164754,689.485948
743.035573,-9696.697840,-518.144159,766.095498
743.035894,-10140.821405,-296.082377,1608.800546
743.036215,-9622.677246,-592.164754,306.438199
743.036536,-9548.656652,-592.164754,766.095498
743.036856,-9622.677246,-740.205942,842.705048
743.037177,-9548.656652,-592.164754,612.876398
743.037498,-9030.512492,-740.205942,842.705048
743.037819,-9844.739029,-296.082377,1225.752797
743.038140,-9474.636058,-592.164754,995.924147
743.038460,-9696.697840,-666.185348,995.924147
743.038781,-9622.677246,-296.082377,1762.019645
743.039102,-9696.697840,-592.164754,1532.190996
743.039423,-9696.697840,-592.164754,1455.581446
743.039744,-9548.656652,-666.185348,1302.362347
743.040064,-9622.677246,-592.164754,1225.752797
743.040385,-9992.780217,-666.185348,919.314598
743.040706,-9474.636058,-740.205942,536.266849
743.041027,-9622.677246,-1110.308913,689.485948
743.041347,-9696.697840,-814.226536,995.924147
743.041668,-9326.594869,-148.041188,919.314598
743.041989,-9918.759623,-814.226536,995.924147
743.042310,-9770.718434,-740.205942,1072.533697
743.042631,-9548.656652,-814.226536,1072.533697
743.042951,-9696.697840,-518.144159,995.924147
743.043272,-9622.677246,-888.247130,919.314598
743.043593,-9622.677246,-592.164754,995.924147
743.043914,-9474.636058,-666.185348,1072.533697
743.044235,-9474.636058,-814.226536,1378.971896
743.044555,-9622.677246,-148.041188,1532.190996
743.044876,-9622.677246,-370.102971,1608.800546
743.045197,-9696.697840,-222.061783,1608.800546
743.045518,-9400.615463,-74.020594,1378.971896
743.045839,-9474.636058,666.185348,1685.410096
743.046159,-9474.636058,0.000000,1762.019645
743.046480,-9474.636058,-370.102971,1072.533697
743.046801,-9474.636058,222.061783,1149.143247
743.047122,-9622.677246,888.247130,2528.115143
743.047443,-9474.636058,148.041188,1608.800546
743.047763,-9548.656652,222.061783,1225.752797
743.048084,-9474.636058,518.144159,1915.238745
743.048405,-9622.677246,666.185348,1685.410096
743.048726,-9992.780217,814.226536,1915.238745
743.049047,-9474.636058,0.000000,1532.190996
743.049367,-9474.636058,222.061783,1685.410096
743.049688,-9548.656652,148.041188,1225.752797
743.050009,-9844.739029,518.144159,689.485948
743.050330,-9474.636058,296.082377,1455.581446
743.050651,-9548.656652,222.061783,536.266849
743.050971,-9252.574275,0.000000,383.047749
743.051292,-9474.636058,-518.144159,1532.190996
743.051613,-9474.636058,0.000000,689.485948
743.051934,-9918.759623,-148.041188,612.876398
743.052255,-9844.739029,0.000000,919.314598
743.052575,-9696.697840,0.000000,612.876398
743.052896,-9770.718434,-74.020594,1225.752797
743.053217,-9844.739029,-222.061783,689.485948
743.053538,-9622.677246,0.000000,842.705048
743.053858,-9622.677246,-518.144159,766.095498
743.054179,-9474.636058,-444.123565,383.047749
743.054500,-9622.677246,-370.102971,459.657299
743.054821,-9474.636058,-444.123565,842.705048
743.055142,-9474.636058,-592.164754,689.485948
743.055462,-9622.677246,-814.226536,1378.971896
743.055783,-9474.636058,-740.205942,306.438199
743.056104,-9548.656652,-518.144159,766.095498
743.056425,-9770.718434,-444.123565,919.314598
743.056746,-9770.718434,-444.123565,995.924147
743.057066,-9844.739029,-444.123565,1225.752797
743.057387,-9992.780217,-296.082377,1302.362347
743.057708,-9474.636058,-740.205942,1762.019645
743.058029,-9696.697840,-740.205942,1378.971896
743.058350,-8734.430116,-1110.308913,1685.410096
743.058670,-9622.677246,-666.185348,1378.971896
743.058991,-9400.615463,-592.164754,1532.190996
743.059312,-9474.636058,-666.185348,1072.533697
743.059633,-9178.553681,148.041188,2374.896044
743.059954,-9474.636058,-888.247130,995.924147
743.060274,-9474.636058,-814.226536,995.924147
743.060595,-9474.636058,-814.226536,1072.533697
743.060916,-9622.677246,-888.247130,1072.533697
743.061237,-9474.636058,-888.247130,1072.533697
743.061558,-9844.739029,-814.226536,995.924147
743.061878,-9696.697840,-1184.329507,1149.143247
743.062199,-9770.718434,-1036.288319,1302.362347
743.062520,-9844.739029,-888.247130,1149.143247
743.062841,-9696.697840,-962.267725,1532.190996
743.063162,-9474.636058,-888.247130,1149.143247
743.063482,-9474.636058,-592.164754,995.924147
743.063803,-8808.450710,-518.144159,1302.362347
743.064124,-9474.636058,-592.164754,1225.752797
743.064445,-9548.656652,-148.041188,1072.533697
743.064765,-9622.677246,-222.061783,1532.190996
743.065086,-9622.677246,-296.082377,1378.971896
743.065407,-9622.677246,-222.061783,1302.362347
743.065728,-9548.656652,-296.082377,1532.190996
743.066049,-9770.718434,0.000000,1455.581446
743.066369,-9548.656652,-222.061783,1225.752797
743.066690,-9474.636058,0.000000,766.095498
743.067011,-9622.677246,0.000000,1149.143247
743.067332,-9696.697840,222.061783,1378.971896
743.067653,-9770.718434,296.082377,1378.971896
743.067973,-9474.636058,-444.123565,1762.019645
743.068294,-9622.677246,444.123565,1608.800546
743.068615,-9622.677246,444.123565,1378.971896
743.068936,-9474.636058,222.061783,1991.848295
743.069257,-9622.677246,74.020594,1608.800546
743.069577,-9474.636058,518.144159,1455.581446
743.069898,-9548.656652,222.061783,1378.971896
743.070219,-9548.656652,0.000000,1149.143247
743.070540,-9474.636058,0.000000,1685.410096
743.070861,-9548.656652,0.000000,766.095498
743.071181,-9400.615463,0.000000,842.705048
743.071502,-9474.636058,0.000000,919.314598
743.071823,-9474.636058,0.000000,766.095498
743.072144,-9696.697840,148.041188,842.705048
743.072465,-9622.677246,0.000000,842.705048
743.072785,-9622.677246,0.000000,689.485948
743.073106,-9770.718434,-148.041188,383.047749
743.073427,-9622.677246,-222.061783,766.095498
743.073748,-9548.656652,0.000000,689.485948
743.074069,-9474.636058,-370.102971,536.266849
743.074389,-9400.615463,-814.226536,459.657299
743.074710,-9696.697840,-666.185348,536.266849
743.075031,-9474.636058,-370.102971,459.657299
743.075352,-9548.656652,-518.144159,459.657299
743.075673,-9696.697840,-518.144159,536.266849
743.075993,-9622.677246,-296.082377,229.828649
743.076314,-9474.636058,-296.082377,766.095498
743.076635,-9622.677246,-518.144159,229.828649
743.076956,-9622.677246,-296.082377,383.047749
743.077276,-9696.697840,-518.144159,919.314598
743.077597,-9770.718434,-444.123565,766.095498
743.077918,-9622.677246,-888.247130,1302.362347
743.078239,-9918.759623,-592.164754,766.095498
743.078560,-9770.718434,-444.123565,1378.971896
743.078880,-9844.739029,-518.144159,1455.581446
743.079201,-9474.636058,-518.144159,2068.457845
743.079522,-9622.677246,-592.164754,1072.533697
743.079843,-9474.636058,-666.185348,995.924147
743.080164,-9548.656652,-444.123565,919.314598
743.080484,-10288.862594,0.000000,536.266849
743.080805,-9474.636058,-592.164754,1302.362347
743.081126,-9548.656652,-666.185348,1225.752797
743.081447,-9844.739029,-666.185348,919.314598
743.081768,-9622.677246,-962.267725,1072.533697
743.082088,-9844.739029,-888.247130,1225.752797
743.082409,-9622.677246,-888.247130,919.314598
743.082730,-9696.697840,-814.226536,1149.143247
743.083051,-9474.636058,-1184.329507,1149.143247
743.083372,-9178.553681,-1554.432478,995.924147
743.083692,-9622.677246,-962.267725,1532.190996
743.084013,-9474.636058,-1110.308913,1455.581446
743.084334,-9474.636058,-518.144159,1378.971896
743.084655,-9770.718434,-666.185348,995.924147
743.084976,-9548.656652,0.000000,1685.410096
743.085296,-9548.656652,0.000000,1991.848295
743.085617,-9400.615463,74.020594,1915.238745
743.085938,-9548.656652,0.000000,1608.800546
743.086259,-9696.697840,0.000000,1455.581446
743.086580,-9622.677246,0.000000,1838.629195
743.086900,-9548.656652,74.020594,1378.971896
743.087221,-9622.677246,148.041188,1378.971896
743.087542,-9178.553681,0.000000,1225.752797
743.087863,-9622.677246,74.020594,1302.362347
743.088183,-9622.677246,74.020594,1608.800546
743.088504,-9548.656652,444.123565,1685.410096
743.088825,-9326.594869,740.205942,2451.505594
743.089146,-9548.656652,518.144159,1532.190996
743.089467,-9548.656652,740.205942,1685.410096
743.089787,-9770.718434,444.123565,1302.362347
743.090108,-9474.636058,296.082377,1225.752797
743.090429,-9622.677246,0.000000,1149.143247
743.090750,-9474.636058,0.000000,1072.533697
743.091071,-9622.677246,-74.020594,536.266849
743.091391,-9400.615463,0.000000,536.266849
743.091712,-8956.491898,-444.123565,153.219100
743.092033,-9548.656652,0.000000,536.266849
743.092354,-9622.677246,-148.041188,229.828649
743.092675,-9770.718434,-296.082377,383.047749
743.092995,-9770.718434,0.000000,229.828649
743.093316,-9844.739029,-74.020594,919.314598
743.093637,-9918.759623,-296.082377,766.095498
743.093958,-9622.677246,-518.144159,383.047749
743.094279,-9474.636058,-592.164754,536.266849
743.094599,-9400.615463,-518.144159,612.876398
743.094920,-9474.636058,-592.164754,229.828649
743.095241,-9400.615463,-518.144159,536.266849
743.095562,-9474.636058,-740.205942,459.657299
743.095883,-9548.656652,-370.102971,-229.828649
743.096203,-9622.677246,-518.144159,689.485948
743.096524,-9770.718434,-370.102971,766.095498
743.096845,-9992.780217,-518.144159,919.314598
743.097166,-10140.821405,-296.082377,229.828649
743.097487,-9992.780217,-518.144159,995.924147
743.097807,-9918.759623,-296.082377,1378.971896
743.098128,-9770.718434,-740.205942,1608.800546
743.098449,-9696.697840,-518.144159,1455.581446
743.098770,-9622.677246,-666.185348,1149.143247
743.099091,-9474.636058,-518.144159,1225.752797
743.099411,-9474.636058,-814.226536,1455.581446
743.099732,-9400.615463,-888.247130,1072.533697
743.100053,-9474.636058,-888.247130,2068.457845
743.100374,-9474.636058,-666.185348,1838.629195
743.100694,-9548.656652,-592.164754,1378.971896
743.101015,-9474.636058,-962.267725,1225.752797
743.101336,-9104.533087,-1332.370696,1608.800546
743.101657,-9844.739029,-740.205942,1455.581446
743.101978,-9770.718434,-592.164754,1302.362347
743.102298,-9918.759623,-444.123565,1072.533697
743.102619,-9918.759623,-518.144159,1225.752797
743.102940,-9696.697840,-592.164754,1149.143247
743.103261,-9622.677246,-962.267725,1072.533697
743.103582,-9474.636058,-888.247130,1455.581446
743.103902,-9548.656652,-814.226536,1149.143247
743.104223,-9474.636058,-740.205942,1378.971896
743.104544,-9474.636058,-518.144159,1225.752797
743.104865,-9474.636058,-370.102971,1072.533697
743.105186,-9474.636058,-148.041188,1302.362347
743.105506,-10288.862594,740.205942,1302.362347
743.105827,-9696.697840,-296.082377,1302.362347
743.106148,-9548.656652,-148.041188,1149.143247
743.106469,-9548.656652,-222.061783,919.314598
743.106790,-9770.718434,0.000000,1455.581446
743.107110,-9400.615463,0.000000,1302.362347
743.107431,-9622.677246,74.020594,995.924147
743.107752,-9622.677246,0.000000,1072.533697
743.108073,-9548.656652,0.000000,1455.581446
743.108394,-9622.677246,148.041188,1532.190996
743.108714,-9474.636058,0.000000,1608.800546
743.109035,-9474.636058,74.020594,1455.581446
743.109356,-9548.656652,444.123565,1685.410096
743.109677,-9178.553681,814.226536,766.095498
743.109998,-9252.574275,148.041188,1532.190996
743.110318,-9474.636058,0.000000,1455.581446
743.110639,-9474.636058,296.082377,1532.190996
743.110960,-9622.677246,444.123565,1225.752797
743.111281,-9474.636058,296.082377,1225.752797
743.111601,-9474.636058,148.041188,689.485948
743.111922,-9844.739029,-148.041188,766.095498
743.112243,-9770.718434,-370.102971,1072.533697
743.112564,-9844.739029,-148.041188,1072.533697
743.112885,-9770.718434,-518.144159,766.095498
743.113205,-9770.718434,-370.102971,459.657299
743.113526,-9474.636058,-296.082377,536.266849
743.113847,-9844.739029,-518.144159,1685.410096
743.114168,-9696.697840,-296.082377,536.266849
743.114489,-9622.677246,-444.123565,459.657299
743.114809,-9474.636058,-666.185348,306.438199
743.115130,-9548.656652,-740.205942,2221.676944
743.115451,-9548.656652,-518.144159,689.485948
743.115772,-9696.697840,-740.205942,536.266849
743.116093,-9548.656652,-740.205942,536.266849
743.116413,-9474.636058,-1258.350101,76.609550
743.116734,-9030.512492,-962.267725,153.219100
743.117055,-9548.656652,-666.185348,229.828649
743.117376,-9548.656652,-444.123565,383.047749
743.117697,-9548.656652,-518.144159,766.095498
743.118017,-9178.553681,-444.123565,1915.238745
743.118338,-9918.759623,-666.185348,1149.143247
743.118659,-9474.636058,-444.123565,1302.362347
743.118980,-9770.718434,-740.205942,1378.971896
743.119301,-9474.636058,-592.164754,1302.362347
743.119621,-9770.718434,-592.164754,1455.581446
743.119942,-9474.636058,-296.082377,1302.362347
743.120263,-9474.636058,-740.205942,1149.143247
743.120584,-9252.574275,-740.205942,1455.581446
743.120905,-10066.800811,-666.185348,536.266849
743.121225,-9474.636058,-592.164754,1072.533697
743.121546,-9474.636058,-666.185348,612.876398
743.121867,-9622.677246,-740.205942,1072.533697
743.122188,-9992.780217,-222.061783,229.828649
743.122509,-9696.697840,-888.247130,842.705048
743.122829,-9548.656652,-296.082377,919.314598
743.123150,-9844.739029,-592.164754,1149.143247
743.123471,-9622.677246,-592.164754,766.095498
743.123792,-9622.677246,-666.185348,1149.143247
743.124112,-9622.677246,-518.144159,1302.362347
743.124433,-9696.697840,-444.123565,1455.581446
743.124754,-9474.636058,-592.164754,1378.971896
743.125075,-9252.574275,-370.102971,1685.410096
743.125396,-9326.594869,-296.082377,1915.238745
743.125716,-9622.677246,-296.082377,1762.019645
743.126037,-9770.718434,0.000000,1455.581446
743.126358,-8882.471304,-444.123565,1378.971896
743.126679,-9770.718434,0.000000,1762.019645
743.127000,-9474.636058,74.020594,1532.190996
743.127320,-9474.636058,0.000000,1302.362347
743.127641,-9474.636058,222.061783,1762.019645
743.127962,-9548.656652,222.061783,1302.362347
743.128283,-9770.718434,370.102971,1532.190996
743.128604,-9696.697840,222.061783,1532.190996
743.128924,-9548.656652,518.144159,1762.019645
743.129245,-9548.656652,74.020594,1378.971896
743.129566,-9474.636058,444.123565,1608.800546
743.129887,-9548.656652,148.041188,1685.410096
743.130208,-9474.636058,444.123565,1455.581446
743.130528,-9474.636058,222.061783,1072.533697
743.130849,-9474.636058,74.020594,1302.362347
743.131170,-9326.594869,74.020594,995.924147
743.131491,-9400.615463,0.000000,536.266849
743.131812,-9474.636058,0.000000,383.047749
743.132132,-9400.615463,-370.102971,153.219100
743.132453,-9474.636058,0.000000,842.705048
743.132774,-9918.759623,-148.041188,842.705048
743.133095,-9770.718434,-148.041188,612.876398
743.133416,-9474.636058,-592.164754,229.828649
743.133736,-9770.718434,-592.164754,612.876398
743.134057,-9770.718434,-592.164754,536.266849
743.134378,-9622.677246,-518.144159,459.657299
743.134704,-9548.656652,-814.226536,1225.752797
743.135025,-9400.615463,-518.144159,229.828649
743.135345,-9474.636058,-592.164754,689.485948
743.135666,-9474.636058,-222.061783,459.657299
743.135987,-9622.677246,-518.144159,459.657299
743.136308,-9548.656652,-814.226536,153.219100
743.136628,-9622.677246,-740.205942,383.047749
743.136949,-9696.697840,-592.164754,536.266849
743.137270,-9918.759623,-592.164754,995.924147
743.137591,-9326.594869,0.000000,1378.971896
743.137911,-9844.739029,0.000000,1072.533697
743.138232,-9992.780217,-666.185348,919.314598
743.138553,-9770.718434,-814.226536,1149.143247
743.138874,-9770.718434,-814.226536,1378.971896
743.139194,-9696.697840,-666.185348,1072.533697
743.139515,-9548.656652,-592.164754,1149.143247
743.139836,-9474.636058,-888.247130,1149.143247
743.140157,-9474.636058,-888.247130,1302.362347
743.140477,-9622.677246,-518.144159,1072.533697
743.140798,-9548.656652,-666.185348,1149.143247
743.141119,-9696.697840,-666.185348,1149.143247
743.141440,-9696.697840,-962.267725,1455.581446
743.141760,-9918.759623,-1554.432478,-229.828649
743.142081,-9622.677246,-888.247130,1302.362347
743.142402,-10066.800811,-1110.308913,1072.533697
743.142723,-9474.636058,-888.247130,1072.533697
743.143043,-9770.718434,-592.164754,1072.533697
743.143364,-9474.636058,-740.205942,995.924147
743.143685,-9474.636058,-814.226536,995.924147
743.144005,-9474.636058,-444.123565,1225.752797
743.144326,-9474.636058,-518.144159,1072.533697
743.144647,-8882.471304,-444.123565,2298.286494
743.144968,-9548.656652,-888.247130,1149.143247
743.145288,-9474.636058,-518.144159,1225.752797
743.145609,-9474.636058,-444.123565,1149.143247
743.145930,-9474.636058,-222.061783,1532.190996
743.146251,-9696.697840,-296.082377,1149.143247
743.146571,-9622.677246,-148.041188,1225.752797
743.146892,-9622.677246,-148.041188,842.705048
743.147213,-9548.656652,0.000000,1149.143247
743.147534,-9474.636058,148.041188,1378.971896
743.147854,-9844.739029,0.000000,1532.190996
743.148175,-9696.697840,0.000000,1302.362347
743.148496,-9548.656652,222.061783,1149.143247
743.148817,-9622.677246,666.185348,2145.067394
743.149137,-9474.636058,296.082377,1762.019645
743.149458,-9770.718434,444.123565,1608.800546
743.149779,-9474.636058,592.164754,1455.581446
743.150100,-9622.677246,444.123565,1455.581446
743.150420,-9696.697840,444.123565,1455.581446
743.150741,-9474.636058,148.041188,1455.581446
743.151062,-9696.697840,222.061783,1149.143247
743.151383,-9548.656652,296.082377,1302.362347
743.151703,-9474.636058,148.041188,1608.800546
743.152024,-9622.677246,0.000000,1378.971896
743.152345,-9622.677246,74.020594,842.705048
743.152665,-9622.677246,0.000000,1149.143247
743.152986,-9992.780217,296.082377,459.657299
743.153307,-9548.656652,-148.041188,459.657299
743.153628,-9474.636058,-370.102971,612.876398
743.153948,-9474.636058,-296.082377,919.314598
743.154269,-9400.615463,-444.123565,383.047749
743.154590,-9548.656652,-296.082377,689.485948
743.154911,-9474.636058,-444.123565,766.095498
743.155231,-9622.677246,-444.123565,459.657299
743.155552,-9622.677246,-592.164754,459.657299
743.155873,-9844.739029,-370.102971,536.266849
743.156194,-9696.697840,-592.164754,689.485948
743.156514,-9696.697840,-666.185348,766.095498
743.156835,-9696.697840,-666.185348,459.657299
743.157156,-9252.574275,-444.123565,1685.410096
743.157477,-9548.656652,-518.144159,383.047749
743.157797,-9548.656652,-592.164754,306.438199
743.158118,-9622.677246,-666.185348,306.438199
743.158439,-9548.656652,-518.144159,995.924147
743.158760,-9696.697840,-592.164754,459.657299
743.159080,-9548.656652,-740.205942,842.705048
743.159401,-9696.697840,-666.185348,1149.143247
743.159722,-9770.718434,-444.123565,995.924147
743.160042,-9400.615463,-444.123565,1685.410096
743.160363,-9696.697840,-740.205942,1225.752797
743.160684,-9696.697840,-444.123565,1072.533697
743.161005,-9696.697840,-666.185348,919.314598
743.161325,-9696.697840,0.000000,1378.971896
743.161646,-9252.574275,-814.226536,1149.143247
743.161967,-9474.636058,-888.247130,1149.143247
743.162288,-9474.636058,-962.267725,842.705048
743.162608,-9548.656652,-888.247130,995.924147
743.162929,-9622.677246,-814.226536,919.314598
743.163250,-9770.718434,-592.164754,1072.533697
743.163571,-9770.718434,-740.205942,1455.581446
743.163891,-9622.677246,-888.247130,1225.752797
743.164212,-9474.636058,-1406.391290,1302.362347
743.164533,-9474.636058,-740.205942,995.924147
743.164854,-9474.636058,-592.164754,1838.629195
743.165174,-9474.636058,-518.144159,1608.800546
743.165495,-10214.842000,74.020594,536.266849
743.165816,-9400.615463,-592.164754,1455.581446
743.166137,-9474.636058,0.000000,1762.019645
743.166457,-9548.656652,-296.082377,2145.067394
743.166778,-9474.636058,-222.061783,1838.629195
743.167099,-9548.656652,0.000000,1762.019645
743.167420,-9474.636058,74.020594,1608.800546
743.167740,-9474.636058,0.000000,1532.190996
743.168061,-9548.656652,74.020594,1762.019645
743.168382,-9844.739029,0.000000,919.314598
743.168702,-9622.677246,370.102971,1378.971896
743.169023,-9696.697840,222.061783,1608.800546
743.169344,-9548.656652,518.144159,1685.410096
743.169665,-10066.800811,592.164754,1302.362347
743.169985,-9844.739029,592.164754,1608.800546
743.170306,-9474.636058,74.020594,1532.190996
743.170627,-9474.636058,148.041188,1608.800546
743.170948,-9548.656652,296.082377,1455.581446
743.171268,-8956.491898,0.000000,1149.143247
743.171589,-9326.594869,0.000000,1378.971896
743.171910,-9474.636058,296.082377,536.266849
743.172231,-9400.615463,74.020594,153.219100
743.172551,-9252.574275,74.020594,766.095498
743.172872,-9696.697840,0.000000,383.047749
743.173193,-9770.718434,0.000000,612.876398
743.173514,-9992.780217,0.000000,536.266849
743.173834,-9696.697840,-592.164754,0.000000
743.174155,-9548.656652,-518.144159,459.657299
743.174476,-9696.697840,-296.082377,536.266849
743.174797,-9474.636058,-518.144159,229.828649
743.175117,-9474.636058,-296.082377,229.828649
743.175438,-9474.636058,-222.061783,153.219100
743.175759,-9474.636058,-296.082377,306.438199
743.176080,-9474.636058,-296.082377,459.657299
743.176400,-9548.656652,-518.144159,1072.533697
743.176721,-9474.636058,-888.247130,612.876398
743.177042,-9548.656652,-592.164754,612.876398
743.177362,-9622.677246,-814.226536,842.705048
743.177683,-9918.759623,-592.164754,842.705048
743.178004,-9474.636058,-888.247130,0.000000
743.178325,-9770.718434,-888.247130,919.314598
743.178645,-9622.677246,-592.164754,1378.971896
743.178966,-9844.739029,-666.185348,1225.752797
743.179287,-9918.759623,-592.164754,1685.410096
743.179608,-9696.697840,-74.020594,1532.190996
743.179928,-9548.656652,-370.102971,1685.410096
743.180249,-9474.636058,-518.144159,1838.629195
743.180570,-9474.636058,-740.205942,1378.971896
743.180891,-9400.615463,-444.123565,842.705048
743.181211,-9474.636058,-814.226536,1532.190996
743.181532,-9548.656652,-814.226536,1225.752797
743.181853,-9548.656652,-888.247130,1532.190996
743.182174,-9622.677246,-666.185348,1378.971896
743.182494,-9770.718434,-518.144159,1455.581446
743.182815,-9474.636058,-444.123565,1378.971896
743.183136,-9696.697840,-888.247130,1378.971896
743.183457,-9770.718434,-814.226536,1072.533697
743.183777,-9474.636058,-962.267725,1149.143247
743.184098,-9622.677246,-962.267725,1378.971896
743.184419,-9548.656652,-888.247130,1225.752797
743.184740,-9474.636058,-962.267725,1225.752797
743.185060,-8734.430116,-666.185348,2068.457845
743.185381,-9474.636058,-1036.288319,1532.190996
743.185702,-9474.636058,-592.164754,1072.533697
743.186022,-9622.677246,-666.185348,1149.143247
743.186343,-9622.677246,-592.164754,995.924147
743.186664,-9622.677246,0.000000,1532.190996
743.186985,-9474.636058,0.000000,1072.533697
743.187305,-9696.697840,-74.020594,766.095498
743.187626,-9548.656652,0.000000,919.314598
743.187947,-9474.636058,296.082377,383.047749
743.188268,-9622.677246,0.000000,1225.752797
743.188588,-9622.677246,0.000000,1225.752797
743.188909,-9548.656652,222.061783,1072.533697
743.189230,-9474.636058,666.185348,2834.553343
743.189551,-9474.636058,0.000000,1608.800546
743.189871,-9696.697840,296.082377,1378.971896
743.190192,-9622.677246,444.123565,1302.362347
743.190513,-9696.697840,518.144159,1685.410096
743.190834,-9400.615463,444.123565,842.705048
743.191154,-9474.636058,518.144159,1072.533697
743.191475,-9622.677246,518.144159,1072.533697
743.191796,-9548.656652,518.144159,919.314598
743.192117,-9622.677246,0.000000,536.266849
743.192437,-9844.739029,74.020594,1072.533697
743.192758,-9770.718434,-148.041188,919.314598
743.193079,-9622.677246,-74.020594,919.314598
743.193400,-9770.718434,0.000000,689.485948
743.193720,-9548.656652,0.000000,612.876398
743.194041,-9622.677246,-296.082377,1072.533697
743.194362,-9770.718434,-296.082377,383.047749
743.194682,-9696.697840,-370.102971,383.047749
743.195003,-9252.574275,-592.164754,766.095498
743.195324,-9474.636058,-592.164754,766.095498
743.195645,-9622.677246,-296.082377,842.705048
743.195965,-9474.636058,-814.226536,919.314598
743.196286,-8956.491898,-814.226536,1072.533697
743.196607,-9400.615463,-740.205942,766.095498
743.196928,-9400.615463,-592.164754,459.657299
743.197248,-9548.656652,-370.102971,689.485948
743.197569,-9548.656652,-518.144159,995.924147
743.197890,-9474.636058,-666.185348,459.657299
743.198211,-9474.636058,-740.205942,766.095498
743.198531,-9992.780217,-222.061783,995.924147
743.198852,-9770.718434,-444.123565,1072.533697
743.199173,-9992.780217,-74.020594,1072.533697
743.199494,-9548.656652,-222.061783,1072.533697
743.199814,-9844.739029,-222.061783,1072.533697
743.200135,-9474.636058,-370.102971,1762.019645
743.200456,-10140.821405,-518.144159,842.705048
743.200777,-9622.677246,-740.205942,1302.362347
743.201097,-9474.636058,-666.185348,1225.752797
743.201418,-9548.656652,-518.144159,1532.190996
743.201739,-9548.656652,-370.102971,383.047749
743.202060,-9696.697840,-666.185348,1149.143247
743.202380,-9548.656652,-1036.288319,766.095498
743.202701,-9622.677246,-962.267725,536.266849
743.203022,-9548.656652,-888.247130,612.876398
743.203342,-9696.697840,-740.205942,766.095498
743.203663,-9696.697840,-666.185348,919.314598
743.203984,-9844.739029,-962.267725,1072.533697
743.204305,-9548.656652,-1110.308913,536.266849
743.204625,-9030.512492,-1998.556043,1149.143247
743.204946,-9474.636058,-1036.288319,1072.533697
743.205267,-9622.677246,-666.185348,1608.800546
743.205588,-9326.594869,-740.205942,1149.143247
743.205908,-9548.656652,-370.102971,1302.362347
743.206229,-9474.636058,-370.102971,1378.971896
743.206550,-9770.718434,-222.061783,1532.190996
743.206871,-9400.615463,-370.102971,1532.190996
743.207191,-9622.677246,-148.041188,1149.143247
743.207512,-9030.512492,666.185348,1532.190996
743.207833,-9770.718434,0.000000,1532.190996
743.208154,-9622.677246,-296.082377,1378.971896
743.208474,-9326.594869,0.000000,1378.971896
743.208795,-9622.677246,-74.020594,2834.553343
743.209116,-9696.697840,74.020594,1685.410096
743.209437,-9622.677246,-148.041188,1685.410096
743.209757,-9622.677246,74.020594,1685.410096
743.210078,-9474.636058,74.020594,1685.410096
743.210399,-9326.594869,222.061783,2221.676944
743.210720,-9474.636058,0.000000,1685.410096
743.211040,-9400.615463,222.061783,1225.752797
743.211361,-9474.636058,444.123565,1225.752797
743.211682,-8586.388927,0.000000,1915.238745
743.212002,-9474.636058,74.020594,689.485948
743.212323,-9474.636058,0.000000,536.266849
743.212644,-9696.697840,148.041188,689.485948
743.212965,-9696.697840,-222.061783,766.095498
743.213285,-9844.739029,0.000000,766.095498
743.213606,-9622.677246,-222.061783,995.924147
743.213927,-9918.759623,-370.102971,919.314598
743.214248,-9474.636058,-370.102971,1149.143247
743.214568,-9474.636058,-148.041188,306.438199
743.214889,-9474.636058,0.000000,689.485948
743.215210,-9548.656652,0.000000,459.657299
743.215531,-9252.574275,-296.082377,1072.533697
743.215851,-9474.636058,-888.247130,153.219100
743.216172,-9548.656652,-592.164754,459.657299
743.216493,-9548.656652,-296.082377,459.657299
743.216814,-9622.677246,-370.102971,459.657299
743.217134,-9548.656652,-666.185348,-689.485948
743.217455,-9770.718434,-740.205942,612.876398
743.217776,-9696.697840,-592.164754,919.314598
743.218097,-9622.677246,-666.185348,995.924147
743.218417,-9548.656652,-518.144159,766.095498
743.218738,-9770.718434,-814.226536,612.876398
743.219059,-9622.677246,-296.082377,1072.533697
743.219380,-9622.677246,-592.164754,1072.533697
743.219700,-9548.656652,-370.102971,1302.362347
743.220021,-10066.800811,-222.061783,612.876398
743.220342,-9474.636058,-518.144159,1532.190996
743.220662,-9622.677246,-666.185348,1378.971896
743.220983,-9400.615463,-814.226536,1302.362347
743.221304,-9474.636058,-1554.432478,2451.505594
743.221625,-9474.636058,-814.226536,1378.971896
743.221945,-9474.636058,-740.205942,1149.143247
743.222266,-9622.677246,-888.247130,919.314598
743.222587,-9400.615463,-962.267725,995.924147
743.222908,-9400.615463,-666.185348,689.485948
743.223228,-9992.780217,-444.123565,995.924147
743.223549,-9770.718434,-370.102971,919.314598
743.223870,-9844.739029,-740.205942,1225.752797
743.224191,-9178.553681,-740.205942,2068.457845
743.224511,-9622.677246,-666.185348,1225.752797
743.224832,-9548.656652,-592.164754,995.924147
743.225153,-9696.697840,-518.144159,1072.533697
743.225474,-9696.697840,-444.123565,1608.800546
743.225794,-9400.615463,-666.185348,995.924147
743.226115,-9548.656652,0.000000,919.314598
743.226436,-9474.636058,0.000000,1378.971896
743.226757,-9770.718434,0.000000,1072.533697
743.227077,-9770.718434,-222.061783,995.924147
743.227398,-9696.697840,74.020594,842.705048
743.227719,-9622.677246,222.061783,1149.143247
743.228040,-9770.718434,296.082377,1302.362347
743.228360,-9474.636058,592.164754,1532.190996
743.228681,-9696.697840,0.000000,1302.362347
743.229002,-9696.697840,74.020594,1608.800546
743.229322,-9548.656652,222.061783,1378.971896
743.229643,-9696.697840,222.061783,1685.410096
743.229964,-9474.636058,74.020594,1608.800546
743.230285,-9474.636058,296.082377,1378.971896
743.230605,-9474.636058,148.041188,1762.019645
743.230926,-9326.594869,0.000000,1302.362347
743.231247,-9178.553681,0.000000,1685.410096
743.231568,-9474.636058,0.000000,1302.362347
743.231888,-9474.636058,222.061783,1532.190996
743.232209,-9400.615463,222.061783,1302.362347
743.232530,-9622.677246,222.061783,383.047749
743.232851,-9474.636058,0.000000,842.705048
743.233171,-9696.697840,0.000000,995.924147
743.233492,-9474.636058,0.000000,842.705048
743.233813,-9770.718434,-222.061783,1762.019645
743.234134,-9474.636058,-518.144159,842.705048
743.234454,-9770.718434,-518.144159,1072.533697
743.234775,-9474.636058,-592.164754,689.485948
743.235096,-9548.656652,-444.123565,383.047749
743.235417,-9622.677246,0.000000,383.047749
743.235737,-9696.697840,-518.144159,536.266849
743.236058,-9474.636058,-592.164754,612.876398
743.236379,-9548.656652,-666.185348,229.828649
743.236700,-10436.903782,148.041188,459.657299
743.237020,-9844.739029,-666.185348,306.438199
743.237341,-9696.697840,-740.205942,383.047749
743.237662,-9696.697840,-666.185348,306.438199
743.237982,-9696.697840,-666.185348,-1608.800546
743.238303,-9918.759623,-962.267725,383.047749
743.238624,-9770.718434,-814.226536,459.657299
743.238945,-9844.739029,-592.164754,306.438199
743.239265,-9844.739029,-740.205942,536.266849
743.239586,-10214.842000,-592.164754,229.828649
743.239907,-9918.759623,-444.123565,995.924147
743.240227,-9622.677246,-296.082377,1072.533697
743.240548,-9770.718434,-222.061783,1302.362347
743.240869,-9770.718434,-962.267725,919.314598
743.241190,-9770.718434,-518.144159,1149.143247
743.241510,-9474.636058,-666.185348,1225.752797
743.241831,-9622.677246,-518.144159,1149.143247
743.242152,-9548.656652,-592.164754,1149.143247
743.242472,-9252.574275,-666.185348,919.314598
743.242793,-9548.656652,-666.185348,842.705048
743.243114,-9622.677246,-740.205942,1149.143247
743.243435,-9474.636058,-1036.288319,1302.362347
743.243755,-9548.656652,-1110.308913,2757.943793
743.244076,-9474.636058,-666.185348,1072.533697
743.244397,-9622.677246,-740.205942,1149.143247
743.244717,-9400.615463,-1036.288319,1302.362347
743.245038,-9474.636058,-666.185348,1532.190996
743.245359,-9474.636058,-592.164754,1608.800546
743.245680,-9622.677246,-740.205942,1225.752797
743.246000,-9400.615463,-814.226536,1302.362347
743.246321,-9622.677246,-518.144159,1685.410096
743.246642,-9770.718434,-370.102971,1302.362347
743.246962,-9474.636058,-148.041188,1608.800546
743.247283,-9622.677246,-222.061783,1608.800546
743.247604,-9252.574275,0.000000,1302.362347
743.247925,-9400.615463,-518.144159,2145.067394
743.248245,-9548.656652,0.000000,1378.971896
743.248566,-9548.656652,148.041188,1455.581446
743.248887,-9474.636058,296.082377,1532.190996
743.249207,-9622.677246,222.061783,1762.019645
743.249528,-9548.656652,222.061783,1991.848295
743.249849,-9770.718434,148.041188,1991.848295
743.250169,-9622.677246,148.041188,1455.581446
743.250490,-9474.636058,222.061783,1762.019645
743.250811,-9474.636058,1036.288319,1685.410096
743.251132,-9548.656652,148.041188,1608.800546
743.251452,-9474.636058,444.123565,1302.362347
743.251773,-9548.656652,444.123565,689.485948
743.252094,-9474.636058,148.041188,1072.533697
743.252414,-9474.636058,74.020594,1378.971896
743.252735,-9474.636058,74.020594,766.095498
743.253056,-9548.656652,0.000000,612.876398
743.253377,-9770.718434,-148.041188,459.657299
743.253697,-9548.656652,-296.082377,306.438199
743.254018,-9844.739029,-222.061783,689.485948
743.254339,-9696.697840,0.000000,459.657299
743.254659,-9696.697840,-296.082377,383.047749
743.254980,-9474.636058,-296.082377,612.876398
743.255301,-9474.636058,-222.061783,612.876398
743.255622,-9548.656652,-222.061783,612.876398
743.255942,-9326.594869,-370.102971,612.876398
743.256263,-9622.677246,-296.082377,383.047749
743.256584,-9474.636058,-370.102971,383.047749
743.256904,-9474.636058,-296.082377,459.657299
743.257225,-9474.636058,-666.185348,612.876398
743.257546,-9474.636058,-740.205942,536.266849
743.257867,-9474.636058,-1184.329507,0.000000
743.258187,-9474.636058,-962.267725,536.266849
743.258508,-9474.636058,-666.185348,766.095498
743.258829,-9770.718434,-592.164754,1149.143247
743.259149,-9696.697840,-444.123565,919.314598
743.259470,-9770.718434,-370.102971,1762.019645
743.259791,-9770.718434,-444.123565,766.095498
743.260112,-9622.677246,-592.164754,1378.971896
743.260432,-9474.636058,-518.144159,1302.362347
743.260753,-9030.512492,-888.247130,306.438199
743.261074,-9400.615463,-666.185348,1149.143247
743.261394,-9474.636058,-962.267725,1225.752797
743.261715,-9474.636058,-888.247130,1072.533697
743.262036,-9622.677246,-814.226536,1072.533697
743.262357,-9326.594869,-1036.288319,1302.362347
743.262677,-9770.718434,-740.205942,1149.143247
743.262998,-9770.718434,-666.185348,1149.143247
743.263319,-9770.718434,-666.185348,919.314598
743.263639,-9992.780217,0.000000,76.609550
743.263960,-9622.677246,-592.164754,919.314598
743.264281,-9918.759623,-592.164754,1302.362347
743.264602,-9696.697840,-666.185348,1378.971896
743.264922,-9548.656652,-666.185348,1302.362347
743.265243,-9622.677246,-518.144159,1685.410096
743.265564,-9622.677246,-666.185348,1225.752797
743.265884,-9474.636058,-518.144159,1302.362347
743.266205,-9474.636058,-444.123565,1225.752797
743.266526,-9622.677246,-148.041188,1225.752797
743.266847,-9696.697840,0.000000,1685.410096
743.267167,-9622.677246,-370.102971,1532.190996
743.267488,-9474.636058,0.000000,1378.971896
743.267809,-9696.697840,-444.123565,995.924147
743.268129,-9474.636058,-148.041188,2911.162892
743.268450,-9474.636058,-222.061783,1149.143247
743.268771,-9770.718434,148.041188,1455.581446
743.269092,-9474.636058,0.000000,1149.143247
743.269412,-9622.677246,74.020594,1532.190996
743.269733,-9400.615463,74.020594,2451.505594
743.270054,-9474.636058,0.000000,1302.362347
743.270374,-9474.636058,222.061783,1532.190996
743.270695,-9474.636058,518.144159,1608.800546
743.271016,-9548.656652,444.123565,1838.629195
743.271337,-9400.615463,0.000000,1225.752797
743.271657,-9474.636058,296.082377,1149.143247
743.271978,-9474.636058,222.061783,1072.533697
743.272299,-9548.656652,370.102971,1302.362347
743.272619,-9474.636058,0.000000,1378.971896
743.272940,-9474.636058,222.061783,919.314598
743.273261,-9548.656652,0.000000,842.705048
743.273582,-9696.697840,0.000000,842.705048
743.273902,-9622.677246,0.000000,766.095498
743.274223,-9770.718434,222.061783,612.876398
743.274544,-9770.718434,0.000000,842.705048
743.274864,-9696.697840,0.000000,1149.143247
743.275185,-9548.656652,-148.041188,919.314598
743.275506,-9548.656652,-222.061783,766.095498
743.275827,-9326.594869,-444.123565,612.876398
743.276147,-9622.677246,-370.102971,612.876398
743.276468,-9474.636058,-296.082377,612.876398
743.276789,-9622.677246,-370.102971,383.047749
743.277109,-9474.636058,-370.102971,153.219100
743.277430,-9696.697840,-518.144159,536.266849
743.277751,-9696.697840,-518.144159,459.657299
743.278072,-9844.739029,-518.144159,459.657299
743.278392,-9696.697840,-814.226536,919.314598
743.278713,-9548.656652,-888.247130,536.266849
743.279034,-9696.697840,-592.164754,459.657299
743.279354,-9622.677246,-444.123565,536.266849
743.279675,-9696.697840,-518.144159,689.485948
743.279996,-9548.656652,-518.144159,1072.533697
743.280317,-9770.718434,-444.123565,1302.362347
743.280637,-9770.718434,-370.102971,1378.971896
743.280958,-9474.636058,-592.164754,1608.800546
743.281279,-9844.739029,0.000000,1302.362347
743.281599,-9622.677246,-814.226536,1378.971896
743.281920,-9474.636058,-962.267725,1378.971896
743.282241,-9474.636058,-592.164754,1455.581446
743.282562,-9178.553681,-962.267725,1149.143247
743.282882,-9474.636058,-740.205942,842.705048
743.283203,-9400.615463,-1110.308913,1072.533697
743.283524,-9696.697840,-962.267725,1149.143247
743.283844,-9622.677246,-1110.308913,1149.143247
743.284165,-9696.697840,-1110.308913,459.657299
743.284486,-9770.718434,-888.247130,995.924147
743.284807,-9474.636058,-1036.288319,842.705048
743.285127,-9770.718434,-962.267725,842.705048
743.285448,-9696.697840,-962.267725,1225.752797
743.285769,-9622.677246,-814.226536,1149.143247
743.286089,-9474.636058,-740.205942,919.314598
743.286410,-9474.636058,-370.102971,1302.362347
743.286731,-9548.656652,-592.164754,1915.238745
743.287052,-9844.739029,-370.102971,1455.581446
743.287372,-9474.636058,-296.082377,1532.190996
743.287693,-9696.697840,0.000000,1378.971896
743.288014,-9696.697840,0.000000,1378.971896
743.288334,-9844.739029,222.061783,995.924147
743.288655,-9548.656652,148.041188,1149.143247
743.288976,-9622.677246,74.020594,1302.362347
743.289297,-9474.636058,0.000000,1302.362347
743.289617,-9104.533087,444.123565,1608.800546
743.289938,-9770.718434,0.000000,1685.410096
743.290259,-9770.718434,148.041188,1378.971896
743.290579,-9770.718434,370.102971,1685.410096
743.290900,-9474.636058,74.020594,1532.190996
743.291221,-9178.553681,148.041188,1685.410096
743.291542,-9474.636058,74.020594,1455.581446
743.291862,-9400.615463,296.082377,1378.971896
743.292183,-9474.636058,0.000000,1225.752797
743.292504,-9622.677246,518.144159,1762.019645
743.292824,-9474.636058,444.123565,842.705048
743.293145,-9548.656652,444.123565,766.095498
743.293466,-9104.533087,296.082377,919.314598
743.293787,-9770.718434,-222.061783,0.000000
743.294107,-9548.656652,0.000000,842.705048
743.294428,-9548.656652,0.000000,459.657299
743.294749,-9622.677246,0.000000,995.924147
743.295069,-9622.677246,-296.082377,612.876398
743.295390,-9474.636058,-74.020594,383.047749
743.295711,-9474.636058,-222.061783,306.438199
743.296032,-9474.636058,-74.020594,459.657299
743.296352,-9696.697840,-370.102971,689.485948
743.296673,-9622.677246,0.000000,536.266849
743.296994,-9696.697840,-444.123565,536.266849
743.297314,-9474.636058,-370.102971,229.828649
743.297635,-9770.718434,-444.123565,536.266849
743.297956,-9178.553681,-1110.308913,2145.067394
743.298276,-9622.677246,-592.164754,766.095498
743.298597,-9770.718434,-666.185348,383.047749
743.298918,-9622.677246,-592.164754,842.705048
743.299239,-9770.718434,-740.205942,1225.752797
743.299559,-9844.739029,-370.102971,919.314598
743.299880,-9548.656652,-740.205942,1225.752797
743.300201,-9844.739029,-518.144159,1302.362347
743.300521,-9622.677246,-592.164754,1225.752797
743.300842,-9622.677246,-518.144159,1225.752797
743.301163,-9548.656652,-814.226536,1149.143247
743.301484,-9474.636058,-814.226536,1072.533697
743.301804,-9622.677246,-740.205942,919.314598
743.302125,-8956.491898,222.061783,1455.581446
743.302446,-9622.677246,-814.226536,1225.752797
743.302766,-9770.718434,-814.226536,1532.190996
743.303087,-9548.656652,-814.226536,919.314598
743.303408,-9770.718434,-814.226536,1302.362347
743.303729,-9770.718434,-814.226536,995.924147
743.304049,-9622.677246,-962.267725,995.924147
743.304370,-9622.677246,-666.185348,1378.971896
743.304691,-9770.718434,-740.205942,1149.143247
743.305011,-9622.677246,-740.205942,1532.190996
743.305332,-9770.718434,-814.226536,1302.362347
743.305653,-9696.697840,-962.267725,995.924147
743.305974,-9622.677246,-740.205942,1302.362347
743.306294,-9622.677246,-1480.411884,689.485948
743.306615,-9474.636058,-444.123565,1225.752797
743.306936,-9474.636058,-518.144159,1455.581446
743.307256,-9622.677246,-592.164754,1149.143247
743.307577,-9474.636058,-296.082377,1302.362347
743.307898,-9622.677246,-370.102971,1225.752797
743.308219,-9400.615463,-370.102971,1225.752797
743.308539,-9474.636058,-148.041188,689.485948
743.308860,-9474.636058,-148.041188,1302.362347
743.309181,-9474.636058,-222.061783,766.095498
743.309501,-9622.677246,-296.082377,1149.143247
743.309822,-9474.636058,0.000000,1225.752797
743.310143,-9696.697840,0.000000,1225.752797
743.310464,-10288.862594,592.164754,1685.410096
743.310784,-9622.677246,296.082377,1225.752797
743.311105,-9622.677246,370.102971,1532.190996
743.311426,-9548.656652,444.123565,1838.629195
743.311746,-9474.636058,0.000000,1685.410096
743.312067,-9474.636058,222.061783,1532.190996
743.312388,-9474.636058,74.020594,1302.362347
743.312709,-9548.656652,222.061783,1302.362347
743.313029,-9548.656652,0.000000,1455.581446
743.313350,-9474.636058,0.000000,919.314598
743.313671,-9622.677246,0.000000,1149.143247
743.313991,-9696.697840,0.000000,995.924147
743.314312,-9770.718434,0.000000,995.924147
743.314633,-9030.512492,-148.041188,2221.676944
743.314954,-9770.718434,0.000000,689.485948
743.315274,-9844.739029,0.000000,766.095498
743.315595,-9770.718434,0.000000,842.705048
743.315916,-9622.677246,-148.041188,689.485948
743.316236,-9548.656652,-296.082377,919.314598
743.316557,-9548.656652,-296.082377,536.266849
743.316878,-9770.718434,-444.123565,689.485948
743.317199,-9474.636058,-666.185348,842.705048
743.317519,-9844.739029,-444.123565,536.266849
743.317840,-9622.677246,-444.123565,383.047749
743.318161,-9844.739029,-370.102971,306.438199
743.318481,-9622.677246,-370.102971,459.657299
743.318802,-9696.697840,-518.144159,1838.629195
743.319123,-9548.656652,-592.164754,536.266849
743.319444,-9770.718434,-296.082377,689.485948
743.319764,-9622.677246,-296.082377,459.657299
743.320085,-9770.718434,-296.082377,612.876398
743.320406,-9770.718434,-444.123565,1149.143247
743.320726,-9622.677246,-518.144159,1072.533697
743.321047,-9622.677246,-592.164754,1225.752797
743.321368,-9622.677246,-740.205942,1378.971896
743.321689,-9104.533087,-666.185348,1685.410096
743.322009,-9474.636058,-444.123565,1378.971896
743.322330,-9400.615463,-592.164754,1302.362347
743.322651,-9474.636058,-518.144159,1302.362347
743.322971,-9622.677246,-1036.288319,1762.019645
743.323292,-9474.636058,-592.164754,919.314598
743.323613,-9474.636058,-592.164754,842.705048
743.323934,-9622.677246,-592.164754,1225.752797
743.324254,-9622.677246,-592.164754,1149.143247
743.324575,-9622.677246,-814.226536,842.705048
743.324896,-9548.656652,-814.226536,766.095498
743.325216,-9844.739029,-888.247130,612.876398
743.325537,-9474.636058,-814.226536,1072.533697
743.325858,-9844.739029,-666.185348,1072.533697
743.326179,-9622.677246,-666.185348,1225.752797
743.326499,-9622.677246,-814.226536,1302.362347
743.326820,-9474.636058,-518.144159,1455.581446
743.327141,-9992.780217,-444.123565,919.314598
743.327461,-9622.677246,148.041188,1532.190996
743.327782,-9548.656652,148.041188,1838.629195
743.328103,-9696.697840,296.082377,1685.410096
743.328424,-9474.636058,74.020594,2298.286494
743.328744,-9474.636058,0.000000,1608.800546
743.329065,-9622.677246,0.000000,1378.971896
743.329386,-9474.636058,74.020594,1532.190996
743.329706,-9474.636058,0.000000,1302.362347
743.330027,-9400.615463,74.020594,1455.581446
743.330348,-9918.759623,222.061783,1455.581446
743.330669,-9474.636058,296.082377,1608.800546
743.330989,-9770.718434,444.123565,1455.581446
743.331310,-9178.553681,74.020594,2145.067394
743.331631,-9770.718434,592.164754,1915.238745
743.331951,-9622.677246,222.061783,1762.019645
743.332272,-9622.677246,148.041188,1838.629195
743.332593,-9548.656652,0.000000,1838.629195
743.332914,-9104.533087,-222.061783,1302.362347
743.333234,-9252.574275,74.020594,1149.143247
743.333555,-9474.636058,148.041188,995.924147
743.333876,-9474.636058,0.000000,1072.533697
743.334196,-9400.615463,0.000000,1072.533697
743.334517,-9474.636058,-148.041188,536.266849
743.334838,-9770.718434,0.000000,842.705048
743.335159,-9770.718434,-296.082377,536.266849
743.335479,-9474.636058,-296.082377,1225.752797
743.335800,-9696.697840,-296.082377,689.485948
743.336121,-9622.677246,-296.082377,306.438199
743.336441,-9770.718434,-222.061783,612.876398
743.336762,-9474.636058,-444.123565,459.657299
743.337083,-9548.656652,-518.144159,612.876398
743.337404,-8956.491898,-444.123565,306.438199
743.337724,-9548.656652,-370.102971,612.876398
743.338045,-9474.636058,-518.144159,536.266849
743.338366,-9622.677246,-1332.370696,229.828649
743.338687,-9474.636058,-814.226536,459.657299
743.339007,-9844.739029,-740.205942,383.047749
743.339328,-9548.656652,-814.226536,689.485948
743.339649,-9844.739029,-814.226536,919.314598
743.339970,-9918.759623,-740.205942,842.705048
743.340290,-9696.697840,-962.267725,689.485948
743.340611,-9696.697840,-740.205942,842.705048
743.340932,-9696.697840,-814.226536,842.705048
743.341252,-9178.553681,-740.205942,766.095498
743.341573,-9770.718434,-740.205942,766.095498
743.341894,-9548.656652,-814.226536,1072.533697
743.342215,-9548.656652,-814.226536,1225.752797
743.342535,-9474.636058,-814.226536,1072.533697
743.342856,-9622.677246,-962.267725,1072.533697
743.343177,-9770.718434,-444.123565,1762.019645
743.343498,-9548.656652,-740.205942,1455.581446
743.343818,-9474.636058,-666.185348,1149.143247
743.344139,-9992.780217,-814.226536,1149.143247
743.344460,-9474.636058,-296.082377,1532.190996
743.344781,-9770.718434,-888.247130,1378.971896
743.345101,-9844.739029,-444.123565,995.924147
743.345422,-9474.636058,-1184.329507,1225.752797
743.345743,-9548.656652,-814.226536,1302.362347
743.346064,-9770.718434,-814.226536,1378.971896
743.346384,-9622.677246,-814.226536,1378.971896
743.346705,-9622.677246,-592.164754,1608.800546
743.347026,-9326.594869,-666.185348,1608.800546
743.347347,-9622.677246,-666.185348,2068.457845
743.347667,-9622.677246,-222.061783,1455.581446
743.347988,-9696.697840,-222.061783,1532.190996
743.348309,-9030.512492,-518.144159,1378.971896
743.348630,-9474.636058,0.000000,1302.362347
743.348950,-9548.656652,0.000000,1149.143247
743.349271,-9326.594869,0.000000,1378.971896
743.349592,-8956.491898,0.000000,1302.362347
743.349912,-9474.636058,0.000000,995.924147
743.350233,-9474.636058,0.000000,1149.143247
743.350554,-9548.656652,296.082377,1532.190996
743.350875,-9770.718434,370.102971,1532.190996
743.351195,-9548.656652,592.164754,1838.629195
743.351516,-9622.677246,74.020594,1378.971896
743.351837,-9474.636058,444.123565,1532.190996
743.352158,-9548.656652,148.041188,1532.190996
743.352478,-9400.615463,370.102971,1608.800546
743.352799,-9548.656652,370.102971,1455.581446
743.353120,-9326.594869,518.144159,842.705048
743.353441,-9474.636058,518.144159,1225.752797
743.353761,-9844.739029,740.205942,1532.190996
743.354082,-9622.677246,0.000000,689.485948
743.354403,-9400.615463,74.020594,689.485948
743.354724,-9770.718434,0.000000,689.485948
743.355044,-9844.739029,0.000000,536.266849
743.355365,-9770.718434,370.102971,612.876398
743.355686,-9770.718434,0.000000,612.876398
743.356007,-9696.697840,74.020594,766.095498
743.356327,-9770.718434,0.000000,919.314598
743.356648,-9474.636058,-444.123565,842.705048
743.356969,-9474.636058,-592.164754,612.876398
743.357290,-9622.677246,-444.123565,536.266849
743.357610,-9548.656652,-444.123565,612.876398
743.357931,-9252.574275,888.247130,1685.410096
743.358252,-9622.677246,-370.102971,459.657299
743.358572,-9474.636058,-592.164754,612.876398
743.358893,-9548.656652,-888.247130,76.609550
743.359214,-9696.697840,-518.144159,306.438199
743.359535,-9548.656652,-592.164754,153.219100
743.359855,-9548.656652,-296.082377,612.876398
743.360176,-9770.718434,-518.144159,536.266849
743.360497,-9770.718434,-740.205942,842.705048
743.360818,-9992.780217,-1110.308913,919.314598
743.361138,-9696.697840,-666.185348,995.924147
743.361459,-9770.718434,-888.247130,1072.533697
743.361780,-9696.697840,-740.205942,1225.752797
743.362101,-9770.718434,-1036.288319,766.095498
743.362421,-9400.615463,-888.247130,1302.362347
743.362742,-9474.636058,-814.226536,1608.800546
743.363063,-9400.615463,-1036.288319,1378.971896
743.363384,-9400.615463,-962.267725,1225.752797
743.363704,-9548.656652,-814.226536,842.705048
743.364025,-9474.636058,-814.226536,1072.533697
743.364346,-9622.677246,-740.205942,1149.143247
743.364667,-9622.677246,-888.247130,995.924147
743.364987,-9474.636058,-1406.391290,919.314598
743.365308,-9622.677246,-1036.288319,842.705048
743.365629,-9844.739029,-1110.308913,919.314598
743.365950,-9622.677246,-962.267725,842.705048
743.366270,-9548.656652,-1258.350101,2145.067394
743.366591,-9770.718434,-444.123565,1378.971896
743.366912,-9622.677246,-814.226536,1072.533697
743.367232,-9696.697840,-962.267725,1378.971896
743.367553,-9622.677246,-740.205942,1685.410096
743.367874,-9400.615463,-592.164754,1762.019645
743.368195,-9622.677246,-148.041188,1685.410096
743.368515,-9474.636058,-222.061783,1762.019645
743.368836,-9548.656652,-222.061783,1685.410096
743.369157,-9400.615463,-296.082377,1455.581446
743.369478,-9474.636058,-370.102971,1149.143247
743.369798,-9622.677246,0.000000,1455.581446
743.370119,-9622.677246,0.000000,1378.971896
743.370440,-9844.739029,0.000000,306.438199
743.370761,-9696.697840,222.061783,1302.362347
743.371081,-9696.697840,0.000000,1378.971896
743.371402,-9474.636058,0.000000,1455.581446
743.371723,-9770.718434,74.020594,1915.238745
743.372044,-9474.636058,370.102971,1915.238745
743.372364,-9474.636058,222.061783,1685.410096
743.372685,-9400.615463,296.082377,1532.190996
743.373006,-9474.636058,148.041188,1608.800546
743.373327,-8956.491898,74.020594,1838.629195
743.373647,-9326.594869,222.061783,1149.143247
743.373968,-9400.615463,0.000000,919.314598
743.374289,-9474.636058,74.020594,612.876398
743.374610,-9770.718434,666.185348,919.314598
743.374930,-9622.677246,0.000000,612.876398
743.375251,-9622.677246,0.000000,995.924147
743.375572,-9622.677246,148.041188,689.485948
743.375892,-9770.718434,148.041188,842.705048
743.376213,-9918.759623,296.082377,766.095498
743.376534,-9844.739029,222.061783,612.876398
743.376855,-9548.656652,0.000000,766.095498
743.377175,-9548.656652,-222.061783,612.876398
743.377496,-9252.574275,-666.185348,842.705048
743.377817,-9474.636058,-296.082377,459.657299
743.378138,-9548.656652,-74.020594,689.485948
743.378458,-9474.636058,-370.102971,536.266849
743.378779,-10066.800811,-962.267725,1072.533697
743.379100,-9622.677246,-518.144159,612.876398
743.379421,-9844.739029,-444.123565,229.828649
743.379741,-9844.739029,-370.102971,612.876398
743.380062,-9918.759623,-740.205942,689.485948
743.380383,-9770.718434,-444.123565,766.095498
743.380704,-9622.677246,-222.061783,842.705048
743.381024,-9770.718434,0.000000,1302.362347
743.381345,-9548.656652,-296.082377,1072.533697
743.381666,-9474.636058,-370.102971,1072.533697
743.381987,-9548.656652,-296.082377,1072.533697
743.382307,-9474.636058,-370.102971,1378.971896
743.382628,-9474.636058,-592.164754,919.314598
743.382949,-9178.553681,-740.205942,2145.067394
743.383270,-9474.636058,-962.267725,1302.362347
743.383590,-9474.636058,-1036.288319,1149.143247
743.383911,-9548.656652,-740.205942,1302.362347
743.384232,-9474.636058,-888.247130,1225.752797
743.384552,-9770.718434,-888.247130,1072.533697
743.384873,-9548.656652,-666.185348,1149.143247
743.385194,-9548.656652,-518.144159,1225.752797
743.385515,-9770.718434,-518.144159,1302.362347
743.385835,-9474.636058,-888.247130,1455.581446
743.386156,-9696.697840,-518.144159,995.924147
743.386477,-9548.656652,-740.205942,1378.971896
743.386798,-9696.697840,-740.205942,1532.190996
743.387118,-9474.636058,-1776.494261,2068.457845
743.387439,-9474.636058,-962.267725,1378.971896
743.387760,-9474.636058,-888.247130,1455.581446
743.388081,-9548.656652,-740.205942,1225.752797
743.388401,-9548.656652,-370.102971,1225.752797
743.388722,-9548.656652,-222.061783,1302.362347
743.389043,-9474.636058,-222.061783,1225.752797
743.389364,-9474.636058,0.000000,995.924147
743.389684,-9622.677246,74.020594,995.924147
743.390005,-9844.739029,370.102971,1072.533697
743.390326,-9770.718434,-148.041188,1455.581446
743.390647,-9548.656652,-148.041188,1149.143247
743.390967,-9622.677246,-370.102971,1225.752797
743.391288,-10362.883188,1110.308913,1378.971896
743.391609,-9548.656652,0.000000,1378.971896
743.391930,-9400.615463,74.020594,1532.190996
743.392250,-9474.636058,74.020594,1455.581446
743.392571,-9474.636058,0.000000,1532.190996
743.392892,-9548.656652,0.000000,1149.143247
743.393212,-9474.636058,148.041188,1302.362347
743.393533,-9548.656652,148.041188,1225.752797
743.393854,-9548.656652,222.061783,1378.971896
743.394175,-9844.739029,444.123565,995.924147
743.394495,-9622.677246,148.041188,919.314598
743.394816,-9622.677246,0.000000,919.314598
743.395137,-9770.718434,-296.082377,766.095498
743.395458,-9548.656652,0.000000,459.657299
743.395778,-9622.677246,-296.082377,919.314598
743.396099,-9622.677246,-222.061783,842.705048
743.396420,-9548.656652,-518.144159,612.876398
743.396741,-9474.636058,-444.123565,995.924147
743.397061,-9474.636058,-444.123565,689.485948
743.397382,-9548.656652,-592.164754,842.705048
743.397703,-9474.636058,-518.144159,689.485948
743.398024,-9252.574275,-1184.329507,766.095498
743.398344,-9844.739029,-2590.720797,842.705048
743.398665,-9030.512492,-1776.494261,459.657299
743.398986,-9474.636058,-1406.391290,76.609550
743.399307,-10066.800811,-74.020594,612.876398
743.399627,-9474.636058,296.082377,2451.505594
743.399948,-9696.697840,0.000000,919.314598
743.400269,-9400.615463,-222.061783,153.219100
743.400590,-9918.759623,-814.226536,306.438199
743.400910,-9918.759623,-1110.308913,1225.752797
743.401231,-9918.759623,-592.164754,689.485948
743.401552,-9622.677246,-444.123565,842.705048
743.401872,-9474.636058,370.102971,1378.971896
743.402193,-9548.656652,148.041188,1149.143247
743.402514,-9696.697840,296.082377,1838.629195
743.402835,-9622.677246,0.000000,1302.362347
743.403155,-9622.677246,-222.061783,1072.533697
743.403476,-9770.718434,-370.102971,1302.362347
743.403797,-10584.944971,148.041188,919.314598
743.404118,-9474.636058,-518.144159,1455.581446
743.404438,-9400.615463,-518.144159,995.924147
743.404759,-9622.677246,-592.164754,842.705048
743.405080,-9474.636058,-814.226536,536.266849
743.405401,-9844.739029,-814.226536,306.438199
743.405721,-9696.697840,-444.123565,383.047749
743.406042,-9696.697840,-740.205942,842.705048
743.406363,-9474.636058,-666.185348,842.705048
743.406684,-8956.491898,-962.267725,2451.505594
743.407004,-9696.697840,-962.267725,1302.362347
743.407325,-9252.574275,-888.247130,1532.190996
743.407646,-9252.574275,-592.164754,1225.752797
743.407967,-9474.636058,-222.061783,2451.505594
743.408287,-9474.636058,-148.041188,1915.238745
743.408608,-9622.677246,-74.020594,1915.238745
743.408929,-9474.636058,-222.061783,1762.019645
743.409250,-9474.636058,-296.082377,1225.752797
743.409570,-9178.553681,-148.041188,2145.067394
743.409891,-9474.636058,-74.020594,1685.410096
743.410212,-9474.636058,0.000000,1838.629195
743.410532,-9326.594869,222.061783,1685.410096
743.410853,-9400.615463,-370.102971,766.095498
743.411174,-9622.677246,74.020594,1455.581446
743.411495,-9622.677246,0.000000,1762.019645
743.411815,-9696.697840,296.082377,2374.896044
743.412136,-9622.677246,74.020594,2068.457845
743.412457,-9400.615463,0.000000,1455.581446
743.412778,-9474.636058,-222.061783,1455.581446
743.413098,-9474.636058,148.041188,1608.800546
743.413419,-9622.677246,0.000000,1455.581446
743.413740,-9474.636058,370.102971,1149.143247
743.414061,-9474.636058,0.000000,842.705048
743.414381,-9548.656652,0.000000,689.485948
743.414702,-9622.677246,-74.020594,842.705048
743.415023,-9474.636058,-370.102971,612.876398
743.415344,-9918.759623,-296.082377,383.047749
743.415664,-9770.718434,-148.041188,383.047749
743.415985,-9770.718434,-370.102971,459.657299
743.416306,-9696.697840,-370.102971,919.314598
743.416627,-9844.739029,-222.061783,766.095498
743.416947,-9770.718434,-592.164754,306.438199
743.417268,-9548.656652,-518.144159,306.438199
743.417589,-9622.677246,-444.123565,229.828649
743.417910,-9252.574275,-518.144159,536.266849
743.418230,-9474.636058,-296.082377,306.438199
743.418551,-9474.636058,-444.123565,153.219100
743.418872,-9474.636058,-518.144159,536.266849
743.419192,-9622.677246,-518.144159,383.047749
743.419513,-9918.759623,-592.164754,842.705048
743.419834,-9622.677246,-740.205942,306.438199
743.420155,-9696.697840,-888.247130,766.095498
743.420475,-9548.656652,-888.247130,536.266849
743.420796,-9548.656652,-592.164754,612.876398
743.421117,-9548.656652,-666.185348,689.485948
743.421438,-9770.718434,-222.061783,766.095498
743.421758,-9474.636058,-296.082377,1072.533697
743.422079,-9548.656652,-222.061783,919.314598
743.422400,-9548.656652,-222.061783,1378.971896
743.422721,-9696.697840,-518.144159,1532.190996
743.423041,-9474.636058,-592.164754,1532.190996
743.423362,-8808.450710,0.000000,1608.800546
743.423683,-9622.677246,-666.185348,1685.410096
743.424004,-9400.615463,-592.164754,1455.581446
743.424324,-9474.636058,-518.144159,1532.190996
743.424645,-9474.636058,-222.061783,1225.752797
743.424966,-9622.677246,-518.144159,1225.752797
743.425287,-9548.656652,-222.061783,1149.143247
743.425607,-9770.718434,-592.164754,1149.143247
743.425928,-9622.677246,-444.123565,1225.752797
743.426249,-9992.780217,-222.061783,1225.752797
743.426570,-9844.739029,-370.102971,1455.581446
743.426890,-9770.718434,-444.123565,1455.581446
743.427211,-9548.656652,-592.164754,1455.581446
743.427532,-9030.512492,74.020594,919.314598
743.427852,-9622.677246,-592.164754,1455.581446
743.428173,-9400.615463,-296.082377,1225.752797
743.428494,-9474.636058,-370.102971,1378.971896
743.428815,-9474.636058,-370.102971,3064.381992
743.429135,-9622.677246,-666.185348,1302.362347
743.429456,-9474.636058,-518.144159,1072.533697
743.429777,-9548.656652,-222.061783,1149.143247
