#time,accel_x,accel_y,accel_z
1201.570027,-8956.491898,-1406.391290,2528.115143
1201.570348,-9548.656652,-1332.370696,1302.362347
1201.570670,-9548.656652,-592.164754,1225.752797
1201.570991,-9992.780217,-296.082377,919.314598
1201.571312,-9992.780217,-592.164754,1532.190996
1201.571633,-9844.739029,-296.082377,1149.143247
1201.571954,-10066.800811,-888.247130,1378.971896
1201.572276,-10066.800811,-1184.329507,1532.190996
1201.572597,-9992.780217,-1480.411884,1455.581446
1201.572918,-9474.636058,-1406.391290,1455.581446
1201.573239,-9474.636058,-888.247130,1532.190996
1201.573561,-9400.615463,-962.267725,1532.190996
1201.573882,-9178.553681,-1110.308913,1378.971896
1201.574203,-9474.636058,0.000000,2145.067394
1201.574524,-9400.615463,-518.144159,1378.971896
1201.574845,-9474.636058,-444.123565,2145.067394
1201.575167,-9622.677246,-962.267725,2221.676944
1201.575488,-9326.594869,-1258.350101,1991.848295
1201.575809,-9474.636058,-1480.411884,2528.115143
1201.576130,-9622.677246,-1702.473667,2681.334243
1201.576452,-9918.759623,-1924.535449,2987.772442
1201.576773,-9622.677246,-2072.576638,3677.258390
1201.577094,-9548.656652,-2368.659014,3907.087040
1201.577415,-9622.677246,-2516.700203,3600.648841
1201.577737,-9474.636058,-2960.823768,3753.867940
1201.578058,-9326.594869,-3256.906145,3830.477490
1201.578379,-9030.512492,-3478.967927,4596.572988
1201.578700,-8808.450710,-3256.906145,4060.306139
1201.579021,-9030.512492,-3256.906145,4673.182538
1201.579343,-9178.553681,-3404.947333,4979.620737
1201.579664,-9178.553681,-3849.070898,4826.401637
1201.579985,-9326.594869,-4515.256246,5669.106685
1201.580306,-9474.636058,-4441.235652,5669.106685
1201.580628,-9548.656652,-4663.297435,5898.935335
1201.580949,-9474.636058,-4737.318029,6052.154434
1201.581270,-9252.574275,-4885.359217,6358.592633
1201.581591,-9474.636058,-4589.276840,5439.278036
1201.581912,-9474.636058,-4441.235652,5056.230287
1201.582234,-9104.533087,-3923.091493,4903.011187
1201.582555,-9326.594869,-3404.947333,3983.696590
1201.582876,-9400.615463,-3108.864956,4213.525239
1201.583197,-9252.574275,-3034.844362,3907.087040
1201.583519,-9474.636058,-3256.906145,3907.087040
1201.583840,-9400.615463,-3182.885551,5362.668486
1201.584161,-9622.677246,-3478.967927,4366.744339
1201.584482,-9992.780217,-3849.070898,4290.134789
1201.584804,-9696.697840,-3923.091493,4596.572988
1201.585125,-9918.759623,-4589.276840,4290.134789
1201.585446,-9770.718434,-5329.482782,4213.525239
1201.585767,-9474.636058,-5699.585753,3524.039291
1201.586088,-9474.636058,-5329.482782,3064.381992
1201.586410,-9326.594869,-4737.318029,2451.505594
1201.586731,-9252.574275,-3627.009116,2451.505594
1201.587052,-9474.636058,-2960.823768,1685.410096
1201.587373,-9622.677246,-2368.659014,1149.143247
1201.587695,-10066.800811,-1998.556043,766.095498
1201.588016,-9918.759623,-1628.453072,-459.657299
1201.588337,-9918.759623,-2220.617826,689.485948
1201.588658,-9918.759623,-2294.638420,0.000000
1201.588979,-9918.759623,-2146.597232,-459.657299
1201.589300,-9622.677246,-1850.514855,-612.876398
1201.589621,-9474.636058,-1332.370696,-459.657299
1201.589942,-9474.636058,-962.267725,-1225.752797
1201.590263,-9474.636058,-148.041188,-536.266849
1201.590584,-10214.842000,370.102971,-229.828649
1201.590904,-9252.574275,592.164754,1762.019645
1201.591225,-10436.903782,0.000000,2451.505594
1201.591546,-10066.800811,-888.247130,2834.553343
1201.591867,-9622.677246,-2368.659014,2145.067394
1201.592188,-8734.430116,-1998.556043,2451.505594
1201.592509,-8882.471304,-1850.514855,2221.676944
1201.592830,-8438.347739,-1110.308913,2374.896044
1201.593150,-8364.327145,-814.226536,1838.629195
1201.593471,-8438.347739,-148.041188,842.705048
1201.593792,-8956.491898,296.082377,1225.752797
1201.594113,-9326.594869,740.205942,612.876398
1201.594434,-9770.718434,1850.514855,766.095498
1201.594755,-10140.821405,3182.885551,306.438199
1201.595076,-10214.842000,4515.256246,842.705048
1201.595396,-10436.903782,4737.318029,1072.533697
1201.595717,-10658.965565,4737.318029,2145.067394
1201.596038,-10732.986159,3256.906145,2298.286494
1201.596359,-10436.903782,1924.535449,2451.505594
1201.596680,-10214.842000,-518.144159,2834.553343
1201.597001,-9400.615463,-1776.494261,2834.553343
1201.597322,-8734.430116,-2368.659014,3370.820191
1201.597642,-9178.553681,-2146.597232,3753.867940
1201.597963,-9252.574275,-1628.453072,3677.258390
1201.598284,-8882.471304,-1036.288319,3677.258390
1201.598605,-9326.594869,-370.102971,2834.553343
1201.598926,-9030.512492,0.000000,2145.067394
1201.599247,-8734.430116,1628.453072,1455.581446
1201.599568,-9696.697840,1702.473667,612.876398
1201.599888,-9474.636058,2516.700203,-383.047749
1201.600209,-9770.718434,3404.947333,-842.705048
1201.600530,-10214.842000,3775.050304,-919.314598
1201.600851,-10066.800811,3552.988522,306.438199
1201.601172,-10732.986159,2442.679609,1072.533697
1201.601493,-10510.924376,740.205942,1991.848295
1201.601814,-9844.739029,-1998.556043,2374.896044
1201.602134,-9104.533087,-3997.112087,2528.115143
1201.602455,-9030.512492,-4959.379811,2681.334243
1201.602776,-8734.430116,-5107.421000,3064.381992
1201.603097,-8586.388927,-5329.482782,2911.162892
1201.603418,-8586.388927,-4589.276840,2681.334243
1201.603739,-8438.347739,-3330.926739,306.438199
1201.604060,-9326.594869,-1998.556043,-383.047749
1201.604380,-9326.594869,0.000000,-1532.190996
1201.604701,-9622.677246,1628.453072,-2068.457845
1201.605022,-9992.780217,3182.885551,-2757.943793
1201.605343,-10362.883188,3552.988522,-2451.505594
1201.605664,-10658.965565,3552.988522,-1838.629195
1201.605985,-11177.109724,1924.535449,-842.705048
1201.606306,-11177.109724,370.102971,229.828649
1201.606626,-10658.965565,-2590.720797,1532.190996
1201.606947,-9622.677246,-4811.338623,1685.410096
1201.607268,-9030.512492,-6143.709319,1685.410096
1201.607589,-7476.080014,-6957.935855,3753.867940
1201.607910,-8216.285956,-5921.647536,2604.724693
1201.608231,-8438.347739,-4737.318029,2757.943793
1201.608552,-8438.347739,-4145.153275,1838.629195
1201.608872,-8734.430116,-2294.638420,1149.143247
1201.609193,-9252.574275,0.000000,-689.485948
1201.609514,-9178.553681,2294.638420,-1302.362347
1201.609835,-10140.821405,4737.318029,-1072.533697
1201.610156,-11103.089130,5699.585753,0.000000
1201.610477,-11029.068536,5255.462188,0.000000
1201.610798,-11695.253884,3478.967927,842.705048
1201.611118,-11843.295072,1702.473667,1915.238745
1201.611439,-11547.212695,-740.205942,3140.991542
1201.611760,-10140.821405,-2886.803174,5592.497135
1201.612081,-8808.450710,-4515.256246,3753.867940
1201.612402,-7772.162391,-5847.626942,3524.039291
1201.612723,-7550.100608,-5625.565159,3753.867940
1201.613043,-7179.997637,-4885.359217,3447.429741
1201.613364,-7624.121203,-4441.235652,2528.115143
1201.613685,-8142.265362,-2294.638420,842.705048
1201.614006,-8438.347739,296.082377,0.000000
1201.614327,-9474.636058,3256.906145,-612.876398
1201.614648,-10955.047942,6217.729913,-306.438199
1201.614969,-10955.047942,7031.956449,0.000000
1201.615289,-11769.274478,6587.832884,-153.219100
1201.615610,-11843.295072,5477.523971,536.266849
1201.615931,-11621.233289,4145.153275,1762.019645
1201.616252,-11325.150913,888.247130,2757.943793
1201.616573,-9992.780217,-1850.514855,2374.896044
1201.616894,-8512.368333,-3478.967927,1838.629195
1201.617215,-8142.265362,-3997.112087,2451.505594
1201.617535,-7772.162391,-3256.906145,2681.334243
1201.617856,-7772.162391,-2960.823768,2987.772442
1201.618177,-8142.265362,-3108.864956,2451.505594
1201.618498,-8216.285956,-2368.659014,1149.143247
1201.618819,-8660.409521,-1036.288319,-306.438199
1201.619140,-9326.594869,1998.556043,-1685.410096
1201.619461,-9992.780217,5255.462188,-1532.190996
1201.619781,-11029.068536,7105.977043,-1302.362347
1201.620102,-11621.233289,7772.162391,-842.705048
1201.620423,-11917.315666,6735.874072,-459.657299
1201.620744,-12065.356855,4515.256246,459.657299
1201.621065,-11991.336260,1702.473667,1915.238745
1201.621386,-11251.130318,-1554.432478,2374.896044
1201.621707,-9474.636058,-4367.215058,2604.724693
1201.622027,-8364.327145,-5995.668130,2145.067394
1201.622348,-7179.997637,-6217.729913,2374.896044
1201.622669,-7254.018232,-5921.647536,2451.505594
1201.622990,-7476.080014,-4737.318029,1991.848295
1201.623311,-7994.224174,-3330.926739,766.095498
1201.623632,-8068.244768,-1554.432478,-689.485948
1201.623953,-8290.306550,1332.370696,-1532.190996
1201.624273,-9844.739029,4737.318029,-2145.067394
1201.624594,-10732.986159,5773.606348,-459.657299
1201.624915,-11843.295072,5847.626942,-306.438199
1201.625236,-11843.295072,5181.441594,0.000000
1201.625557,-11917.315666,3108.864956,689.485948
1201.625878,-11991.336260,1258.350101,2145.067394
1201.626199,-11103.089130,-1924.535449,2834.553343
1201.626519,-9548.656652,-4663.297435,2374.896044
1201.626840,-8068.244768,-6365.771101,2604.724693
1201.627161,-7772.162391,-7179.997637,2451.505594
1201.627482,-7920.203579,-6439.791695,3677.258390
1201.627803,-7772.162391,-6291.750507,3753.867940
1201.628124,-8290.306550,-4663.297435,2604.724693
1201.628445,-8068.244768,-2072.576638,2068.457845
1201.628765,-8438.347739,-148.041188,0.000000
1201.629086,-9474.636058,2442.679609,-766.095498
1201.629407,-10140.821405,4737.318029,-689.485948
1201.629728,-11177.109724,5699.585753,-1149.143247
1201.630049,-11029.068536,5625.565159,-919.314598
1201.630370,-11769.274478,3997.112087,0.000000
1201.630691,-11991.336260,2146.597232,1225.752797
1201.631011,-11769.274478,-444.123565,2528.115143
1201.631332,-10214.842000,-3627.009116,3294.210641
1201.631653,-9104.533087,-6069.688724,3217.601092
1201.631974,-8290.306550,-7550.100608,3370.820191
1201.632295,-7920.203579,-7105.977043,3524.039291
1201.632616,-8364.327145,-5625.565159,3983.696590
1201.632937,-7772.162391,-5329.482782,2451.505594
1201.633257,-7328.038826,-4145.153275,459.657299
1201.633578,-7846.182985,-1406.391290,-1072.533697
1201.633899,-9030.512492,1924.535449,-1915.238745
1201.634220,-9770.718434,4885.359217,-1378.971896
1201.634541,-10658.965565,6217.729913,-1378.971896
1201.634862,-11325.150913,6513.812290,-1532.190996
1201.635183,-11843.295072,5403.503377,-689.485948
1201.635503,-12213.398043,3478.967927,995.924147
1201.635824,-11843.295072,666.185348,2298.286494
1201.636145,-11103.089130,-2738.761985,2451.505594
1201.636466,-8956.491898,-4737.318029,2221.676944
1201.636787,-8512.368333,-6365.771101,2145.067394
1201.637108,-8068.244768,-6217.729913,2451.505594
1201.637429,-7476.080014,-5477.523971,2757.943793
1201.637749,-7772.162391,-4737.318029,2374.896044
1201.638070,-7846.182985,-3330.926739,842.705048
1201.638391,-8808.450710,-1110.308913,-919.314598
1201.638712,-9252.574275,2442.679609,-1225.752797
1201.639033,-10584.944971,4737.318029,-1762.019645
1201.639354,-10584.944971,8068.244768,-919.314598
1201.639674,-12879.583391,7550.100608,-689.485948
1201.639995,-11473.192101,6809.894666,-536.266849
1201.640316,-12509.480420,4145.153275,-383.047749
1201.640637,-11843.295072,1850.514855,1685.410096
1201.640958,-10510.924376,-1406.391290,2757.943793
1201.641279,-9844.739029,-3775.050304,3064.381992
1201.641600,-8438.347739,-5181.441594,3064.381992
1201.641920,-8290.306550,-5995.668130,3217.601092
1201.642241,-8216.285956,-5551.544565,4519.963438
1201.642562,-7846.182985,-5551.544565,3753.867940
1201.642883,-7698.141797,-4071.132681,2145.067394
1201.643204,-8068.244768,-1776.494261,306.438199
1201.643525,-7846.182985,1776.494261,-766.095498
1201.643846,-10066.800811,4959.379811,-842.705048
1201.644166,-10362.883188,7550.100608,-689.485948
1201.644487,-11103.089130,7550.100608,-612.876398
1201.644808,-11473.192101,6291.750507,-459.657299
1201.645129,-11843.295072,4219.173869,-536.266849
1201.645450,-11917.315666,1998.556043,1915.238745
1201.645771,-11251.130318,-666.185348,3217.601092
1201.646092,-9696.697840,-3923.091493,2681.334243
1201.646412,-8142.265362,-5699.585753,4136.915689
1201.646733,-7920.203579,-6661.853478,3677.258390
1201.647054,-7846.182985,-6217.729913,3753.867940
1201.647375,-7476.080014,-5995.668130,3370.820191
1201.647696,-7476.080014,-5255.462188,1685.410096
1201.648017,-7698.141797,-3108.864956,0.000000
1201.648338,-8068.244768,0.000000,-1302.362347
1201.648658,-9548.656652,3552.988522,-1072.533697
1201.648979,-10140.821405,6365.771101,-1532.190996
1201.649300,-10658.965565,7031.956449,-842.705048
1201.649621,-11325.150913,6809.894666,-1378.971896
1201.649942,-11843.295072,5329.482782,-536.266849
1201.650263,-12361.439231,3034.844362,1685.410096
1201.650584,-11769.274478,0.000000,2911.162892
1201.650904,-10066.800811,-3849.070898,2911.162892
1201.651225,-9178.553681,-6587.832884,2451.505594
1201.651546,-8512.368333,-7624.121203,3064.381992
1201.651867,-8364.327145,-7550.100608,3524.039291
1201.652188,-7550.100608,-6365.771101,3140.991542
1201.652509,-7328.038826,-5255.462188,1532.190996
1201.652830,-7254.018232,-3256.906145,0.000000
1201.653150,-7994.224174,-666.185348,-1838.629195
1201.653471,-8956.491898,2220.617826,-1455.581446
1201.653792,-9918.759623,4811.338623,-1532.190996
1201.654113,-11029.068536,6069.688724,-1149.143247
1201.654434,-11621.233289,5995.668130,-766.095498
1201.654755,-12361.439231,4737.318029,0.000000
1201.655076,-12065.356855,2886.803174,1072.533697
1201.655396,-11843.295072,-74.020594,2451.505594
1201.655717,-9844.739029,-2516.700203,2221.676944
1201.656038,-9104.533087,-5329.482782,2451.505594
1201.656359,-7698.141797,-6735.874072,2451.505594
1201.656680,-7624.121203,-6365.771101,3370.820191
1201.657001,-7402.059420,-5847.626942,3447.429741
1201.657322,-7476.080014,-4885.359217,2911.162892
1201.657642,-7772.162391,-3775.050304,1685.410096
1201.657963,-8364.327145,-1850.514855,0.000000
1201.658284,-9474.636058,1702.473667,-612.876398
1201.658605,-10214.842000,5033.400406,-689.485948
1201.658926,-10732.986159,7328.038826,-306.438199
1201.659247,-11695.253884,7994.224174,-229.828649
1201.659568,-11769.274478,6587.832884,0.000000
1201.659888,-11473.192101,4293.194464,919.314598
1201.660209,-11399.171507,1258.350101,2298.286494
1201.660530,-9474.636058,-3034.844362,2298.286494
1201.660851,-9326.594869,-5773.606348,2681.334243
1201.661172,-8734.430116,-6957.935855,3370.820191
1201.661493,-8142.265362,-7105.977043,4443.353888
1201.661814,-8142.265362,-6587.832884,4366.744339
1201.662134,-7698.141797,-5477.523971,3600.648841
1201.662455,-7920.203579,-3923.091493,1532.190996
1201.662776,-8586.388927,-1184.329507,0.000000
1201.663097,-8956.491898,2368.659014,-842.705048
1201.663418,-9696.697840,5255.462188,-2145.067394
1201.663739,-10214.842000,7698.141797,-1225.752797
1201.664060,-10955.047942,7846.182985,-1762.019645
1201.664380,-11325.150913,6957.935855,-842.705048
1201.664701,-10881.027347,3478.967927,995.924147
1201.665022,-11843.295072,2146.597232,1608.800546
1201.665343,-10955.047942,-1110.308913,2068.457845
1201.665664,-9696.697840,-3627.009116,2298.286494
1201.665985,-9104.533087,-5181.441594,2298.286494
1201.666305,-8068.244768,-5773.606348,3064.381992
1201.666626,-8216.285956,-5403.503377,3600.648841
1201.666947,-7920.203579,-4737.318029,3064.381992
1201.667268,-7846.182985,-4219.173869,1532.190996
1201.667589,-7550.100608,-2220.617826,536.266849
1201.667910,-8364.327145,1184.329507,-1225.752797
1201.668231,-9770.718434,4293.194464,-1762.019645
1201.668551,-10362.883188,7031.956449,-1608.800546
1201.668872,-11251.130318,7624.121203,383.047749
1201.669193,-11473.192101,6661.853478,-1378.971896
1201.669514,-12065.356855,4737.318029,0.000000
1201.669835,-12213.398043,2220.617826,1378.971896
1201.670156,-11547.212695,-666.185348,2604.724693
1201.670477,-9770.718434,-4367.215058,2451.505594
1201.670797,-8808.450710,-6069.688724,3140.991542
1201.671118,-8438.347739,-7550.100608,3677.258390
1201.671439,-7698.141797,-7402.059420,4060.306139
1201.671760,-7105.977043,-6735.874072,3217.601092
1201.672081,-7254.018232,-5699.585753,2068.457845
1201.672402,-7624.121203,-3330.926739,153.219100
1201.672723,-8438.347739,296.082377,-689.485948
1201.673043,-9474.636058,3997.112087,-1378.971896
1201.673364,-10140.821405,6735.874072,-766.095498
1201.673685,-10881.027347,6957.935855,-842.705048
1201.674006,-11325.150913,6439.791695,-1149.143247
1201.674327,-11843.295072,4515.256246,-306.438199
1201.674648,-11843.295072,2812.782580,1149.143247
1201.674969,-11547.212695,0.000000,2757.943793
1201.675289,-10066.800811,-3478.967927,2757.943793
1201.675610,-8660.409521,-5477.523971,2681.334243
1201.675931,-8734.430116,-6661.853478,3294.210641
1201.676252,-8290.306550,-6957.935855,4596.572988
1201.676573,-8142.265362,-6365.771101,4596.572988
1201.676894,-7550.100608,-5551.544565,2911.162892
1201.677215,-7179.997637,-4441.235652,2681.334243
1201.677535,-7846.182985,-740.205942,-383.047749
1201.677856,-9178.553681,2590.720797,-842.705048
1201.678177,-9992.780217,5329.482782,-1072.533697
1201.678498,-10658.965565,6587.832884,-612.876398
1201.678819,-11325.150913,5921.647536,-1532.190996
1201.679140,-12287.418637,4811.338623,-459.657299
1201.679461,-12731.542202,2664.741391,842.705048
1201.679781,-11991.336260,296.082377,2374.896044
1201.680102,-10362.883188,-2590.720797,2451.505594
1201.680423,-9252.574275,-5181.441594,2451.505594
1201.680744,-8586.388927,-6587.832884,2681.334243
1201.681065,-8216.285956,-6883.915261,3294.210641
1201.681386,-7031.956449,-6661.853478,3064.381992
1201.681707,-6957.935855,-5403.503377,1608.800546
1201.682027,-7031.956449,-3923.091493,-536.266849
1201.682348,-7846.182985,-814.226536,-1915.238745
1201.682669,-8734.430116,2590.720797,-2987.772442
1201.682990,-9696.697840,5477.523971,-1608.800546
1201.683311,-10881.027347,6883.915261,-1225.752797
1201.683632,-11621.233289,6957.935855,-1225.752797
1201.683953,-12435.459826,5847.626942,-306.438199
1201.684273,-12361.439231,3775.050304,459.657299
1201.684594,-12213.398043,1332.370696,2298.286494
1201.684915,-10510.924376,-1554.432478,2221.676944
1201.685236,-9030.512492,-3923.091493,2298.286494
1201.685557,-8586.388927,-5477.523971,3064.381992
1201.685878,-8290.306550,-5921.647536,3524.039291
1201.686199,-8068.244768,-5625.565159,3907.087040
1201.686519,-7550.100608,-4367.215058,3524.039291
1201.686840,-8290.306550,-3923.091493,2911.162892
1201.687161,-7846.182985,-1480.411884,612.876398
1201.687482,-9030.512492,962.267725,0.000000
1201.687803,-9548.656652,4367.215058,-536.266849
1201.688124,-10214.842000,6513.812290,-995.924147
1201.688445,-10732.986159,7328.038826,-1608.800546
1201.688765,-11399.171507,6291.750507,-842.705048
1201.689086,-11991.336260,4145.153275,306.438199
1201.689407,-11917.315666,1850.514855,1915.238745
1201.689728,-11251.130318,-1554.432478,1532.190996
1201.690049,-9474.636058,-3997.112087,2528.115143
1201.690370,-9104.533087,-6291.750507,3370.820191
1201.690691,-8438.347739,-6809.894666,4136.915689
1201.691011,-7698.141797,-7105.977043,4979.620737
1201.691332,-7846.182985,-5625.565159,3294.210641
1201.691653,-7550.100608,-4145.153275,1838.629195
1201.691974,-7920.203579,-2368.659014,-612.876398
1201.692295,-8290.306550,1258.350101,-1072.533697
1201.692616,-9622.677246,4441.235652,-1685.410096
1201.692937,-10214.842000,6957.935855,-1532.190996
1201.693258,-11103.089130,7179.997637,-1991.848295
1201.693579,-11769.274478,6513.812290,-1149.143247
1201.693900,-11991.336260,4589.276840,536.266849
1201.694221,-12435.459826,2516.700203,1455.581446
1201.694542,-11103.089130,-222.061783,1838.629195
1201.694863,-9918.759623,-3552.988522,1685.410096
1201.695184,-8956.491898,-5477.523971,766.095498
1201.695505,-8586.388927,-6069.688724,2911.162892
1201.695826,-8068.244768,-6069.688724,3447.429741
1201.696147,-8142.265362,-5921.647536,2987.772442
1201.696467,-7624.121203,-5181.441594,1455.581446
1201.696788,-7772.162391,-3256.906145,0.000000
1201.697109,-8216.285956,-296.082377,-1225.752797
1201.697430,-9252.574275,3182.885551,-1762.019645
1201.697751,-9696.697840,6217.729913,-1378.971896
1201.698072,-10658.965565,6365.771101,-2221.676944
1201.698393,-11029.068536,6365.771101,-1455.581446
1201.698714,-11843.295072,4145.153275,-459.657299
1201.699035,-11843.295072,2294.638420,1378.971896
1201.699356,-11695.253884,0.000000,2834.553343
1201.699677,-9770.718434,-3923.091493,2681.334243
1201.699998,-9030.512492,-6143.709319,3294.210641
1201.700319,-8290.306550,-7179.997637,3600.648841
1201.700640,-7920.203579,-7328.038826,4136.915689
1201.700961,-7772.162391,-6587.832884,4213.525239
1201.701282,-7031.956449,-5255.462188,2757.943793
1201.701603,-7550.100608,-3552.988522,1072.533697
1201.701924,-8142.265362,-592.164754,-306.438199
1201.702245,-9030.512492,3182.885551,-383.047749
1201.702566,-10140.821405,5477.523971,-766.095498
1201.702887,-10140.821405,6957.935855,-995.924147
1201.703208,-11399.171507,7031.956449,-689.485948
1201.703529,-11695.253884,5995.668130,919.314598
1201.703850,-12213.398043,3034.844362,1302.362347
1201.704170,-11695.253884,296.082377,2068.457845
1201.704491,-10066.800811,-2294.638420,2374.896044
1201.704812,-9844.739029,-4737.318029,2911.162892
1201.705133,-9030.512492,-5995.668130,3217.601092
1201.705454,-8660.409521,-6365.771101,4060.306139
1201.705775,-8586.388927,-5921.647536,4060.306139
1201.706096,-7402.059420,-5107.421000,2834.553343
1201.706417,-7920.203579,-4367.215058,1378.971896
1201.706738,-8364.327145,-1406.391290,0.000000
1201.707059,-9030.512492,1628.453072,-1302.362347
1201.707380,-9844.739029,5107.421000,-1532.190996
1201.707701,-9770.718434,7920.203579,-689.485948
1201.708022,-11547.212695,7402.059420,-1455.581446
1201.708343,-11843.295072,6143.709319,-995.924147
1201.708664,-11843.295072,4219.173869,0.000000
1201.708985,-12065.356855,1702.473667,1378.971896
1201.709306,-10658.965565,-2072.576638,1838.629195
1201.709627,-9548.656652,-4589.276840,2451.505594
1201.709948,-8882.471304,-6661.853478,2681.334243
1201.710269,-8142.265362,-7105.977043,2987.772442
1201.710590,-7772.162391,-6143.709319,3830.477490
1201.710911,-7698.141797,-4959.379811,2757.943793
1201.711232,-7624.121203,-3627.009116,1378.971896
1201.711553,-8216.285956,-1258.350101,0.000000
1201.711873,-8956.491898,2294.638420,-536.266849
1201.712194,-9474.636058,4959.379811,-842.705048
1201.712515,-10584.944971,6587.832884,-689.485948
1201.712836,-10881.027347,6513.812290,-612.876398
1201.713157,-11473.192101,5699.585753,0.000000
1201.713478,-11769.274478,3775.050304,536.266849
1201.713799,-11621.233289,1850.514855,2145.067394
1201.714120,-10584.944971,-666.185348,2451.505594
1201.714441,-9400.615463,-3849.070898,2528.115143
1201.714762,-9104.533087,-4737.318029,3140.991542
1201.715083,-8068.244768,-5477.523971,3600.648841
1201.715404,-8438.347739,-6069.688724,3447.429741
1201.715725,-7179.997637,-5033.400406,3140.991542
1201.716046,-7698.141797,-5181.441594,2834.553343
1201.716367,-7550.100608,-2664.741391,-229.828649
1201.716688,-8586.388927,666.185348,-842.705048
1201.717009,-9548.656652,4071.132681,-1072.533697
1201.717330,-10066.800811,7031.956449,-995.924147
1201.717651,-11399.171507,6883.915261,-1149.143247
1201.717972,-11695.253884,6291.750507,-689.485948
1201.718293,-11991.336260,4219.173869,153.219100
1201.718614,-12509.480420,1776.494261,2221.676944
1201.718935,-11251.130318,-1258.350101,3140.991542
1201.719256,-10140.821405,-3849.070898,3140.991542
1201.719576,-8660.409521,-5773.606348,3600.648841
1201.719897,-8512.368333,-6513.812290,3524.039291
1201.720218,-8216.285956,-6069.688724,2987.772442
1201.720539,-7994.224174,-5625.565159,3600.648841
1201.720860,-7476.080014,-4737.318029,2451.505594
1201.721181,-7846.182985,-3182.885551,306.438199
1201.721502,-8068.244768,148.041188,-306.438199
1201.721823,-9474.636058,3478.967927,-995.924147
1201.722144,-10066.800811,5773.606348,-766.095498
1201.722465,-11029.068536,6439.791695,-612.876398
1201.722786,-11399.171507,6217.729913,-536.266849
1201.723107,-11769.274478,4811.338623,76.609550
1201.723428,-12139.377449,2738.761985,1532.190996
1201.723749,-11399.171507,0.000000,2528.115143
1201.724070,-9770.718434,-3627.009116,2451.505594
1201.724391,-8438.347739,-5921.647536,1608.800546
1201.724712,-8364.327145,-6365.771101,2681.334243
1201.725033,-8216.285956,-6217.729913,3753.867940
1201.725354,-8290.306550,-5477.523971,3600.648841
1201.725675,-7772.162391,-4737.318029,2681.334243
1201.725996,-7624.121203,-3552.988522,-229.828649
1201.726317,-7846.182985,-1036.288319,-1378.971896
1201.726638,-8660.409521,2294.638420,-1608.800546
1201.726959,-9622.677246,5181.441594,-1915.238745
1201.727280,-10288.862594,6587.832884,-1838.629195
1201.727600,-11177.109724,6513.812290,-1762.019645
1201.727921,-11843.295072,5255.462188,-459.657299
1201.728242,-12435.459826,3182.885551,1532.190996
1201.728563,-12139.377449,518.144159,2068.457845
1201.728884,-10510.924376,-2738.761985,2757.943793
1201.729205,-9326.594869,-5329.482782,2681.334243
1201.729526,-8660.409521,-6809.894666,3064.381992
1201.729847,-8068.244768,-7402.059420,3907.087040
1201.730168,-7846.182985,-6809.894666,3907.087040
1201.730489,-7624.121203,-5329.482782,2298.286494
1201.730810,-7698.141797,-3775.050304,612.876398
1201.731131,-8438.347739,-444.123565,-766.095498
1201.731452,-8290.306550,3182.885551,383.047749
1201.731773,-10288.862594,5995.668130,-1378.971896
1201.732094,-10658.965565,7179.997637,-1302.362347
1201.732415,-11325.150913,6809.894666,-1991.848295
1201.732736,-11991.336260,5699.585753,-689.485948
1201.733057,-12731.542202,4145.153275,536.266849
1201.733378,-11769.274478,1776.494261,2145.067394
1201.733699,-10658.965565,-1110.308913,2298.286494
1201.734020,-9252.574275,-3849.070898,1685.410096
1201.734341,-8734.430116,-5107.421000,2681.334243
1201.734662,-8586.388927,-5773.606348,3370.820191
1201.734983,-8216.285956,-5329.482782,3830.477490
1201.735303,-7624.121203,-4737.318029,2911.162892
1201.735624,-7846.182985,-4293.194464,1072.533697
1201.735945,-7402.059420,-1998.556043,-766.095498
1201.736266,-8660.409521,1480.411884,-1302.362347
1201.736587,-9770.718434,4959.379811,-1225.752797
1201.736908,-9844.739029,6883.915261,-1685.410096
1201.737229,-10658.965565,6735.874072,-383.047749
1201.737550,-11621.233289,5773.606348,-536.266849
1201.737871,-11695.253884,3552.988522,842.705048
1201.738192,-11917.315666,1406.391290,1762.019645
1201.738513,-10732.986159,-1998.556043,2604.724693
1201.738834,-9326.594869,-4515.256246,2911.162892
1201.739155,-8808.450710,-6365.771101,3753.867940
1201.739476,-7994.224174,-7105.977043,3907.087040
1201.739797,-7772.162391,-6513.812290,3983.696590
1201.740118,-7179.997637,-6069.688724,2987.772442
1201.740439,-7402.059420,-4737.318029,1378.971896
1201.740760,-7994.224174,-2368.659014,0.000000
1201.741081,-8438.347739,1184.329507,-919.314598
1201.741402,-9844.739029,4811.338623,-1915.238745
1201.741723,-9770.718434,6809.894666,-1378.971896
1201.742044,-11177.109724,7105.977043,-1225.752797
1201.742365,-11621.233289,6661.853478,-766.095498
1201.742686,-12139.377449,4663.297435,459.657299
1201.743006,-12213.398043,2516.700203,1378.971896
1201.743327,-11251.130318,-296.082377,2451.505594
1201.743648,-10214.842000,-3330.926739,2681.334243
1201.743969,-9178.553681,-5477.523971,3140.991542
1201.744290,-8512.368333,-6661.853478,3677.258390
1201.744611,-8216.285956,-6661.853478,3677.258390
1201.744932,-7846.182985,-5995.668130,3294.210641
1201.745253,-7550.100608,-5255.462188,1455.581446
1201.745574,-8068.244768,-3108.864956,1072.533697
1201.745895,-8734.430116,-370.102971,-1149.143247
1201.746216,-9622.677246,2590.720797,-1225.752797
1201.746537,-10288.862594,5107.421000,-2298.286494
1201.746858,-11399.171507,6439.791695,-3140.991542
1201.747179,-11769.274478,6661.853478,-1532.190996
1201.747500,-12509.480420,4811.338623,-612.876398
1201.747821,-11843.295072,2960.823768,229.828649
1201.748142,-11399.171507,0.000000,1762.019645
1201.748463,-9548.656652,-3478.967927,2221.676944
1201.748784,-9030.512492,-6217.729913,2451.505594
1201.749105,-8216.285956,-7402.059420,3064.381992
1201.749426,-7846.182985,-7624.121203,3830.477490
1201.749747,-7476.080014,-7105.977043,3907.087040
1201.750068,-7402.059420,-5255.462188,2681.334243
1201.750389,-7772.162391,-3478.967927,919.314598
1201.750709,-8216.285956,148.041188,0.000000
1201.751030,-8660.409521,3775.050304,766.095498
1201.751351,-9696.697840,6513.812290,-1072.533697
1201.751672,-10214.842000,7179.997637,-612.876398
1201.751993,-11547.212695,6883.915261,-383.047749
1201.752314,-11843.295072,5107.421000,536.266849
1201.752635,-11991.336260,3256.906145,2068.457845
1201.752956,-11695.253884,592.164754,3064.381992
1201.753277,-10362.883188,-2960.823768,3064.381992
1201.753598,-9178.553681,-4885.359217,2757.943793
1201.753919,-8808.450710,-6143.709319,5056.230287
1201.754240,-8068.244768,-6069.688724,4213.525239
1201.754561,-7698.141797,-5625.565159,3677.258390
1201.754882,-7550.100608,-4885.359217,2911.162892
1201.755203,-7624.121203,-4071.132681,1915.238745
1201.755524,-7550.100608,-888.247130,-766.095498
1201.755845,-9104.533087,2368.659014,-383.047749
1201.756166,-10140.821405,4589.276840,-1072.533697
1201.756487,-9770.718434,6809.894666,-1302.362347
1201.756808,-11843.295072,7031.956449,-1608.800546
1201.757129,-11769.274478,6661.853478,-612.876398
1201.757450,-11399.171507,3701.029710,-612.876398
1201.757771,-12287.418637,2146.597232,2221.676944
1201.758092,-9326.594869,-2368.659014,2068.457845
1201.758413,-9770.718434,-4737.318029,2068.457845
1201.758733,-8660.409521,-6735.874072,3294.210641
1201.759054,-8142.265362,-6809.894666,3064.381992
1201.759375,-8364.327145,-5921.647536,3140.991542
1201.759696,-7846.182985,-4737.318029,3217.601092
1201.760017,-7105.977043,-3256.906145,1072.533697
1201.760338,-8586.388927,-1628.453072,-919.314598
1201.760659,-8290.306550,1850.514855,-1608.800546
1201.760980,-9622.677246,4737.318029,-2145.067394
1201.761301,-10436.903782,7105.977043,-1608.800546
1201.761622,-10881.027347,7402.059420,-1302.362347
1201.761943,-11843.295072,6513.812290,-612.876398
1201.762264,-11843.295072,4515.256246,1072.533697
1201.762585,-11991.336260,2664.741391,2145.067394
1201.762906,-10881.027347,-666.185348,2451.505594
1201.763227,-9252.574275,-3552.988522,2068.457845
1201.763548,-8660.409521,-5403.503377,1991.848295
1201.763869,-7846.182985,-5847.626942,3524.039291
1201.764190,-8364.327145,-5921.647536,3983.696590
1201.764511,-7772.162391,-5181.441594,3447.429741
1201.764832,-7402.059420,-4811.338623,1378.971896
1201.765153,-7476.080014,-2886.803174,153.219100
1201.765474,-8216.285956,518.144159,-1072.533697
1201.765795,-9400.615463,3701.029710,-1149.143247
1201.766116,-9992.780217,6587.832884,-1225.752797
1201.766436,-10807.006753,7328.038826,-1685.410096
1201.766757,-11547.212695,6365.771101,-689.485948
1201.767078,-12065.356855,4145.153275,383.047749
1201.767399,-11991.336260,1628.453072,1991.848295
1201.767720,-11547.212695,-1554.432478,3064.381992
1201.768041,-10066.800811,-4293.194464,3370.820191
1201.768362,-9030.512492,-6513.812290,3447.429741
1201.768683,-8216.285956,-7254.018232,4136.915689
1201.769004,-7846.182985,-7031.956449,4673.182538
1201.769325,-7772.162391,-6069.688724,4519.963438
1201.769646,-7328.038826,-5329.482782,2911.162892
1201.769967,-7772.162391,-3552.988522,306.438199
1201.770288,-8290.306550,-222.061783,-766.095498
1201.770609,-8734.430116,3182.885551,0.000000
1201.770930,-9770.718434,5921.647536,-1072.533697
1201.771251,-10881.027347,7476.080014,-919.314598
1201.771572,-11769.274478,6513.812290,-536.266849
1201.771893,-11843.295072,4811.338623,-229.828649
1201.772214,-12213.398043,2368.659014,1149.143247
1201.772535,-11325.150913,148.041188,2298.286494
1201.772856,-10436.903782,-2442.679609,2681.334243
1201.773177,-9474.636058,-4885.359217,2757.943793
1201.773498,-8216.285956,-6513.812290,2757.943793
1201.773819,-8142.265362,-6883.915261,3217.601092
1201.774139,-8068.244768,-6069.688724,3447.429741
1201.774460,-7772.162391,-5033.400406,2298.286494
1201.774781,-7105.977043,-4589.276840,383.047749
1201.775102,-7920.203579,-1258.350101,-1302.362347
1201.775423,-8586.388927,2368.659014,-2221.676944
1201.775744,-9622.677246,5255.462188,-2145.067394
1201.776065,-11473.192101,7624.121203,-3294.210641
1201.776386,-11547.212695,6661.853478,-2374.896044
1201.776707,-12213.398043,5329.482782,-1225.752797
1201.777028,-12139.377449,3478.967927,229.828649
1201.777349,-11769.274478,1110.308913,1838.629195
1201.777670,-10288.862594,-2072.576638,2298.286494
1201.777991,-9474.636058,-4959.379811,2604.724693
1201.778312,-8734.430116,-7402.059420,3370.820191
1201.778633,-7772.162391,-7920.203579,3600.648841
1201.778954,-6809.894666,-7994.224174,3524.039291
1201.779275,-7328.038826,-5921.647536,3064.381992
1201.779596,-7328.038826,-4071.132681,1455.581446
1201.779917,-7698.141797,-1184.329507,-306.438199
1201.780238,-8290.306550,1998.556043,-1991.848295
1201.780559,-9770.718434,5625.565159,-995.924147
1201.780880,-10584.944971,7179.997637,-1149.143247
1201.781201,-11769.274478,7179.997637,-153.219100
1201.781522,-12213.398043,6365.771101,153.219100
1201.781843,-12361.439231,4071.132681,1225.752797
1201.782163,-12065.356855,1628.453072,2298.286494
1201.782484,-10510.924376,-1924.535449,2911.162892
1201.782805,-9178.553681,-4441.235652,2834.553343
1201.783126,-8438.347739,-5625.565159,3753.867940
1201.783447,-7994.224174,-6217.729913,3370.820191
1201.783768,-7772.162391,-5699.585753,3830.477490
1201.784089,-7846.182985,-4737.318029,3294.210641
1201.784410,-7846.182985,-4219.173869,1762.019645
1201.784731,-8068.244768,-2368.659014,153.219100
1201.785052,-8586.388927,740.205942,-536.266849
1201.785373,-9622.677246,3404.947333,-1455.581446
1201.785694,-10362.883188,5921.647536,-1532.190996
1201.786015,-10955.047942,6883.915261,-1455.581446
1201.786336,-11769.274478,7179.997637,-1072.533697
1201.786657,-12139.377449,5181.441594,0.000000
1201.786978,-12065.356855,2368.659014,1072.533697
1201.787299,-11399.171507,-1036.288319,2221.676944
1201.787620,-9844.739029,-4737.318029,2374.896044
1201.787941,-9104.533087,-6365.771101,2757.943793
1201.788262,-8660.409521,-7254.018232,3370.820191
1201.788583,-7402.059420,-7031.956449,3677.258390
1201.788904,-7994.224174,-5403.503377,3677.258390
1201.789225,-7476.080014,-4293.194464,1838.629195
1201.789546,-7846.182985,-2516.700203,-536.266849
1201.789866,-7846.182985,888.247130,-1915.238745
1201.790187,-9326.594869,4145.153275,-2451.505594
1201.790508,-9844.739029,6365.771101,-2374.896044
1201.790829,-10807.006753,7254.018232,-2221.676944
1201.791150,-11399.171507,6661.853478,-1608.800546
1201.791471,-12139.377449,4737.318029,-229.828649
1201.791792,-12509.480420,2442.679609,1455.581446
1201.792113,-11769.274478,-444.123565,2451.505594
1201.792433,-10214.842000,-3478.967927,2681.334243
1201.792754,-9104.533087,-5625.565159,4903.011187
1201.793075,-8290.306550,-6217.729913,3524.039291
1201.793396,-7920.203579,-6661.853478,3907.087040
1201.793716,-7846.182985,-5995.668130,3907.087040
1201.794037,-7179.997637,-5033.400406,2528.115143
1201.794358,-7624.121203,-4219.173869,306.438199
1201.794679,-7994.224174,-1110.308913,-153.219100
1201.794999,-9178.553681,2368.659014,-995.924147
1201.795320,-9844.739029,5181.441594,-995.924147
1201.795641,-10362.883188,6291.750507,-1225.752797
1201.795962,-11399.171507,6661.853478,-919.314598
1201.796282,-11917.315666,5033.400406,-306.438199
1201.796603,-11991.336260,2516.700203,1225.752797
1201.796924,-11621.233289,0.000000,4136.915689
1201.797245,-10214.842000,-3182.885551,2681.334243
1201.797565,-9326.594869,-5847.626942,3217.601092
1201.797886,-8808.450710,-6883.915261,4213.525239
1201.798207,-8290.306550,-7402.059420,4519.963438
1201.798528,-7920.203579,-6439.791695,4443.353888
1201.798848,-7698.141797,-5329.482782,3064.381992
1201.799169,-7476.080014,-3701.029710,1072.533697
1201.799490,-8364.327145,-1554.432478,-383.047749
1201.799811,-8438.347739,1924.535449,-1685.410096
1201.800131,-9770.718434,5625.565159,-1915.238745
1201.800452,-10510.924376,7254.018232,-1302.362347
1201.800773,-11621.233289,7624.121203,-842.705048
1201.801094,-12065.356855,5995.668130,-459.657299
1201.801414,-12361.439231,3923.091493,153.219100
1201.801735,-11917.315666,1406.391290,1455.581446
1201.802056,-10658.965565,-1924.535449,1915.238745
1201.802377,-9474.636058,-4515.256246,2145.067394
1201.802697,-8660.409521,-5921.647536,2528.115143
1201.803018,-8512.368333,-5921.647536,3217.601092
1201.803339,-8290.306550,-5625.565159,3600.648841
1201.803660,-7772.162391,-4885.359217,2528.115143
1201.803980,-7031.956449,-2738.761985,1532.190996
1201.804301,-8290.306550,-1258.350101,-612.876398
1201.804622,-8142.265362,1776.494261,-1455.581446
1201.804943,-9474.636058,4885.359217,-1915.238745
1201.805263,-10066.800811,6883.915261,-459.657299
1201.805584,-10955.047942,7105.977043,-1608.800546
1201.805905,-11769.274478,6439.791695,-766.095498
1201.806226,-11991.336260,4145.153275,229.828649
1201.806546,-11769.274478,1776.494261,1762.019645
1201.806867,-10658.965565,-1480.411884,3064.381992
1201.807188,-9252.574275,-4737.318029,2681.334243
1201.807509,-8734.430116,-6661.853478,3370.820191
1201.807829,-8216.285956,-7254.018232,3830.477490
1201.808150,-7402.059420,-6439.791695,6511.811733
1201.808471,-7328.038826,-5255.462188,3217.601092
1201.808792,-7550.100608,-3478.967927,1762.019645
1201.809112,-7994.224174,-1406.391290,229.828649
1201.809433,-8438.347739,1998.556043,-689.485948
1201.809754,-9622.677246,4737.318029,-1072.533697
1201.810075,-10362.883188,6661.853478,-1302.362347
1201.810396,-11251.130318,7179.997637,-1072.533697
1201.810716,-11547.212695,6143.709319,-459.657299
1201.811037,-12139.377449,4441.235652,1149.143247
1201.811358,-11843.295072,3182.885551,2298.286494
1201.811679,-11473.192101,-666.185348,3064.381992
1201.811999,-9400.615463,-3478.967927,2451.505594
1201.812320,-8512.368333,-4737.318029,1685.410096
1201.812641,-8216.285956,-5847.626942,3677.258390
1201.812962,-8660.409521,-5403.503377,4290.134789
1201.813282,-7772.162391,-4811.338623,3830.477490
1201.813603,-7846.182985,-4219.173869,2221.676944
1201.813924,-8290.306550,-2886.803174,229.828649
1201.814245,-8364.327145,-296.082377,-1072.533697
1201.814565,-9622.677246,3256.906145,-919.314598
1201.814886,-10066.800811,5921.647536,-1378.971896
1201.815207,-10584.944971,7105.977043,-1302.362347
1201.815528,-11769.274478,6661.853478,-919.314598
1201.815848,-11843.295072,4441.235652,76.609550
1201.816169,-11843.295072,1850.514855,1378.971896
1201.816490,-11769.274478,-1184.329507,2374.896044
1201.816811,-9622.677246,-4663.297435,2145.067394
1201.817131,-9178.553681,-6513.812290,2681.334243
1201.817452,-8216.285956,-7105.977043,3217.601092
1201.817773,-7920.203579,-6439.791695,3600.648841
1201.818094,-7920.203579,-5403.503377,3447.429741
1201.818414,-7772.162391,-4293.194464,1838.629195
1201.818735,-7846.182985,-2812.782580,383.047749
1201.819056,-8512.368333,0.000000,-919.314598
1201.819377,-9326.594869,3256.906145,-1762.019645
1201.819697,-10140.821405,5403.503377,-1149.143247
1201.820018,-10436.903782,6069.688724,-919.314598
1201.820339,-11473.192101,5699.585753,-766.095498
1201.820660,-11325.150913,4885.359217,153.219100
1201.820980,-11843.295072,2368.659014,1532.190996
1201.821301,-11177.109724,-296.082377,2451.505594
1201.821622,-9696.697840,-3182.885551,2451.505594
1201.821943,-9030.512492,-5477.523971,2451.505594
1201.822263,-8512.368333,-6439.791695,3447.429741
1201.822584,-8216.285956,-6735.874072,4060.306139
1201.822905,-8290.306550,-6143.709319,3753.867940
1201.823226,-7698.141797,-5329.482782,2604.724693
1201.823546,-7994.224174,-3552.988522,766.095498
1201.823867,-7846.182985,-1036.288319,-995.924147
1201.824188,-8438.347739,2368.659014,-1762.019645
1201.824509,-9474.636058,5255.462188,-2221.676944
1201.824829,-9474.636058,7105.977043,-1685.410096
1201.825150,-11251.130318,6735.874072,-1608.800546
1201.825471,-12361.439231,5773.606348,-229.828649
1201.825792,-12287.418637,3627.009116,1072.533697
1201.826112,-12361.439231,888.247130,2528.115143
1201.826433,-11177.109724,-2220.617826,2757.943793
1201.826754,-9474.636058,-4515.256246,2757.943793
1201.827075,-9252.574275,-6069.688724,3677.258390
1201.827395,-8142.265362,-6735.874072,3447.429741
1201.827716,-7846.182985,-6291.750507,3370.820191
1201.828037,-7624.121203,-5107.421000,2068.457845
1201.828358,-7698.141797,-3034.844362,306.438199
1201.828678,-8512.368333,-370.102971,-459.657299
1201.828999,-9548.656652,2664.741391,-689.485948
1201.829320,-9770.718434,5477.523971,-1838.629195
1201.829641,-10955.047942,6957.935855,-1149.143247
1201.829961,-11547.212695,6809.894666,-1072.533697
1201.830282,-11991.336260,5773.606348,842.705048
1201.830603,-12435.459826,3849.070898,995.924147
1201.830924,-11695.253884,2368.659014,1991.848295
1201.831244,-10436.903782,-1110.308913,2145.067394
1201.831565,-9104.533087,-3923.091493,2374.896044
1201.831886,-8216.285956,-5403.503377,2068.457845
1201.832207,-7920.203579,-6291.750507,2757.943793
1201.832527,-7994.224174,-5477.523971,3524.039291
1201.832848,-7846.182985,-4663.297435,3064.381992
1201.833169,-7254.018232,-3775.050304,2221.676944
1201.833490,-8290.306550,-1850.514855,306.438199
1201.833811,-8290.306550,962.267725,-766.095498
1201.834131,-9474.636058,3775.050304,-1532.190996
1201.834452,-9844.739029,6439.791695,-3294.210641
1201.834773,-10584.944971,6883.915261,-1149.143247
1201.835094,-11177.109724,6069.688724,-612.876398
1201.835414,-11843.295072,3997.112087,229.828649
1201.835735,-11769.274478,2072.576638,1762.019645
1201.836056,-11325.150913,-666.185348,2451.505594
1201.836377,-9474.636058,-3404.947333,2834.553343
1201.836697,-9400.615463,-5773.606348,3753.867940
1201.837018,-8216.285956,-6957.935855,3677.258390
1201.837339,-8364.327145,-7031.956449,4060.306139
1201.837660,-7698.141797,-5773.606348,3294.210641
1201.837980,-7772.162391,-4441.235652,1991.848295
1201.838301,-8068.244768,-2368.659014,306.438199
1201.838622,-8438.347739,888.247130,-1302.362347
1201.838943,-9252.574275,4441.235652,-1685.410096
1201.839263,-10214.842000,6513.812290,-1685.410096
1201.839584,-11325.150913,7550.100608,-689.485948
1201.839905,-12065.356855,6587.832884,-306.438199
1201.840226,-11917.315666,4293.194464,383.047749
1201.840546,-11991.336260,1850.514855,1762.019645
1201.840867,-11177.109724,-1776.494261,2145.067394
1201.841188,-9770.718434,-4441.235652,2298.286494
1201.841509,-8956.491898,-6069.688724,1685.410096
1201.841829,-8438.347739,-6365.771101,3140.991542
1201.842150,-8290.306550,-5847.626942,3753.867940
1201.842471,-8068.244768,-5255.462188,3447.429741
1201.842792,-8142.265362,-4737.318029,2528.115143
1201.843112,-8142.265362,-3552.988522,459.657299
1201.843433,-8364.327145,-1184.329507,-1149.143247
1201.843754,-8734.430116,2220.617826,-1762.019645
1201.844075,-9622.677246,5033.400406,-1915.238745
1201.844395,-10732.986159,6735.874072,-1378.971896
1201.844716,-11473.192101,6513.812290,-842.705048
1201.845037,-11917.315666,4737.318029,0.000000
1201.845358,-12065.356855,2368.659014,1378.971896
1201.845678,-11769.274478,-370.102971,2451.505594
1201.845999,-10288.862594,-3404.947333,2528.115143
1201.846320,-9326.594869,-5403.503377,2911.162892
1201.846641,-8364.327145,-6735.874072,3294.210641
1201.846961,-7254.018232,-6661.853478,4366.744339
1201.847282,-7476.080014,-5921.647536,3294.210641
1201.847603,-7254.018232,-4515.256246,2145.067394
1201.847924,-8068.244768,-3404.947333,459.657299
1201.848244,-7624.121203,-222.061783,-689.485948
1201.848565,-9252.574275,2886.803174,-1072.533697
1201.848886,-9918.759623,5255.462188,-1225.752797
1201.849207,-10436.903782,6439.791695,-1072.533697
1201.849527,-11473.192101,5847.626942,-689.485948
1201.849848,-11769.274478,5477.523971,153.219100
1201.850169,-12361.439231,3034.844362,1225.752797
1201.850490,-11621.233289,592.164754,2451.505594
1201.850810,-10140.821405,-2368.659014,2528.115143
1201.851131,-9326.594869,-4811.338623,1991.848295
1201.851452,-8438.347739,-5995.668130,3370.820191
1201.851773,-8364.327145,-6587.832884,3447.429741
1201.852093,-8142.265362,-5921.647536,3524.039291
1201.852414,-7994.224174,-4663.297435,2987.772442
1201.852735,-8290.306550,-3330.926739,1072.533697
1201.853056,-8142.265362,-1036.288319,0.000000
1201.853376,-9030.512492,2294.638420,-995.924147
1201.853697,-9918.759623,5181.441594,-1378.971896
1201.854018,-10066.800811,6217.729913,-1762.019645
1201.854339,-11769.274478,7254.018232,-1302.362347
1201.854659,-11991.336260,6587.832884,-919.314598
1201.854980,-12287.418637,4663.297435,766.095498
1201.855301,-11843.295072,2220.617826,153.219100
1201.855622,-10584.944971,-1480.411884,1838.629195
1201.855942,-9474.636058,-4293.194464,1915.238745
1201.856263,-8956.491898,-5847.626942,1991.848295
1201.856584,-7920.203579,-6365.771101,2604.724693
1201.856905,-7328.038826,-5699.585753,2987.772442
1201.857226,-7476.080014,-5107.421000,2451.505594
1201.857546,-7402.059420,-3923.091493,1072.533697
1201.857867,-8290.306550,-2072.576638,-153.219100
1201.858188,-8290.306550,518.144159,-1225.752797
1201.858509,-9400.615463,3923.091493,-1302.362347
1201.858829,-10214.842000,5995.668130,-842.705048
1201.859150,-10955.047942,7105.977043,-612.876398
1201.859471,-11547.212695,6291.750507,306.438199
1201.859792,-12065.356855,4441.235652,1072.533697
1201.860112,-11695.253884,1924.535449,2221.676944
1201.860433,-10807.006753,-1480.411884,2298.286494
1201.860754,-9400.615463,-4145.153275,2145.067394
1201.861075,-8364.327145,-5625.565159,2451.505594
1201.861395,-7994.224174,-5329.482782,3524.039291
1201.861716,-8068.244768,-4885.359217,4136.915689
1201.862037,-8068.244768,-4737.318029,3447.429741
1201.862358,-6735.874072,-3997.112087,2145.067394
1201.862678,-8586.388927,-2960.823768,76.609550
1201.862999,-8216.285956,148.041188,-766.095498
1201.863320,-9622.677246,2960.823768,-1072.533697
1201.863641,-10140.821405,6069.688724,-1455.581446
1201.863961,-10288.862594,6809.894666,-1608.800546
1201.864282,-11621.233289,6439.791695,-1072.533697
1201.864603,-11843.295072,4737.318029,0.000000
1201.864924,-11843.295072,1924.535449,1149.143247
1201.865244,-11177.109724,-1406.391290,2298.286494
1201.865565,-9400.615463,-4293.194464,2145.067394
1201.865886,-9030.512492,-6365.771101,2757.943793
1201.866207,-8808.450710,-7105.977043,3753.867940
1201.866527,-8882.471304,-4737.318029,3370.820191
1201.866848,-8290.306550,-5329.482782,3370.820191
1201.867169,-7550.100608,-4293.194464,1915.238745
1201.867490,-7994.224174,-2664.741391,383.047749
1201.867810,-8660.409521,0.000000,-383.047749
1201.868131,-9104.533087,2664.741391,-1685.410096
1201.868452,-9770.718434,5403.503377,-1302.362347
1201.868773,-11177.109724,6513.812290,-1225.752797
1201.869093,-11695.253884,6661.853478,-612.876398
1201.869414,-12435.459826,5033.400406,153.219100
1201.869735,-12287.418637,2886.803174,1302.362347
1201.870056,-11769.274478,222.061783,2451.505594
1201.870376,-10066.800811,-3034.844362,2451.505594
1201.870697,-9252.574275,-5699.585753,1838.629195
1201.871018,-8364.327145,-6365.771101,2987.772442
1201.871339,-8068.244768,-6291.750507,3064.381992
1201.871659,-7772.162391,-5329.482782,3217.601092
1201.871980,-7402.059420,-4515.256246,459.657299
1201.872301,-7846.182985,-3182.885551,612.876398
1201.872622,-8216.285956,-740.205942,-306.438199
1201.872942,-8956.491898,1924.535449,-1072.533697
1201.873263,-9474.636058,4737.318029,-1838.629195
1201.873584,-10362.883188,6291.750507,-1378.971896
1201.873905,-11325.150913,6587.832884,-1455.581446
1201.874225,-11695.253884,5329.482782,0.000000
1201.874546,-11917.315666,2590.720797,1302.362347
1201.874867,-11325.150913,1258.350101,2298.286494
1201.875188,-10436.903782,-2886.803174,2374.896044
1201.875508,-9326.594869,-5255.462188,2987.772442
1201.875829,-8586.388927,-6217.729913,3140.991542
1201.876150,-8290.306550,-5699.585753,3524.039291
1201.876471,-7772.162391,-5699.585753,3524.039291
1201.876791,-7328.038826,-5107.421000,2681.334243
1201.877112,-7698.141797,-3997.112087,1149.143247
1201.877433,-8290.306550,-1480.411884,-536.266849
1201.877754,-8956.491898,2220.617826,-1072.533697
1201.878074,-9992.780217,5329.482782,-1532.190996
1201.878395,-10584.944971,7476.080014,-1149.143247
1201.878716,-11547.212695,7550.100608,-842.705048
1201.879037,-12731.542202,6809.894666,-383.047749
1201.879357,-12213.398043,4219.173869,306.438199
1201.879678,-11843.295072,1924.535449,1915.238745
1201.879999,-10807.006753,-1924.535449,2451.505594
1201.880320,-9474.636058,-4737.318029,3524.039291
1201.880641,-8586.388927,-6143.709319,2298.286494
1201.880961,-8216.285956,-6217.729913,2987.772442
1201.881282,-8068.244768,-5403.503377,3217.601092
1201.881603,-7846.182985,-4663.297435,2987.772442
1201.881924,-7105.977043,-4145.153275,1532.190996
1201.882244,-8216.285956,-2072.576638,0.000000
1201.882565,-8586.388927,1036.288319,-919.314598
1201.882886,-9474.636058,3627.009116,-1608.800546
1201.883207,-9844.739029,6365.771101,-1685.410096
1201.883527,-11029.068536,7105.977043,-1685.410096
1201.883848,-11621.233289,6439.791695,-536.266849
1201.884169,-11769.274478,4219.173869,229.828649
1201.884490,-11621.233289,1850.514855,1378.971896
1201.884810,-11251.130318,-1406.391290,2298.286494
1201.885131,-9622.677246,-4071.132681,2451.505594
1201.885452,-8734.430116,-5699.585753,3294.210641
1201.885773,-8290.306550,-6143.709319,3753.867940
1201.886093,-7994.224174,-6069.688724,3830.477490
1201.886414,-7698.141797,-5551.544565,3294.210641
1201.886735,-7476.080014,-3849.070898,2221.676944
1201.887056,-8068.244768,-2738.761985,306.438199
1201.887376,-7920.203579,888.247130,306.438199
1201.887697,-9474.636058,3849.070898,-1225.752797
1201.888018,-9474.636058,6587.832884,-1991.848295
1201.888339,-11325.150913,7550.100608,-919.314598
1201.888659,-11917.315666,7031.956449,1072.533697
1201.888980,-11991.336260,4959.379811,842.705048
1201.889301,-12583.501014,2072.576638,1991.848295
1201.889622,-11473.192101,-814.226536,2834.553343
1201.889942,-9918.759623,-4219.173869,2451.505594
1201.890263,-9400.615463,-5699.585753,2757.943793
1201.890584,-8290.306550,-6291.750507,3524.039291
1201.890905,-8068.244768,-5921.647536,3677.258390
1201.891225,-7772.162391,-5551.544565,3294.210641
1201.891546,-8142.265362,-3849.070898,1762.019645
1201.891867,-8068.244768,-3849.070898,229.828649
1201.892188,-8512.368333,-1184.329507,-766.095498
1201.892508,-9178.553681,2442.679609,-1378.971896
1201.892829,-10140.821405,5033.400406,-1532.190996
1201.893150,-10510.924376,6587.832884,-1149.143247
1201.893471,-11621.233289,5847.626942,-383.047749
1201.893791,-11917.315666,4367.215058,-153.219100
1201.894112,-12287.418637,2294.638420,1225.752797
1201.894433,-11621.233289,-370.102971,1991.848295
1201.894754,-10140.821405,-3404.947333,2528.115143
1201.895075,-9326.594869,-5995.668130,2987.772442
1201.895395,-8142.265362,-7179.997637,3447.429741
1201.895716,-7846.182985,-8142.265362,4903.011187
1201.896037,-7550.100608,-6735.874072,3370.820191
1201.896358,-7254.018232,-5329.482782,2451.505594
1201.896679,-7846.182985,-3775.050304,612.876398
1201.896999,-8290.306550,-518.144159,-612.876398
1201.897320,-9178.553681,3256.906145,-1532.190996
1201.897641,-9992.780217,6143.709319,-1532.190996
1201.897962,-10807.006753,7624.121203,-1302.362347
1201.898283,-11547.212695,7105.977043,-612.876398
1201.898603,-11695.253884,5255.462188,-383.047749
1201.898924,-12287.418637,3108.864956,842.705048
1201.899245,-11991.336260,1110.308913,1991.848295
1201.899566,-10658.965565,-1924.535449,2221.676944
1201.899887,-9474.636058,-3923.091493,2451.505594
1201.900207,-8956.491898,-5329.482782,2528.115143
1201.900528,-8216.285956,-5921.647536,3294.210641
1201.900849,-7920.203579,-5699.585753,3294.210641
1201.901170,-7624.121203,-5329.482782,2681.334243
1201.901491,-8142.265362,-3923.091493,1225.752797
1201.901811,-8142.265362,-1924.535449,0.000000
1201.902132,-8660.409521,1406.391290,-919.314598
1201.902453,-9548.656652,4515.256246,-1455.581446
1201.902774,-9844.739029,6217.729913,-306.438199
1201.903095,-11399.171507,6809.894666,-995.924147
1201.903415,-11621.233289,5921.647536,-536.266849
1201.903736,-11843.295072,3997.112087,229.828649
1201.904057,-11843.295072,814.226536,1608.800546
1201.904378,-10807.006753,-1332.370696,2604.724693
1201.904699,-9474.636058,-4737.318029,2374.896044
1201.905019,-8290.306550,-6143.709319,2604.724693
1201.905340,-7624.121203,-6661.853478,2834.553343
1201.905661,-7624.121203,-6069.688724,3294.210641
1201.905982,-7105.977043,-5033.400406,2757.943793
1201.906303,-7328.038826,-3034.844362,1072.533697
1201.906623,-7994.224174,-1036.288319,-306.438199
1201.906944,-8882.471304,2516.700203,-1302.362347
1201.907265,-9844.739029,5181.441594,-842.705048
1201.907586,-10658.965565,6735.874072,-1149.143247
1201.907907,-11251.130318,7550.100608,-995.924147
1201.908227,-12065.356855,5699.585753,0.000000
1201.908548,-11769.274478,4515.256246,536.266849
1201.908869,-12139.377449,2146.597232,1838.629195
1201.909190,-10732.986159,-1110.308913,2221.676944
1201.909511,-9474.636058,-3552.988522,2145.067394
1201.909831,-9178.553681,-5625.565159,2068.457845
1201.910152,-8216.285956,-6143.709319,3370.820191
1201.910473,-8142.265362,-5773.606348,3830.477490
1201.910794,-8142.265362,-5181.441594,3830.477490
1201.911115,-7846.182985,-4589.276840,3753.867940
1201.911435,-8438.347739,-2960.823768,689.485948
1201.911756,-8142.265362,0.000000,-612.876398
1201.912077,-9474.636058,3256.906145,-766.095498
1201.912398,-10214.842000,6143.709319,-1302.362347
1201.912719,-10732.986159,6661.853478,-1072.533697
1201.913039,-11325.150913,6143.709319,-995.924147
1201.913360,-11843.295072,4145.153275,-536.266849
1201.913681,-12213.398043,1924.535449,1225.752797
1201.914002,-11177.109724,-592.164754,2451.505594
1201.914323,-9992.780217,-3478.967927,2604.724693
1201.914643,-9474.636058,-5255.462188,3140.991542
1201.914964,-8586.388927,-6513.812290,3830.477490
1201.915285,-7698.141797,-6809.894666,3753.867940
1201.915606,-8142.265362,-6217.729913,3983.696590
1201.915927,-7402.059420,-4885.359217,2681.334243
1201.916247,-7994.224174,-3627.009116,1072.533697
1201.916568,-8290.306550,-444.123565,-153.219100
1201.916889,-8660.409521,2516.700203,-536.266849
1201.917210,-9770.718434,5329.482782,-1378.971896
1201.917531,-10510.924376,6809.894666,-995.924147
1201.917851,-11473.192101,6365.771101,-842.705048
1201.918172,-12065.356855,4663.297435,-306.438199
1201.918493,-11843.295072,2220.617826,1302.362347
1201.918814,-11621.233289,-592.164754,1991.848295
1201.919135,-9918.759623,-3849.070898,2451.505594
1201.919455,-9252.574275,-4959.379811,2681.334243
1201.919776,-8438.347739,-6365.771101,3217.601092
1201.920097,-8068.244768,-6809.894666,3294.210641
1201.920418,-7846.182985,-5995.668130,3907.087040
1201.920739,-7698.141797,-5329.482782,2604.724693
1201.921059,-7550.100608,-3997.112087,459.657299
1201.921380,-8290.306550,-1554.432478,-919.314598
1201.921701,-8216.285956,2220.617826,-1915.238745
1201.922022,-9918.759623,5181.441594,-2221.676944
1201.922343,-11325.150913,7402.059420,-2374.896044
1201.922663,-11473.192101,6883.915261,-1915.238745
1201.922984,-12287.418637,5551.544565,-1225.752797
1201.923305,-11991.336260,3256.906145,0.000000
1201.923626,-12065.356855,1776.494261,306.438199
1201.923947,-11029.068536,-1998.556043,2374.896044
1201.924267,-9400.615463,-4737.318029,2145.067394
1201.924588,-9030.512492,-6143.709319,2911.162892
1201.924909,-7920.203579,-7105.977043,2911.162892
1201.925230,-7846.182985,-6365.771101,2987.772442
1201.925551,-7772.162391,-5329.482782,2221.676944
1201.925871,-7402.059420,-3404.947333,842.705048
1201.926192,-8216.285956,-1184.329507,-995.924147
1201.926513,-9104.533087,2294.638420,-2145.067394
1201.926834,-9770.718434,5699.585753,-1302.362347
1201.927155,-10658.965565,7624.121203,-1225.752797
1201.927475,-11325.150913,7402.059420,-1225.752797
1201.927796,-11917.315666,6513.812290,-1225.752797
1201.928117,-12065.356855,3997.112087,229.828649
1201.928438,-11843.295072,1850.514855,2221.676944
1201.928759,-10881.027347,-1258.350101,2987.772442
1201.929079,-9474.636058,-3923.091493,2681.334243
1201.929400,-8808.450710,-5625.565159,2911.162892
1201.929721,-8142.265362,-5921.647536,3983.696590
1201.930042,-8068.244768,-5847.626942,4290.134789
1201.930363,-7624.121203,-4737.318029,4136.915689
1201.930683,-7031.956449,-4515.256246,5822.325785
1201.931004,-7994.224174,-2220.617826,766.095498
1201.931325,-8512.368333,1036.288319,-153.219100
1201.931646,-9326.594869,4219.173869,-306.438199
1201.931967,-9992.780217,6439.791695,-766.095498
1201.932287,-10436.903782,6883.915261,-1225.752797
1201.932608,-11029.068536,6069.688724,-1149.143247
1201.932929,-11695.253884,4219.173869,-229.828649
1201.933250,-11621.233289,2368.659014,1762.019645
1201.933571,-11029.068536,-962.267725,2911.162892
1201.933891,-9474.636058,-3849.070898,2298.286494
1201.934212,-9326.594869,-5699.585753,3140.991542
1201.934533,-8438.347739,-7031.956449,3370.820191
1201.934854,-8290.306550,-5699.585753,5132.839837
1201.935175,-7994.224174,-6069.688724,3524.039291
1201.935495,-7772.162391,-4663.297435,1762.019645
1201.935816,-7698.141797,-2368.659014,-306.438199
1201.936137,-8586.388927,1184.329507,-995.924147
1201.936458,-9400.615463,4219.173869,-1532.190996
1201.936779,-10140.821405,6661.853478,-1225.752797
1201.937099,-11251.130318,6957.935855,-1608.800546
1201.937420,-11769.274478,6143.709319,-995.924147
1201.937741,-12805.562797,4589.276840,-459.657299
1201.938062,-12509.480420,2294.638420,1532.190996
1201.938383,-11621.233289,-518.144159,2145.067394
1201.938703,-10066.800811,-3923.091493,1838.629195
1201.939024,-9622.677246,-5107.421000,1762.019645
1201.939345,-8808.450710,-6291.750507,2451.505594
1201.939666,-8290.306550,-6069.688724,3524.039291
1201.939987,-8142.265362,-5551.544565,3370.820191
1201.940307,-7624.121203,-5107.421000,1991.848295
1201.940628,-8068.244768,-4219.173869,536.266849
1201.940949,-7772.162391,-962.267725,-1072.533697
1201.941270,-9030.512492,2442.679609,-1149.143247
1201.941591,-10140.821405,5625.565159,-1378.971896
1201.941911,-11103.089130,7328.038826,-766.095498
1201.942232,-11325.150913,6883.915261,-842.705048
1201.942553,-11769.274478,4737.318029,-153.219100
1201.942874,-12065.356855,2220.617826,842.705048
1201.943195,-11103.089130,-1554.432478,2681.334243
1201.943515,-9918.759623,-4293.194464,2451.505594
1201.943836,-9030.512492,-5995.668130,3140.991542
1201.944157,-8216.285956,-7105.977043,3294.210641
1201.944478,-7179.997637,-6587.832884,4213.525239
1201.944799,-7698.141797,-6069.688724,4213.525239
1201.945119,-7328.038826,-4737.318029,2911.162892
1201.945440,-7328.038826,-2886.803174,1072.533697
1201.945761,-8364.327145,-962.267725,76.609550
1201.946082,-8956.491898,2442.679609,153.219100
1201.946403,-10436.903782,4959.379811,-459.657299
1201.946723,-10362.883188,6587.832884,-536.266849
1201.947044,-11621.233289,6143.709319,-766.095498
1201.947365,-11843.295072,4367.215058,459.657299
1201.947686,-11991.336260,3108.864956,1225.752797
1201.948007,-11991.336260,1036.288319,2834.553343
1201.948327,-10436.903782,-2072.576638,2528.115143
1201.948648,-9326.594869,-4737.318029,2374.896044
1201.948969,-8586.388927,-5995.668130,2528.115143
1201.949290,-8290.306550,-6143.709319,3217.601092
1201.949611,-8290.306550,-5255.462188,3677.258390
1201.949931,-8216.285956,-3701.029710,2374.896044
1201.950252,-7846.182985,-2516.700203,0.000000
1201.950573,-8512.368333,-592.164754,-842.705048
1201.950894,-8734.430116,2442.679609,-1762.019645
1201.951215,-10362.883188,5107.421000,-1608.800546
1201.951535,-10658.965565,6513.812290,-1991.848295
1201.951856,-10955.047942,6439.791695,-1991.848295
1201.952177,-11991.336260,4959.379811,-1225.752797
1201.952498,-11843.295072,3330.926739,-153.219100
1201.952819,-12139.377449,1332.370696,1608.800546
1201.953139,-9622.677246,-1480.411884,1915.238745
1201.953460,-9326.594869,-4071.132681,2298.286494
1201.953781,-9178.553681,-5699.585753,3600.648841
1201.954102,-7920.203579,-6661.853478,3447.429741
1201.954423,-7698.141797,-6069.688724,2451.505594
1201.954743,-7328.038826,-5255.462188,2451.505594
1201.955064,-7254.018232,-3701.029710,1225.752797
1201.955385,-7846.182985,-1406.391290,-76.609550
1201.955706,-8364.327145,1998.556043,-1225.752797
1201.956027,-9178.553681,5033.400406,-1532.190996
1201.956347,-10436.903782,7179.997637,-995.924147
1201.956668,-11325.150913,7328.038826,-1072.533697
1201.956989,-11621.233289,6143.709319,-306.438199
1201.957310,-12583.501014,3775.050304,-306.438199
1201.957631,-11843.295072,1628.453072,1915.238745
1201.957951,-10732.986159,-1332.370696,2451.505594
1201.958272,-9622.677246,-4071.132681,2145.067394
1201.958593,-8364.327145,-5181.441594,2451.505594
1201.958914,-8364.327145,-5551.544565,3064.381992
1201.959235,-8364.327145,-5181.441594,3753.867940
1201.959555,-7994.224174,-5033.400406,3524.039291
1201.959876,-7476.080014,-4441.235652,1991.848295
1201.960197,-8438.347739,-2886.803174,306.438199
1201.960518,-8660.409521,74.020594,-306.438199
1201.960839,-9622.677246,2960.823768,-306.438199
1201.961159,-10436.903782,5699.585753,-919.314598
1201.961480,-11177.109724,7402.059420,-459.657299
1201.961801,-11843.295072,6365.771101,-766.095498
1201.962122,-12213.398043,4219.173869,0.000000
1201.962443,-11991.336260,1702.473667,1532.190996
1201.962763,-11177.109724,-1110.308913,2528.115143
1201.963084,-9844.739029,-3775.050304,2221.676944
1201.963405,-8882.471304,-5107.421000,2834.553343
1201.963726,-8290.306550,-6513.812290,3294.210641
1201.964047,-8142.265362,-6217.729913,3983.696590
1201.964367,-7698.141797,-5625.565159,3753.867940
1201.964688,-7624.121203,-4515.256246,2681.334243
1201.965009,-7994.224174,-3256.906145,919.314598
1201.965330,-8216.285956,-666.185348,-306.438199
1201.965651,-9400.615463,2368.659014,-612.876398
1201.965971,-9844.739029,5255.462188,-1149.143247
1201.966292,-10140.821405,6439.791695,-689.485948
1201.966613,-11473.192101,6217.729913,-383.047749
1201.966934,-11843.295072,4589.276840,153.219100
1201.967255,-12213.398043,2590.720797,1685.410096
1201.967575,-11695.253884,0.000000,2221.676944
1201.967896,-10140.821405,-2960.823768,2374.896044
1201.968217,-9104.533087,-4811.338623,2068.457845
1201.968538,-8586.388927,-5551.544565,2911.162892
1201.968859,-8068.244768,-5773.606348,3064.381992
1201.969179,-8216.285956,-5477.523971,3217.601092
1201.969500,-7550.100608,-4885.359217,1991.848295
1201.969821,-8660.409521,-2664.741391,766.095498
1201.970142,-8216.285956,-1480.411884,-1149.143247
1201.970463,-8586.388927,1776.494261,-1838.629195
1201.970783,-9770.718434,4959.379811,-2068.457845
1201.971104,-10140.821405,6069.688724,-2221.676944
1201.971425,-10955.047942,5773.606348,-1455.581446
1201.971746,-11695.253884,4663.297435,-689.485948
1201.972067,-11991.336260,2664.741391,766.095498
1201.972387,-11991.336260,888.247130,2298.286494
1201.972708,-10436.903782,-2368.659014,2911.162892
1201.973029,-9474.636058,-4737.318029,2834.553343
1201.973350,-8734.430116,-6365.771101,3370.820191
1201.973671,-7994.224174,-6513.812290,3140.991542
1201.973991,-7031.956449,-6587.832884,4366.744339
1201.974312,-7476.080014,-4293.194464,2604.724693
1201.974633,-8068.244768,-2738.761985,842.705048
1201.974954,-8364.327145,0.000000,-383.047749
1201.975275,-8956.491898,3108.864956,-306.438199
1201.975595,-10140.821405,5847.626942,-1225.752797
1201.975916,-10658.965565,7105.977043,-919.314598
1201.976237,-11695.253884,6661.853478,-842.705048
1201.976558,-11695.253884,5625.565159,-536.266849
1201.976879,-11769.274478,3701.029710,919.314598
1201.977199,-11621.233289,1332.370696,1991.848295
1201.977520,-10436.903782,-1332.370696,2604.724693
1201.977841,-9474.636058,-4367.215058,2298.286494
1201.978162,-8660.409521,-5625.565159,2528.115143
1201.978483,-8438.347739,-6291.750507,2681.334243
1201.978803,-8068.244768,-6143.709319,3140.991542
1201.979124,-7402.059420,-4515.256246,3294.210641
1201.979445,-8808.450710,-3997.112087,1991.848295
1201.979766,-7846.182985,-1628.453072,383.047749
1201.980087,-8586.388927,962.267725,-1225.752797
1201.980407,-9844.739029,4071.132681,-766.095498
1201.980728,-9696.697840,6069.688724,-1915.238745
1201.981049,-11029.068536,6809.894666,-1302.362347
1201.981370,-11325.150913,6291.750507,-842.705048
1201.981691,-11399.171507,3997.112087,-229.828649
1201.982011,-11843.295072,1702.473667,1608.800546
1201.982332,-10807.006753,-1628.453072,2221.676944
1201.982653,-10066.800811,-4515.256246,2451.505594
1201.982974,-9548.656652,-5847.626942,3370.820191
1201.983295,-8290.306550,-6069.688724,4060.306139
1201.983615,-8142.265362,-6217.729913,3983.696590
1201.983936,-7550.100608,-5329.482782,3677.258390
1201.984257,-7624.121203,-4145.153275,2145.067394
1201.984578,-7846.182985,-2442.679609,229.828649
1201.984899,-8512.368333,222.061783,-1072.533697
1201.985219,-9030.512492,3627.009116,-1378.971896
1201.985540,-9770.718434,6365.771101,-1608.800546
1201.985861,-11029.068536,7105.977043,-995.924147
1201.986182,-11621.233289,6217.729913,-459.657299
1201.986503,-11769.274478,4737.318029,229.828649
1201.986823,-12065.356855,1850.514855,1455.581446
1201.987144,-11325.150913,-1036.288319,2451.505594
1201.987465,-10066.800811,-3849.070898,2757.943793
1201.987786,-8956.491898,-5847.626942,2451.505594
1201.988107,-8438.347739,-6587.832884,3600.648841
1201.988427,-8438.347739,-5773.606348,3753.867940
1201.988748,-7698.141797,-5551.544565,3370.820191
1201.989069,-7698.141797,-5181.441594,1991.848295
1201.989390,-7772.162391,-3923.091493,0.000000
1201.989711,-7920.203579,-962.267725,-1072.533697
1201.990031,-9326.594869,2516.700203,-1532.190996
1201.990352,-9918.759623,5255.462188,-919.314598
1201.990673,-10807.006753,6587.832884,-1072.533697
1201.990994,-11251.130318,5995.668130,-919.314598
1201.991315,-11769.274478,3997.112087,0.000000
1201.991635,-11991.336260,1998.556043,1072.533697
1201.991956,-11473.192101,-370.102971,2298.286494
1201.992277,-10140.821405,-3701.029710,3217.601092
1201.992598,-8734.430116,-5107.421000,2757.943793
1201.992919,-8512.368333,-6365.771101,3294.210641
1201.993239,-7846.182985,-6217.729913,3677.258390
1201.993560,-7994.224174,-5921.647536,3753.867940
1201.993881,-7624.121203,-4737.318029,2451.505594
1201.994202,-7698.141797,-3330.926739,612.876398
1201.994523,-8364.327145,-592.164754,-842.705048
1201.994843,-8734.430116,3182.885551,-1302.362347
1201.995164,-10584.944971,5847.626942,-1685.410096
1201.995485,-10807.006753,7105.977043,-995.924147
1201.995806,-11843.295072,6217.729913,-766.095498
1201.996127,-11991.336260,4959.379811,-153.219100
1201.996448,-12657.521608,2220.617826,842.705048
1201.996768,-12139.377449,666.185348,1838.629195
1201.997089,-10214.842000,-2738.761985,2374.896044
1201.997410,-9178.553681,-4737.318029,1838.629195
1201.997731,-8290.306550,-5847.626942,2451.505594
1201.998052,-7698.141797,-6291.750507,3677.258390
1201.998373,-8290.306550,-5773.606348,3677.258390
1201.998694,-7476.080014,-4737.318029,2451.505594
1201.999014,-7772.162391,-3775.050304,612.876398
1201.999335,-6883.915261,-2220.617826,689.485948
1201.999656,-8364.327145,1998.556043,-1532.190996
1201.999977,-9992.780217,4589.276840,-1685.410096
1202.000298,-10362.883188,6587.832884,-1302.362347
1202.000619,-11473.192101,6513.812290,-1225.752797
1202.000939,-11843.295072,5551.544565,-306.438199
1202.001260,-11843.295072,3849.070898,229.828649
1202.001581,-11991.336260,1998.556043,2298.286494
1202.001902,-10436.903782,-1332.370696,2451.505594
1202.002223,-9474.636058,-4071.132681,2298.286494
1202.002544,-8808.450710,-5773.606348,3140.991542
1202.002864,-8068.244768,-6439.791695,3524.039291
1202.003185,-7698.141797,-5625.565159,3830.477490
1202.003506,-8068.244768,-5033.400406,3217.601092
1202.003827,-7476.080014,-3034.844362,995.924147
1202.004148,-8216.285956,-814.226536,-459.657299
1202.004469,-8660.409521,2368.659014,-1072.533697
1202.004789,-9844.739029,5181.441594,-1378.971896
1202.005110,-10510.924376,7105.977043,-1149.143247
1202.005431,-11547.212695,7179.997637,-1225.752797
1202.005752,-11547.212695,5921.647536,0.000000
1202.006073,-12065.356855,3552.988522,612.876398
1202.006394,-12287.418637,1406.391290,1302.362347
1202.006714,-10807.006753,-1332.370696,2604.724693
1202.007035,-9548.656652,-3923.091493,2298.286494
1202.007356,-8808.450710,-5107.421000,3064.381992
1202.007677,-8438.347739,-6069.688724,3907.087040
1202.007998,-7772.162391,-6217.729913,3524.039291
1202.008319,-7624.121203,-5403.503377,3447.429741
1202.008639,-7994.224174,-4663.297435,2298.286494
1202.008960,-8216.285956,-3108.864956,536.266849
1202.009281,-8438.347739,-296.082377,-536.266849
1202.009602,-9474.636058,3256.906145,-1302.362347
1202.009923,-9918.759623,6661.853478,-1685.410096
1202.010244,-10658.965565,7920.203579,-1225.752797
1202.010564,-13101.645173,7846.182985,-153.219100
1202.010885,-11473.192101,4441.235652,-153.219100
1202.011206,-11991.336260,1406.391290,766.095498
1202.011527,-10881.027347,-1628.453072,2068.457845
1202.011848,-9844.739029,-4293.194464,2911.162892
1202.012169,-8734.430116,-6217.729913,2604.724693
1202.012489,-7994.224174,-6587.832884,3447.429741
1202.012810,-7846.182985,-6513.812290,3217.601092
1202.013131,-7550.100608,-5403.503377,3140.991542
1202.013452,-7550.100608,-4737.318029,2145.067394
1202.013773,-8068.244768,-2960.823768,229.828649
1202.014094,-8438.347739,-296.082377,-842.705048
1202.014414,-9400.615463,3034.844362,-1532.190996
1202.014735,-10807.006753,5847.626942,-766.095498
1202.015056,-10955.047942,7031.956449,-1225.752797
1202.015377,-11695.253884,6365.771101,-1072.533697
1202.015698,-11695.253884,4737.318029,0.000000
1202.016019,-12361.439231,2368.659014,1378.971896
1202.016339,-11399.171507,-296.082377,2145.067394
1202.016660,-9844.739029,-3108.864956,2451.505594
1202.016981,-9252.574275,-5107.421000,2834.553343
1202.017302,-8216.285956,-6513.812290,3217.601092
1202.017623,-8216.285956,-6513.812290,4366.744339
1202.017944,-7920.203579,-5773.606348,4213.525239
1202.018264,-7550.100608,-4811.338623,2987.772442
1202.018585,-8142.265362,-3552.988522,1685.410096
1202.018906,-7698.141797,-1332.370696,229.828649
1202.019227,-8956.491898,2368.659014,-1225.752797
1202.019548,-9992.780217,5551.544565,-1685.410096
1202.019869,-10288.862594,7402.059420,-1378.971896
1202.020189,-11325.150913,6957.935855,-1149.143247
1202.020510,-11695.253884,5625.565159,-919.314598
1202.020831,-12065.356855,2886.803174,76.609550
1202.021152,-11843.295072,814.226536,1991.848295
1202.021473,-10955.047942,-2220.617826,2528.115143
1202.021794,-9474.636058,-4885.359217,2834.553343
1202.022114,-8660.409521,-7105.977043,3370.820191
1202.022435,-8068.244768,-7254.018232,3753.867940
1202.022756,-7550.100608,-6809.894666,3907.087040
1202.023077,-7846.182985,-5773.606348,1915.238745
1202.023398,-7624.121203,-3849.070898,1378.971896
1202.023719,-7994.224174,-962.267725,-459.657299
1202.024039,-8586.388927,2886.803174,-1532.190996
1202.024360,-9696.697840,5773.606348,-1072.533697
1202.024681,-10510.924376,7254.018232,-842.705048
1202.025002,-11325.150913,6883.915261,-1072.533697
1202.025323,-11843.295072,5773.606348,-612.876398
1202.025644,-11917.315666,3404.947333,153.219100
1202.025964,-11917.315666,1554.432478,1685.410096
1202.026285,-10807.006753,-1258.350101,2528.115143
1202.026606,-9548.656652,-4589.276840,2298.286494
1202.026927,-8438.347739,-6217.729913,2374.896044
1202.027248,-7179.997637,-7254.018232,3064.381992
1202.027569,-8068.244768,-5551.544565,3830.477490
1202.027889,-8290.306550,-4811.338623,3677.258390
1202.028210,-7846.182985,-3849.070898,2068.457845
1202.028531,-7994.224174,-1850.514855,0.000000
1202.028852,-8586.388927,888.247130,-1685.410096
1202.029173,-9474.636058,4737.318029,-1149.143247
1202.029494,-10658.965565,6957.935855,-1072.533697
1202.029814,-11177.109724,7402.059420,-1532.190996
1202.030135,-11325.150913,6513.812290,-1302.362347
1202.030456,-12065.356855,4293.194464,-383.047749
1202.030777,-12065.356855,2368.659014,1378.971896
1202.031098,-11325.150913,-518.144159,2451.505594
1202.031419,-9844.739029,-4663.297435,4060.306139
1202.031739,-8660.409521,-5551.544565,2987.772442
1202.032060,-8438.347739,-6883.915261,3753.867940
1202.032381,-7846.182985,-6883.915261,4290.134789
1202.032702,-7698.141797,-6069.688724,3294.210641
1202.033023,-7476.080014,-4515.256246,2604.724693
1202.033344,-7476.080014,-2738.761985,612.876398
1202.033665,-7994.224174,-148.041188,-919.314598
1202.033985,-9400.615463,3330.926739,-995.924147
1202.034306,-10214.842000,5773.606348,-1378.971896
1202.034627,-10807.006753,6661.853478,-1378.971896
1202.034948,-11473.192101,5625.565159,-842.705048
1202.035269,-11399.171507,4145.153275,0.000000
1202.035590,-12731.542202,2368.659014,1762.019645
1202.035910,-11399.171507,-444.123565,2681.334243
1202.036231,-9992.780217,-2960.823768,2374.896044
1202.036552,-8808.450710,-5107.421000,2757.943793
1202.036873,-8290.306550,-5847.626942,3217.601092
1202.037194,-8364.327145,-5921.647536,4290.134789
1202.037515,-7920.203579,-5921.647536,3983.696590
1202.037835,-7402.059420,-4811.338623,2834.553343
1202.038156,-7772.162391,-3330.926739,689.485948
1202.038477,-8660.409521,0.000000,383.047749
1202.038798,-9178.553681,2664.741391,-1072.533697
1202.039119,-9918.759623,5995.668130,-1149.143247
1202.039440,-10362.883188,7402.059420,-1915.238745
1202.039760,-11177.109724,6883.915261,-995.924147
1202.040081,-11843.295072,5107.421000,-689.485948
1202.040402,-12213.398043,2368.659014,229.828649
1202.040723,-11621.233289,0.000000,1455.581446
1202.041044,-10066.800811,-3182.885551,1455.581446
1202.041365,-9474.636058,-5033.400406,2374.896044
1202.041685,-8586.388927,-6069.688724,2987.772442
1202.042006,-8660.409521,-6883.915261,3370.820191
1202.042327,-8068.244768,-5921.647536,3370.820191
1202.042648,-7402.059420,-5699.585753,2528.115143
1202.042969,-7698.141797,-4145.153275,766.095498
1202.043290,-8216.285956,-1998.556043,-153.219100
1202.043610,-8808.450710,1776.494261,-1455.581446
1202.043931,-9474.636058,5107.421000,-306.438199
1202.044252,-10658.965565,7105.977043,-1378.971896
1202.044573,-11251.130318,6661.853478,-1302.362347
1202.044894,-11843.295072,5033.400406,-306.438199
1202.045215,-12287.418637,2664.741391,229.828649
1202.045535,-12287.418637,444.123565,2068.457845
1202.045856,-11029.068536,-2664.741391,3064.381992
1202.046177,-9474.636058,-4885.359217,3140.991542
1202.046498,-8512.368333,-6217.729913,3064.381992
1202.046819,-7550.100608,-6439.791695,3064.381992
1202.047140,-7476.080014,-5477.523971,3830.477490
1202.047460,-7402.059420,-4885.359217,2757.943793
1202.047781,-7550.100608,-3701.029710,1532.190996
1202.048102,-6957.935855,-2146.597232,1149.143247
1202.048423,-8734.430116,1702.473667,-612.876398
1202.048744,-9622.677246,4737.318029,-1225.752797
1202.049065,-9918.759623,6809.894666,-995.924147
1202.049385,-11177.109724,7031.956449,-1225.752797
1202.049706,-11843.295072,6069.688724,-383.047749
1202.050027,-11917.315666,3923.091493,306.438199
1202.050348,-11991.336260,1480.411884,1608.800546
1202.050669,-10881.027347,-1554.432478,2374.896044
1202.050990,-9622.677246,-4293.194464,3064.381992
1202.051310,-8586.388927,-5995.668130,2604.724693
1202.051631,-7772.162391,-6513.812290,3140.991542
1202.051952,-7772.162391,-6069.688724,3140.991542
1202.052273,-8068.244768,-4219.173869,4136.915689
1202.052594,-7920.203579,-3256.906145,1685.410096
1202.052915,-8142.265362,-1184.329507,0.000000
1202.053235,-8586.388927,1924.535449,-919.314598
1202.053556,-9696.697840,4737.318029,-1455.581446
1202.053877,-10362.883188,6735.874072,-1608.800546
1202.054198,-11177.109724,6513.812290,-1608.800546
1202.054519,-11621.233289,5403.503377,-1072.533697
1202.054840,-11843.295072,3627.009116,-306.438199
1202.055160,-12287.418637,1924.535449,459.657299
1202.055481,-11177.109724,-740.205942,1838.629195
1202.055802,-9770.718434,-3182.885551,1762.019645
1202.056123,-8808.450710,-4589.276840,2451.505594
1202.056444,-7550.100608,-5181.441594,3217.601092
1202.056765,-7920.203579,-6069.688724,3447.429741
1202.057085,-7994.224174,-5477.523971,3600.648841
1202.057406,-8142.265362,-4885.359217,1762.019645
1202.057727,-8068.244768,-3108.864956,76.609550
1202.058048,-8512.368333,74.020594,-919.314598
1202.058369,-9548.656652,4071.132681,-1225.752797
1202.058690,-10510.924376,6957.935855,-1149.143247
1202.059010,-10955.047942,7994.224174,-1378.971896
1202.059331,-11399.171507,7105.977043,-1302.362347
1202.059652,-11991.336260,4959.379811,229.828649
1202.059973,-11991.336260,2146.597232,1455.581446
1202.060294,-11177.109724,-444.123565,2298.286494
1202.060615,-10066.800811,-4219.173869,1532.190996
1202.060935,-9178.553681,-4959.379811,2987.772442
1202.061256,-8438.347739,-5773.606348,4213.525239
1202.061577,-8142.265362,-5773.606348,4366.744339
1202.061898,-8068.244768,-5329.482782,4213.525239
1202.062219,-7698.141797,-4589.276840,2757.943793
1202.062540,-7698.141797,-3627.009116,1149.143247
1202.062860,-8438.347739,-1110.308913,153.219100
1202.063181,-9178.553681,1776.494261,-229.828649
1202.063502,-9474.636058,4737.318029,-536.266849
1202.063823,-10436.903782,5773.606348,-689.485948
1202.064144,-11473.192101,5625.565159,0.000000
1202.064465,-11843.295072,3997.112087,153.219100
1202.064785,-11103.089130,1850.514855,1532.190996
1202.065106,-11399.171507,-444.123565,1991.848295
1202.065427,-10066.800811,-3034.844362,2374.896044
1202.065748,-9104.533087,-5107.421000,2528.115143
1202.066069,-8216.285956,-5995.668130,2911.162892
1202.066390,-8216.285956,-6143.709319,3294.210641
1202.066710,-8216.285956,-5625.565159,3524.039291
1202.067031,-7846.182985,-4663.297435,2604.724693
1202.067352,-8290.306550,-3478.967927,1302.362347
1202.067673,-8808.450710,-1184.329507,0.000000
1202.067994,-9030.512492,2072.576638,-1225.752797
1202.068315,-10214.842000,5033.400406,-1455.581446
1202.068636,-10807.006753,6809.894666,-1762.019645
1202.068956,-11399.171507,7402.059420,-1685.410096
1202.069277,-11843.295072,6069.688724,-1378.971896
1202.069598,-11843.295072,3627.009116,-306.438199
1202.069919,-11843.295072,1184.329507,842.705048
1202.070240,-10362.883188,-1850.514855,1608.800546
1202.070561,-9474.636058,-4441.235652,1608.800546
1202.070881,-8512.368333,-6661.853478,2068.457845
1202.071202,-8068.244768,-6957.935855,2528.115143
1202.071523,-7994.224174,-6291.750507,3140.991542
1202.071844,-7698.141797,-5107.421000,2298.286494
1202.072165,-7846.182985,-3552.988522,1378.971896
1202.072486,-8364.327145,-1924.535449,0.000000
1202.072806,-8438.347739,1406.391290,-919.314598
1202.073127,-8660.409521,3552.988522,0.000000
1202.073448,-10066.800811,6143.709319,-995.924147
1202.073769,-10732.986159,6439.791695,-1149.143247
1202.074090,-11325.150913,5329.482782,-612.876398
1202.074411,-11103.089130,3701.029710,1455.581446
1202.074731,-11621.233289,1702.473667,2068.457845
1202.075052,-10807.006753,-1036.288319,2911.162892
1202.075373,-9918.759623,-3923.091493,2757.943793
1202.075694,-8808.450710,-5625.565159,3217.601092
1202.076015,-8586.388927,-6069.688724,3830.477490
1202.076336,-8142.265362,-5625.565159,4060.306139
1202.076656,-8068.244768,-4959.379811,4213.525239
1202.076977,-7920.203579,-3627.009116,2145.067394
1202.077298,-8956.491898,-1036.288319,-689.485948
1202.077619,-8438.347739,888.247130,-766.095498
1202.077940,-9548.656652,3997.112087,-1072.533697
1202.078261,-10140.821405,6069.688724,-1072.533697
1202.078581,-10955.047942,7254.018232,-842.705048
1202.078902,-11843.295072,6735.874072,-229.828649
1202.079223,-11695.253884,4219.173869,306.438199
1202.079544,-11695.253884,1702.473667,1532.190996
1202.079865,-11029.068536,-1036.288319,2681.334243
1202.080186,-9548.656652,-3923.091493,2528.115143
1202.080506,-8882.471304,-5699.585753,3294.210641
1202.080827,-8290.306550,-6439.791695,3677.258390
1202.081148,-7994.224174,-6143.709319,3677.258390
1202.081469,-7920.203579,-6365.771101,3600.648841
1202.081790,-7698.141797,-3923.091493,2604.724693
1202.082111,-8068.244768,-2368.659014,153.219100
1202.082431,-8438.347739,444.123565,-995.924147
1202.082752,-9474.636058,3701.029710,-2221.676944
1202.083073,-10214.842000,6217.729913,-919.314598
1202.083394,-10881.027347,6883.915261,-919.314598
1202.083715,-11769.274478,6143.709319,-842.705048
1202.084036,-11917.315666,4441.235652,-383.047749
1202.084356,-11695.253884,1850.514855,842.705048
1202.084677,-11621.233289,-592.164754,1762.019645
1202.084998,-9696.697840,-3330.926739,2298.286494
1202.085319,-9400.615463,-5625.565159,2068.457845
1202.085640,-7994.224174,-5107.421000,2068.457845
1202.085961,-8882.471304,-6069.688724,3064.381992
1202.086281,-8438.347739,-5329.482782,3140.991542
1202.086602,-7772.162391,-4071.132681,1991.848295
1202.086923,-7994.224174,-3034.844362,459.657299
1202.087244,-8290.306550,-518.144159,-1302.362347
1202.087565,-8734.430116,2812.782580,-1915.238745
1202.087886,-10066.800811,5403.503377,-1762.019645
1202.088206,-10066.800811,6883.915261,-1685.410096
1202.088527,-11251.130318,6661.853478,-1532.190996
1202.088848,-11843.295072,4811.338623,0.000000
1202.089169,-12139.377449,2664.741391,919.314598
1202.089490,-11843.295072,74.020594,2834.553343
1202.089811,-10658.965565,-2368.659014,2911.162892
1202.090131,-9326.594869,-5181.441594,3370.820191
1202.090452,-8512.368333,-6883.915261,3600.648841
1202.090773,-7920.203579,-6957.935855,3753.867940
1202.091094,-7550.100608,-6365.771101,3983.696590
1202.091415,-7402.059420,-5255.462188,2911.162892
1202.091736,-7772.162391,-3478.967927,995.924147
1202.092056,-8364.327145,-1332.370696,-536.266849
1202.092377,-9030.512492,2072.576638,-766.095498
1202.092698,-10140.821405,4811.338623,-995.924147
1202.093019,-10658.965565,6439.791695,-306.438199
1202.093340,-11473.192101,6513.812290,-229.828649
1202.093661,-11917.315666,5329.482782,459.657299
1202.093981,-12583.501014,3627.009116,1608.800546
1202.094302,-11843.295072,740.205942,2604.724693
1202.094623,-10362.883188,-2442.679609,2757.943793
1202.094944,-9252.574275,-5033.400406,2068.457845
1202.095265,-8068.244768,-5921.647536,3907.087040
1202.095586,-7920.203579,-6069.688724,3294.210641
1202.095906,-7994.224174,-5699.585753,3524.039291
1202.096227,-7846.182985,-4811.338623,3064.381992
1202.096548,-8068.244768,-3701.029710,1762.019645
1202.096869,-9178.553681,-1184.329507,76.609550
1202.097190,-9030.512492,1924.535449,-536.266849
1202.097511,-9992.780217,4959.379811,-1455.581446
1202.097831,-10658.965565,7328.038826,-1149.143247
1202.098152,-11325.150913,7698.141797,-1532.190996
1202.098473,-11769.274478,6587.832884,-1072.533697
1202.098794,-11769.274478,4145.153275,0.000000
1202.099115,-11917.315666,1776.494261,1225.752797
1202.099436,-10584.944971,-1702.473667,1685.410096
1202.099756,-9770.718434,-4293.194464,1608.800546
1202.100077,-8734.430116,-5699.585753,2451.505594
1202.100398,-8142.265362,-6439.791695,3217.601092
1202.100719,-8364.327145,-6217.729913,3370.820191
1202.101040,-7624.121203,-5403.503377,3064.381992
1202.101361,-7550.100608,-3997.112087,1072.533697
1202.101681,-8364.327145,-1776.494261,-383.047749
1202.102002,-8290.306550,1924.535449,-1149.143247
1202.102323,-10140.821405,5847.626942,-612.876398
1202.102644,-10066.800811,6661.853478,-1225.752797
1202.102965,-10955.047942,6809.894666,-1455.581446
1202.103286,-11399.171507,5699.585753,-612.876398
1202.103606,-11695.253884,3775.050304,76.609550
1202.103927,-11843.295072,1924.535449,1532.190996
1202.104248,-10658.965565,-888.247130,2528.115143
1202.104569,-9252.574275,-3701.029710,2298.286494
1202.104890,-8068.244768,-4811.338623,2298.286494
1202.105211,-8216.285956,-5699.585753,2911.162892
1202.105531,-7846.182985,-4737.318029,3907.087040
1202.105852,-8068.244768,-4515.256246,3753.867940
1202.106173,-7846.182985,-3997.112087,2528.115143
1202.106494,-7698.141797,-3775.050304,536.266849
1202.106815,-8438.347739,0.000000,-459.657299
1202.107136,-9474.636058,3034.844362,-766.095498
1202.107456,-9992.780217,5847.626942,-1225.752797
1202.107777,-10807.006753,7550.100608,-1072.533697
1202.108098,-11769.274478,6735.874072,-689.485948
1202.108419,-11621.233289,4737.318029,0.000000
1202.108740,-11991.336260,2294.638420,1302.362347
1202.109061,-11769.274478,-296.082377,2298.286494
1202.109381,-10288.862594,-3330.926739,3294.210641
1202.109702,-9474.636058,-5329.482782,3600.648841
1202.110023,-8808.450710,-6439.791695,3677.258390
1202.110344,-8364.327145,-6513.812290,3677.258390
1202.110665,-8438.347739,-5699.585753,3907.087040
1202.110986,-7994.224174,-4367.215058,2451.505594
1202.111306,-8364.327145,-3478.967927,383.047749
1202.111627,-7920.203579,-370.102971,-1225.752797
1202.111948,-9104.533087,2220.617826,-2068.457845
1202.112269,-9696.697840,5329.482782,-1991.848295
1202.112590,-10881.027347,6143.709319,-919.314598
1202.112911,-11547.212695,5329.482782,-919.314598
1202.113231,-11547.212695,4293.194464,0.000000
1202.113552,-11843.295072,2072.576638,1991.848295
1202.113873,-11399.171507,296.082377,2681.334243
1202.114194,-10510.924376,-2960.823768,2528.115143
1202.114515,-8660.409521,-4885.359217,2451.505594
1202.114836,-9030.512492,-4885.359217,1378.971896
1202.115156,-7698.141797,-6291.750507,3524.039291
1202.115477,-7698.141797,-5995.668130,3600.648841
1202.115798,-7550.100608,-5107.421000,2681.334243
1202.116119,-7624.121203,-4219.173869,1149.143247
1202.116440,-7994.224174,-1998.556043,0.000000
1202.116761,-8882.471304,1332.370696,-766.095498
1202.117081,-9474.636058,4219.173869,-1378.971896
1202.117402,-10510.924376,6735.874072,-1149.143247
1202.117723,-11695.253884,6809.894666,-689.485948
1202.118044,-11547.212695,5477.523971,-612.876398
1202.118365,-11769.274478,2886.803174,689.485948
1202.118686,-11695.253884,740.205942,2068.457845
1202.119006,-11103.089130,-1924.535449,1838.629195
1202.119327,-9696.697840,-4441.235652,2528.115143
1202.119648,-8956.491898,-5921.647536,3064.381992
1202.119969,-8068.244768,-6661.853478,3294.210641
1202.120290,-7846.182985,-6439.791695,3370.820191
1202.120611,-7698.141797,-5477.523971,2451.505594
1202.120931,-8142.265362,-3923.091493,995.924147
1202.121252,-8586.388927,-1998.556043,-306.438199
1202.121573,-9030.512492,1776.494261,-1225.752797
1202.121894,-9474.636058,4885.359217,-1149.143247
1202.122215,-11029.068536,7254.018232,-1225.752797
1202.122536,-11843.295072,7031.956449,-919.314598
1202.122856,-11843.295072,5921.647536,-612.876398
1202.123177,-11843.295072,3478.967927,1991.848295
1202.123498,-11843.295072,1776.494261,1685.410096
1202.123819,-11029.068536,-1184.329507,2374.896044
1202.124140,-9474.636058,-4071.132681,1838.629195
1202.124461,-8438.347739,-4811.338623,1991.848295
1202.124781,-8216.285956,-5625.565159,2604.724693
1202.125102,-8290.306550,-5181.441594,3753.867940
1202.125423,-7698.141797,-5033.400406,2911.162892
1202.125744,-7994.224174,-4071.132681,1762.019645
1202.126065,-7994.224174,-2294.638420,306.438199
1202.126386,-8364.327145,666.185348,-919.314598
1202.126706,-9252.574275,3923.091493,-1072.533697
1202.127027,-9918.759623,6217.729913,-1225.752797
1202.127348,-9622.677246,5921.647536,-2068.457845
1202.127669,-11029.068536,5847.626942,-1149.143247
1202.127990,-11251.130318,3997.112087,-306.438199
1202.128311,-11547.212695,1776.494261,842.705048
1202.128631,-10584.944971,-518.144159,2068.457845
1202.128952,-9696.697840,-2738.761985,2374.896044
1202.129273,-8808.450710,-4663.297435,3217.601092
1202.129594,-8364.327145,-5699.585753,3907.087040
1202.129915,-8216.285956,-5773.606348,4213.525239
1202.130236,-8290.306550,-5551.544565,3600.648841
1202.130556,-7698.141797,-4293.194464,2528.115143
1202.130877,-8068.244768,-2664.741391,536.266849
1202.131198,-8438.347739,518.144159,-766.095498
1202.131519,-9178.553681,3256.906145,-1149.143247
1202.131840,-10214.842000,6513.812290,-1149.143247
1202.132161,-10955.047942,7105.977043,-1072.533697
1202.132481,-11695.253884,5995.668130,-766.095498
1202.132802,-12213.398043,4367.215058,76.609550
1202.133123,-12657.521608,2294.638420,1838.629195
1202.133444,-11843.295072,0.000000,2681.334243
1202.133765,-10362.883188,-3034.844362,2681.334243
1202.134086,-9030.512492,-4811.338623,2911.162892
1202.134406,-8364.327145,-5699.585753,2681.334243
1202.134727,-8068.244768,-6217.729913,3600.648841
1202.135048,-7846.182985,-5995.668130,3600.648841
1202.135369,-7624.121203,-4885.359217,2374.896044
1202.135690,-8216.285956,-3627.009116,-76.609550
1202.136011,-8142.265362,-1110.308913,-612.876398
1202.136331,-9178.553681,2368.659014,-1149.143247
1202.136652,-9918.759623,5255.462188,-1608.800546
1202.136973,-10584.944971,6957.935855,-1378.971896
1202.137294,-11769.274478,6661.853478,-995.924147
1202.137615,-11843.295072,4885.359217,-689.485948
1202.137936,-11991.336260,2368.659014,995.924147
1202.138256,-11917.315666,-296.082377,2221.676944
1202.138577,-9696.697840,-2886.803174,2911.162892
1202.138898,-9252.574275,-5107.421000,2604.724693
1202.139219,-8586.388927,-6661.853478,3753.867940
1202.139540,-7624.121203,-6439.791695,3907.087040
1202.139861,-7328.038826,-6513.812290,4903.011187
1202.140181,-7031.956449,-5477.523971,2451.505594
1202.140502,-7550.100608,-4145.153275,689.485948
1202.140823,-7994.224174,-1998.556043,-689.485948
1202.141144,-8216.285956,1628.453072,-1455.581446
1202.141465,-10214.842000,4663.297435,-1608.800546
1202.141786,-10510.924376,6661.853478,-1378.971896
1202.142106,-11399.171507,6661.853478,-689.485948
1202.142427,-12361.439231,5181.441594,0.000000
1202.142748,-11399.171507,2368.659014,689.485948
1202.143069,-11621.233289,148.041188,1915.238745
1202.143390,-10362.883188,-2886.803174,2068.457845
1202.143711,-9104.533087,-4589.276840,1685.410096
1202.144031,-7476.080014,-5477.523971,4673.182538
1202.144352,-7772.162391,-6365.771101,2911.162892
1202.144673,-7994.224174,-5403.503377,3907.087040
1202.144994,-8438.347739,-4811.338623,3524.039291
1202.145315,-8364.327145,-3701.029710,2374.896044
1202.145636,-8808.450710,-2072.576638,612.876398
1202.145956,-9104.533087,962.267725,-612.876398
1202.146277,-10066.800811,4589.276840,-842.705048
1202.146598,-10510.924376,7179.997637,-1149.143247
1202.146919,-11251.130318,8142.265362,-1532.190996
1202.147240,-11843.295072,6809.894666,-383.047749
1202.147561,-11695.253884,4145.153275,-153.219100
1202.147881,-11917.315666,1406.391290,1378.971896
1202.148202,-10807.006753,-2146.597232,1302.362347
1202.148523,-9474.636058,-4219.173869,2681.334243
1202.148844,-8956.491898,-6513.812290,3294.210641
1202.149165,-7772.162391,-6661.853478,4060.306139
1202.149486,-8216.285956,-6513.812290,3677.258390
1202.149806,-7402.059420,-5847.626942,3217.601092
1202.150127,-7328.038826,-3923.091493,842.705048
1202.150448,-7772.162391,-1850.514855,-229.828649
1202.150769,-8364.327145,1406.391290,-1532.190996
1202.151090,-9844.739029,4737.318029,-1455.581446
1202.151411,-10510.924376,6365.771101,-1762.019645
1202.151731,-11251.130318,7476.080014,-1762.019645
1202.152052,-11991.336260,7105.977043,-766.095498
1202.152373,-12361.439231,4663.297435,459.657299
1202.152694,-12213.398043,3108.864956,1532.190996
1202.153015,-11325.150913,222.061783,1838.629195
1202.153336,-9474.636058,-3034.844362,1608.800546
1202.153656,-8660.409521,-4663.297435,2298.286494
1202.153977,-7772.162391,-5625.565159,3370.820191
1202.154298,-7994.224174,-6217.729913,3294.210641
1202.154619,-7698.141797,-5403.503377,3064.381992
1202.154940,-7476.080014,-4589.276840,2374.896044
1202.155261,-7994.224174,-2368.659014,842.705048
1202.155581,-8586.388927,-296.082377,-459.657299
1202.155902,-9104.533087,2812.782580,-1455.581446
1202.156223,-9992.780217,5847.626942,-1225.752797
1202.156544,-10362.883188,6809.894666,76.609550
1202.156865,-11917.315666,6735.874072,0.000000
1202.157186,-11769.274478,4737.318029,383.047749
1202.157506,-12213.398043,2294.638420,1225.752797
1202.157827,-11473.192101,-666.185348,2451.505594
1202.158148,-9844.739029,-4145.153275,2604.724693
1202.158469,-9104.533087,-5625.565159,3524.039291
1202.158790,-8216.285956,-6809.894666,4136.915689
1202.159111,-7550.100608,-6587.832884,4136.915689
1202.159431,-8142.265362,-6069.688724,3524.039291
1202.159752,-7550.100608,-5477.523971,2681.334243
1202.160073,-7698.141797,-3627.009116,1225.752797
1202.160394,-8586.388927,-888.247130,-689.485948
1202.160715,-7994.224174,3404.947333,383.047749
1202.161036,-10510.924376,5773.606348,-1149.143247
1202.161356,-10807.006753,7179.997637,-1072.533697
1202.161677,-11843.295072,7031.956449,-766.095498
1202.161998,-12213.398043,5403.503377,-229.828649
1202.162319,-12139.377449,2738.761985,612.876398
1202.162640,-11843.295072,518.144159,2145.067394
1202.162961,-10066.800811,-2812.782580,2145.067394
1202.163281,-9178.553681,-5181.441594,1762.019645
1202.163602,-8438.347739,-5773.606348,2145.067394
1202.163923,-8290.306550,-6513.812290,2987.772442
1202.164244,-8068.244768,-5921.647536,3983.696590
1202.164565,-7846.182985,-5255.462188,2987.772442
1202.164886,-7254.018232,-4293.194464,1378.971896
1202.165206,-8142.265362,-2738.761985,-1225.752797
1202.165527,-8364.327145,814.226536,-2145.067394
1202.165848,-9992.780217,4071.132681,-2451.505594
1202.166169,-10362.883188,6809.894666,-1915.238745
1202.166490,-11399.171507,7179.997637,-1608.800546
1202.166811,-12213.398043,6513.812290,-766.095498
1202.167131,-12287.418637,3997.112087,536.266849
1202.167452,-12287.418637,1332.370696,1991.848295
1202.167773,-11103.089130,-1924.535449,1838.629195
1202.168094,-9104.533087,-5403.503377,2451.505594
1202.168415,-8216.285956,-7105.977043,2451.505594
1202.168736,-7698.141797,-7105.977043,3217.601092
1202.169056,-7624.121203,-6291.750507,3064.381992
1202.169377,-7476.080014,-5181.441594,3294.210641
1202.169698,-7476.080014,-3627.009116,1991.848295
1202.170019,-8290.306550,-1998.556043,383.047749
1202.170340,-8660.409521,1480.411884,-995.924147
1202.170661,-9844.739029,4441.235652,-1072.533697
1202.170981,-10658.965565,7105.977043,-459.657299
1202.171302,-11843.295072,7698.141797,-306.438199
1202.171623,-12287.418637,7105.977043,0.000000
1202.171944,-12361.439231,5255.462188,1378.971896
1202.172265,-12139.377449,2368.659014,1991.848295
1202.172586,-11251.130318,-814.226536,2451.505594
1202.172906,-9548.656652,-4219.173869,2068.457845
1202.173227,-8216.285956,-5847.626942,3983.696590
1202.173548,-7698.141797,-6809.894666,2987.772442
1202.173869,-8068.244768,-6365.771101,3217.601092
1202.174190,-7624.121203,-5329.482782,2911.162892
1202.174511,-7772.162391,-4441.235652,1991.848295
1202.174831,-8290.306550,-2516.700203,0.000000
1202.175152,-8808.450710,814.226536,-612.876398
1202.175473,-9918.759623,4145.153275,-689.485948
1202.175794,-10732.986159,6661.853478,-919.314598
1202.176115,-11251.130318,7402.059420,-1915.238745
1202.176436,-11843.295072,6365.771101,-1225.752797
1202.176756,-11843.295072,4441.235652,-229.828649
1202.177077,-11843.295072,2368.659014,766.095498
1202.177398,-11917.315666,592.164754,3064.381992
1202.177719,-9622.677246,-2812.782580,1915.238745
1202.178040,-8290.306550,-4737.318029,1915.238745
1202.178361,-7624.121203,-6069.688724,2451.505594
1202.178681,-7550.100608,-5921.647536,3294.210641
1202.179002,-7624.121203,-5847.626942,3294.210641
1202.179323,-7179.997637,-4959.379811,1991.848295
1202.179644,-7920.203579,-3552.988522,0.000000
1202.179965,-8438.347739,-666.185348,-919.314598
1202.180286,-9622.677246,2960.823768,-1149.143247
1202.180606,-10436.903782,6069.688724,-919.314598
1202.180927,-10510.924376,7624.121203,-1225.752797
1202.181248,-11621.233289,6513.812290,-995.924147
1202.181569,-11621.233289,5033.400406,612.876398
1202.181890,-11843.295072,1924.535449,995.924147
1202.182211,-11473.192101,-148.041188,2451.505594
1202.182531,-9844.739029,-3034.844362,2681.334243
1202.182852,-9030.512492,-5477.523971,2681.334243
1202.183173,-8142.265362,-5847.626942,3524.039291
1202.183494,-8438.347739,-6217.729913,4443.353888
1202.183815,-8142.265362,-5847.626942,4136.915689
1202.184136,-7698.141797,-4959.379811,3140.991542
1202.184456,-7698.141797,-3997.112087,1762.019645
1202.184777,-8290.306550,-2072.576638,0.000000
1202.185098,-8586.388927,1332.370696,-229.828649
1202.185419,-10214.842000,4737.318029,-919.314598
1202.185740,-9622.677246,7328.038826,919.314598
1202.186061,-11695.253884,7254.018232,-153.219100
1202.186381,-11843.295072,5625.565159,229.828649
1202.186702,-12213.398043,3256.906145,1455.581446
1202.187023,-11991.336260,444.123565,2911.162892
1202.187344,-10436.903782,-2738.761985,2987.772442
1202.187665,-9252.574275,-5403.503377,3064.381992
1202.187986,-8364.327145,-6883.915261,3294.210641
1202.188306,-7698.141797,-6661.853478,3907.087040
1202.188627,-7698.141797,-5625.565159,4366.744339
1202.188948,-7698.141797,-4737.318029,3370.820191
1202.189269,-7624.121203,-3478.967927,1838.629195
1202.189590,-8586.388927,-1776.494261,612.876398
1202.189911,-8586.388927,1110.308913,-842.705048
1202.190231,-9622.677246,3923.091493,-1532.190996
1202.190552,-10214.842000,6069.688724,-1532.190996
1202.190873,-10955.047942,6661.853478,-1302.362347
1202.191194,-11917.315666,5551.544565,-766.095498
1202.191515,-11695.253884,3108.864956,0.000000
1202.191836,-11991.336260,444.123565,995.924147
1202.192156,-10807.006753,-2664.741391,1455.581446
1202.192477,-9770.718434,-5625.565159,1455.581446
1202.192798,-8586.388927,-6217.729913,2757.943793
1202.193119,-8660.409521,-6143.709319,2987.772442
1202.193440,-8438.347739,-5699.585753,2757.943793
1202.193761,-7772.162391,-4515.256246,2451.505594
1202.194081,-8142.265362,-4589.276840,1378.971896
1202.194402,-7550.100608,-1702.473667,-1378.971896
1202.194723,-9030.512492,1258.350101,-1915.238745
1202.195044,-9400.615463,4589.276840,-2451.505594
1202.195365,-10510.924376,7105.977043,-2068.457845
1202.195685,-10955.047942,7254.018232,-1838.629195
1202.196006,-11769.274478,6217.729913,-1532.190996
1202.196327,-12213.398043,4441.235652,-306.438199
1202.196648,-12361.439231,2590.720797,1225.752797
1202.196968,-11991.336260,0.000000,2374.896044
1202.197289,-10140.821405,-2886.803174,2221.676944
1202.197610,-8956.491898,-4811.338623,2681.334243
1202.197931,-7994.224174,-5255.462188,3294.210641
1202.198251,-7994.224174,-5477.523971,2987.772442
1202.198572,-7846.182985,-4589.276840,3370.820191
1202.198893,-8142.265362,-3627.009116,1915.238745
1202.199214,-8068.244768,-1554.432478,229.828649
1202.199534,-8586.388927,1406.391290,-536.266849
1202.199855,-9474.636058,4219.173869,76.609550
1202.200176,-10436.903782,6217.729913,0.000000
1202.200497,-11251.130318,6883.915261,-306.438199
1202.200817,-11695.253884,5773.606348,0.000000
1202.201138,-11769.274478,4589.276840,1685.410096
1202.201459,-11843.295072,2146.597232,2221.676944
1202.201780,-10807.006753,-592.164754,3064.381992
1202.202100,-9548.656652,-3034.844362,2911.162892
1202.202421,-8438.347739,-4737.318029,2221.676944
1202.202742,-7920.203579,-5847.626942,3217.601092
1202.203063,-7698.141797,-5551.544565,4366.744339
1202.203383,-7698.141797,-6069.688724,4136.915689
1202.203704,-7179.997637,-5699.585753,2834.553343
1202.204025,-7476.080014,-3997.112087,459.657299
1202.204346,-8364.327145,-1036.288319,-153.219100
1202.204666,-8956.491898,2590.720797,-689.485948
1202.204987,-10214.842000,5921.647536,-689.485948
1202.205308,-10436.903782,7402.059420,0.000000
1202.205629,-11325.150913,6661.853478,-766.095498
1202.205949,-11547.212695,4959.379811,0.000000
1202.206270,-11769.274478,2368.659014,1149.143247
1202.206591,-11769.274478,74.020594,2374.896044
1202.206912,-10436.903782,-2664.741391,2374.896044
1202.207232,-9178.553681,-5033.400406,1991.848295
1202.207553,-8142.265362,-5625.565159,2451.505594
1202.207874,-8216.285956,-5699.585753,3370.820191
1202.208195,-7328.038826,-5921.647536,2911.162892
1202.208515,-7920.203579,-4811.338623,2298.286494
1202.208836,-7846.182985,-3627.009116,153.219100
1202.209157,-8882.471304,-1702.473667,-995.924147
1202.209478,-9178.553681,2072.576638,-995.924147
1202.209798,-10436.903782,4589.276840,-1455.581446
1202.210119,-10807.006753,6587.832884,-1532.190996
1202.210440,-11769.274478,6513.812290,-1378.971896
1202.210761,-11917.315666,5255.462188,-306.438199
1202.211081,-12139.377449,3034.844362,766.095498
1202.211402,-11843.295072,518.144159,1762.019645
1202.211723,-10658.965565,-2664.741391,1685.410096
1202.212044,-9030.512492,-4663.297435,1455.581446
1202.212364,-8956.491898,-5699.585753,1378.971896
1202.212685,-8068.244768,-6069.688724,3064.381992
1202.213006,-8290.306550,-5699.585753,3600.648841
1202.213327,-7994.224174,-5255.462188,2681.334243
1202.213647,-8068.244768,-3701.029710,766.095498
1202.213968,-8512.368333,-2886.803174,0.000000
1202.214289,-8216.285956,296.082377,-919.314598
1202.214610,-9770.718434,3775.050304,-1149.143247
1202.214930,-10510.924376,6069.688724,-766.095498
1202.215251,-10955.047942,6661.853478,-459.657299
1202.215572,-11917.315666,5625.565159,76.609550
1202.215893,-11695.253884,3849.070898,1072.533697
1202.216213,-11843.295072,1258.350101,2374.896044
1202.216534,-10658.965565,-1850.514855,2757.943793
1202.216855,-9178.553681,-4663.297435,2528.115143
1202.217176,-8290.306550,-6217.729913,3217.601092
1202.217496,-7550.100608,-6883.915261,3370.820191
1202.217817,-7550.100608,-6365.771101,3524.039291
1202.218138,-7846.182985,-4737.318029,2987.772442
1202.218459,-7772.162391,-3330.926739,2068.457845
1202.218779,-8364.327145,-1258.350101,383.047749
1202.219100,-8438.347739,1554.432478,-459.657299
1202.219421,-9770.718434,4589.276840,-612.876398
1202.219742,-10807.006753,6513.812290,-689.485948
1202.220062,-11547.212695,6809.894666,-842.705048
1202.220383,-11843.295072,6365.771101,-536.266849
1202.220704,-12953.603985,5329.482782,76.609550
1202.221025,-11843.295072,2516.700203,1455.581446
1202.221345,-11251.130318,-518.144159,2068.457845
1202.221666,-9548.656652,-3552.988522,1762.019645
1202.221987,-8808.450710,-5255.462188,1072.533697
1202.222308,-8068.244768,-5477.523971,2374.896044
1202.222628,-8068.244768,-5403.503377,3370.820191
1202.222949,-8142.265362,-4737.318029,2987.772442
1202.223270,-7846.182985,-3849.070898,1838.629195
1202.223591,-7994.224174,-2664.741391,306.438199
1202.223911,-8660.409521,74.020594,-1225.752797
1202.224232,-9400.615463,3108.864956,-1532.190996
1202.224553,-10288.862594,5477.523971,-1378.971896
1202.224874,-9844.739029,6513.812290,-2757.943793
1202.225194,-11473.192101,6143.709319,-919.314598
1202.225515,-11769.274478,4219.173869,0.000000
1202.225836,-11843.295072,1850.514855,995.924147
1202.226157,-11621.233289,-444.123565,842.705048
1202.226477,-10066.800811,-3627.009116,2221.676944
1202.226798,-8808.450710,-5181.441594,2528.115143
1202.227119,-8216.285956,-6217.729913,3447.429741
1202.227440,-7550.100608,-6217.729913,3907.087040
1202.227760,-7624.121203,-5847.626942,4136.915689
1202.228081,-7402.059420,-4811.338623,2451.505594
1202.228402,-7402.059420,-3330.926739,76.609550
1202.228723,-8364.327145,-518.144159,-766.095498
1202.229043,-8660.409521,3330.926739,-229.828649
1202.229364,-10214.842000,6069.688724,-766.095498
1202.229685,-10732.986159,7402.059420,-612.876398
1202.230006,-11695.253884,6809.894666,-383.047749
1202.230326,-12139.377449,4663.297435,-689.485948
1202.230647,-12139.377449,2294.638420,1149.143247
1202.230968,-11843.295072,-222.061783,2681.334243
1202.231289,-10288.862594,-3404.947333,2298.286494
1202.231609,-9030.512492,-5033.400406,2298.286494
1202.231930,-8142.265362,-6217.729913,2298.286494
1202.232251,-8290.306550,-5625.565159,3907.087040
1202.232572,-8438.347739,-5403.503377,3907.087040
1202.232892,-7846.182985,-4737.318029,2681.334243
1202.233213,-7698.141797,-4219.173869,76.609550
1202.233534,-8512.368333,-1628.453072,-306.438199
1202.233855,-8882.471304,1628.453072,-1455.581446
1202.234175,-9844.739029,4811.338623,-1378.971896
1202.234496,-10510.924376,6957.935855,-1455.581446
1202.234817,-11917.315666,7328.038826,-1149.143247
1202.235138,-11843.295072,5181.441594,-306.438199
1202.235458,-12583.501014,2664.741391,1072.533697
1202.235779,-11991.336260,0.000000,1991.848295
1202.236100,-10436.903782,-3182.885551,2451.505594
1202.236421,-8956.491898,-5477.523971,1991.848295
1202.236741,-8142.265362,-6439.791695,2681.334243
1202.237062,-7254.018232,-6365.771101,3217.601092
1202.237383,-7179.997637,-5773.606348,2911.162892
1202.237704,-7476.080014,-4737.318029,2221.676944
1202.238024,-7550.100608,-3701.029710,612.876398
1202.238345,-8438.347739,-1554.432478,-153.219100
1202.238666,-9104.533087,1776.494261,-766.095498
1202.238986,-9178.553681,5477.523971,383.047749
1202.239307,-10807.006753,6365.771101,-689.485948
1202.239628,-11399.171507,6735.874072,-612.876398
1202.239949,-11991.336260,5995.668130,76.609550
1202.240269,-12213.398043,3627.009116,2145.067394
1202.240590,-11695.253884,1332.370696,2374.896044
1202.240911,-10436.903782,-1628.453072,2145.067394
1202.241232,-9252.574275,-4219.173869,2068.457845
1202.241552,-8142.265362,-5551.544565,2451.505594
1202.241873,-8216.285956,-6069.688724,3907.087040
1202.242194,-7698.141797,-6513.812290,3830.477490
1202.242515,-7476.080014,-5255.462188,2911.162892
1202.242835,-7994.224174,-4515.256246,1455.581446
1202.243156,-7846.182985,-1702.473667,-306.438199
1202.243477,-8734.430116,1184.329507,-1072.533697
1202.243798,-9844.739029,4071.132681,-1915.238745
1202.244118,-10362.883188,7031.956449,-2374.896044
1202.244439,-11473.192101,7402.059420,-995.924147
1202.244760,-12287.418637,6217.729913,-1072.533697
1202.245081,-12139.377449,3997.112087,0.000000
1202.245401,-12583.501014,1702.473667,1915.238745
1202.245722,-11695.253884,-740.205942,2987.772442
1202.246043,-10140.821405,-3404.947333,3140.991542
1202.246364,-9104.533087,-5477.523971,3753.867940
1202.246684,-8142.265362,-6217.729913,3600.648841
1202.247005,-7254.018232,-6143.709319,3753.867940
1202.247326,-7624.121203,-4811.338623,2298.286494
1202.247647,-7254.018232,-4367.215058,1685.410096
1202.247967,-8068.244768,-2960.823768,0.000000
1202.248288,-7846.182985,1406.391290,-1149.143247
1202.248609,-10066.800811,4441.235652,-842.705048
1202.248930,-10214.842000,6809.894666,-536.266849
1202.249250,-11325.150913,7328.038826,-612.876398
1202.249571,-12287.418637,6513.812290,-306.438199
1202.249892,-11769.274478,4293.194464,229.828649
1202.250213,-11695.253884,1850.514855,1455.581446
1202.250533,-11103.089130,-814.226536,3064.381992
1202.250854,-8956.491898,-3997.112087,1762.019645
1202.251175,-8512.368333,-5551.544565,2068.457845
1202.251496,-7698.141797,-5477.523971,1762.019645
1202.251816,-7476.080014,-5625.565159,3064.381992
1202.252137,-7846.182985,-5107.421000,3524.039291
1202.252458,-7624.121203,-4293.194464,1762.019645
1202.252779,-7624.121203,-3404.947333,76.609550
1202.253099,-8660.409521,-1110.308913,-1225.752797
1202.253420,-9104.533087,2960.823768,-1532.190996
1202.253741,-10288.862594,6291.750507,-1685.410096
1202.254062,-11251.130318,7772.162391,-1072.533697
1202.254382,-11621.233289,6809.894666,-1225.752797
1202.254703,-11843.295072,5329.482782,-995.924147
1202.255024,-12361.439231,3182.885551,689.485948
1202.255345,-11399.171507,222.061783,1991.848295
1202.255665,-11399.171507,-2442.679609,1608.800546
1202.255986,-9252.574275,-5477.523971,2834.553343
1202.256307,-8068.244768,-6365.771101,3294.210641
1202.256628,-8068.244768,-6809.894666,4290.134789
1202.256948,-7846.182985,-6143.709319,4060.306139
1202.257269,-7476.080014,-5551.544565,3447.429741
1202.257590,-7920.203579,-4219.173869,1302.362347
1202.257911,-8660.409521,-1628.453072,0.000000
1202.258231,-8956.491898,1850.514855,-766.095498
1202.258552,-9844.739029,4737.318029,-1838.629195
1202.258873,-10510.924376,7031.956449,-995.924147
1202.259194,-11399.171507,6957.935855,-919.314598
1202.259514,-11695.253884,5403.503377,-383.047749
1202.259835,-11473.192101,2812.782580,1378.971896
1202.260156,-11991.336260,888.247130,1838.629195
1202.260477,-10584.944971,-2516.700203,2298.286494
1202.260797,-9252.574275,-4737.318029,2528.115143
1202.261118,-8216.285956,-6217.729913,2911.162892
1202.261439,-7624.121203,-6217.729913,3294.210641
1202.261760,-8142.265362,-6217.729913,4136.915689
1202.262080,-7624.121203,-5255.462188,2834.553343
1202.262401,-7476.080014,-4145.153275,919.314598
1202.262722,-8290.306550,-1258.350101,-612.876398
1202.263043,-8142.265362,1332.370696,-1608.800546
1202.263363,-9696.697840,4737.318029,-1455.581446
1202.263684,-10510.924376,6883.915261,-1302.362347
1202.264005,-10881.027347,6957.935855,-1225.752797
1202.264326,-12213.398043,6143.709319,-383.047749
1202.264646,-12287.418637,3330.926739,689.485948
1202.264967,-12213.398043,1036.288319,2374.896044
1202.265288,-11251.130318,-1998.556043,2757.943793
1202.265609,-9474.636058,-4663.297435,2911.162892
1202.265929,-8364.327145,-6809.894666,2757.943793
1202.266250,-7624.121203,-7179.997637,3064.381992
1202.266571,-7328.038826,-7031.956449,3294.210641
1202.266892,-6809.894666,-6513.812290,2451.505594
1202.267212,-7179.997637,-4367.215058,842.705048
1202.267533,-7772.162391,-1998.556043,-842.705048
1202.267854,-8512.368333,1184.329507,-1225.752797
1202.268175,-9474.636058,5181.441594,-612.876398
1202.268495,-10140.821405,8290.306550,-842.705048
1202.268816,-12805.562797,6957.935855,-689.485948
1202.269137,-11621.233289,6809.894666,0.000000
1202.269458,-12657.521608,3478.967927,0.000000
1202.269778,-12139.377449,1702.473667,1455.581446
1202.270099,-10510.924376,-1036.288319,1991.848295
1202.270420,-9474.636058,-3627.009116,1915.238745
1202.270741,-8068.244768,-5329.482782,1685.410096
1202.271061,-6809.894666,-6217.729913,2451.505594
1202.271382,-8216.285956,-5033.400406,3524.039291
1202.271703,-7105.977043,-4885.359217,2604.724693
1202.272024,-7624.121203,-3923.091493,1378.971896
1202.272344,-8290.306550,-2368.659014,459.657299
1202.272665,-8882.471304,962.267725,-995.924147
1202.272986,-9770.718434,4367.215058,-766.095498
1202.273307,-10288.862594,6957.935855,-842.705048
1202.273627,-11103.089130,7328.038826,-1455.581446
1202.273948,-11103.089130,6735.874072,229.828649
1202.274269,-11621.233289,4441.235652,0.000000
1202.274590,-11991.336260,2072.576638,842.705048
1202.274910,-11325.150913,-148.041188,2451.505594
1202.275231,-10066.800811,-3478.967927,2757.943793
1202.275552,-8956.491898,-5847.626942,3370.820191
1202.275873,-8068.244768,-7254.018232,3677.258390
1202.276193,-7846.182985,-7179.997637,4366.744339
1202.276514,-7624.121203,-6291.750507,4290.134789
1202.276835,-7846.182985,-4737.318029,3370.820191
1202.277156,-7476.080014,-3182.885551,919.314598
1202.277476,-7920.203579,0.000000,-306.438199
1202.277797,-9104.533087,3627.009116,-1302.362347
1202.278118,-10214.842000,6513.812290,-1149.143247
1202.278439,-10732.986159,7402.059420,-1225.752797
1202.278759,-11843.295072,6735.874072,-612.876398
1202.279080,-12139.377449,4737.318029,0.000000
1202.279401,-12361.439231,2516.700203,1685.410096
1202.279722,-11843.295072,-296.082377,3294.210641
1202.280042,-10214.842000,-2960.823768,2374.896044
1202.280363,-9252.574275,-5255.462188,2145.067394
1202.280684,-8142.265362,-5477.523971,2911.162892
1202.281005,-7476.080014,-5477.523971,5056.230287
1202.281325,-7624.121203,-5699.585753,3524.039291
1202.281646,-7179.997637,-5181.441594,2145.067394
1202.281967,-7402.059420,-3701.029710,153.219100
1202.282288,-8142.265362,-1776.494261,-1149.143247
1202.282608,-8808.450710,1776.494261,-1302.362347
1202.282929,-9992.780217,4737.318029,-1532.190996
1202.283250,-10955.047942,6735.874072,-1685.410096
1202.283571,-12139.377449,6735.874072,-842.705048
1202.283891,-11991.336260,4737.318029,-229.828649
1202.284212,-12509.480420,2590.720797,612.876398
1202.284533,-12287.418637,740.205942,2298.286494
1202.284854,-10732.986159,-2368.659014,2528.115143
1202.285174,-9252.574275,-5477.523971,3217.601092
1202.285495,-8438.347739,-6957.935855,3064.381992
1202.285816,-7550.100608,-7476.080014,2911.162892
1202.286137,-7105.977043,-6957.935855,3294.210641
1202.286457,-6809.894666,-5625.565159,2451.505594
1202.286778,-6883.915261,-4219.173869,766.095498
1202.287099,-7994.224174,-1924.535449,-689.485948
1202.287419,-8586.388927,1406.391290,-1302.362347
1202.287740,-9918.759623,4959.379811,-995.924147
1202.288061,-10955.047942,6957.935855,0.000000
1202.288382,-11843.295072,6957.935855,-153.219100
1202.288702,-12213.398043,4885.359217,459.657299
1202.289023,-11621.233289,2812.782580,842.705048
1202.289344,-11843.295072,1332.370696,3677.258390
1202.289665,-10584.944971,-1184.329507,2911.162892
1202.289985,-9400.615463,-3775.050304,3294.210641
1202.290306,-8734.430116,-5699.585753,3524.039291
1202.290627,-7476.080014,-6069.688724,3677.258390
1202.290948,-7772.162391,-6069.688724,4290.134789
1202.291268,-7698.141797,-5181.441594,3677.258390
1202.291589,-7846.182985,-3775.050304,1838.629195
1202.291910,-8438.347739,-1554.432478,229.828649
1202.292231,-9252.574275,1554.432478,-612.876398
1202.292551,-9548.656652,3849.070898,-1378.971896
1202.292872,-10214.842000,5773.606348,-1915.238745
1202.293193,-10807.006753,6883.915261,-1991.848295
1202.293514,-12287.418637,5995.668130,-995.924147
1202.293834,-12139.377449,4293.194464,-153.219100
1202.294155,-11917.315666,2368.659014,1302.362347
1202.294476,-11325.150913,-592.164754,2145.067394
1202.294797,-10140.821405,-3849.070898,2068.457845
1202.295117,-9252.574275,-5995.668130,2604.724693
1202.295438,-8216.285956,-7031.956449,2528.115143
1202.295759,-7624.121203,-6439.791695,2757.943793
1202.296080,-7179.997637,-5033.400406,2451.505594
1202.296400,-6883.915261,-4293.194464,1149.143247
1202.296721,-7698.141797,-2294.638420,-229.828649
1202.297042,-8216.285956,962.267725,-1915.238745
1202.297363,-9474.636058,4293.194464,-1532.190996
1202.297683,-11029.068536,5625.565159,-1991.848295
1202.298004,-11399.171507,7179.997637,-995.924147
1202.298325,-11917.315666,6513.812290,-689.485948
1202.298646,-11991.336260,4885.359217,0.000000
1202.298967,-12065.356855,2886.803174,1225.752797
1202.299287,-11473.192101,74.020594,2374.896044
1202.299608,-9770.718434,-2738.761985,1838.629195
1202.299929,-8882.471304,-4219.173869,1991.848295
1202.300250,-7846.182985,-4663.297435,2528.115143
1202.300570,-8068.244768,-5107.421000,3677.258390
1202.300891,-7698.141797,-5181.441594,3447.429741
1202.301212,-7698.141797,-4441.235652,2145.067394
1202.301533,-8068.244768,-3034.844362,459.657299
1202.301854,-8734.430116,-444.123565,-1685.410096
1202.302174,-9326.594869,2664.741391,-153.219100
1202.302495,-10140.821405,5403.503377,-536.266849
1202.302816,-10510.924376,7179.997637,-766.095498
1202.303137,-11399.171507,7031.956449,-612.876398
1202.303458,-11547.212695,4885.359217,612.876398
1202.303778,-11843.295072,2516.700203,1149.143247
1202.304099,-11547.212695,-592.164754,3064.381992
1202.304420,-9918.759623,-3552.988522,2834.553343
1202.304741,-9326.594869,-5921.647536,3064.381992
1202.305062,-8290.306550,-7031.956449,3983.696590
1202.305382,-8068.244768,-7031.956449,4673.182538
1202.305703,-7994.224174,-6217.729913,4366.744339
1202.306024,-7328.038826,-5033.400406,3217.601092
1202.306345,-7254.018232,-3849.070898,766.095498
1202.306665,-8142.265362,-1406.391290,0.000000
1202.306986,-8660.409521,2368.659014,-1149.143247
1202.307307,-9844.739029,5847.626942,-1532.190996
1202.307628,-10732.986159,7772.162391,-1149.143247
1202.307949,-11473.192101,7624.121203,-689.485948
1202.308269,-12213.398043,5181.441594,-153.219100
1202.308590,-12065.356855,2886.803174,995.924147
1202.308911,-11103.089130,0.000000,2374.896044
1202.309232,-10658.965565,-2812.782580,1915.238745
1202.309553,-9326.594869,-4663.297435,2451.505594
1202.309873,-8660.409521,-5477.523971,2298.286494
1202.310194,-7550.100608,-5403.503377,3294.210641
1202.310515,-7846.182985,-5255.462188,2987.772442
1202.310836,-7550.100608,-4737.318029,2451.505594
1202.311157,-8068.244768,-4219.173869,842.705048
1202.311477,-8068.244768,-2516.700203,-766.095498
1202.311798,-8660.409521,814.226536,-1225.752797
1202.312119,-9696.697840,3552.988522,-1991.848295
1202.312440,-10732.986159,5625.565159,-1838.629195
1202.312760,-11251.130318,6217.729913,-1762.019645
1202.313081,-11325.150913,4959.379811,-306.438199
1202.313402,-11843.295072,2812.782580,0.000000
1202.313723,-11843.295072,666.185348,1455.581446
1202.314044,-10955.047942,-1924.535449,2221.676944
1202.314364,-8586.388927,-3775.050304,2374.896044
1202.314685,-8808.450710,-6439.791695,3064.381992
1202.315006,-7920.203579,-6957.935855,3064.381992
1202.315327,-7624.121203,-6217.729913,3217.601092
1202.315648,-7550.100608,-5107.421000,2757.943793
1202.315968,-7328.038826,-3775.050304,1455.581446
1202.316289,-8068.244768,-1628.453072,-229.828649
1202.316610,-8660.409521,962.267725,-1302.362347
1202.316931,-9474.636058,4515.256246,-1225.752797
1202.317252,-10658.965565,7031.956449,-995.924147
1202.317572,-11695.253884,7328.038826,-536.266849
1202.317893,-11843.295072,6735.874072,306.438199
1202.318214,-11917.315666,4071.132681,1149.143247
1202.318535,-12213.398043,2072.576638,2528.115143
1202.318855,-10881.027347,-1036.288319,2757.943793
1202.319176,-10214.842000,-3627.009116,3140.991542
1202.319497,-8364.327145,-5329.482782,3217.601092
1202.319818,-7772.162391,-5773.606348,3370.820191
1202.320139,-7698.141797,-5699.585753,4136.915689
1202.320459,-7624.121203,-4589.276840,3753.867940
1202.320780,-7994.224174,-3404.947333,2757.943793
1202.321101,-8364.327145,-2220.617826,766.095498
1202.321422,-8290.306550,296.082377,-536.266849
1202.321743,-9400.615463,4293.194464,-612.876398
1202.322063,-10214.842000,6365.771101,-1378.971896
1202.322384,-10807.006753,7328.038826,-1225.752797
1202.322705,-11103.089130,5847.626942,383.047749
1202.323026,-11843.295072,4367.215058,-459.657299
1202.323347,-11991.336260,1702.473667,919.314598
1202.323667,-11473.192101,-1184.329507,2298.286494
1202.323988,-10140.821405,-3627.009116,2604.724693
1202.324309,-9326.594869,-5477.523971,2681.334243
1202.324630,-8364.327145,-6439.791695,3217.601092
1202.324950,-7698.141797,-6217.729913,3370.820191
1202.325271,-7698.141797,-5477.523971,2911.162892
1202.325592,-7179.997637,-3997.112087,919.314598
1202.325913,-7846.182985,-2442.679609,-612.876398
1202.326234,-8216.285956,74.020594,-1455.581446
1202.326554,-9178.553681,3923.091493,-1991.848295
1202.326875,-9770.718434,6661.853478,-689.485948
1202.327196,-11325.150913,7105.977043,-1608.800546
1202.327517,-11843.295072,6291.750507,-1072.533697
1202.327838,-11991.336260,4811.338623,0.000000
1202.328158,-12139.377449,2368.659014,1302.362347
1202.328479,-11695.253884,-296.082377,2298.286494
1202.328800,-10436.903782,-3627.009116,2451.505594
1202.329121,-8956.491898,-5847.626942,2451.505594
1202.329441,-7698.141797,-6365.771101,2757.943793
1202.329762,-7105.977043,-6735.874072,3677.258390
1202.330083,-7550.100608,-5477.523971,3677.258390
1202.330404,-7402.059420,-4737.318029,2757.943793
1202.330725,-7254.018232,-3775.050304,612.876398
1202.331045,-7698.141797,-1332.370696,-612.876398
1202.331366,-8586.388927,1702.473667,-1072.533697
1202.331687,-10288.862594,4367.215058,-612.876398
1202.332008,-10584.944971,6513.812290,-919.314598
1202.332329,-11547.212695,6143.709319,-459.657299
1202.332649,-11695.253884,5477.523971,76.609550
1202.332970,-12287.418637,2664.741391,1608.800546
1202.333291,-11843.295072,0.000000,2757.943793
1202.333612,-10140.821405,-3182.885551,2451.505594
1202.333933,-8512.368333,-5181.441594,3600.648841
1202.334253,-8512.368333,-6661.853478,4060.306139
1202.334574,-8068.244768,-6883.915261,4290.134789
1202.334895,-7698.141797,-6069.688724,4443.353888
1202.335216,-7031.956449,-5255.462188,2221.676944
1202.335536,-7698.141797,-3404.947333,995.924147
1202.335857,-8290.306550,-1480.411884,76.609550
1202.336178,-8660.409521,1702.473667,-842.705048
1202.336499,-9844.739029,4663.297435,-1072.533697
1202.336820,-10658.965565,6661.853478,-1149.143247
1202.337140,-11843.295072,6291.750507,-612.876398
1202.337461,-11917.315666,5477.523971,-153.219100
1202.337782,-12287.418637,3404.947333,1149.143247
1202.338103,-11621.233289,740.205942,2068.457845
1202.338424,-10881.027347,-1776.494261,2298.286494
1202.338744,-9770.718434,-4811.338623,1532.190996
1202.339065,-8216.285956,-5699.585753,1838.629195
1202.339386,-8734.430116,-5181.441594,1762.019645
1202.339707,-8142.265362,-4959.379811,3447.429741
1202.340028,-7772.162391,-4589.276840,2681.334243
1202.340348,-8142.265362,-3923.091493,1225.752797
1202.340669,-8364.327145,-2220.617826,-612.876398
1202.340990,-8734.430116,666.185348,-1991.848295
1202.341311,-9548.656652,3923.091493,-2451.505594
1202.341631,-10436.903782,6661.853478,-2221.676944
1202.341952,-11399.171507,7550.100608,-1991.848295
1202.342273,-11991.336260,6809.894666,-1915.238745
