#time,accel_x,accel_y,accel_z
1242.980881,-9104.533087,-4293.194464,3064.381992
1242.981202,-8882.471304,-4293.194464,2528.115143
1242.981522,-9030.512492,-4219.173869,2298.286494
1242.981843,-8438.347739,-3330.926739,842.705048
1242.982164,-8882.471304,-1332.370696,229.828649
1242.982485,-9474.636058,222.061783,0.000000
1242.982806,-9992.780217,1332.370696,612.876398
1242.983127,-10732.986159,1258.350101,842.705048
1242.983447,-10436.903782,1110.308913,306.438199
1242.983768,-10658.965565,-666.185348,-766.095498
1242.984089,-11029.068536,0.000000,842.705048
1242.984410,-10658.965565,-592.164754,1302.362347
1242.984731,-10140.821405,-1480.411884,1455.581446
1242.985052,-9252.574275,-2072.576638,1225.752797
1242.985372,-8734.430116,-2664.741391,612.876398
1242.985693,-8808.450710,-2590.720797,919.314598
1242.986014,-8660.409521,-2146.597232,1838.629195
1242.986335,-8882.471304,-1998.556043,1915.238745
1242.986656,-9696.697840,0.000000,3140.991542
1242.986977,-9104.533087,-740.205942,2221.676944
1242.987297,-9474.636058,0.000000,2834.553343
1242.987618,-9918.759623,0.000000,3370.820191
1242.987939,-10066.800811,0.000000,4060.306139
1242.988260,-10066.800811,0.000000,3983.696590
1242.988581,-9770.718434,-296.082377,4136.915689
1242.988901,-9992.780217,-962.267725,4673.182538
1242.989222,-9622.677246,-1036.288319,4673.182538
1242.989543,-9178.553681,-2146.597232,4673.182538
1242.989864,-9104.533087,-2442.679609,4826.401637
1242.990185,-8956.491898,-3108.864956,4596.572988
1242.990506,-8956.491898,-3404.947333,5056.230287
1242.990826,-9104.533087,-3701.029710,4749.792088
1242.991147,-8882.471304,-3701.029710,5286.058936
1242.991468,-9030.512492,-3478.967927,5439.278036
1242.991789,-9400.615463,-2886.803174,5592.497135
1242.992110,-9696.697840,-2738.761985,6358.592633
1242.992431,-9696.697840,-3330.926739,5898.935335
1242.992751,-9696.697840,-3552.988522,6052.154434
1242.993072,-9622.677246,-4293.194464,5822.325785
1242.993393,-9844.739029,-4441.235652,5898.935335
1242.993714,-9622.677246,-5033.400406,6511.811733
1242.994035,-9770.718434,-5625.565159,6358.592633
1242.994356,-9326.594869,-6291.750507,6741.640382
1242.994676,-9252.574275,-6957.935855,6281.983084
1242.994997,-8734.430116,-7846.182985,6741.640382
1242.995318,-8586.388927,-7698.141797,5209.449386
1242.995639,-8586.388927,-7179.997637,4443.353888
1242.995960,-8512.368333,-6587.832884,3370.820191
1242.996280,-8808.450710,-5107.421000,2987.772442
1242.996601,-9030.512492,-4219.173869,2681.334243
1242.996922,-9474.636058,-3478.967927,2604.724693
1242.997243,-9622.677246,-3330.926739,2068.457845
1242.997564,-9992.780217,-3330.926739,1838.629195
1242.997885,-10510.924376,-3034.844362,1378.971896
1242.998205,-10510.924376,-3627.009116,1302.362347
1242.998526,-10288.862594,-4219.173869,612.876398
1242.998847,-9844.739029,-4219.173869,0.000000
1242.999168,-9918.759623,-4219.173869,459.657299
1242.999489,-9844.739029,-3108.864956,689.485948
1242.999810,-9918.759623,-3775.050304,1225.752797
1243.000130,-9770.718434,-3404.947333,1378.971896
1243.000451,-9992.780217,-4515.256246,1685.410096
1243.000772,-9548.656652,-5107.421000,1685.410096
1243.001093,-9400.615463,-5403.503377,1302.362347
1243.001414,-9400.615463,-4589.276840,1762.019645
1243.001735,-9474.636058,-3404.947333,1685.410096
1243.002055,-8956.491898,-2590.720797,2604.724693
1243.002376,-9992.780217,-1554.432478,1838.629195
1243.002697,-9770.718434,-1480.411884,1838.629195
1243.003018,-10362.883188,-2072.576638,1762.019645
1243.003339,-9770.718434,-2294.638420,1685.410096
1243.003659,-9696.697840,-1998.556043,995.924147
1243.003980,-9992.780217,-296.082377,1762.019645
1243.004301,-10066.800811,814.226536,2528.115143
1243.004622,-9696.697840,1110.308913,3677.258390
1243.004943,-9918.759623,222.061783,4366.744339
1243.005264,-9770.718434,-444.123565,4596.572988
1243.005585,-9474.636058,-1850.514855,4519.963438
1243.005906,-9252.574275,-2664.741391,4826.401637
1243.006227,-7846.182985,-2738.761985,3907.087040
1243.006548,-8364.327145,-3108.864956,5362.668486
1243.006869,-8512.368333,-3330.926739,4826.401637
1243.007189,-8512.368333,-2960.823768,3140.991542
1243.007510,-8142.265362,-1776.494261,1685.410096
1243.007831,-8660.409521,1184.329507,1915.238745
1243.008152,-9474.636058,3775.050304,2451.505594
1243.008473,-9696.697840,5181.441594,2911.162892
1243.008794,-10214.842000,5255.462188,3294.210641
1243.009115,-11251.130318,3997.112087,3753.867940
1243.009436,-10658.965565,1480.411884,3983.696590
1243.009757,-10732.986159,-148.041188,4826.401637
1243.010078,-9918.759623,-962.267725,5745.716235
1243.010399,-9326.594869,-2368.659014,6435.202183
1243.010720,-9178.553681,-2886.803174,5515.887586
1243.011041,-8068.244768,-4367.215058,3524.039291
1243.011362,-7846.182985,-3701.029710,1455.581446
1243.011683,-8068.244768,-1480.411884,459.657299
1243.012004,-8586.388927,888.247130,536.266849
1243.012324,-8808.450710,2738.761985,1149.143247
1243.012645,-9770.718434,3034.844362,766.095498
1243.012966,-9992.780217,2812.782580,-383.047749
1243.013287,-10658.965565,2146.597232,766.095498
1243.013608,-11991.336260,2146.597232,766.095498
1243.013929,-11029.068536,1184.329507,612.876398
1243.014250,-10732.986159,0.000000,76.609550
1243.014571,-9770.718434,-1036.288319,919.314598
1243.014892,-8364.327145,-2294.638420,-2145.067394
1243.015213,-8956.491898,-1924.535449,-2221.676944
1243.015534,-8882.471304,-1332.370696,-1072.533697
1243.015855,-8808.450710,-814.226536,-612.876398
1243.016176,-10066.800811,-1184.329507,459.657299
1243.016497,-9770.718434,-518.144159,612.876398
1243.016818,-10214.842000,-370.102971,689.485948
1243.017138,-11029.068536,-740.205942,2145.067394
1243.017459,-10066.800811,-1998.556043,1991.848295
1243.017780,-9770.718434,-2664.741391,306.438199
1243.018101,-9474.636058,-2516.700203,-842.705048
1243.018422,-8438.347739,-1406.391290,-1838.629195
1243.018743,-8734.430116,-518.144159,-2911.162892
1243.019064,-8882.471304,888.247130,-1149.143247
1243.019385,-9326.594869,888.247130,-766.095498
1243.019706,-8808.450710,-370.102971,306.438199
1243.020027,-9770.718434,-2368.659014,1378.971896
1243.020348,-9770.718434,-3034.844362,2987.772442
1243.020669,-10436.903782,-4737.318029,4519.963438
1243.020990,-10140.821405,-4811.338623,5439.278036
1243.021311,-9252.574275,-6143.709319,4903.011187
1243.021632,-8142.265362,-6069.688724,2604.724693
1243.021953,-8142.265362,-3923.091493,2221.676944
1243.022273,-8438.347739,-1480.411884,1915.238745
1243.022594,-8956.491898,444.123565,2374.896044
1243.022915,-9030.512492,370.102971,2068.457845
1243.023236,-9030.512492,74.020594,536.266849
1243.023557,-9770.718434,666.185348,766.095498
1243.023878,-11029.068536,1554.432478,2221.676944
1243.024199,-10658.965565,1554.432478,3294.210641
1243.024520,-10362.883188,0.000000,2987.772442
1243.024841,-9696.697840,-1776.494261,1608.800546
1243.025162,-8808.450710,-2738.761985,306.438199
1243.025483,-9622.677246,-1628.453072,153.219100
1243.025804,-9104.533087,74.020594,1532.190996
1243.026125,-9104.533087,592.164754,2068.457845
1243.026446,-9474.636058,-296.082377,1685.410096
1243.026767,-9178.553681,-814.226536,1225.752797
1243.027088,-9770.718434,-962.267725,3524.039291
1243.027408,-10658.965565,-370.102971,2221.676944
1243.027729,-10214.842000,444.123565,2451.505594
1243.028050,-9992.780217,-296.082377,995.924147
1243.028371,-9104.533087,296.082377,-766.095498
1243.028692,-9252.574275,1406.391290,-1225.752797
1243.029013,-9918.759623,2886.803174,-306.438199
1243.029334,-10214.842000,2886.803174,0.000000
1243.029655,-10214.842000,2294.638420,-153.219100
1243.029976,-9622.677246,2072.576638,-306.438199
1243.030297,-9992.780217,1628.453072,-153.219100
1243.030618,-10066.800811,1480.411884,995.924147
1243.030939,-9474.636058,592.164754,2221.676944
1243.031260,-8586.388927,-1110.308913,1991.848295
1243.031581,-8364.327145,-2590.720797,-229.828649
1243.031902,-8586.388927,-2516.700203,-1072.533697
1243.032223,-8808.450710,-296.082377,-153.219100
1243.032543,-9474.636058,2294.638420,536.266849
1243.032864,-9474.636058,3478.967927,1608.800546
1243.033185,-9696.697840,2590.720797,459.657299
1243.033506,-9548.656652,1924.535449,919.314598
1243.033827,-9918.759623,666.185348,842.705048
1243.034148,-9918.759623,518.144159,1838.629195
1243.034469,-10140.821405,-370.102971,2374.896044
1243.034790,-9030.512492,-1332.370696,1072.533697
1243.035111,-7994.224174,-1184.329507,76.609550
1243.035432,-8216.285956,-1258.350101,-842.705048
1243.035753,-9178.553681,444.123565,1149.143247
1243.036074,-10140.821405,1110.308913,2451.505594
1243.036395,-9918.759623,222.061783,1915.238745
1243.036716,-9992.780217,-370.102971,1302.362347
1243.037037,-9844.739029,-518.144159,1838.629195
1243.037357,-10362.883188,444.123565,2757.943793
1243.037678,-10362.883188,74.020594,3217.601092
1243.037999,-9770.718434,-592.164754,2374.896044
1243.038320,-9400.615463,-1110.308913,76.609550
1243.038641,-9326.594869,-1628.453072,-689.485948
1243.038962,-9252.574275,-444.123565,76.609550
1243.039283,-10362.883188,814.226536,1532.190996
1243.039604,-10584.944971,1924.535449,2221.676944
1243.039925,-10881.027347,-592.164754,2451.505594
1243.040246,-10362.883188,-1628.453072,2451.505594
1243.040567,-10658.965565,-2368.659014,2528.115143
1243.040888,-10436.903782,-2368.659014,2987.772442
1243.041209,-9400.615463,-2368.659014,3140.991542
1243.041530,-8586.388927,-3182.885551,1302.362347
1243.041851,-7772.162391,-3182.885551,-766.095498
1243.042172,-8068.244768,-2220.617826,-459.657299
1243.042492,-8512.368333,-740.205942,612.876398
1243.042813,-10066.800811,0.000000,1225.752797
1243.043134,-10066.800811,-222.061783,1072.533697
1243.043455,-9770.718434,-814.226536,459.657299
1243.043776,-10066.800811,-222.061783,1608.800546
1243.044097,-10436.903782,666.185348,1915.238745
1243.044418,-9992.780217,0.000000,1762.019645
1243.044739,-9104.533087,-1110.308913,536.266849
1243.045060,-8364.327145,-2516.700203,-1302.362347
1243.045381,-8290.306550,-2590.720797,-1991.848295
1243.045702,-8660.409521,-1406.391290,-842.705048
1243.046023,-9252.574275,-740.205942,306.438199
1243.046344,-9474.636058,-518.144159,1302.362347
1243.046665,-10436.903782,-1184.329507,919.314598
1243.046986,-9918.759623,-1332.370696,1608.800546
1243.047307,-10214.842000,-1184.329507,2298.286494
1243.047627,-10140.821405,-666.185348,2451.505594
1243.047948,-9474.636058,-962.267725,2068.457845
1243.048269,-9030.512492,-962.267725,459.657299
1243.048590,-8438.347739,-962.267725,-842.705048
1243.048911,-8660.409521,-74.020594,-1072.533697
1243.049232,-9252.574275,962.267725,0.000000
1243.049553,-10066.800811,1184.329507,1608.800546
1243.049874,-10807.006753,592.164754,1915.238745
1243.050195,-10658.965565,0.000000,1685.410096
1243.050516,-10658.965565,74.020594,1915.238745
1243.050837,-10510.924376,444.123565,3447.429741
1243.051158,-10066.800811,444.123565,2834.553343
1243.051479,-9696.697840,-592.164754,2298.286494
1243.051800,-8734.430116,-1702.473667,153.219100
1243.052121,-8142.265362,-1776.494261,-919.314598
1243.052442,-8808.450710,0.000000,0.000000
1243.052762,-9992.780217,1924.535449,1455.581446
1243.053083,-10436.903782,2220.617826,2374.896044
1243.053404,-10584.944971,1480.411884,2604.724693
1243.053725,-10288.862594,370.102971,2451.505594
1243.054046,-10510.924376,-148.041188,2987.772442
1243.054367,-10510.924376,0.000000,3140.991542
1243.054688,-9696.697840,-296.082377,2834.553343
1243.055009,-7920.203579,-1184.329507,1608.800546
1243.055330,-7328.038826,-1258.350101,-612.876398
1243.055651,-8068.244768,-370.102971,-689.485948
1243.055972,-9104.533087,1036.288319,306.438199
1243.056293,-9992.780217,1406.391290,919.314598
1243.056614,-10362.883188,1628.453072,995.924147
1243.056935,-9992.780217,740.205942,306.438199
1243.057256,-10362.883188,740.205942,919.314598
1243.057576,-10510.924376,1258.350101,2221.676944
1243.057897,-10362.883188,370.102971,1915.238745
1243.058218,-9474.636058,-888.247130,689.485948
1243.058539,-8734.430116,-2072.576638,-995.924147
1243.058860,-7994.224174,-1406.391290,-2374.896044
1243.059181,-8808.450710,370.102971,-1302.362347
1243.059502,-9474.636058,1850.514855,306.438199
1243.059823,-9474.636058,1702.473667,1072.533697
1243.060144,-10362.883188,-370.102971,536.266849
1243.060465,-9696.697840,-814.226536,1378.971896
1243.060786,-10584.944971,-2072.576638,766.095498
1243.061107,-9844.739029,-740.205942,2451.505594
1243.061428,-9992.780217,-1110.308913,1685.410096
1243.061749,-8660.409521,-1554.432478,306.438199
1243.062070,-8364.327145,-1036.288319,-1762.019645
1243.062391,-9030.512492,-370.102971,-766.095498
1243.062711,-9770.718434,740.205942,383.047749
1243.063032,-10510.924376,296.082377,842.705048
1243.063353,-10362.883188,-370.102971,1302.362347
1243.063674,-10288.862594,-666.185348,919.314598
1243.063995,-10658.965565,-222.061783,1838.629195
1243.064316,-10881.027347,296.082377,2834.553343
1243.064637,-10362.883188,-1332.370696,2451.505594
1243.064958,-8438.347739,-1480.411884,1608.800546
1243.065279,-9400.615463,-3627.009116,0.000000
1243.065600,-8142.265362,-2442.679609,-689.485948
1243.065921,-8586.388927,-1258.350101,-383.047749
1243.066242,-9252.574275,592.164754,2145.067394
1243.066563,-9474.636058,962.267725,2068.457845
1243.066884,-10362.883188,0.000000,2604.724693
1243.067205,-10807.006753,-814.226536,2834.553343
1243.067526,-10436.903782,-1332.370696,2834.553343
1243.067846,-10288.862594,-1036.288319,3830.477490
1243.068167,-9474.636058,-1702.473667,2911.162892
1243.068488,-8586.388927,-1924.535449,1378.971896
1243.068809,-8290.306550,-2294.638420,153.219100
1243.069130,-7328.038826,-1554.432478,0.000000
1243.069451,-8882.471304,-1184.329507,229.828649
1243.069772,-9548.656652,-666.185348,1685.410096
1243.070093,-9918.759623,-666.185348,2068.457845
1243.070414,-10807.006753,-1480.411884,1149.143247
1243.070735,-10140.821405,-592.164754,2221.676944
1243.071056,-10584.944971,222.061783,2911.162892
1243.071377,-10214.842000,-962.267725,3064.381992
1243.071698,-9918.759623,-1702.473667,842.705048
1243.072019,-8956.491898,-2738.761985,-229.828649
1243.072340,-7994.224174,-2294.638420,-2068.457845
1243.072661,-8438.347739,0.000000,-1915.238745
1243.072981,-9252.574275,1998.556043,0.000000
1243.073302,-10288.862594,2294.638420,612.876398
1243.073623,-10362.883188,1258.350101,1608.800546
1243.073944,-10362.883188,-296.082377,1455.581446
1243.074265,-11029.068536,-444.123565,1991.848295
1243.074586,-11251.130318,0.000000,3830.477490
1243.074907,-10584.944971,0.000000,2757.943793
1243.075228,-9252.574275,-592.164754,1072.533697
1243.075549,-7698.141797,-1110.308913,-766.095498
1243.075870,-8290.306550,-222.061783,76.609550
1243.076191,-9474.636058,74.020594,0.000000
1243.076512,-10066.800811,888.247130,842.705048
1243.076833,-10288.862594,1628.453072,1149.143247
1243.077154,-10288.862594,1110.308913,536.266849
1243.077475,-10510.924376,1554.432478,1302.362347
1243.077795,-10955.047942,1924.535449,2604.724693
1243.078116,-10436.903782,74.020594,2145.067394
1243.078437,-9474.636058,-888.247130,919.314598
1243.078758,-9326.594869,-1850.514855,-1455.581446
1243.079079,-8068.244768,-1406.391290,-1455.581446
1243.079400,-8586.388927,592.164754,-612.876398
1243.079721,-8882.471304,1998.556043,995.924147
1243.080042,-9844.739029,1924.535449,1608.800546
1243.080363,-9622.677246,814.226536,1302.362347
1243.080684,-10140.821405,-592.164754,1685.410096
1243.081005,-10881.027347,-222.061783,2911.162892
1243.081326,-10510.924376,-518.144159,3983.696590
1243.081647,-9474.636058,-888.247130,2681.334243
1243.081968,-8586.388927,-1628.453072,1455.581446
1243.082289,-7105.977043,-2220.617826,-306.438199
1243.082610,-8438.347739,-370.102971,-383.047749
1243.082930,-8808.450710,2146.597232,1378.971896
1243.083251,-9696.697840,1776.494261,1225.752797
1243.083572,-9696.697840,1110.308913,1378.971896
1243.083893,-9622.677246,592.164754,1225.752797
1243.084214,-10362.883188,592.164754,1991.848295
1243.084535,-10658.965565,1036.288319,2911.162892
1243.084856,-10214.842000,148.041188,3294.210641
1243.085177,-9622.677246,-1332.370696,2298.286494
1243.085498,-9474.636058,-2812.782580,612.876398
1243.085819,-8586.388927,-3034.844362,-229.828649
1243.086140,-9252.574275,-1036.288319,0.000000
1243.086461,-9696.697840,0.000000,1149.143247
1243.086782,-9992.780217,222.061783,1455.581446
1243.087103,-9770.718434,-518.144159,2145.067394
1243.087424,-10066.800811,-1332.370696,766.095498
1243.087745,-10140.821405,-962.267725,995.924147
1243.088065,-9770.718434,-296.082377,1685.410096
1243.088386,-9696.697840,-740.205942,1302.362347
1243.088707,-8734.430116,-1924.535449,229.828649
1243.089028,-8364.327145,-2294.638420,-1225.752797
1243.089349,-8808.450710,-1554.432478,-1225.752797
1243.089670,-9474.636058,-592.164754,-229.828649
1243.089991,-10362.883188,0.000000,842.705048
1243.090312,-10584.944971,-222.061783,1378.971896
1243.090633,-10510.924376,-518.144159,842.705048
1243.090954,-10362.883188,-592.164754,1532.190996
1243.091275,-10288.862594,666.185348,1225.752797
1243.091596,-9844.739029,0.000000,1838.629195
1243.091917,-9696.697840,-888.247130,1149.143247
1243.092238,-8142.265362,-2220.617826,-536.266849
1243.092559,-8364.327145,-1998.556043,-1149.143247
1243.092880,-8438.347739,-740.205942,-995.924147
1243.093200,-9474.636058,1110.308913,459.657299
1243.093521,-10140.821405,1554.432478,1455.581446
1243.093842,-10066.800811,814.226536,1302.362347
1243.094163,-9844.739029,518.144159,842.705048
1243.094484,-9992.780217,-444.123565,1455.581446
1243.094805,-10214.842000,0.000000,2298.286494
1243.095126,-9844.739029,-1110.308913,2145.067394
1243.095447,-8216.285956,-1924.535449,153.219100
1243.095768,-7624.121203,-2886.803174,-842.705048
1243.096089,-8512.368333,-2146.597232,-536.266849
1243.096410,-9548.656652,-370.102971,1378.971896
1243.096731,-10066.800811,74.020594,4060.306139
1243.097052,-10436.903782,-148.041188,2911.162892
1243.097373,-10436.903782,-74.020594,2145.067394
1243.097694,-10436.903782,592.164754,2451.505594
1243.098014,-10807.006753,888.247130,3907.087040
1243.098335,-9918.759623,0.000000,2451.505594
1243.098656,-8734.430116,-666.185348,1455.581446
1243.098977,-8290.306550,-1924.535449,-995.924147
1243.099298,-8290.306550,-592.164754,-766.095498
1243.099619,-8808.450710,962.267725,-1532.190996
1243.099940,-9696.697840,2368.659014,1302.362347
1243.100261,-10436.903782,2368.659014,1915.238745
1243.100582,-10510.924376,1184.329507,2145.067394
1243.100903,-10658.965565,296.082377,2374.896044
1243.101224,-10881.027347,-370.102971,3217.601092
1243.101545,-10288.862594,-518.144159,3217.601092
1243.101866,-9474.636058,-888.247130,2221.676944
1243.102187,-8734.430116,-1110.308913,383.047749
1243.102508,-7920.203579,-518.144159,-689.485948
1243.102829,-8512.368333,592.164754,-306.438199
1243.103149,-9474.636058,1184.329507,459.657299
1243.103470,-10362.883188,888.247130,1302.362347
1243.103791,-10732.986159,0.000000,995.924147
1243.104112,-10881.027347,296.082377,1149.143247
1243.104433,-10436.903782,148.041188,995.924147
1243.104754,-10881.027347,0.000000,1838.629195
1243.105075,-9992.780217,-222.061783,2068.457845
1243.105395,-9548.656652,-1332.370696,995.924147
1243.105716,-8734.430116,-1924.535449,-1378.971896
1243.106037,-8068.244768,-1554.432478,-2145.067394
1243.106358,-8808.450710,-148.041188,-1455.581446
1243.106678,-9400.615463,518.144159,-229.828649
1243.106999,-9548.656652,1110.308913,689.485948
1243.107320,-9770.718434,-1036.288319,536.266849
1243.107641,-10066.800811,-1036.288319,536.266849
1243.107961,-10214.842000,-1110.308913,1455.581446
1243.108282,-9918.759623,-1036.288319,3294.210641
1243.108603,-9104.533087,-1258.350101,1378.971896
1243.108923,-8586.388927,-1702.473667,229.828649
1243.109244,-8216.285956,-1554.432478,-306.438199
1243.109565,-8808.450710,-962.267725,-383.047749
1243.109886,-9252.574275,-148.041188,842.705048
1243.110206,-9918.759623,148.041188,1378.971896
1243.110527,-10362.883188,-222.061783,1991.848295
1243.110848,-10140.821405,-1110.308913,2221.676944
1243.111169,-10732.986159,-888.247130,1762.019645
1243.111489,-10066.800811,-370.102971,2528.115143
1243.111810,-10140.821405,-222.061783,2604.724693
1243.112131,-9178.553681,-296.082377,2068.457845
1243.112452,-9326.594869,-1554.432478,-229.828649
1243.112772,-8586.388927,-962.267725,-919.314598
1243.113093,-8808.450710,148.041188,-153.219100
1243.113414,-10066.800811,1554.432478,1149.143247
1243.113735,-10584.944971,1850.514855,2451.505594
1243.114055,-10881.027347,148.041188,2604.724693
1243.114376,-10658.965565,-518.144159,2298.286494
1243.114697,-10214.842000,-740.205942,2528.115143
1243.115018,-10510.924376,-962.267725,2911.162892
1243.115338,-9696.697840,-666.185348,2987.772442
1243.115659,-8808.450710,-1628.453072,612.876398
1243.115980,-7698.141797,-1480.411884,-76.609550
1243.116301,-8364.327145,-370.102971,-612.876398
1243.116621,-8660.409521,0.000000,1608.800546
1243.116942,-10214.842000,1110.308913,2068.457845
1243.117263,-10510.924376,74.020594,2298.286494
1243.117584,-9992.780217,0.000000,1455.581446
1243.117904,-10584.944971,0.000000,1608.800546
1243.118225,-10584.944971,296.082377,2451.505594
1243.118546,-9770.718434,-296.082377,2374.896044
1243.118867,-9178.553681,-1036.288319,919.314598
1243.119187,-8364.327145,-1406.391290,-689.485948
1243.119508,-8660.409521,-592.164754,-1455.581446
1243.119829,-8734.430116,0.000000,-689.485948
1243.120150,-8956.491898,1110.308913,383.047749
1243.120470,-9844.739029,1332.370696,842.705048
1243.120791,-10436.903782,222.061783,919.314598
1243.121112,-10436.903782,-814.226536,1149.143247
1243.121433,-10288.862594,-444.123565,1838.629195
1243.121753,-10584.944971,-1184.329507,2374.896044
1243.122074,-9474.636058,-592.164754,1532.190996
1243.122395,-9030.512492,-1998.556043,76.609550
1243.122716,-7846.182985,-1332.370696,-1991.848295
1243.123036,-8364.327145,222.061783,-1302.362347
1243.123357,-9474.636058,1332.370696,0.000000
1243.123678,-9770.718434,1628.453072,995.924147
1243.123999,-10436.903782,814.226536,1149.143247
1243.124319,-10066.800811,0.000000,766.095498
1243.124640,-10510.924376,148.041188,1149.143247
1243.124961,-10214.842000,888.247130,2221.676944
1243.125282,-10140.821405,74.020594,2221.676944
1243.125602,-9474.636058,-1036.288319,1302.362347
1243.125923,-8586.388927,-2146.597232,-306.438199
1243.126244,-8808.450710,-2072.576638,-689.485948
1243.126565,-9104.533087,-370.102971,76.609550
1243.126885,-9548.656652,1332.370696,995.924147
1243.127206,-10362.883188,1406.391290,2298.286494
1243.127527,-9918.759623,518.144159,2451.505594
1243.127848,-10288.862594,-518.144159,2221.676944
1243.128168,-10362.883188,-1258.350101,2834.553343
1243.128489,-10362.883188,-1184.329507,2757.943793
1243.128810,-9474.636058,-962.267725,2451.505594
1243.129131,-7179.997637,-2590.720797,-76.609550
1243.129451,-7846.182985,-1406.391290,-612.876398
1243.129772,-8586.388927,74.020594,0.000000
1243.130093,-9326.594869,296.082377,919.314598
1243.130414,-9770.718434,814.226536,1915.238745
1243.130734,-10362.883188,-518.144159,2221.676944
1243.131055,-10140.821405,-814.226536,1225.752797
1243.131376,-10288.862594,-148.041188,1838.629195
1243.131697,-10066.800811,0.000000,2681.334243
1243.132017,-9622.677246,-444.123565,2528.115143
1243.132338,-8956.491898,-1554.432478,1532.190996
1243.132659,-8734.430116,-2812.782580,-612.876398
1243.132980,-8142.265362,-1850.514855,-766.095498
1243.133300,-9548.656652,-518.144159,-383.047749
1243.133621,-9178.553681,962.267725,919.314598
1243.133942,-10066.800811,1036.288319,1991.848295
1243.134263,-10066.800811,222.061783,1915.238745
1243.134583,-10214.842000,-1036.288319,1915.238745
1243.134904,-10214.842000,-1406.391290,2145.067394
1243.135225,-10066.800811,-1776.494261,2451.505594
1243.135546,-9474.636058,-1776.494261,1915.238745
1243.135866,-8882.471304,-2146.597232,383.047749
1243.136187,-8364.327145,-1628.453072,-1072.533697
1243.136508,-8512.368333,-1036.288319,-689.485948
1243.136829,-9326.594869,444.123565,383.047749
1243.137149,-10658.965565,740.205942,1838.629195
1243.137470,-10436.903782,-222.061783,1915.238745
1243.137791,-10436.903782,-592.164754,1225.752797
1243.138111,-10362.883188,0.000000,1072.533697
1243.138432,-10436.903782,370.102971,1991.848295
1243.138753,-10436.903782,222.061783,2451.505594
1243.139074,-9770.718434,-296.082377,1302.362347
1243.139394,-8808.450710,-1924.535449,-1225.752797
1243.139715,-8438.347739,-1554.432478,-2145.067394
1243.140036,-9178.553681,296.082377,-1225.752797
1243.140357,-10362.883188,2146.597232,306.438199
1243.140677,-9918.759623,1110.308913,995.924147
1243.140998,-9474.636058,1036.288319,1608.800546
1243.141319,-10214.842000,-666.185348,995.924147
1243.141640,-10288.862594,-1184.329507,1685.410096
1243.141960,-9992.780217,-370.102971,2681.334243
1243.142281,-10214.842000,-592.164754,2374.896044
1243.142602,-8882.471304,-962.267725,689.485948
1243.142923,-7698.141797,-1036.288319,-995.924147
1243.143243,-8438.347739,296.082377,0.000000
1243.143564,-9252.574275,1110.308913,766.095498
1243.143885,-10066.800811,962.267725,2068.457845
1243.144206,-10066.800811,-222.061783,2068.457845
1243.144526,-9400.615463,-518.144159,919.314598
1243.144847,-10140.821405,444.123565,1685.410096
1243.145168,-10362.883188,962.267725,2681.334243
1243.145489,-9548.656652,296.082377,2834.553343
1243.145809,-8142.265362,-888.247130,2145.067394
1243.146130,-8364.327145,-1924.535449,0.000000
1243.146451,-8512.368333,-1184.329507,-842.705048
1243.146772,-9474.636058,370.102971,383.047749
1243.147092,-9622.677246,1998.556043,1378.971896
1243.147413,-9696.697840,2072.576638,2374.896044
1243.147734,-10066.800811,296.082377,2068.457845
1243.148055,-10140.821405,-444.123565,1915.238745
1243.148375,-10436.903782,-740.205942,2221.676944
1243.148696,-10658.965565,-1110.308913,2528.115143
1243.149017,-9770.718434,-814.226536,2451.505594
1243.149338,-9178.553681,-1628.453072,766.095498
1243.149658,-8364.327145,-1036.288319,-229.828649
1243.149979,-8364.327145,0.000000,-612.876398
1243.150300,-9474.636058,666.185348,306.438199
1243.150621,-10288.862594,740.205942,1302.362347
1243.150941,-10510.924376,0.000000,1225.752797
1243.151262,-10436.903782,-148.041188,919.314598
1243.151583,-10362.883188,444.123565,1225.752797
1243.151904,-10510.924376,740.205942,2068.457845
1243.152224,-10066.800811,222.061783,2374.896044
1243.152545,-9474.636058,-1554.432478,1608.800546
1243.152866,-8512.368333,-3330.926739,0.000000
1243.153187,-8290.306550,-3108.864956,-1455.581446
1243.153507,-9030.512492,-1258.350101,-1072.533697
1243.153828,-9474.636058,888.247130,842.705048
1243.154149,-9770.718434,1480.411884,1225.752797
1243.154470,-9770.718434,740.205942,1838.629195
1243.154790,-9918.759623,-740.205942,1072.533697
1243.155111,-10510.924376,-1406.391290,1378.971896
1243.155432,-10288.862594,-1258.350101,2451.505594
1243.155753,-9918.759623,-1702.473667,2145.067394
1243.156073,-8142.265362,-2368.659014,612.876398
1243.156394,-7550.100608,-2590.720797,-1532.190996
1243.156715,-8438.347739,-962.267725,-1225.752797
1243.157036,-9030.512492,0.000000,-229.828649
1243.157356,-10510.924376,1258.350101,1685.410096
1243.157677,-10362.883188,1184.329507,1685.410096
1243.157998,-10510.924376,296.082377,1302.362347
1243.158319,-11251.130318,-148.041188,1685.410096
1243.158639,-10288.862594,-296.082377,1991.848295
1243.158960,-9770.718434,-1110.308913,2221.676944
1243.159281,-9178.553681,-1702.473667,1072.533697
1243.159602,-7994.224174,-2220.617826,-536.266849
1243.159922,-8734.430116,-1110.308913,-612.876398
1243.160243,-9400.615463,148.041188,229.828649
1243.160564,-9770.718434,1258.350101,1149.143247
1243.160885,-10658.965565,1554.432478,2604.724693
1243.161205,-10584.944971,148.041188,3064.381992
1243.161526,-10436.903782,-740.205942,2528.115143
1243.161847,-10584.944971,-1628.453072,2528.115143
1243.162168,-9992.780217,-1258.350101,2911.162892
1243.162488,-9400.615463,-1702.473667,2298.286494
1243.162809,-8660.409521,-1480.411884,689.485948
1243.163130,-7476.080014,-962.267725,-919.314598
1243.163451,-8290.306550,0.000000,-1608.800546
1243.163771,-9252.574275,1184.329507,0.000000
1243.164092,-9992.780217,1184.329507,1378.971896
1243.164413,-10436.903782,0.000000,1302.362347
1243.164734,-10214.842000,-518.144159,995.924147
1243.165054,-10658.965565,-296.082377,1302.362347
1243.165375,-10955.047942,666.185348,2451.505594
1243.165696,-10658.965565,296.082377,2757.943793
1243.166017,-9474.636058,-444.123565,1149.143247
1243.166337,-8512.368333,-1554.432478,-1378.971896
1243.166658,-8956.491898,-1628.453072,-459.657299
1243.166979,-9178.553681,-444.123565,-1378.971896
1243.167299,-9252.574275,1480.411884,919.314598
1243.167620,-10362.883188,222.061783,1762.019645
1243.167941,-9622.677246,888.247130,1991.848295
1243.168262,-10955.047942,-888.247130,2451.505594
1243.168582,-10214.842000,-592.164754,2145.067394
1243.168903,-10658.965565,0.000000,2757.943793
1243.169224,-9474.636058,-888.247130,1991.848295
1243.169545,-8142.265362,-1184.329507,-1302.362347
1243.169865,-7550.100608,-1332.370696,-2145.067394
1243.170186,-8216.285956,0.000000,-1685.410096
1243.170507,-9474.636058,1110.308913,229.828649
1243.170828,-10881.027347,1924.535449,1762.019645
1243.171148,-10807.006753,370.102971,2451.505594
1243.171469,-10881.027347,-370.102971,2145.067394
1243.171790,-11029.068536,-518.144159,2451.505594
1243.172111,-11251.130318,0.000000,3830.477490
1243.172431,-9992.780217,0.000000,3600.648841
1243.172752,-8808.450710,-1776.494261,1072.533697
1243.173073,-7772.162391,-2220.617826,-1149.143247
1243.173394,-7698.141797,-1850.514855,-2145.067394
1243.173714,-7994.224174,-148.041188,-459.657299
1243.174035,-9252.574275,888.247130,306.438199
1243.174356,-9622.677246,1554.432478,1838.629195
1243.174677,-10955.047942,74.020594,2374.896044
1243.174997,-10584.944971,-592.164754,3677.258390
1243.175318,-10732.986159,-888.247130,3294.210641
1243.175639,-10955.047942,-1554.432478,3064.381992
1243.175960,-9770.718434,-740.205942,2451.505594
1243.176280,-8808.450710,-1924.535449,76.609550
1243.176601,-7328.038826,-1258.350101,-1608.800546
1243.176922,-8364.327145,-296.082377,-1302.362347
1243.177243,-9178.553681,888.247130,153.219100
1243.177563,-9844.739029,666.185348,1455.581446
1243.177884,-10732.986159,0.000000,1762.019645
1243.178205,-10510.924376,-888.247130,1455.581446
1243.178526,-10584.944971,0.000000,1838.629195
1243.178846,-11103.089130,518.144159,3064.381992
1243.179167,-10881.027347,370.102971,2987.772442
1243.179488,-9474.636058,-444.123565,1378.971896
1243.179809,-9104.533087,-1776.494261,-383.047749
1243.180129,-8586.388927,-962.267725,-1225.752797
1243.180450,-9400.615463,74.020594,-612.876398
1243.180771,-9252.574275,1406.391290,689.485948
1243.181092,-10066.800811,1480.411884,1532.190996
1243.181412,-9992.780217,0.000000,1532.190996
1243.181733,-9548.656652,-1036.288319,766.095498
1243.182054,-10955.047942,-888.247130,1685.410096
1243.182375,-9770.718434,-518.144159,2451.505594
1243.182695,-9548.656652,-888.247130,2604.724693
1243.183016,-8734.430116,-1258.350101,842.705048
1243.183337,-8068.244768,-1258.350101,-1072.533697
1243.183658,-8438.347739,-518.144159,-306.438199
1243.183978,-9474.636058,444.123565,1072.533697
1243.184299,-10066.800811,740.205942,2298.286494
1243.184620,-10436.903782,222.061783,1915.238745
1243.184941,-9844.739029,-296.082377,1455.581446
1243.185261,-10066.800811,0.000000,2145.067394
1243.185582,-10214.842000,0.000000,2681.334243
1243.185903,-9474.636058,-592.164754,2604.724693
1243.186224,-9030.512492,-1776.494261,1532.190996
1243.186544,-8438.347739,-2516.700203,-459.657299
1243.186865,-8290.306550,-1998.556043,-1225.752797
1243.187186,-8956.491898,-222.061783,0.000000
1243.187507,-9992.780217,1406.391290,459.657299
1243.187827,-10066.800811,1036.288319,1762.019645
1243.188148,-10140.821405,74.020594,1838.629195
1243.188469,-10066.800811,-962.267725,1762.019645
1243.188790,-10362.883188,-888.247130,2068.457845
1243.189110,-10362.883188,-1110.308913,2451.505594
1243.189431,-9474.636058,-888.247130,1685.410096
1243.189752,-8142.265362,-1406.391290,-536.266849
1243.190073,-7994.224174,-1036.288319,-1149.143247
1243.190393,-8290.306550,0.000000,-153.219100
1243.190714,-9770.718434,1036.288319,459.657299
1243.191035,-10584.944971,1110.308913,1685.410096
1243.191356,-10436.903782,0.000000,1685.410096
1243.191676,-9918.759623,-296.082377,536.266849
1243.191997,-10436.903782,0.000000,995.924147
1243.192318,-10288.862594,888.247130,1608.800546
1243.192639,-9918.759623,666.185348,1838.629195
1243.192959,-9400.615463,-888.247130,766.095498
1243.193280,-8290.306550,-2072.576638,-842.705048
1243.193601,-8734.430116,-1554.432478,-1225.752797
1243.193922,-9326.594869,0.000000,0.000000
1243.194242,-9770.718434,1036.288319,1455.581446
1243.194563,-10510.924376,962.267725,1915.238745
1243.194884,-9992.780217,0.000000,2068.457845
1243.195204,-9622.677246,-740.205942,1302.362347
1243.195525,-9992.780217,-592.164754,1838.629195
1243.195846,-10362.883188,0.000000,1608.800546
1243.196167,-9252.574275,74.020594,1991.848295
1243.196487,-8660.409521,-1406.391290,76.609550
1243.196808,-7550.100608,-666.185348,-766.095498
1243.197129,-8882.471304,-962.267725,-153.219100
1243.197450,-9696.697840,370.102971,1149.143247
1243.197770,-10584.944971,222.061783,2145.067394
1243.198091,-9918.759623,-444.123565,2221.676944
1243.198412,-9918.759623,-370.102971,1455.581446
1243.198733,-10214.842000,148.041188,2221.676944
1243.199053,-10362.883188,592.164754,2451.505594
1243.199374,-9474.636058,370.102971,2068.457845
1243.199695,-9252.574275,-740.205942,919.314598
1243.200016,-8290.306550,-1850.514855,0.000000
1243.200336,-8660.409521,-1850.514855,-536.266849
1243.200657,-9252.574275,-296.082377,919.314598
1243.200978,-10140.821405,888.247130,2221.676944
1243.201299,-10214.842000,962.267725,2757.943793
1243.201619,-10436.903782,0.000000,2221.676944
1243.201940,-10510.924376,-592.164754,2374.896044
1243.202261,-10140.821405,-444.123565,2298.286494
1243.202582,-9844.739029,-296.082377,1991.848295
1243.202902,-9474.636058,-1036.288319,1532.190996
1243.203223,-8364.327145,-1998.556043,0.000000
1243.203544,-7920.203579,-2368.659014,-995.924147
1243.203865,-9030.512492,-962.267725,-612.876398
1243.204185,-10066.800811,0.000000,229.828649
1243.204506,-11029.068536,592.164754,2374.896044
1243.204827,-10732.986159,-148.041188,2374.896044
1243.205148,-10436.903782,-814.226536,1225.752797
1243.205468,-10214.842000,-222.061783,995.924147
1243.205789,-9918.759623,-222.061783,1608.800546
1243.206110,-9474.636058,-666.185348,1532.190996
1243.206431,-8882.471304,-1776.494261,0.000000
1243.206751,-8438.347739,-2442.679609,-1378.971896
1243.207072,-7920.203579,-1332.370696,-1532.190996
1243.207393,-9326.594869,0.000000,-612.876398
1243.207713,-10140.821405,1924.535449,995.924147
1243.208034,-10288.862594,1924.535449,2145.067394
1243.208355,-10510.924376,444.123565,1225.752797
1243.208675,-10362.883188,-592.164754,2145.067394
1243.208996,-10288.862594,-962.267725,2145.067394
1243.209316,-10066.800811,-1036.288319,2374.896044
1243.209637,-9030.512492,-740.205942,1685.410096
1243.209958,-7994.224174,-1480.411884,536.266849
1243.210278,-7698.141797,-1628.453072,-766.095498
1243.210599,-8216.285956,-666.185348,-689.485948
1243.210920,-9400.615463,592.164754,536.266849
1243.211240,-11029.068536,1332.370696,3064.381992
1243.211561,-10436.903782,74.020594,2145.067394
1243.211881,-9844.739029,0.000000,1072.533697
1243.212202,-9770.718434,592.164754,1225.752797
1243.212523,-10436.903782,1406.391290,2451.505594
1243.212843,-10362.883188,740.205942,2528.115143
1243.213164,-9548.656652,-444.123565,1225.752797
1243.213485,-9104.533087,-1776.494261,-842.705048
1243.213805,-8290.306550,-1036.288319,-1302.362347
1243.214126,-9326.594869,0.000000,0.000000
1243.214446,-10140.821405,1554.432478,1838.629195
1243.214767,-10140.821405,1258.350101,2451.505594
1243.215088,-10214.842000,-296.082377,1991.848295
1243.215408,-9252.574275,-1332.370696,2298.286494
1243.215729,-9918.759623,-1184.329507,2145.067394
1243.216050,-10214.842000,-888.247130,2757.943793
1243.216370,-9178.553681,-296.082377,2298.286494
1243.216691,-8438.347739,-1406.391290,766.095498
1243.217011,-7846.182985,-1036.288319,-612.876398
1243.217332,-8586.388927,-296.082377,-536.266849
1243.217653,-10066.800811,222.061783,689.485948
1243.217973,-10214.842000,1110.308913,1762.019645
1243.218294,-10955.047942,592.164754,1685.410096
1243.218615,-10584.944971,666.185348,1225.752797
1243.218935,-10510.924376,740.205942,1378.971896
1243.219256,-10436.903782,814.226536,2374.896044
1243.219576,-9696.697840,-444.123565,2528.115143
1243.219897,-8882.471304,-1332.370696,383.047749
1243.220218,-8586.388927,-2442.679609,-1149.143247
1243.220538,-8216.285956,-1850.514855,-2145.067394
1243.220859,-9252.574275,74.020594,0.000000
1243.221180,-9844.739029,1480.411884,1072.533697
1243.221500,-10214.842000,1850.514855,2145.067394
1243.221821,-10436.903782,148.041188,1991.848295
1243.222141,-10510.924376,-888.247130,1532.190996
1243.222462,-10288.862594,-1480.411884,1532.190996
1243.222783,-10288.862594,-1776.494261,1838.629195
1243.223103,-8956.491898,-1332.370696,1302.362347
1243.223424,-8882.471304,-2072.576638,306.438199
1243.223745,-7550.100608,-2368.659014,0.000000
1243.224065,-8734.430116,-1258.350101,-766.095498
1243.224386,-9474.636058,0.000000,306.438199
1243.224707,-10436.903782,814.226536,1532.190996
1243.225027,-10584.944971,222.061783,3447.429741
1243.225348,-9844.739029,-444.123565,612.876398
1243.225668,-10140.821405,222.061783,689.485948
1243.225989,-10584.944971,740.205942,1685.410096
1243.226310,-10288.862594,592.164754,2451.505594
1243.226630,-9400.615463,-1036.288319,1838.629195
1243.226951,-8586.388927,-2220.617826,-612.876398
1243.227272,-8586.388927,-1554.432478,-1225.752797
1243.227592,-8956.491898,74.020594,-229.828649
1243.227913,-9918.759623,1924.535449,842.705048
1243.228233,-10288.862594,2072.576638,2298.286494
1243.228554,-10140.821405,444.123565,1762.019645
1243.228875,-9918.759623,-370.102971,1532.190996
1243.229195,-9992.780217,-1036.288319,2221.676944
1243.229516,-10362.883188,-1036.288319,2681.334243
1243.229837,-9474.636058,-1480.411884,1838.629195
1243.230157,-8364.327145,-1776.494261,1149.143247
1243.230478,-8808.450710,-2146.597232,-229.828649
1243.230798,-8142.265362,-296.082377,0.000000
1243.231119,-10066.800811,0.000000,1378.971896
1243.231440,-10214.842000,740.205942,2298.286494
1243.231760,-9918.759623,0.000000,1608.800546
1243.232081,-10140.821405,-148.041188,1838.629195
1243.232402,-9844.739029,-296.082377,1685.410096
1243.232722,-9844.739029,0.000000,2451.505594
1243.233043,-9844.739029,-222.061783,2757.943793
1243.233363,-9252.574275,-1776.494261,2681.334243
1243.233684,-8512.368333,-2294.638420,-153.219100
1243.234005,-8438.347739,-2294.638420,-1072.533697
1243.234325,-8364.327145,666.185348,-383.047749
1243.234646,-10288.862594,1258.350101,842.705048
1243.234967,-9622.677246,1924.535449,2451.505594
1243.235287,-11399.171507,1332.370696,2911.162892
1243.235608,-10732.986159,-222.061783,2911.162892
1243.235928,-10732.986159,-962.267725,2757.943793
1243.236249,-9918.759623,-888.247130,3600.648841
1243.236570,-9326.594869,-2146.597232,1915.238745
1243.236890,-8512.368333,-1776.494261,1225.752797
1243.237211,-7254.018232,-1702.473667,-1225.752797
1243.237532,-8216.285956,-148.041188,-1838.629195
1243.237852,-8882.471304,1628.453072,306.438199
1243.238173,-10214.842000,1480.411884,536.266849
1243.238493,-10066.800811,814.226536,919.314598
1243.238814,-10732.986159,0.000000,919.314598
1243.239135,-9844.739029,-148.041188,995.924147
1243.239455,-11029.068536,0.000000,1915.238745
1243.239776,-10140.821405,-740.205942,2374.896044
1243.240097,-9474.636058,-1332.370696,1149.143247
1243.240417,-9474.636058,-2442.679609,-536.266849
1243.240738,-8290.306550,-1184.329507,-1762.019645
1243.241058,-8882.471304,296.082377,-1225.752797
1243.241379,-9252.574275,1406.391290,76.609550
1243.241700,-9770.718434,1406.391290,459.657299
1243.242020,-9844.739029,-296.082377,1225.752797
1243.242341,-9992.780217,-1924.535449,1149.143247
1243.242662,-10214.842000,-1776.494261,1991.848295
1243.242982,-9992.780217,-1480.411884,2298.286494
1243.243303,-9400.615463,-1110.308913,2757.943793
1243.243624,-8290.306550,-962.267725,306.438199
1243.243944,-7476.080014,-1258.350101,-2145.067394
1243.244265,-7698.141797,0.000000,-1608.800546
1243.244585,-10214.842000,1036.288319,766.095498
1243.244906,-10510.924376,888.247130,2145.067394
1243.245227,-11029.068536,-148.041188,2451.505594
1243.245547,-10288.862594,-592.164754,1991.848295
1243.245868,-10732.986159,222.061783,2528.115143
1243.246189,-11029.068536,1332.370696,4060.306139
1243.246509,-10658.965565,888.247130,3753.867940
1243.246830,-9770.718434,-740.205942,2451.505594
1243.247150,-8290.306550,-2220.617826,-306.438199
1243.247471,-7698.141797,-2220.617826,-919.314598
1243.247792,-8882.471304,-74.020594,0.000000
1243.248112,-9548.656652,1480.411884,1532.190996
1243.248433,-9918.759623,2072.576638,2145.067394
1243.248754,-10436.903782,1184.329507,2681.334243
1243.249074,-10362.883188,518.144159,2298.286494
1243.249395,-10881.027347,-444.123565,2451.505594
1243.249715,-10510.924376,-888.247130,3447.429741
1243.250036,-9770.718434,-1628.453072,2757.943793
1243.250357,-8956.491898,-2442.679609,919.314598
1243.250677,-7772.162391,-2664.741391,-383.047749
1243.250998,-8068.244768,-962.267725,-689.485948
1243.251319,-9548.656652,666.185348,1072.533697
1243.251639,-10362.883188,1776.494261,2298.286494
1243.251960,-10362.883188,444.123565,2145.067394
1243.252280,-10214.842000,74.020594,1455.581446
1243.252601,-9992.780217,0.000000,1685.410096
1243.252922,-10140.821405,222.061783,1762.019645
1243.253242,-9918.759623,-370.102971,2451.505594
1243.253563,-9030.512492,-1924.535449,689.485948
1243.253884,-8364.327145,-2738.761985,-1378.971896
1243.254204,-8364.327145,-1850.514855,-2374.896044
1243.254525,-9400.615463,148.041188,-1302.362347
1243.254845,-9844.739029,1850.514855,842.705048
1243.255166,-10510.924376,1702.473667,1455.581446
1243.255487,-10066.800811,222.061783,1149.143247
1243.255807,-9770.718434,-1480.411884,1225.752797
1243.256128,-9992.780217,-1776.494261,1072.533697
1243.256449,-9992.780217,-1184.329507,1762.019645
1243.256769,-9400.615463,-1110.308913,1455.581446
1243.257090,-8290.306550,-1998.556043,-459.657299
1243.257410,-7846.182985,-1628.453072,-1838.629195
1243.257731,-8068.244768,-666.185348,-1302.362347
1243.258052,-9696.697840,592.164754,459.657299
1243.258372,-10658.965565,1332.370696,1762.019645
1243.258693,-10881.027347,592.164754,2221.676944
1243.259014,-10584.944971,296.082377,1455.581446
1243.259334,-10436.903782,74.020594,1532.190996
1243.259655,-10732.986159,222.061783,2374.896044
1243.259975,-10066.800811,-222.061783,1915.238745
1243.260296,-9178.553681,-1850.514855,995.924147
1243.260617,-8290.306550,-2368.659014,-229.828649
1243.260937,-8660.409521,-2294.638420,-842.705048
1243.261258,-8808.450710,-814.226536,0.000000
1243.261579,-9918.759623,1110.308913,1608.800546
1243.261899,-10140.821405,1554.432478,2374.896044
1243.262220,-10584.944971,1036.288319,2221.676944
1243.262540,-10362.883188,148.041188,2068.457845
1243.262861,-10066.800811,-148.041188,2528.115143
1243.263182,-10066.800811,-666.185348,2911.162892
1243.263502,-9474.636058,-1554.432478,2604.724693
1243.263823,-8438.347739,-2738.761985,766.095498
1243.264144,-7179.997637,-2590.720797,-919.314598
1243.264464,-8290.306550,-1480.411884,-612.876398
1243.264785,-9178.553681,888.247130,919.314598
1243.265106,-10288.862594,1628.453072,2374.896044
1243.265426,-10584.944971,1110.308913,3753.867940
1243.265747,-9770.718434,222.061783,1991.848295
1243.266067,-10140.821405,-518.144159,1915.238745
1243.266388,-9622.677246,296.082377,2068.457845
1243.266709,-9992.780217,0.000000,2834.553343
1243.267029,-9030.512492,-888.247130,689.485948
1243.267350,-8068.244768,-1628.453072,-995.924147
1243.267671,-8364.327145,-888.247130,-1532.190996
1243.267991,-9252.574275,592.164754,76.609550
1243.268312,-10436.903782,1406.391290,1455.581446
1243.268632,-10658.965565,1554.432478,2451.505594
1243.268953,-10436.903782,888.247130,1838.629195
1243.269274,-10140.821405,-370.102971,1302.362347
1243.269594,-9474.636058,-962.267725,612.876398
1243.269915,-10066.800811,-666.185348,1838.629195
1243.270236,-9104.533087,-1776.494261,1149.143247
1243.270556,-7994.224174,-1998.556043,-306.438199
1243.270877,-8142.265362,-2072.576638,-1149.143247
1243.271197,-8882.471304,-592.164754,-766.095498
1243.271518,-9844.739029,444.123565,1149.143247
1243.271839,-10510.924376,444.123565,2145.067394
1243.272159,-10510.924376,-296.082377,1532.190996
1243.272480,-10214.842000,-962.267725,1455.581446
1243.272801,-10436.903782,-222.061783,1915.238745
1243.273121,-10510.924376,444.123565,1915.238745
1243.273442,-10066.800811,74.020594,1838.629195
1243.273762,-8216.285956,-962.267725,383.047749
1243.274083,-8660.409521,-1406.391290,-1455.581446
1243.274404,-8734.430116,-1036.288319,-1532.190996
1243.274724,-9326.594869,0.000000,-306.438199
1243.275045,-10066.800811,444.123565,689.485948
1243.275366,-10584.944971,1184.329507,1225.752797
1243.275686,-11177.109724,0.000000,2221.676944
1243.276007,-10362.883188,-518.144159,2528.115143
1243.276327,-10510.924376,-222.061783,2757.943793
1243.276648,-9844.739029,-888.247130,2987.772442
1243.276969,-8808.450710,-1036.288319,2145.067394
1243.277289,-8734.430116,-2294.638420,919.314598
1243.277610,-7476.080014,-1776.494261,-1225.752797
1243.277931,-7476.080014,-444.123565,383.047749
1243.278251,-9474.636058,666.185348,919.314598
1243.278572,-9992.780217,1332.370696,2145.067394
1243.278892,-10955.047942,592.164754,2374.896044
1243.279213,-10362.883188,0.000000,2298.286494
1243.279534,-10362.883188,-518.144159,1991.848295
1243.279854,-10362.883188,-296.082377,2068.457845
1243.280175,-9326.594869,-296.082377,2068.457845
1243.280496,-8660.409521,-962.267725,995.924147
1243.280816,-8734.430116,-1702.473667,0.000000
1243.281137,-8068.244768,-1258.350101,-1149.143247
1243.281457,-8956.491898,0.000000,0.000000
1243.281778,-9844.739029,888.247130,1072.533697
1243.282099,-10658.965565,1332.370696,1762.019645
1243.282419,-10658.965565,444.123565,2221.676944
1243.282740,-10658.965565,-148.041188,2298.286494
1243.283061,-10732.986159,-666.185348,2451.505594
1243.283381,-9844.739029,-740.205942,2221.676944
1243.283702,-9252.574275,-1258.350101,1915.238745
1243.284023,-8438.347739,-1480.411884,383.047749
1243.284343,-7624.121203,-1628.453072,-1225.752797
1243.284664,-8512.368333,0.000000,-919.314598
1243.284984,-8438.347739,444.123565,76.609550
1243.285305,-10214.842000,1332.370696,1685.410096
1243.285626,-11103.089130,962.267725,2451.505594
1243.285946,-10658.965565,74.020594,2145.067394
1243.286267,-10658.965565,-222.061783,2451.505594
1243.286588,-10288.862594,0.000000,2374.896044
1243.286908,-9992.780217,-370.102971,2221.676944
1243.287229,-9104.533087,-1332.370696,689.485948
1243.287549,-8364.327145,-1924.535449,-842.705048
1243.287870,-8216.285956,-2072.576638,-1762.019645
1243.288191,-8734.430116,-444.123565,-919.314598
1243.288511,-9992.780217,962.267725,919.314598
1243.288832,-10584.944971,888.247130,2068.457845
1243.289153,-9844.739029,-148.041188,1455.581446
1243.289473,-10732.986159,-814.226536,1838.629195
1243.289794,-10066.800811,-1406.391290,1302.362347
1243.290114,-10214.842000,-1110.308913,1838.629195
1243.290435,-9400.615463,-2072.576638,1149.143247
1243.290756,-7846.182985,-1998.556043,-536.266849
1243.291076,-7698.141797,-1702.473667,-1915.238745
1243.291397,-8586.388927,0.000000,-1455.581446
1243.291718,-9548.656652,1036.288319,229.828649
1243.292038,-10807.006753,1406.391290,1991.848295
1243.292359,-11103.089130,444.123565,1838.629195
1243.292679,-10214.842000,148.041188,919.314598
1243.293000,-10510.924376,666.185348,1302.362347
1243.293321,-10881.027347,1628.453072,2145.067394
1243.293641,-9770.718434,962.267725,2604.724693
1243.293962,-9252.574275,-888.247130,383.047749
1243.294283,-7772.162391,-2072.576638,-1685.410096
1243.294603,-7476.080014,-2294.638420,-2068.457845
1243.294924,-9474.636058,0.000000,-153.219100
1243.295244,-10140.821405,1628.453072,1991.848295
1243.295565,-10362.883188,1332.370696,2911.162892
1243.295886,-10510.924376,0.000000,2451.505594
1243.296206,-10510.924376,-814.226536,2068.457845
1243.296527,-10658.965565,-1480.411884,2451.505594
1243.296848,-10214.842000,-1332.370696,2911.162892
1243.297168,-9030.512492,-1554.432478,2145.067394
1243.297489,-7550.100608,-2146.597232,-153.219100
1243.297809,-7402.059420,-1110.308913,-1149.143247
1243.298130,-8438.347739,222.061783,-306.438199
1243.298451,-9474.636058,962.267725,1608.800546
1243.298771,-10436.903782,962.267725,3447.429741
1243.299092,-10584.944971,-518.144159,1838.629195
1243.299413,-9622.677246,-518.144159,1378.971896
1243.299733,-10362.883188,0.000000,1685.410096
1243.300054,-10066.800811,666.185348,2528.115143
1243.300374,-9252.574275,370.102971,1838.629195
1243.300695,-8660.409521,-814.226536,306.438199
1243.301016,-7920.203579,-1332.370696,-1072.533697
1243.301336,-9104.533087,-888.247130,-766.095498
1243.301657,-9992.780217,444.123565,1149.143247
1243.301978,-10214.842000,666.185348,1915.238745
1243.302298,-9844.739029,1258.350101,2451.505594
1243.302619,-10881.027347,-962.267725,2451.505594
1243.302940,-10436.903782,-148.041188,1991.848295
1243.303260,-10732.986159,-1332.370696,2145.067394
1243.303581,-9474.636058,-2072.576638,1685.410096
1243.303901,-8734.430116,-1036.288319,995.924147
1243.304222,-8586.388927,-1998.556043,0.000000
1243.304543,-8216.285956,-1480.411884,-1762.019645
1243.304863,-8290.306550,296.082377,-612.876398
1243.305184,-10362.883188,296.082377,1072.533697
1243.305505,-10732.986159,888.247130,2834.553343
1243.305825,-11769.274478,0.000000,2221.676944
1243.306146,-11029.068536,-888.247130,1838.629195
1243.306467,-10362.883188,-666.185348,1302.362347
1243.306787,-10436.903782,0.000000,1762.019645
1243.307108,-9104.533087,222.061783,2604.724693
1243.307429,-9030.512492,-1332.370696,536.266849
1243.307750,-7994.224174,-2146.597232,-842.705048
1243.308071,-8808.450710,-1998.556043,-1608.800546
1243.308391,-8882.471304,0.000000,-1378.971896
1243.308712,-10066.800811,1554.432478,919.314598
1243.309033,-10214.842000,2072.576638,2221.676944
1243.309354,-10066.800811,370.102971,1685.410096
1243.309674,-10288.862594,-962.267725,2145.067394
1243.309995,-9992.780217,-1406.391290,3370.820191
1243.310316,-10214.842000,-1628.453072,2757.943793
1243.310637,-9918.759623,-1998.556043,2451.505594
1243.310958,-8216.285956,-2072.576638,766.095498
1243.311278,-7402.059420,-1258.350101,-2221.676944
1243.311599,-8808.450710,0.000000,-536.266849
1243.311920,-9178.553681,1036.288319,383.047749
1243.312241,-9622.677246,592.164754,1072.533697
1243.312562,-9992.780217,0.000000,842.705048
1243.312882,-9770.718434,370.102971,536.266849
1243.313203,-10510.924376,518.144159,1378.971896
1243.313524,-10362.883188,444.123565,2528.115143
1243.313845,-9622.677246,296.082377,2681.334243
1243.314165,-10584.944971,-1332.370696,689.485948
1243.314486,-8586.388927,-2368.659014,-766.095498
1243.314807,-8734.430116,-1554.432478,-995.924147
1243.315128,-9622.677246,666.185348,0.000000
1243.315449,-9992.780217,2738.761985,1532.190996
1243.315769,-10510.924376,2368.659014,2374.896044
1243.316090,-10510.924376,222.061783,1838.629195
1243.316411,-10362.883188,-814.226536,1302.362347
1243.316732,-10288.862594,-1110.308913,2221.676944
1243.317053,-10436.903782,-518.144159,1608.800546
1243.317373,-10066.800811,-740.205942,2451.505594
1243.317694,-8956.491898,-1554.432478,1072.533697
1243.318015,-7994.224174,-888.247130,-383.047749
1243.318336,-9178.553681,222.061783,-76.609550
1243.318657,-9918.759623,1406.391290,1838.629195
1243.318977,-10362.883188,1110.308913,2451.505594
1243.319298,-10066.800811,296.082377,1915.238745
1243.319619,-9696.697840,-296.082377,1608.800546
1243.319940,-9918.759623,592.164754,1838.629195
1243.320260,-9918.759623,0.000000,2374.896044
1243.320581,-9474.636058,-518.144159,2298.286494
1243.320902,-8660.409521,-1850.514855,1072.533697
1243.321223,-8290.306550,-2812.782580,-459.657299
1243.321544,-8216.285956,-1924.535449,-1149.143247
1243.321864,-9178.553681,-296.082377,0.000000
1243.322185,-9622.677246,1184.329507,1838.629195
1243.322506,-9918.759623,1036.288319,2451.505594
1243.322827,-10732.986159,0.000000,459.657299
1243.323148,-9770.718434,-1406.391290,1762.019645
1243.323468,-9918.759623,-2072.576638,1991.848295
1243.323789,-9992.780217,-1702.473667,1991.848295
1243.324110,-9178.553681,-1406.391290,1302.362347
1243.324431,-8586.388927,-1554.432478,-536.266849
1243.324752,-7920.203579,-740.205942,-1685.410096
1243.325072,-9030.512492,148.041188,-919.314598
1243.325393,-9696.697840,1110.308913,612.876398
1243.325714,-10658.965565,1332.370696,1378.971896
1243.326035,-10807.006753,444.123565,1072.533697
1243.326355,-10436.903782,148.041188,612.876398
1243.326676,-10584.944971,888.247130,1302.362347
1243.326997,-10955.047942,1258.350101,2451.505594
1243.327318,-10140.821405,148.041188,1991.848295
1243.327639,-9474.636058,-666.185348,766.095498
1243.327959,-9400.615463,-2368.659014,-919.314598
1243.328280,-9030.512492,-1554.432478,-1225.752797
1243.328601,-9844.739029,-296.082377,76.609550
1243.328922,-10066.800811,814.226536,1302.362347
1243.329243,-10288.862594,1184.329507,1991.848295
1243.329563,-9992.780217,-370.102971,1838.629195
1243.329884,-9844.739029,-888.247130,919.314598
1243.330205,-10140.821405,-592.164754,1762.019645
1243.330526,-9770.718434,-370.102971,2757.943793
1243.330846,-9548.656652,-1776.494261,1838.629195
1243.331167,-7105.977043,-1480.411884,-842.705048
1243.331488,-8068.244768,-2368.659014,-1455.581446
1243.331809,-8512.368333,148.041188,0.000000
1243.332130,-9548.656652,814.226536,1149.143247
1243.332450,-10288.862594,1110.308913,2911.162892
1243.332771,-9992.780217,0.000000,1838.629195
1243.333092,-9770.718434,74.020594,1149.143247
1243.333413,-10584.944971,518.144159,2451.505594
1243.333734,-9474.636058,222.061783,2834.553343
1243.334054,-9992.780217,-518.144159,2374.896044
1243.334375,-9030.512492,-2072.576638,1608.800546
1243.334696,-8290.306550,-2812.782580,-459.657299
1243.335017,-8364.327145,-2146.597232,-153.219100
1243.335338,-9474.636058,296.082377,2145.067394
1243.335658,-9326.594869,888.247130,1225.752797
1243.335979,-9844.739029,1258.350101,1685.410096
1243.336300,-9622.677246,444.123565,842.705048
1243.336621,-9548.656652,222.061783,766.095498
1243.336941,-10510.924376,74.020594,1762.019645
1243.337262,-10362.883188,0.000000,2221.676944
1243.337583,-9770.718434,-592.164754,2374.896044
1243.337904,-9474.636058,-1998.556043,919.314598
1243.338225,-8586.388927,-1480.411884,536.266849
1243.338545,-9770.718434,-740.205942,612.876398
1243.338866,-10955.047942,592.164754,2145.067394
1243.339187,-10732.986159,1036.288319,2604.724693
1243.339508,-10288.862594,814.226536,2145.067394
1243.339829,-9844.739029,-222.061783,536.266849
1243.340149,-9548.656652,0.000000,1072.533697
1243.340470,-9844.739029,-296.082377,1455.581446
1243.340791,-9622.677246,-148.041188,3064.381992
1243.341112,-8882.471304,-1776.494261,306.438199
1243.341433,-8438.347739,-2294.638420,-1225.752797
1243.341753,-9400.615463,-1924.535449,-1149.143247
1243.342074,-9474.636058,148.041188,0.000000
1243.342395,-10066.800811,1110.308913,1608.800546
1243.342716,-10510.924376,1406.391290,2068.457845
1243.343036,-10362.883188,0.000000,2145.067394
1243.343357,-10140.821405,-1258.350101,1685.410096
1243.343678,-9178.553681,-592.164754,1532.190996
1243.343999,-9622.677246,-962.267725,1685.410096
1243.344320,-8956.491898,-814.226536,995.924147
1243.344640,-8364.327145,-1702.473667,0.000000
1243.344961,-7920.203579,-1628.453072,-2068.457845
1243.345282,-8438.347739,-592.164754,-995.924147
1243.345603,-9548.656652,962.267725,1149.143247
1243.345924,-10362.883188,740.205942,1838.629195
1243.346244,-10510.924376,296.082377,1685.410096
1243.346565,-10362.883188,0.000000,1455.581446
1243.346886,-9548.656652,296.082377,919.314598
1243.347207,-10288.862594,888.247130,1608.800546
1243.347527,-9474.636058,296.082377,1915.238745
1243.347848,-8734.430116,-592.164754,1072.533697
1243.348169,-8512.368333,-1702.473667,-1149.143247
1243.348490,-8216.285956,-888.247130,-1225.752797
1243.348811,-9548.656652,444.123565,76.609550
1243.349131,-10140.821405,1184.329507,1302.362347
1243.349452,-10214.842000,1110.308913,2451.505594
1243.349773,-10658.965565,74.020594,2757.943793
1243.350094,-10214.842000,-1036.288319,1915.238745
1243.350415,-10214.842000,-888.247130,2298.286494
1243.350735,-9770.718434,-296.082377,3370.820191
1243.351056,-9770.718434,-222.061783,2298.286494
1243.351377,-8734.430116,-666.185348,919.314598
1243.351698,-8290.306550,-1110.308913,-536.266849
1243.352019,-8438.347739,-592.164754,-689.485948
1243.352339,-9474.636058,370.102971,459.657299
1243.352660,-10584.944971,962.267725,1991.848295
1243.352981,-10732.986159,888.247130,2451.505594
1243.353302,-10955.047942,-370.102971,2068.457845
1243.353622,-10140.821405,0.000000,2221.676944
1243.353943,-10288.862594,-518.144159,2374.896044
1243.354264,-9696.697840,-592.164754,2681.334243
1243.354585,-8882.471304,-1776.494261,1072.533697
1243.354906,-8290.306550,-1850.514855,-306.438199
1243.355226,-7920.203579,-1480.411884,-1149.143247
1243.355547,-9178.553681,0.000000,0.000000
1243.355868,-9622.677246,1110.308913,1762.019645
1243.356189,-9992.780217,888.247130,2145.067394
1243.356510,-10362.883188,-222.061783,1072.533697
1243.356830,-10066.800811,-666.185348,1685.410096
1243.357151,-10066.800811,-962.267725,1838.629195
1243.357472,-10066.800811,-1184.329507,1685.410096
1243.357793,-8882.471304,-518.144159,2681.334243
1243.358114,-8734.430116,-2368.659014,-306.438199
1243.358434,-7624.121203,-1998.556043,-1532.190996
1243.358755,-8734.430116,-1184.329507,-995.924147
1243.359076,-9548.656652,-148.041188,229.828649
1243.359397,-10436.903782,370.102971,766.095498
1243.359717,-10881.027347,-222.061783,1762.019645
1243.360038,-10288.862594,0.000000,995.924147
1243.360359,-10362.883188,0.000000,1072.533697
1243.360680,-9992.780217,0.000000,2834.553343
1243.361001,-10066.800811,0.000000,1455.581446
1243.361321,-9400.615463,-1406.391290,76.609550
1243.361642,-8660.409521,-1998.556043,-1685.410096
1243.361963,-8438.347739,-1332.370696,-919.314598
1243.362284,-8956.491898,814.226536,-919.314598
1243.362605,-10214.842000,2368.659014,919.314598
1243.362925,-10955.047942,2220.617826,2145.067394
1243.363246,-10955.047942,592.164754,1685.410096
1243.363567,-10807.006753,-296.082377,1991.848295
1243.363888,-10881.027347,-814.226536,2298.286494
1243.364209,-10362.883188,-962.267725,2528.115143
1243.364529,-9400.615463,-1110.308913,2374.896044
1243.364850,-8216.285956,-1702.473667,-1149.143247
1243.365171,-7772.162391,-962.267725,-1225.752797
1243.365492,-8808.450710,0.000000,0.000000
1243.365812,-9474.636058,444.123565,1225.752797
1243.366133,-10214.842000,0.000000,2374.896044
1243.366454,-10362.883188,-370.102971,1991.848295
1243.366775,-10066.800811,-592.164754,1685.410096
1243.367096,-10436.903782,0.000000,2298.286494
1243.367416,-9992.780217,592.164754,3217.601092
1243.367737,-9474.636058,0.000000,2681.334243
1243.368058,-8734.430116,-222.061783,1685.410096
1243.368379,-8808.450710,-2294.638420,-229.828649
1243.368700,-7920.203579,-962.267725,-459.657299
1243.369020,-8734.430116,444.123565,-229.828649
1243.369341,-9178.553681,222.061783,1455.581446
1243.369662,-9548.656652,888.247130,2145.067394
1243.369983,-10288.862594,-222.061783,2451.505594
1243.370303,-9400.615463,-1480.411884,2834.553343
1243.370624,-10510.924376,-1184.329507,2987.772442
1243.370945,-10066.800811,-1110.308913,2911.162892
1243.371266,-9326.594869,-740.205942,1762.019645
1243.371587,-8660.409521,-1332.370696,689.485948
1243.371907,-7328.038826,-1184.329507,-536.266849
1243.372228,-8438.347739,-814.226536,-536.266849
1243.372549,-9474.636058,148.041188,536.266849
1243.372870,-10066.800811,518.144159,1378.971896
1243.373191,-10658.965565,-222.061783,689.485948
1243.373511,-10362.883188,-222.061783,1149.143247
1243.373832,-10807.006753,518.144159,1532.190996
1243.374153,-10288.862594,1110.308913,1838.629195
1243.374474,-9844.739029,296.082377,1378.971896
1243.374795,-9326.594869,-592.164754,459.657299
1243.375115,-8512.368333,-2442.679609,-1532.190996
1243.375436,-8808.450710,-1702.473667,-1915.238745
1243.375757,-9548.656652,0.000000,-689.485948
1243.376078,-9918.759623,1036.288319,689.485948
1243.376398,-10436.903782,1628.453072,1991.848295
1243.376719,-10584.944971,0.000000,1838.629195
1243.377040,-10362.883188,-1184.329507,1378.971896
1243.377361,-10658.965565,-1258.350101,1838.629195
1243.377682,-9770.718434,-1110.308913,1762.019645
1243.378002,-9104.533087,-1110.308913,1455.581446
1243.378323,-8512.368333,-1702.473667,153.219100
1243.378644,-7624.121203,-1332.370696,-1302.362347
1243.378965,-8808.450710,-296.082377,-1072.533697
1243.379286,-9474.636058,814.226536,1225.752797
1243.379606,-10658.965565,888.247130,2451.505594
1243.379927,-10732.986159,-444.123565,2298.286494
1243.380248,-9474.636058,-740.205942,1608.800546
1243.380569,-10436.903782,-296.082377,1455.581446
1243.380890,-9622.677246,222.061783,1991.848295
1243.381210,-9770.718434,74.020594,2451.505594
1243.381531,-8734.430116,-370.102971,919.314598
1243.381852,-8068.244768,-1702.473667,-1149.143247
1243.382173,-8808.450710,-296.082377,-536.266849
1243.382493,-8808.450710,1036.288319,306.438199
1243.382814,-9622.677246,1406.391290,1915.238745
1243.383135,-10584.944971,888.247130,2451.505594
1243.383456,-9474.636058,-444.123565,1762.019645
1243.383777,-10066.800811,-1184.329507,919.314598
1243.384097,-9918.759623,-444.123565,2221.676944
1243.384418,-9474.636058,148.041188,2374.896044
1243.384739,-9992.780217,518.144159,2757.943793
1243.385060,-8438.347739,-592.164754,1072.533697
1243.385381,-8068.244768,-1110.308913,153.219100
1243.385701,-9474.636058,0.000000,-612.876398
1243.386022,-10140.821405,0.000000,1991.848295
1243.386343,-10807.006753,444.123565,3064.381992
1243.386664,-10732.986159,0.000000,2757.943793
1243.386984,-9770.718434,0.000000,1455.581446
1243.387305,-10288.862594,518.144159,1072.533697
1243.387626,-10140.821405,444.123565,1455.581446
1243.387947,-9326.594869,1184.329507,1072.533697
1243.388268,-8734.430116,0.000000,-229.828649
1243.388588,-7476.080014,-1702.473667,-1608.800546
1243.388909,-8068.244768,-1258.350101,-2145.067394
1243.389230,-9474.636058,-444.123565,-766.095498
1243.389551,-10214.842000,888.247130,1225.752797
1243.389872,-9400.615463,-74.020594,3294.210641
1243.390192,-10955.047942,-222.061783,1915.238745
1243.390513,-10584.944971,-518.144159,1838.629195
1243.390834,-10807.006753,-592.164754,2221.676944
1243.391155,-10288.862594,-1184.329507,2451.505594
1243.391476,-9030.512492,-2072.576638,995.924147
1243.391796,-8216.285956,-3108.864956,-229.828649
1243.392117,-7920.203579,-2738.761985,-1608.800546
1243.392438,-8512.368333,-1406.391290,-919.314598
1243.392759,-9696.697840,0.000000,612.876398
1243.393079,-10140.821405,592.164754,1762.019645
1243.393400,-10510.924376,148.041188,1685.410096
1243.393721,-10881.027347,-370.102971,1072.533697
1243.394042,-10807.006753,148.041188,-842.705048
1243.394363,-10436.903782,0.000000,1762.019645
1243.394683,-9844.739029,-444.123565,1685.410096
1243.395004,-8956.491898,-1628.453072,153.219100
1243.395325,-8142.265362,-2220.617826,-1608.800546
1243.395646,-8438.347739,-1258.350101,-2068.457845
1243.395967,-9030.512492,592.164754,-229.828649
1243.396287,-10288.862594,1554.432478,1685.410096
1243.396608,-10732.986159,1406.391290,2374.896044
1243.396929,-10658.965565,-444.123565,2451.505594
1243.397250,-10214.842000,-1110.308913,2068.457845
1243.397571,-10510.924376,-1110.308913,2681.334243
1243.397891,-10214.842000,-1036.288319,2757.943793
1243.398212,-10140.821405,-74.020594,2604.724693
1243.398533,-8586.388927,-1406.391290,766.095498
1243.398854,-7698.141797,-1036.288319,-689.485948
1243.399174,-8364.327145,0.000000,-383.047749
1243.399495,-9844.739029,666.185348,1149.143247
1243.399816,-10066.800811,444.123565,1608.800546
1243.400137,-10066.800811,-666.185348,1685.410096
1243.400458,-9622.677246,-962.267725,1225.752797
1243.400778,-10288.862594,-148.041188,1915.238745
1243.401099,-10584.944971,1184.329507,2604.724693
1243.401420,-10288.862594,1036.288319,3217.601092
1243.401741,-9548.656652,-74.020594,1762.019645
1243.402062,-8586.388927,-962.267725,306.438199
1243.402382,-8734.430116,-1110.308913,-459.657299
1243.402703,-9474.636058,296.082377,306.438199
1243.403024,-10510.924376,1628.453072,2145.067394
1243.403345,-10436.903782,1924.535449,1991.848295
1243.403665,-10288.862594,962.267725,1991.848295
1243.403986,-9992.780217,-222.061783,1378.971896
1243.404307,-9770.718434,0.000000,1378.971896
1243.404628,-9696.697840,-444.123565,1378.971896
1243.404949,-8586.388927,-1110.308913,612.876398
1243.405269,-8142.265362,-1998.556043,-1455.581446
1243.405590,-7698.141797,-1702.473667,-1991.848295
1243.405911,-8512.368333,-444.123565,-1072.533697
1243.406232,-9622.677246,222.061783,459.657299
1243.406553,-10510.924376,888.247130,2757.943793
1243.406873,-10732.986159,-518.144159,1608.800546
1243.407194,-10510.924376,-518.144159,1838.629195
1243.407515,-10732.986159,-740.205942,1991.848295
1243.407836,-9992.780217,-1628.453072,2298.286494
1243.408157,-9104.533087,-2072.576638,1378.971896
1243.408477,-8586.388927,-2960.823768,0.000000
1243.408798,-8068.244768,-2442.679609,-1378.971896
1243.409119,-8216.285956,-814.226536,-1532.190996
1243.409440,-9030.512492,1480.411884,-153.219100
1243.409761,-9992.780217,2442.679609,689.485948
1243.410082,-10510.924376,2442.679609,1455.581446
1243.410402,-10140.821405,444.123565,1149.143247
1243.410723,-9696.697840,-148.041188,2451.505594
1243.411044,-10436.903782,-1332.370696,1991.848295
1243.411365,-10732.986159,-1184.329507,2834.553343
1243.411686,-9770.718434,-1776.494261,2451.505594
1243.412007,-9178.553681,-2294.638420,1455.581446
1243.412328,-8438.347739,-2220.617826,306.438199
1243.412649,-9326.594869,-962.267725,459.657299
1243.412969,-10362.883188,444.123565,1991.848295
1243.413290,-10362.883188,888.247130,2834.553343
1243.413611,-10732.986159,-370.102971,2451.505594
1243.413932,-9844.739029,-1184.329507,1532.190996
1243.414253,-10362.883188,-1184.329507,1302.362347
1243.414574,-10066.800811,-296.082377,1915.238745
1243.414895,-9548.656652,148.041188,2834.553343
1243.415216,-9252.574275,-1332.370696,1378.971896
1243.415536,-8364.327145,-2146.597232,-612.876398
1243.415857,-8808.450710,-1924.535449,-919.314598
1243.416178,-9326.594869,-518.144159,0.000000
1243.416499,-9696.697840,814.226536,1072.533697
1243.416820,-10214.842000,370.102971,2145.067394
1243.417141,-10140.821405,0.000000,2145.067394
1243.417462,-10140.821405,-592.164754,2068.457845
1243.417783,-9696.697840,-888.247130,2681.334243
1243.418103,-9548.656652,-1110.308913,2528.115143
1243.418424,-9326.594869,-1776.494261,1915.238745
1243.418745,-8734.430116,-2368.659014,76.609550
1243.419066,-7476.080014,-2146.597232,383.047749
1243.419387,-8512.368333,-148.041188,-306.438199
1243.419708,-9252.574275,1332.370696,383.047749
1243.420029,-10140.821405,1850.514855,1455.581446
1243.420350,-10658.965565,962.267725,1378.971896
1243.420670,-10066.800811,962.267725,229.828649
1243.420991,-10362.883188,814.226536,1149.143247
1243.421312,-10288.862594,592.164754,1838.629195
1243.421633,-9918.759623,0.000000,1838.629195
1243.421954,-9474.636058,-2220.617826,-306.438199
1243.422275,-8068.244768,-2146.597232,-1762.019645
1243.422596,-8808.450710,-1258.350101,-1532.190996
1243.422916,-9326.594869,148.041188,-306.438199
1243.423237,-10214.842000,1776.494261,2911.162892
1243.423558,-10510.924376,1924.535449,1838.629195
1243.423879,-10214.842000,592.164754,1532.190996
1243.424200,-10436.903782,-518.144159,1225.752797
1243.424521,-10436.903782,-814.226536,1762.019645
1243.424842,-9770.718434,-1110.308913,1838.629195
1243.425163,-9104.533087,-1332.370696,1302.362347
1243.425483,-8512.368333,-1554.432478,229.828649
1243.425804,-8216.285956,-1480.411884,-1072.533697
1243.426125,-8734.430116,370.102971,-153.219100
1243.426446,-9992.780217,1406.391290,1225.752797
1243.426767,-10584.944971,1406.391290,2298.286494
1243.427088,-10510.924376,0.000000,2451.505594
1243.427409,-10140.821405,-370.102971,3524.039291
1243.427730,-10214.842000,0.000000,2298.286494
1243.428050,-9992.780217,444.123565,2911.162892
1243.428371,-9622.677246,518.144159,2451.505594
1243.428692,-9326.594869,-740.205942,1378.971896
1243.429013,-8734.430116,-1036.288319,-459.657299
1243.429334,-8660.409521,-148.041188,-1302.362347
1243.429655,-9474.636058,1036.288319,0.000000
1243.429976,-10066.800811,1998.556043,1685.410096
1243.430297,-9918.759623,1110.308913,1915.238745
1243.430617,-10362.883188,0.000000,1838.629195
1243.430938,-9622.677246,-962.267725,1762.019645
1243.431259,-10066.800811,-1184.329507,2374.896044
1243.431580,-9770.718434,-814.226536,3370.820191
1243.431901,-9178.553681,-1184.329507,1915.238745
1243.432222,-8290.306550,-2072.576638,383.047749
1243.432543,-7402.059420,-1776.494261,-612.876398
1243.432864,-8364.327145,-1036.288319,-153.219100
1243.433184,-9252.574275,-444.123565,995.924147
1243.433505,-9918.759623,-222.061783,1991.848295
1243.433826,-10214.842000,-666.185348,2068.457845
1243.434147,-9918.759623,-518.144159,1455.581446
1243.434468,-10140.821405,-148.041188,1762.019645
1243.434789,-10140.821405,592.164754,2145.067394
1243.435110,-9622.677246,0.000000,1915.238745
1243.435431,-9030.512492,-1332.370696,383.047749
1243.435751,-8290.306550,-1998.556043,-689.485948
1243.436072,-8660.409521,-1036.288319,-919.314598
1243.436393,-9844.739029,592.164754,459.657299
1243.436714,-10362.883188,1332.370696,1455.581446
1243.437035,-10066.800811,1480.411884,2451.505594
1243.437356,-10362.883188,-518.144159,2374.896044
1243.437677,-9844.739029,-888.247130,1455.581446
1243.437997,-10807.006753,-1258.350101,2145.067394
1243.438318,-9696.697840,-1110.308913,2068.457845
1243.438639,-9030.512492,-962.267725,919.314598
1243.438960,-8438.347739,-1776.494261,-383.047749
1243.439281,-7772.162391,-888.247130,-1225.752797
1243.439602,-9252.574275,148.041188,-689.485948
1243.439923,-9844.739029,1036.288319,1302.362347
1243.440244,-10807.006753,1258.350101,2221.676944
1243.440564,-11325.150913,-296.082377,1838.629195
1243.440885,-10288.862594,-592.164754,1225.752797
1243.441206,-10436.903782,-296.082377,1532.190996
1243.441527,-9844.739029,-148.041188,2374.896044
1243.441848,-9474.636058,-296.082377,2145.067394
1243.442169,-8956.491898,-962.267725,1225.752797
1243.442490,-8660.409521,-2220.617826,-689.485948
1243.442811,-8586.388927,-1036.288319,-919.314598
1243.443131,-9548.656652,222.061783,383.047749
1243.443452,-9770.718434,1554.432478,1685.410096
1243.443773,-10288.862594,1036.288319,2604.724693
1243.444094,-10140.821405,-444.123565,1302.362347
1243.444415,-9622.677246,-814.226536,1838.629195
1243.444736,-10288.862594,-1036.288319,2068.457845
1243.445057,-9622.677246,-740.205942,2528.115143
1243.445378,-9326.594869,-962.267725,1762.019645
1243.445698,-8660.409521,-1036.288319,153.219100
1243.446019,-7994.224174,-1184.329507,-689.485948
1243.446340,-8438.347739,-222.061783,0.000000
1243.446661,-9696.697840,222.061783,1225.752797
1243.446982,-9918.759623,0.000000,1762.019645
1243.447303,-10436.903782,-592.164754,2068.457845
1243.447624,-9844.739029,-370.102971,919.314598
1243.447945,-10288.862594,740.205942,1685.410096
1243.448265,-10436.903782,666.185348,1991.848295
1243.448586,-9474.636058,666.185348,2298.286494
1243.448907,-8882.471304,-740.205942,459.657299
1243.449228,-8142.265362,-1850.514855,-1378.971896
1243.449549,-8882.471304,-592.164754,-1455.581446
1243.449870,-9844.739029,296.082377,-153.219100
1243.450191,-10066.800811,2072.576638,1225.752797
1243.450511,-10658.965565,2072.576638,2298.286494
1243.450832,-10658.965565,592.164754,1532.190996
1243.451153,-9474.636058,814.226536,1378.971896
1243.451474,-10584.944971,0.000000,2145.067394
1243.451795,-10066.800811,-296.082377,1991.848295
1243.452116,-9178.553681,-888.247130,1532.190996
1243.452437,-8364.327145,-2294.638420,-306.438199
1243.452758,-7698.141797,-1850.514855,-689.485948
1243.453078,-9178.553681,-888.247130,0.000000
1243.453399,-9474.636058,370.102971,1685.410096
1243.453720,-10436.903782,888.247130,2068.457845
1243.454041,-10658.965565,962.267725,2068.457845
1243.454362,-10436.903782,0.000000,1532.190996
1243.454683,-10066.800811,0.000000,1685.410096
1243.455004,-9844.739029,-444.123565,2221.676944
1243.455325,-8734.430116,-1332.370696,459.657299
1243.455645,-8586.388927,-1554.432478,536.266849
1243.455966,-8364.327145,-2442.679609,-919.314598
1243.456287,-8586.388927,-1036.288319,-995.924147
1243.456608,-8734.430116,-74.020594,-1685.410096
1243.456929,-9770.718434,962.267725,1302.362347
1243.457250,-9696.697840,592.164754,2145.067394
1243.457571,-10214.842000,-1702.473667,1838.629195
1243.457892,-9474.636058,-2146.597232,1455.581446
1243.458212,-9992.780217,-2368.659014,459.657299
1243.458533,-9474.636058,222.061783,1685.410096
1243.458854,-10066.800811,-592.164754,1838.629195
1243.459175,-8142.265362,0.000000,766.095498
1243.459496,-8438.347739,-1036.288319,-1991.848295
1243.459817,-9474.636058,0.000000,0.000000
1243.460138,-9992.780217,666.185348,1225.752797
1243.460459,-11177.109724,740.205942,2757.943793
1243.460779,-11029.068536,148.041188,3064.381992
1243.461100,-9770.718434,-1036.288319,1608.800546
1243.461421,-10510.924376,-518.144159,1915.238745
1243.461742,-10288.862594,-518.144159,2298.286494
1243.462063,-9474.636058,-592.164754,1149.143247
1243.462384,-9400.615463,-1628.453072,689.485948
1243.462705,-7920.203579,-2072.576638,-1532.190996
1243.463026,-7846.182985,-74.020594,-2451.505594
1243.463346,-9696.697840,1110.308913,-229.828649
1243.463667,-9252.574275,1924.535449,1685.410096
1243.463988,-10732.986159,1110.308913,2374.896044
1243.464309,-10955.047942,-962.267725,1685.410096
1243.464630,-9844.739029,-1110.308913,1072.533697
1243.464951,-11325.150913,-888.247130,3294.210641
1243.465272,-10436.903782,0.000000,2298.286494
1243.465592,-9474.636058,148.041188,1532.190996
1243.465913,-8512.368333,-1110.308913,-689.485948
1243.466234,-7624.121203,-888.247130,-1915.238745
1243.466555,-8438.347739,-740.205942,-612.876398
1243.466876,-9844.739029,-148.041188,459.657299
1243.467197,-10066.800811,370.102971,1838.629195
1243.467518,-10436.903782,-740.205942,1685.410096
1243.467839,-9474.636058,-592.164754,1685.410096
1243.468159,-10066.800811,-962.267725,1608.800546
1243.468480,-9622.677246,-222.061783,2221.676944
1243.468801,-10214.842000,-296.082377,2298.286494
1243.469122,-8734.430116,-666.185348,2374.896044
1243.469443,-7698.141797,-962.267725,-842.705048
1243.469764,-8586.388927,-1184.329507,-919.314598
1243.470085,-8586.388927,1036.288319,0.000000
1243.470406,-10214.842000,1776.494261,1762.019645
1243.470726,-10214.842000,1776.494261,2451.505594
1243.471047,-9844.739029,888.247130,2451.505594
1243.471368,-10658.965565,-296.082377,2681.334243
1243.471689,-10436.903782,-814.226536,2911.162892
1243.472010,-10881.027347,-444.123565,2911.162892
1243.472331,-9770.718434,-1110.308913,2451.505594
1243.472652,-8068.244768,-2220.617826,459.657299
1243.472973,-8216.285956,-1702.473667,-766.095498
1243.473293,-8660.409521,-444.123565,-383.047749
1243.473614,-9918.759623,1110.308913,1378.971896
1243.473935,-10510.924376,1184.329507,2374.896044
1243.474256,-10214.842000,-222.061783,1762.019645
1243.474577,-10584.944971,-222.061783,1225.752797
1243.474898,-10955.047942,0.000000,1685.410096
1243.475219,-10658.965565,-296.082377,2604.724693
1243.475540,-9992.780217,-1110.308913,2451.505594
1243.475860,-9178.553681,-2220.617826,1072.533697
1243.476181,-8438.347739,-2960.823768,-1149.143247
1243.476502,-8734.430116,-1554.432478,-1072.533697
1243.476823,-9548.656652,222.061783,-229.828649
1243.477144,-9992.780217,1480.411884,1225.752797
1243.477465,-10436.903782,1184.329507,1915.238745
1243.477786,-10807.006753,222.061783,1455.581446
1243.478106,-10436.903782,-740.205942,1532.190996
1243.478427,-10584.944971,-1480.411884,1455.581446
1243.478748,-9400.615463,-592.164754,1455.581446
1243.479069,-9178.553681,-1480.411884,536.266849
1243.479390,-7772.162391,-1554.432478,-306.438199
1243.479711,-7254.018232,-1184.329507,-1455.581446
1243.480032,-8290.306550,-518.144159,-1225.752797
1243.480353,-9030.512492,1036.288319,-689.485948
1243.480673,-10584.944971,888.247130,1838.629195
1243.480994,-10436.903782,370.102971,2145.067394
1243.481315,-10362.883188,370.102971,1838.629195
1243.481636,-10584.944971,148.041188,2298.286494
1243.481957,-10584.944971,814.226536,2528.115143
1243.482278,-9992.780217,0.000000,2068.457845
1243.482599,-9178.553681,-1480.411884,995.924147
1243.482920,-8364.327145,-2220.617826,-1072.533697
1243.483240,-8216.285956,-1628.453072,-1685.410096
1243.483561,-8882.471304,0.000000,0.000000
1243.483882,-9548.656652,1554.432478,1532.190996
1243.484203,-10140.821405,1850.514855,2451.505594
1243.484524,-10510.924376,0.000000,2298.286494
1243.484845,-10362.883188,-1184.329507,2145.067394
1243.485166,-10362.883188,-1480.411884,2451.505594
1243.485487,-10066.800811,-1628.453072,2757.943793
1243.485807,-9030.512492,-962.267725,1149.143247
1243.486128,-7772.162391,-1924.535449,-842.705048
1243.486449,-7550.100608,-888.247130,-2221.676944
1243.486770,-8512.368333,740.205942,-1149.143247
1243.487091,-10066.800811,2072.576638,842.705048
1243.487412,-10955.047942,1998.556043,2911.162892
1243.487733,-11325.150913,370.102971,2757.943793
1243.488054,-10955.047942,-666.185348,2374.896044
1243.488374,-10807.006753,-518.144159,2757.943793
1243.488695,-10214.842000,-740.205942,3447.429741
1243.489016,-9548.656652,-666.185348,3370.820191
1243.489337,-8438.347739,-1776.494261,1225.752797
1243.489658,-7920.203579,-2220.617826,-995.924147
1243.489979,-7105.977043,-962.267725,-919.314598
1243.490300,-9030.512492,888.247130,76.609550
1243.490621,-9622.677246,2516.700203,1302.362347
1243.490941,-10584.944971,2294.638420,2068.457845
1243.491262,-10658.965565,0.000000,2068.457845
1243.491583,-10362.883188,-592.164754,2068.457845
1243.491904,-11029.068536,-1998.556043,2068.457845
1243.492225,-9992.780217,-1406.391290,1991.848295
1243.492546,-9400.615463,-1184.329507,1225.752797
1243.492867,-8512.368333,-1110.308913,-766.095498
1243.493187,-7624.121203,-1036.288319,-2068.457845
1243.493508,-8808.450710,-370.102971,-1378.971896
1243.493829,-9548.656652,296.082377,229.828649
1243.494150,-10436.903782,-1036.288319,3524.039291
1243.494471,-10288.862594,-740.205942,1302.362347
1243.494792,-10214.842000,-1184.329507,842.705048
1243.495113,-10288.862594,0.000000,1302.362347
1243.495434,-9844.739029,444.123565,2221.676944
1243.495754,-9474.636058,0.000000,1608.800546
1243.496075,-9326.594869,-962.267725,229.828649
1243.496396,-8734.430116,-1554.432478,-1225.752797
1243.496717,-8956.491898,-666.185348,-1455.581446
1243.497038,-9918.759623,1110.308913,-689.485948
1243.497359,-10214.842000,1850.514855,1532.190996
1243.497680,-10362.883188,1332.370696,1838.629195
1243.498001,-10436.903782,0.000000,1991.848295
1243.498321,-10214.842000,-1184.329507,2604.724693
1243.498642,-10214.842000,-666.185348,2374.896044
1243.498963,-10066.800811,-962.267725,2604.724693
1243.499284,-9104.533087,-1184.329507,2068.457845
1243.499605,-8364.327145,-2368.659014,612.876398
1243.499926,-7624.121203,-1924.535449,-689.485948
1243.500247,-8586.388927,-444.123565,76.609550
1243.500568,-9992.780217,518.144159,1685.410096
1243.500888,-10510.924376,666.185348,2528.115143
1243.501209,-10584.944971,-296.082377,2068.457845
1243.501530,-9844.739029,-222.061783,1302.362347
1243.501851,-10066.800811,0.000000,2451.505594
1243.502172,-10362.883188,-148.041188,2757.943793
1243.502493,-9400.615463,148.041188,2145.067394
1243.502814,-8882.471304,-2146.597232,766.095498
1243.503135,-7772.162391,-2368.659014,-995.924147
1243.503455,-8290.306550,-1776.494261,-842.705048
1243.503776,-9474.636058,0.000000,766.095498
1243.504097,-9696.697840,1110.308913,2451.505594
1243.504418,-9770.718434,1776.494261,2757.943793
1243.504739,-10807.006753,0.000000,2757.943793
1243.505060,-10584.944971,-666.185348,2298.286494
1243.505381,-10436.903782,-814.226536,2298.286494
1243.505702,-9992.780217,-2072.576638,1685.410096
1243.506022,-8364.327145,-1036.288319,1149.143247
1243.506343,-8882.471304,-2146.597232,-153.219100
1243.506664,-7402.059420,-74.020594,-2298.286494
1243.506985,-9326.594869,592.164754,-766.095498
1243.507306,-10140.821405,1110.308913,1225.752797
1243.507627,-10510.924376,888.247130,1915.238745
1243.507948,-11029.068536,-296.082377,1149.143247
1243.508268,-10436.903782,-666.185348,766.095498
1243.508589,-10288.862594,0.000000,1225.752797
1243.508910,-10436.903782,-296.082377,1455.581446
1243.509231,-9252.574275,-148.041188,842.705048
1243.509551,-9326.594869,-1110.308913,229.828649
1243.509872,-8364.327145,-1924.535449,-1685.410096
1243.510193,-8956.491898,-888.247130,-1532.190996
1243.510514,-9474.636058,814.226536,0.000000
1243.510834,-10288.862594,2368.659014,3294.210641
1243.511155,-10362.883188,1332.370696,2604.724693
1243.511476,-10436.903782,-370.102971,2068.457845
1243.511797,-10214.842000,-1332.370696,1532.190996
1243.512117,-10214.842000,-1628.453072,1532.190996
1243.512438,-9548.656652,-1480.411884,1838.629195
1243.512759,-8734.430116,-1406.391290,919.314598
1243.513079,-7994.224174,-1258.350101,-689.485948
1243.513400,-7772.162391,-370.102971,-1378.971896
1243.513721,-7846.182985,-222.061783,766.095498
1243.514042,-9844.739029,962.267725,1225.752797
1243.514362,-10584.944971,888.247130,2145.067394
1243.514683,-10510.924376,296.082377,1991.848295
1243.515004,-10584.944971,-444.123565,1762.019645
1243.515325,-9918.759623,222.061783,1762.019645
1243.515645,-9992.780217,0.000000,2145.067394
1243.515966,-9474.636058,-74.020594,2145.067394
1243.516287,-9030.512492,-1480.411884,995.924147
1243.516608,-8734.430116,-2146.597232,-153.219100
1243.516928,-8438.347739,-1110.308913,-612.876398
1243.517249,-9474.636058,444.123565,766.095498
1243.517570,-10214.842000,1628.453072,1991.848295
1243.517891,-10510.924376,1184.329507,2451.505594
1243.518211,-10066.800811,0.000000,2145.067394
1243.518532,-9992.780217,-518.144159,2221.676944
1243.518853,-10584.944971,-444.123565,2681.334243
1243.519173,-10066.800811,-296.082377,2757.943793
1243.519494,-9474.636058,-888.247130,1838.629195
1243.519815,-8586.388927,-1406.391290,0.000000
1243.520136,-8068.244768,-1702.473667,-1225.752797
1243.520456,-8956.491898,-444.123565,-383.047749
1243.520777,-9770.718434,296.082377,2221.676944
1243.521098,-10584.944971,370.102971,2451.505594
1243.521419,-10658.965565,-518.144159,2374.896044
1243.521739,-10140.821405,-592.164754,1149.143247
1243.522060,-10436.903782,0.000000,1149.143247
1243.522381,-10140.821405,74.020594,2221.676944
1243.522702,-9400.615463,-666.185348,1762.019645
1243.523022,-8660.409521,-2220.617826,0.000000
1243.523343,-8142.265362,-2812.782580,-1608.800546
1243.523664,-8290.306550,-1554.432478,-1608.800546
1243.523984,-9400.615463,0.000000,0.000000
1243.524305,-9844.739029,1628.453072,1225.752797
1243.524626,-10510.924376,1184.329507,2451.505594
1243.524947,-9918.759623,0.000000,1455.581446
1243.525267,-10288.862594,-1332.370696,1608.800546
1243.525588,-10288.862594,-1110.308913,1685.410096
1243.525909,-9622.677246,-1110.308913,1608.800546
1243.526230,-9252.574275,-1184.329507,1378.971896
1243.526550,-8364.327145,-2146.597232,-612.876398
1243.526871,-7402.059420,-1554.432478,-1608.800546
1243.527192,-8734.430116,-296.082377,-995.924147
1243.527513,-10584.944971,962.267725,689.485948
1243.527833,-10584.944971,1406.391290,1915.238745
1243.528154,-10658.965565,0.000000,1532.190996
1243.528475,-9548.656652,0.000000,612.876398
1243.528795,-10140.821405,-222.061783,1608.800546
1243.529116,-9992.780217,370.102971,2221.676944
1243.529437,-9770.718434,148.041188,1991.848295
1243.529758,-9474.636058,-962.267725,919.314598
1243.530078,-8512.368333,-1702.473667,-1225.752797
1243.530399,-8068.244768,-740.205942,-2145.067394
1243.530720,-8734.430116,222.061783,229.828649
1243.531041,-9918.759623,1110.308913,1838.629195
1243.531361,-9844.739029,1110.308913,2681.334243
1243.531682,-10955.047942,-1184.329507,2604.724693
1243.532003,-10140.821405,-1702.473667,2221.676944
1243.532324,-10807.006753,-1110.308913,2604.724693
1243.532644,-10214.842000,-370.102971,2911.162892
1243.532965,-9770.718434,-518.144159,1991.848295
1243.533286,-8142.265362,0.000000,459.657299
1243.533606,-8068.244768,-1110.308913,-1608.800546
1243.533927,-7994.224174,74.020594,-1072.533697
1243.534248,-8956.491898,814.226536,1072.533697
1243.534569,-11177.109724,1036.288319,3524.039291
1243.534889,-9326.594869,-296.082377,2145.067394
1243.535210,-10288.862594,-518.144159,1072.533697
1243.535531,-10362.883188,444.123565,2298.286494
1243.535852,-9326.594869,-296.082377,1915.238745
1243.536172,-9918.759623,0.000000,2681.334243
1243.536493,-8364.327145,-1702.473667,612.876398
1243.536814,-8216.285956,-2442.679609,-1838.629195
1243.537135,-8586.388927,-1258.350101,-306.438199
1243.537455,-9474.636058,518.144159,-766.095498
1243.537776,-10510.924376,1776.494261,2145.067394
1243.538097,-10732.986159,1628.453072,2681.334243
1243.538417,-10214.842000,1110.308913,2757.943793
1243.538738,-10807.006753,-1554.432478,2911.162892
1243.539059,-10436.903782,-814.226536,2987.772442
1243.539380,-10214.842000,-1184.329507,2834.553343
1243.539700,-9326.594869,-1406.391290,1762.019645
1243.540021,-8364.327145,-1480.411884,229.828649
1243.540342,-7550.100608,-1036.288319,-1072.533697
1243.540663,-8660.409521,-592.164754,-1225.752797
1243.540983,-9474.636058,592.164754,0.000000
1243.541304,-10140.821405,1480.411884,766.095498
1243.541625,-10584.944971,888.247130,612.876398
1243.541946,-10362.883188,370.102971,1455.581446
1243.542266,-10288.862594,0.000000,1455.581446
1243.542587,-10807.006753,-222.061783,2451.505594
1243.542908,-9992.780217,-1554.432478,689.485948
1243.543228,-9104.533087,-2368.659014,459.657299
1243.543549,-8882.471304,-2442.679609,-995.924147
1243.543870,-8660.409521,-1110.308913,-1532.190996
1243.544191,-9178.553681,1258.350101,-229.828649
1243.544511,-9548.656652,1628.453072,1302.362347
1243.544832,-9770.718434,1702.473667,1532.190996
1243.545153,-10436.903782,-370.102971,1608.800546
1243.545474,-10214.842000,-1554.432478,1532.190996
1243.545794,-10288.862594,-1332.370696,2451.505594
1243.546115,-10066.800811,-1332.370696,2528.115143
1243.546436,-9474.636058,-1110.308913,2374.896044
1243.546757,-8660.409521,-1480.411884,1072.533697
1243.547077,-8512.368333,-1628.453072,-383.047749
1243.547398,-9030.512492,0.000000,-153.219100
1243.547719,-9696.697840,518.144159,1149.143247
1243.548040,-10214.842000,444.123565,1378.971896
1243.548360,-10066.800811,-222.061783,1991.848295
1243.548681,-9770.718434,222.061783,612.876398
1243.549002,-10140.821405,296.082377,1455.581446
1243.549322,-10214.842000,222.061783,2528.115143
1243.549643,-9474.636058,0.000000,2451.505594
1243.549964,-9770.718434,-1332.370696,612.876398
1243.550285,-8216.285956,-1850.514855,-612.876398
1243.550605,-8660.409521,-1110.308913,-842.705048
1243.550926,-9252.574275,666.185348,153.219100
1243.551247,-9770.718434,1628.453072,2145.067394
1243.551568,-9770.718434,888.247130,2528.115143
1243.551888,-10140.821405,-444.123565,2221.676944
1243.552209,-10214.842000,-1258.350101,2451.505594
1243.552530,-10510.924376,-1480.411884,2681.334243
1243.552851,-9992.780217,-1184.329507,2834.553343
1243.553171,-9030.512492,-1110.308913,2068.457845
1243.553492,-8290.306550,-1702.473667,76.609550
1243.553813,-7772.162391,-1554.432478,-1072.533697
1243.554133,-9178.553681,222.061783,76.609550
1243.554454,-10214.842000,666.185348,1302.362347
1243.554775,-10881.027347,1110.308913,2604.724693
1243.555096,-11103.089130,0.000000,2068.457845
1243.555416,-10140.821405,74.020594,995.924147
1243.555737,-10436.903782,370.102971,1072.533697
1243.556058,-9844.739029,296.082377,1149.143247
1243.556379,-9252.574275,296.082377,919.314598
1243.556699,-8586.388927,-814.226536,-612.876398
1243.557020,-7698.141797,-1258.350101,-2604.724693
1243.557341,-7920.203579,-518.144159,-2451.505594
1243.557662,-9474.636058,666.185348,-229.828649
1243.557982,-10066.800811,1406.391290,1762.019645
1243.558303,-10658.965565,296.082377,3830.477490
1243.558624,-10362.883188,-518.144159,2451.505594
1243.558944,-10658.965565,-1258.350101,2374.896044
1243.559265,-10214.842000,-888.247130,2911.162892
1243.559586,-9696.697840,-370.102971,2528.115143
1243.559907,-9030.512492,-962.267725,1455.581446
1243.560227,-7846.182985,-2220.617826,0.000000
1243.560548,-7179.997637,-2072.576638,-1608.800546
1243.560869,-8290.306550,-888.247130,-1149.143247
1243.561190,-9696.697840,0.000000,-153.219100
1243.561510,-10214.842000,962.267725,1762.019645
1243.561831,-10288.862594,0.000000,1302.362347
1243.562152,-9992.780217,-222.061783,612.876398
1243.562473,-9844.739029,-370.102971,2374.896044
1243.562793,-10510.924376,444.123565,2528.115143
1243.563114,-10140.821405,0.000000,2604.724693
1243.563435,-9622.677246,-1184.329507,1378.971896
1243.563755,-8586.388927,-2294.638420,-689.485948
1243.564076,-8956.491898,-1702.473667,-536.266849
1243.564397,-9548.656652,74.020594,153.219100
1243.564718,-9918.759623,1480.411884,1608.800546
1243.565038,-10288.862594,1406.391290,2221.676944
1243.565359,-9252.574275,0.000000,2068.457845
1243.565680,-10066.800811,-370.102971,1225.752797
1243.566001,-10066.800811,148.041188,2298.286494
1243.566321,-10066.800811,0.000000,2681.334243
1243.566642,-9474.636058,-592.164754,1838.629195
1243.566963,-8586.388927,-1924.535449,459.657299
1243.567284,-8068.244768,-2072.576638,-689.485948
1243.567604,-8882.471304,-962.267725,-229.828649
1243.567925,-9918.759623,666.185348,1378.971896
1243.568246,-10732.986159,1702.473667,2604.724693
1243.568566,-10362.883188,74.020594,2298.286494
1243.568887,-10214.842000,148.041188,1532.190996
1243.569208,-10510.924376,0.000000,2145.067394
1243.569529,-9622.677246,-666.185348,3064.381992
1243.569849,-9474.636058,-740.205942,2145.067394
1243.570170,-8660.409521,-1924.535449,306.438199
1243.570491,-7772.162391,-2146.597232,-1532.190996
1243.570812,-7772.162391,-1776.494261,-995.924147
1243.571132,-9030.512492,962.267725,-229.828649
1243.571453,-9992.780217,1776.494261,1455.581446
1243.571774,-10658.965565,1184.329507,2451.505594
1243.572095,-10436.903782,-592.164754,1991.848295
1243.572415,-9992.780217,-1702.473667,1685.410096
1243.572736,-10362.883188,-1332.370696,1991.848295
1243.573057,-9178.553681,-740.205942,2374.896044
1243.573378,-9474.636058,-1702.473667,1302.362347
1243.573698,-6661.853478,-1924.535449,0.000000
1243.574019,-7772.162391,-2072.576638,-1072.533697
1243.574340,-8586.388927,-1850.514855,-612.876398
1243.574660,-9696.697840,74.020594,842.705048
1243.574981,-11251.130318,666.185348,2221.676944
1243.575302,-10510.924376,518.144159,2221.676944
1243.575623,-10955.047942,0.000000,1762.019645
1243.575943,-10510.924376,-592.164754,2145.067394
1243.576264,-9992.780217,-518.144159,1762.019645
1243.576585,-9770.718434,-740.205942,1838.629195
1243.576906,-9030.512492,-1332.370696,459.657299
1243.577226,-8512.368333,-1406.391290,-1378.971896
1243.577547,-8808.450710,-444.123565,-1225.752797
1243.577868,-9400.615463,962.267725,-459.657299
1243.578189,-10288.862594,1850.514855,766.095498
1243.578509,-10362.883188,1776.494261,2221.676944
1243.578830,-11103.089130,148.041188,2374.896044
1243.579151,-10288.862594,-592.164754,3524.039291
1243.579471,-10658.965565,-888.247130,2451.505594
1243.579792,-9992.780217,-518.144159,2451.505594
1243.580113,-9400.615463,-592.164754,1991.848295
1243.580434,-8660.409521,-1554.432478,536.266849
1243.580754,-7920.203579,-1110.308913,-842.705048
1243.581075,-8586.388927,-518.144159,-306.438199
1243.581396,-9622.677246,814.226536,766.095498
1243.581717,-10362.883188,1110.308913,2068.457845
1243.582037,-10214.842000,518.144159,1302.362347
1243.582358,-10436.903782,222.061783,1532.190996
1243.582679,-10140.821405,370.102971,1838.629195
1243.583000,-10288.862594,148.041188,2374.896044
1243.583320,-9178.553681,-1702.473667,2451.505594
1243.583641,-8808.450710,-1776.494261,536.266849
1243.583962,-7994.224174,-2294.638420,-689.485948
1243.584282,-8290.306550,-1258.350101,-1302.362347
1243.584603,-9252.574275,222.061783,153.219100
1243.584924,-9548.656652,1480.411884,1455.581446
1243.585245,-10214.842000,1628.453072,2374.896044
1243.585565,-10510.924376,0.000000,2068.457845
1243.585886,-9696.697840,-814.226536,1838.629195
1243.586207,-11399.171507,0.000000,1762.019645
1243.586528,-9844.739029,-1036.288319,2451.505594
1243.586848,-9030.512492,-1184.329507,1915.238745
1243.587169,-8438.347739,-2072.576638,919.314598
1243.587490,-7476.080014,-1702.473667,76.609550
1243.587811,-8586.388927,0.000000,-536.266849
1243.588131,-9622.677246,1554.432478,1455.581446
1243.588452,-10288.862594,2072.576638,2528.115143
1243.588773,-10955.047942,666.185348,2681.334243
1243.589093,-10140.821405,0.000000,1915.238745
1243.589414,-9992.780217,-666.185348,1762.019645
1243.589735,-10362.883188,-370.102971,2374.896044
1243.590056,-9622.677246,-518.144159,2298.286494
1243.590376,-9104.533087,-1554.432478,689.485948
1243.590697,-8142.265362,-2146.597232,-1225.752797
1243.591018,-8142.265362,-1110.308913,-1378.971896
1243.591339,-9474.636058,296.082377,0.000000
1243.591659,-10214.842000,962.267725,1762.019645
1243.591980,-10510.924376,1110.308913,2451.505594
1243.592301,-10732.986159,-296.082377,2068.457845
1243.592622,-10658.965565,-1480.411884,1532.190996
1243.592942,-10510.924376,-1554.432478,2068.457845
1243.593263,-10066.800811,-1850.514855,1838.629195
1243.593584,-9252.574275,-1998.556043,919.314598
1243.593904,-8142.265362,-2368.659014,-766.095498
1243.594225,-7624.121203,-1554.432478,-1991.848295
1243.594546,-8882.471304,0.000000,-1685.410096
1243.594867,-9770.718434,1110.308913,459.657299
1243.595187,-10955.047942,518.144159,1685.410096
1243.595508,-10510.924376,-592.164754,1455.581446
1243.595829,-9992.780217,-1036.288319,76.609550
1243.596150,-10807.006753,-148.041188,1225.752797
1243.596470,-10436.903782,888.247130,1991.848295
1243.596791,-10140.821405,370.102971,1762.019645
1243.597112,-8438.347739,-370.102971,76.609550
1243.597433,-8142.265362,-1628.453072,-1991.848295
1243.597753,-8290.306550,-740.205942,-2145.067394
1243.598074,-9178.553681,740.205942,-689.485948
1243.598395,-9770.718434,1628.453072,766.095498
1243.598716,-10214.842000,1406.391290,1915.238745
1243.599036,-10584.944971,0.000000,2145.067394
1243.599357,-10510.924376,-962.267725,1991.848295
1243.599678,-10436.903782,-740.205942,2681.334243
1243.599998,-9992.780217,-814.226536,2987.772442
1243.600319,-9178.553681,-1036.288319,2145.067394
1243.600640,-8216.285956,-1776.494261,0.000000
1243.600961,-7328.038826,-1406.391290,-1149.143247
1243.601281,-7994.224174,-296.082377,-612.876398
1243.601602,-9474.636058,888.247130,1378.971896
1243.601923,-10066.800811,666.185348,2374.896044
1243.602244,-10658.965565,74.020594,2221.676944
1243.602564,-10288.862594,0.000000,1532.190996
1243.602885,-10807.006753,370.102971,2528.115143
1243.603206,-9992.780217,-296.082377,3064.381992
1243.603527,-9548.656652,-1036.288319,2374.896044
1243.603847,-8734.430116,-1776.494261,766.095498
1243.604168,-7698.141797,-1998.556043,-842.705048
1243.604489,-8586.388927,-592.164754,-842.705048
1243.604809,-9474.636058,1332.370696,842.705048
1243.605130,-10214.842000,1850.514855,2374.896044
1243.605451,-10436.903782,740.205942,2911.162892
1243.605772,-9770.718434,0.000000,1302.362347
1243.606092,-10658.965565,-1776.494261,2221.676944
1243.606413,-10362.883188,-888.247130,2834.553343
1243.606734,-10584.944971,-1036.288319,3064.381992
1243.607055,-9326.594869,-814.226536,1838.629195
1243.607375,-8438.347739,-1850.514855,-383.047749
1243.607696,-7698.141797,-1184.329507,-1149.143247
1243.608017,-9400.615463,296.082377,-459.657299
1243.608338,-10214.842000,1406.391290,995.924147
1243.608658,-10288.862594,1184.329507,1225.752797
1243.608979,-10881.027347,-814.226536,995.924147
1243.609300,-9992.780217,-592.164754,995.924147
1243.609620,-10732.986159,-518.144159,1302.362347
1243.609941,-10584.944971,0.000000,1685.410096
1243.610262,-9474.636058,-444.123565,1455.581446
1243.610583,-8882.471304,-1258.350101,-459.657299
1243.610903,-8512.368333,-1776.494261,-1378.971896
1243.611224,-8438.347739,-1258.350101,-1685.410096
1243.611545,-9474.636058,-370.102971,0.000000
1243.611866,-9548.656652,-148.041188,536.266849
1243.612186,-10140.821405,222.061783,1072.533697
1243.612507,-10510.924376,-518.144159,1608.800546
1243.612828,-10510.924376,-888.247130,1455.581446
1243.613149,-10362.883188,-296.082377,2451.505594
1243.613470,-10584.944971,-444.123565,2451.505594
1243.613790,-9474.636058,-1184.329507,1915.238745
1243.614111,-8438.347739,-1998.556043,306.438199
1243.614432,-8068.244768,-2368.659014,-766.095498
1243.614753,-8660.409521,-222.061783,-229.828649
1243.615074,-9474.636058,740.205942,1225.752797
1243.615394,-10436.903782,0.000000,1915.238745
1243.615715,-9770.718434,-444.123565,1149.143247
1243.616036,-9918.759623,-444.123565,76.609550
1243.616357,-9770.718434,0.000000,919.314598
1243.616677,-9992.780217,888.247130,2068.457845
1243.616998,-9474.636058,296.082377,1838.629195
1243.617319,-8956.491898,-1036.288319,76.609550
1243.617640,-8364.327145,-1258.350101,-1455.581446
1243.617961,-8808.450710,-740.205942,-995.924147
1243.618281,-9770.718434,444.123565,459.657299
1243.618602,-10362.883188,1554.432478,1225.752797
1243.618923,-10658.965565,1480.411884,2604.724693
1243.619244,-10436.903782,888.247130,1838.629195
1243.619565,-9992.780217,296.082377,2145.067394
1243.619885,-10658.965565,222.061783,2757.943793
1243.620206,-10066.800811,74.020594,3064.381992
1243.620527,-9400.615463,-1480.411884,1838.629195
1243.620848,-8290.306550,-2220.617826,153.219100
1243.621169,-8142.265362,-2072.576638,-766.095498
1243.621489,-8216.285956,-740.205942,0.000000
1243.621810,-9622.677246,740.205942,1762.019645
1243.622131,-10362.883188,1332.370696,2221.676944
1243.622452,-10362.883188,592.164754,2145.067394
1243.622772,-10658.965565,148.041188,3524.039291
1243.623093,-10436.903782,0.000000,2068.457845
1243.623414,-10362.883188,-148.041188,2451.505594
1243.623735,-9696.697840,-1036.288319,2451.505594
1243.624056,-8734.430116,-2146.597232,689.485948
1243.624376,-7698.141797,-2738.761985,-1302.362347
1243.624697,-7846.182985,-1184.329507,-1991.848295
1243.625018,-9474.636058,1036.288319,229.828649
1243.625339,-9770.718434,1702.473667,1762.019645
1243.625660,-10510.924376,1110.308913,2528.115143
1243.625980,-10288.862594,-814.226536,1149.143247
1243.626301,-9918.759623,-888.247130,1149.143247
1243.626622,-11177.109724,-962.267725,2528.115143
1243.626943,-10214.842000,-592.164754,2374.896044
1243.627263,-9326.594869,-814.226536,1685.410096
1243.627584,-8364.327145,-2886.803174,-612.876398
1243.627905,-7105.977043,-1406.391290,-2451.505594
1243.628226,-9326.594869,-740.205942,-1072.533697
1243.628547,-9992.780217,148.041188,459.657299
1243.628867,-10288.862594,1036.288319,1149.143247
1243.629188,-10732.986159,-814.226536,1608.800546
1243.629509,-10288.862594,-814.226536,919.314598
1243.629830,-10658.965565,444.123565,2068.457845
1243.630151,-11473.192101,0.000000,2911.162892
1243.630471,-9918.759623,-222.061783,1455.581446
1243.630792,-9104.533087,-592.164754,-459.657299
1243.631113,-8512.368333,-888.247130,-459.657299
1243.631434,-8364.327145,148.041188,-1762.019645
1243.631755,-9104.533087,1110.308913,-459.657299
1243.632075,-9474.636058,1850.514855,766.095498
1243.632396,-10066.800811,1184.329507,1225.752797
1243.632717,-10288.862594,222.061783,1378.971896
1243.633038,-10584.944971,-296.082377,2068.457845
1243.633358,-10288.862594,-222.061783,2451.505594
1243.633679,-10362.883188,-222.061783,2757.943793
1243.634000,-9622.677246,-814.226536,2451.505594
1243.634321,-8438.347739,-1184.329507,229.828649
1243.634642,-8660.409521,-1036.288319,-536.266849
1243.634962,-8660.409521,370.102971,0.000000
1243.635283,-9400.615463,666.185348,1532.190996
1243.635604,-9992.780217,0.000000,1762.019645
1243.635925,-9696.697840,-518.144159,1608.800546
1243.636246,-9622.677246,-1184.329507,1455.581446
1243.636566,-9918.759623,-666.185348,2221.676944
1243.636887,-9770.718434,-666.185348,3294.210641
1243.637208,-9400.615463,-518.144159,2987.772442
1243.637529,-8586.388927,-1776.494261,1685.410096
1243.637849,-7846.182985,-2664.741391,0.000000
1243.638170,-7179.997637,-1554.432478,-919.314598
1243.638491,-9178.553681,-148.041188,842.705048
1243.638812,-9548.656652,1258.350101,2145.067394
1243.639133,-9622.677246,592.164754,2451.505594
1243.639453,-9696.697840,-370.102971,3447.429741
1243.639774,-9400.615463,-444.123565,1915.238745
1243.640095,-11251.130318,-740.205942,3064.381992
1243.640416,-10955.047942,-1258.350101,3217.601092
1243.640737,-9252.574275,-1850.514855,1685.410096
1243.641057,-8586.388927,-2664.741391,-229.828649
1243.641378,-7550.100608,-1036.288319,-1455.581446
1243.641699,-9474.636058,592.164754,0.000000
1243.642020,-9992.780217,1110.308913,689.485948
1243.642341,-11029.068536,1554.432478,1072.533697
1243.642661,-10881.027347,-370.102971,1149.143247
1243.642982,-10214.842000,-222.061783,383.047749
1243.643303,-11177.109724,0.000000,919.314598
1243.643624,-10584.944971,888.247130,1991.848295
1243.643944,-10214.842000,-148.041188,1455.581446
1243.644265,-9474.636058,-1702.473667,-766.095498
1243.644586,-8216.285956,-2072.576638,-2451.505594
1243.644907,-9178.553681,-888.247130,-2374.896044
1243.645228,-9622.677246,1110.308913,-919.314598
1243.645548,-10214.842000,2220.617826,919.314598
1243.645869,-11029.068536,2294.638420,1608.800546
1243.646190,-10214.842000,296.082377,995.924147
1243.646511,-10955.047942,-666.185348,2374.896044
1243.646832,-10584.944971,-1110.308913,2604.724693
1243.647152,-9844.739029,-1332.370696,2374.896044
1243.647473,-9178.553681,-1480.411884,1072.533697
1243.647794,-7994.224174,-1480.411884,1072.533697
1243.648115,-7476.080014,-1110.308913,-1532.190996
1243.648435,-8438.347739,370.102971,-229.828649
1243.648756,-9400.615463,1036.288319,1072.533697
1243.649077,-10288.862594,370.102971,1991.848295
1243.649398,-10066.800811,-370.102971,1838.629195
1243.649719,-9696.697840,-1110.308913,1455.581446
1243.650039,-9696.697840,-370.102971,2221.676944
1243.650360,-10140.821405,0.000000,3140.991542
1243.650681,-9622.677246,0.000000,2834.553343
1243.651002,-8882.471304,-1480.411884,995.924147
1243.651323,-8290.306550,-1924.535449,-536.266849
1243.651643,-8290.306550,-888.247130,-536.266849
1243.651964,-9326.594869,1110.308913,1838.629195
1243.652285,-9696.697840,1554.432478,2221.676944
1243.652606,-10140.821405,962.267725,2604.724693
1243.652927,-9992.780217,-296.082377,2451.505594
1243.653247,-10214.842000,-962.267725,2451.505594
1243.653568,-10510.924376,-814.226536,3140.991542
1243.653889,-9992.780217,-666.185348,2528.115143
1243.654210,-9178.553681,-962.267725,2068.457845
1243.654530,-8438.347739,-1110.308913,612.876398
1243.654851,-7994.224174,-962.267725,306.438199
1243.655172,-9326.594869,888.247130,306.438199
1243.655493,-9918.759623,1776.494261,1532.190996
1243.655814,-10584.944971,1702.473667,2451.505594
1243.656134,-10881.027347,666.185348,2145.067394
1243.656455,-10510.924376,-370.102971,1991.848295
1243.656776,-10510.924376,-888.247130,2298.286494
1243.657097,-10140.821405,-296.082377,2528.115143
1243.657418,-9622.677246,-518.144159,1991.848295
1243.657738,-9400.615463,-1332.370696,612.876398
1243.658059,-8364.327145,-1702.473667,-1149.143247
1243.658380,-8512.368333,-888.247130,-1532.190996
1243.658701,-9030.512492,740.205942,-689.485948
1243.659022,-9474.636058,1628.453072,1532.190996
1243.659342,-10436.903782,740.205942,1378.971896
1243.659663,-10214.842000,-666.185348,1072.533697
1243.659984,-10436.903782,-1406.391290,995.924147
1243.660305,-9992.780217,-1628.453072,1225.752797
1243.660625,-9992.780217,-1850.514855,2145.067394
1243.660946,-9400.615463,-1924.535449,919.314598
1243.661267,-8512.368333,-2368.659014,-1072.533697
1243.661588,-7550.100608,-1998.556043,-2298.286494
1243.661909,-8512.368333,-666.185348,-1532.190996
1243.662229,-9474.636058,0.000000,76.609550
1243.662550,-10288.862594,-74.020594,1149.143247
1243.662871,-10140.821405,-962.267725,689.485948
1243.663192,-9622.677246,-370.102971,459.657299
1243.663513,-10214.842000,-666.185348,1378.971896
1243.663833,-10362.883188,0.000000,2145.067394
1243.664154,-9696.697840,-370.102971,1838.629195
1243.664475,-8734.430116,-1406.391290,153.219100
1243.664796,-8142.265362,-1554.432478,-1225.752797
1243.665116,-8660.409521,-740.205942,-919.314598
1243.665437,-9474.636058,888.247130,383.047749
1243.665758,-9770.718434,1998.556043,1762.019645
1243.666079,-10288.862594,1554.432478,2451.505594
1243.666400,-10510.924376,222.061783,2298.286494
1243.666720,-10584.944971,-888.247130,2298.286494
1243.667041,-10955.047942,-666.185348,2987.772442
1243.667362,-9844.739029,-1702.473667,3140.991542
1243.667683,-9474.636058,-1332.370696,2068.457845
1243.668004,-8734.430116,-1480.411884,229.828649
1243.668324,-7772.162391,-518.144159,-766.095498
1243.668645,-8808.450710,888.247130,76.609550
1243.668966,-10140.821405,2368.659014,1762.019645
1243.669287,-10658.965565,1332.370696,2298.286494
1243.669608,-10140.821405,370.102971,1608.800546
1243.669928,-10584.944971,-148.041188,1762.019645
1243.670249,-10436.903782,-296.082377,2221.676944
1243.670570,-10214.842000,0.000000,3447.429741
1243.670891,-9992.780217,-740.205942,2834.553343
1243.671211,-8808.450710,-1554.432478,919.314598
1243.671532,-8290.306550,-1850.514855,536.266849
1243.671853,-8438.347739,-1258.350101,-383.047749
1243.672174,-8882.471304,296.082377,459.657299
1243.672495,-9474.636058,1406.391290,1608.800546
1243.672815,-9548.656652,962.267725,1532.190996
1243.673136,-9622.677246,148.041188,2145.067394
1243.673457,-10362.883188,-296.082377,2145.067394
1243.673778,-10362.883188,-518.144159,2681.334243
1243.674099,-10066.800811,-888.247130,2681.334243
1243.674419,-9104.533087,-1184.329507,1455.581446
1243.674740,-8290.306550,-888.247130,-229.828649
1243.675061,-7994.224174,-296.082377,-1532.190996
1243.675382,-8882.471304,1184.329507,-459.657299
1243.675702,-8586.388927,888.247130,229.828649
1243.676023,-10214.842000,74.020594,459.657299
1243.676344,-9992.780217,-814.226536,153.219100
1243.676665,-10214.842000,-666.185348,306.438199
1243.676986,-10584.944971,592.164754,1608.800546
1243.677306,-10732.986159,814.226536,2068.457845
1243.677627,-9696.697840,0.000000,1991.848295
1243.677948,-9104.533087,-2368.659014,0.000000
1243.678269,-8512.368333,-3256.906145,-1532.190996
1243.678590,-8882.471304,-2146.597232,-1455.581446
1243.678910,-9548.656652,-296.082377,0.000000
1243.679231,-10288.862594,1184.329507,1225.752797
1243.679552,-10066.800811,1258.350101,1991.848295
1243.679873,-9474.636058,-518.144159,1915.238745
1243.680194,-10362.883188,-592.164754,1838.629195
1243.680514,-9844.739029,-222.061783,2145.067394
1243.680835,-10658.965565,-1110.308913,2451.505594
1243.681156,-8438.347739,-1184.329507,2068.457845
1243.681477,-8882.471304,-2220.617826,689.485948
1243.681797,-7698.141797,-1924.535449,-842.705048
1243.682118,-9252.574275,148.041188,0.000000
1243.682439,-9844.739029,1332.370696,1685.410096
1243.682760,-10807.006753,888.247130,1991.848295
1243.683081,-10140.821405,370.102971,2068.457845
1243.683401,-10584.944971,-592.164754,2068.457845
1243.683722,-10214.842000,-888.247130,1532.190996
1243.684043,-9918.759623,518.144159,2528.115143
1243.684364,-10436.903782,-962.267725,2451.505594
1243.684685,-8660.409521,-1628.453072,1225.752797
1243.685005,-8586.388927,-2368.659014,-612.876398
1243.685326,-8512.368333,-2516.700203,-1838.629195
1243.685647,-8882.471304,-888.247130,0.000000
1243.685968,-9770.718434,222.061783,1532.190996
1243.686288,-9992.780217,222.061783,2528.115143
1243.686609,-9474.636058,-296.082377,1915.238745
1243.686930,-10140.821405,-666.185348,2834.553343
1243.687251,-10362.883188,-1406.391290,3140.991542
1243.687572,-9474.636058,-1406.391290,2604.724693
1243.687892,-9474.636058,-1998.556043,2068.457845
1243.688213,-8660.409521,-1628.453072,76.609550
1243.688534,-7846.182985,-1258.350101,-842.705048
1243.688855,-8956.491898,0.000000,76.609550
1243.689176,-9622.677246,1184.329507,1608.800546
1243.689496,-11177.109724,962.267725,3830.477490
1243.689817,-10807.006753,-370.102971,2451.505594
1243.690138,-10732.986159,-222.061783,2221.676944
1243.690459,-10807.006753,-296.082377,2374.896044
1243.690780,-10510.924376,0.000000,2911.162892
1243.691100,-9770.718434,-666.185348,2145.067394
1243.691421,-8364.327145,-1406.391290,-536.266849
1243.691742,-7920.203579,-1924.535449,-2451.505594
1243.692063,-7624.121203,0.000000,-2451.505594
1243.692383,-8882.471304,1702.473667,-1149.143247
1243.692704,-9770.718434,2664.741391,306.438199
1243.693025,-10140.821405,1850.514855,1149.143247
1243.693346,-10584.944971,370.102971,1225.752797
1243.693667,-10584.944971,-592.164754,1455.581446
1243.693987,-10584.944971,-814.226536,1838.629195
1243.694308,-10584.944971,-666.185348,2834.553343
1243.694629,-9548.656652,-1480.411884,1685.410096
1243.694950,-8512.368333,-2664.741391,-1378.971896
1243.695271,-7254.018232,-296.082377,-3064.381992
1243.695591,-9770.718434,-370.102971,-1532.190996
1243.695912,-9252.574275,1110.308913,1149.143247
1243.696233,-10362.883188,74.020594,995.924147
1243.696554,-10140.821405,-370.102971,842.705048
1243.696874,-9844.739029,-962.267725,536.266849
1243.697195,-10807.006753,74.020594,2221.676944
1243.697516,-11473.192101,222.061783,3370.820191
1243.697837,-9252.574275,-814.226536,1225.752797
1243.698158,-9474.636058,-444.123565,383.047749
1243.698478,-8068.244768,-888.247130,-1072.533697
1243.698799,-8438.347739,222.061783,-1532.190996
1243.699120,-9696.697840,1628.453072,459.657299
1243.699441,-9030.512492,2220.617826,1608.800546
1243.699762,-9770.718434,518.144159,1838.629195
1243.700082,-10584.944971,-444.123565,2374.896044
1243.700403,-10066.800811,-888.247130,2604.724693
1243.700724,-10881.027347,-296.082377,2834.553343
1243.701045,-10362.883188,-592.164754,3294.210641
1243.701366,-9252.574275,-814.226536,2145.067394
1243.701686,-8512.368333,-1628.453072,153.219100
1243.702007,-8068.244768,-1332.370696,-1072.533697
1243.702328,-8438.347739,148.041188,306.438199
1243.702649,-9548.656652,1036.288319,1072.533697
1243.702969,-10140.821405,1110.308913,1838.629195
1243.703290,-10288.862594,222.061783,1455.581446
1243.703611,-9992.780217,592.164754,1149.143247
1243.703932,-10510.924376,74.020594,1915.238745
1243.704253,-10066.800811,74.020594,2451.505594
1243.704573,-9474.636058,-666.185348,1838.629195
1243.704894,-8586.388927,-1850.514855,1072.533697
1243.705215,-7994.224174,-2812.782580,-919.314598
1243.705536,-8586.388927,-1924.535449,-536.266849
1243.705857,-9474.636058,74.020594,919.314598
1243.706177,-10066.800811,1332.370696,1991.848295
1243.706498,-10510.924376,592.164754,2451.505594
1243.706819,-10214.842000,-518.144159,1991.848295
1243.707140,-10066.800811,-740.205942,1378.971896
1243.707461,-10658.965565,-592.164754,2145.067394
1243.707781,-9622.677246,-592.164754,3217.601092
1243.708102,-8660.409521,-1554.432478,1532.190996
1243.708423,-7550.100608,-2738.761985,-1149.143247
1243.708744,-7105.977043,-1184.329507,-2451.505594
1243.709065,-8956.491898,74.020594,-229.828649
1243.709386,-9844.739029,1258.350101,919.314598
1243.709706,-10658.965565,1554.432478,2681.334243
1243.710027,-10881.027347,0.000000,1762.019645
1243.710348,-10362.883188,-148.041188,1455.581446
1243.710669,-11399.171507,-296.082377,2145.067394
1243.710990,-9918.759623,-518.144159,2757.943793
1243.711311,-10140.821405,-962.267725,2145.067394
1243.711632,-9178.553681,-1776.494261,-229.828649
1243.711952,-7698.141797,-1924.535449,-1532.190996
1243.712273,-8586.388927,-1554.432478,-1532.190996
1243.712594,-9104.533087,74.020594,153.219100
1243.712915,-10288.862594,1036.288319,1225.752797
1243.713236,-10436.903782,888.247130,1838.629195
1243.713557,-10288.862594,-444.123565,1225.752797
1243.713877,-10214.842000,-962.267725,1838.629195
1243.714198,-10362.883188,-1480.411884,2528.115143
1243.714519,-10066.800811,-1554.432478,2298.286494
1243.714840,-8808.450710,-2220.617826,612.876398
1243.715161,-8142.265362,-1998.556043,-766.095498
1243.715482,-7994.224174,-370.102971,-1378.971896
1243.715802,-9252.574275,740.205942,0.000000
1243.716123,-9992.780217,1850.514855,1455.581446
1243.716444,-10214.842000,814.226536,2374.896044
1243.716765,-10436.903782,-592.164754,1608.800546
1243.717086,-10066.800811,-74.020594,1149.143247
1243.717407,-10658.965565,0.000000,2451.505594
1243.717727,-10214.842000,888.247130,2757.943793
1243.718048,-9474.636058,148.041188,2068.457845
1243.718369,-8512.368333,-1036.288319,-229.828649
1243.718690,-8142.265362,-1628.453072,-1838.629195
1243.719011,-9104.533087,-296.082377,-842.705048
1243.719332,-9696.697840,1110.308913,536.266849
1243.719653,-9844.739029,2368.659014,1838.629195
1243.719973,-10436.903782,1776.494261,2068.457845
1243.720294,-9696.697840,444.123565,2068.457845
1243.720615,-10584.944971,-666.185348,2451.505594
1243.720936,-10436.903782,-1110.308913,2604.724693
1243.721257,-9770.718434,-1258.350101,2298.286494
1243.721578,-9178.553681,-2072.576638,842.705048
1243.721898,-7105.977043,-1554.432478,-1455.581446
1243.722219,-7624.121203,-370.102971,-2451.505594
1243.722540,-7994.224174,1924.535449,-1455.581446
1243.722861,-9770.718434,2368.659014,459.657299
1243.723182,-10288.862594,1998.556043,2451.505594
1243.723503,-11103.089130,74.020594,2298.286494
1243.723823,-11177.109724,-1332.370696,2298.286494
1243.724144,-11547.212695,-222.061783,3217.601092
1243.724465,-10732.986159,-148.041188,4136.915689
1243.724786,-9622.677246,-518.144159,2987.772442
1243.725107,-8956.491898,-1628.453072,919.314598
1243.725428,-7698.141797,-1480.411884,-1225.752797
1243.725749,-8438.347739,-666.185348,-842.705048
1243.726069,-9104.533087,0.000000,229.828649
1243.726390,-9326.594869,518.144159,1532.190996
1243.726711,-9696.697840,0.000000,2145.067394
1243.727032,-9696.697840,-1036.288319,2451.505594
1243.727353,-10066.800811,-1036.288319,2834.553343
1243.727674,-10584.944971,-1628.453072,3370.820191
1243.727994,-9474.636058,-888.247130,2757.943793
1243.728315,-9400.615463,-962.267725,1991.848295
1243.728636,-9030.512492,-888.247130,-689.485948
1243.728957,-7920.203579,-370.102971,-1455.581446
1243.729278,-8956.491898,222.061783,-229.828649
1243.729599,-9918.759623,814.226536,612.876398
1243.729919,-10362.883188,222.061783,1532.190996
1243.730240,-10510.924376,-1036.288319,1149.143247
1243.730561,-9918.759623,-1110.308913,612.876398
1243.730882,-10881.027347,74.020594,2068.457845
1243.731203,-10807.006753,444.123565,2451.505594
1243.731524,-9770.718434,0.000000,1378.971896
1243.731845,-9252.574275,-1702.473667,-153.219100
1243.732165,-7994.224174,-2146.597232,-2145.067394
1243.732486,-8808.450710,-740.205942,-1455.581446
1243.732807,-9326.594869,518.144159,842.705048
1243.733128,-10362.883188,1924.535449,1608.800546
1243.733449,-10140.821405,962.267725,2068.457845
1243.733770,-10288.862594,-592.164754,995.924147
1243.734090,-10436.903782,-1406.391290,1685.410096
1243.734411,-10214.842000,-1554.432478,2221.676944
1243.734732,-9844.739029,-1332.370696,2068.457845
1243.735053,-8660.409521,-1554.432478,1149.143247
1243.735374,-8068.244768,-2220.617826,-536.266849
1243.735695,-8364.327145,-1554.432478,-1685.410096
1243.736015,-8882.471304,518.144159,-536.266849
1243.736336,-9696.697840,1702.473667,1532.190996
1243.736657,-10510.924376,1332.370696,2528.115143
1243.736978,-10214.842000,-296.082377,4826.401637
1243.737299,-10214.842000,-518.144159,1608.800546
1243.737620,-9992.780217,-444.123565,1685.410096
1243.737941,-9770.718434,0.000000,2374.896044
1243.738261,-9178.553681,-888.247130,2298.286494
1243.738582,-8438.347739,-1776.494261,0.000000
1243.738903,-7920.203579,-1776.494261,-1225.752797
1243.739224,-8660.409521,-888.247130,-995.924147
1243.739545,-9474.636058,666.185348,766.095498
1243.739866,-9696.697840,962.267725,1991.848295
1243.740186,-10362.883188,962.267725,2451.505594
1243.740507,-10140.821405,74.020594,2374.896044
1243.740828,-10436.903782,-222.061783,2681.334243
1243.741149,-9770.718434,-444.123565,4443.353888
1243.741470,-9844.739029,-1332.370696,3217.601092
1243.741791,-8956.491898,-2072.576638,1455.581446
1243.742111,-8068.244768,-1850.514855,-536.266849
1243.742432,-8364.327145,-814.226536,-689.485948
1243.742753,-8882.471304,666.185348,306.438199
1243.743074,-9844.739029,1184.329507,2145.067394
1243.743395,-10436.903782,592.164754,2145.067394
1243.743716,-10807.006753,-444.123565,1762.019645
1243.744037,-9548.656652,-1184.329507,1302.362347
1243.744357,-10955.047942,0.000000,2068.457845
1243.744678,-10288.862594,148.041188,2221.676944
1243.744999,-9622.677246,-296.082377,1455.581446
1243.745320,-9252.574275,-666.185348,1532.190996
1243.745641,-8364.327145,-1924.535449,-2221.676944
1243.745962,-8660.409521,-814.226536,-1915.238745
1243.746282,-9474.636058,592.164754,-383.047749
1243.746603,-10066.800811,1480.411884,995.924147
1243.746924,-10436.903782,888.247130,2145.067394
1243.747245,-10214.842000,-592.164754,1378.971896
1243.747566,-10362.883188,-592.164754,1685.410096
1243.747887,-10436.903782,-444.123565,2451.505594
1243.748207,-10066.800811,-370.102971,1838.629195
1243.748528,-9178.553681,-518.144159,1378.971896
1243.748849,-8068.244768,-1776.494261,-689.485948
1243.749170,-7476.080014,-962.267725,-1762.019645
1243.749491,-9252.574275,1110.308913,-1225.752797
1243.749812,-9918.759623,2294.638420,1072.533697
1243.750133,-10732.986159,1628.453072,2451.505594
1243.750453,-10658.965565,370.102971,1915.238745
1243.750774,-10066.800811,0.000000,1302.362347
1243.751095,-10732.986159,-444.123565,1685.410096
1243.751416,-9918.759623,0.000000,2451.505594
1243.751737,-9696.697840,-740.205942,2374.896044
1243.752058,-8734.430116,-1850.514855,383.047749
1243.752378,-7698.141797,-1998.556043,-995.924147
1243.752699,-8882.471304,-1258.350101,-689.485948
1243.753020,-9622.677246,370.102971,1149.143247
1243.753341,-10288.862594,1184.329507,2374.896044
1243.753662,-10584.944971,1110.308913,4136.915689
1243.753983,-10436.903782,-370.102971,2451.505594
1243.754303,-10436.903782,-592.164754,2145.067394
1243.754624,-10362.883188,-962.267725,2451.505594
1243.754945,-9474.636058,-1036.288319,2681.334243
1243.755266,-9252.574275,-1480.411884,2298.286494
1243.755587,-8438.347739,-2146.597232,306.438199
1243.755908,-8364.327145,-1702.473667,-612.876398
1243.756228,-8808.450710,-148.041188,306.438199
1243.756549,-9178.553681,888.247130,2145.067394
1243.756870,-10807.006753,592.164754,3064.381992
1243.757191,-10362.883188,592.164754,2528.115143
1243.757512,-10362.883188,-962.267725,1915.238745
1243.757833,-9326.594869,-370.102971,3064.381992
1243.758154,-9992.780217,0.000000,2451.505594
1243.758474,-9252.574275,-1036.288319,1455.581446
1243.758795,-8364.327145,-1258.350101,153.219100
1243.759116,-7624.121203,-1406.391290,-1455.581446
1243.759437,-8512.368333,-740.205942,-689.485948
1243.759758,-9252.574275,0.000000,-229.828649
1243.760079,-10214.842000,1628.453072,1915.238745
1243.760399,-11473.192101,666.185348,2374.896044
1243.760720,-9992.780217,0.000000,1915.238745
1243.761041,-10066.800811,-222.061783,842.705048
1243.761362,-10214.842000,-296.082377,1838.629195
1243.761683,-9474.636058,-814.226536,1532.190996
1243.762004,-8956.491898,-1776.494261,842.705048
1243.762324,-8364.327145,-2812.782580,-1225.752797
1243.762645,-7550.100608,-2072.576638,-2757.943793
1243.762966,-8956.491898,-296.082377,-1455.581446
1243.763287,-10066.800811,1406.391290,689.485948
1243.763608,-10584.944971,888.247130,1991.848295
1243.763929,-10732.986159,444.123565,2145.067394
1243.764250,-10510.924376,-518.144159,1685.410096
