#time,accel_x,accel_y,accel_z
1007.696599,-9696.697840,-444.123565,1302.362347
1007.696920,-8438.347739,-518.144159,1685.410096
1007.697241,-9548.656652,-296.082377,1225.752797
1007.697561,-9622.677246,-148.041188,1149.143247
1007.697882,-9474.636058,-518.144159,1149.143247
1007.698203,-9622.677246,-148.041188,1149.143247
1007.698524,-9770.718434,-370.102971,1149.143247
1007.698845,-9696.697840,-296.082377,1149.143247
1007.699166,-9548.656652,-370.102971,919.314598
1007.699487,-9696.697840,-518.144159,1149.143247
1007.699808,-9770.718434,0.000000,919.314598
1007.700129,-9548.656652,-296.082377,1149.143247
1007.700450,-9548.656652,-370.102971,1225.752797
1007.700771,-9474.636058,-370.102971,766.095498
1007.701091,-8882.471304,518.144159,1455.581446
1007.701412,-9770.718434,-592.164754,919.314598
1007.701733,-9474.636058,-592.164754,919.314598
1007.702054,-9622.677246,-740.205942,842.705048
1007.702375,-9622.677246,-518.144159,383.047749
1007.702696,-9474.636058,-370.102971,919.314598
1007.703017,-9622.677246,-296.082377,1225.752797
1007.703338,-9548.656652,-370.102971,1072.533697
1007.703659,-9622.677246,-444.123565,1225.752797
1007.703980,-9474.636058,-592.164754,689.485948
1007.704300,-9548.656652,-740.205942,842.705048
1007.704621,-9400.615463,-296.082377,1225.752797
1007.704942,-9770.718434,-444.123565,1149.143247
1007.705263,-9474.636058,-1332.370696,1762.019645
1007.705584,-9400.615463,-1258.350101,766.095498
1007.705905,-9252.574275,-1258.350101,76.609550
1007.706226,-9400.615463,-962.267725,76.609550
1007.706547,-9622.677246,-740.205942,689.485948
1007.706868,-9770.718434,-1036.288319,536.266849
1007.707189,-9400.615463,-1036.288319,0.000000
1007.707509,-10066.800811,-888.247130,76.609550
1007.707830,-9696.697840,-666.185348,0.000000
1007.708151,-9326.594869,-1110.308913,383.047749
1007.708472,-9696.697840,-962.267725,76.609550
1007.708793,-9548.656652,-1036.288319,-766.095498
1007.709114,-9474.636058,-1110.308913,-766.095498
1007.709435,-9622.677246,-1776.494261,-1225.752797
1007.709756,-9474.636058,-1554.432478,-842.705048
1007.710077,-9474.636058,-1554.432478,-1378.971896
1007.710398,-9326.594869,-1998.556043,-2145.067394
1007.710719,-9400.615463,-1480.411884,-2604.724693
1007.711039,-9770.718434,-1702.473667,-2681.334243
1007.711360,-9696.697840,-2072.576638,-3140.991542
1007.711681,-9770.718434,-2294.638420,-3753.867940
1007.712002,-9548.656652,-2368.659014,-4519.963438
1007.712323,-9770.718434,-2442.679609,-4213.525239
1007.712644,-9992.780217,-2368.659014,-4136.915689
1007.712965,-9844.739029,-2590.720797,-3524.039291
1007.713286,-9770.718434,-3034.844362,-3600.648841
1007.713607,-10140.821405,-4515.256246,-2528.115143
1007.713928,-9474.636058,-5033.400406,-3217.601092
1007.714248,-9400.615463,-5181.441594,-2681.334243
1007.714569,-9400.615463,-5477.523971,-2834.553343
1007.714890,-9474.636058,-4885.359217,-689.485948
1007.715211,-9178.553681,-4737.318029,-2221.676944
1007.715532,-8882.471304,-4219.173869,-2298.286494
1007.715853,-9770.718434,-4737.318029,-2451.505594
1007.716174,-8882.471304,-3701.029710,-1838.629195
1007.716495,-9622.677246,-4219.173869,-2145.067394
1007.716816,-9474.636058,-3849.070898,-1685.410096
1007.717137,-9474.636058,-4071.132681,-1302.362347
1007.717457,-9844.739029,-3997.112087,-153.219100
1007.717778,-10955.047942,-2886.803174,229.828649
1007.718099,-9918.759623,-3404.947333,689.485948
1007.718420,-10214.842000,-3256.906145,1991.848295
1007.718741,-9326.594869,-3182.885551,1532.190996
1007.719062,-10066.800811,-3330.926739,1302.362347
1007.719383,-9474.636058,-3256.906145,1532.190996
1007.719704,-9252.574275,-3330.926739,229.828649
1007.720025,-9326.594869,-3330.926739,229.828649
1007.720346,-8956.491898,-3478.967927,-459.657299
1007.720667,-9252.574275,-3108.864956,-689.485948
1007.720987,-9474.636058,-2812.782580,-995.924147
1007.721308,-9770.718434,-2886.803174,-459.657299
1007.721629,-10584.944971,-3330.926739,0.000000
1007.721950,-10510.924376,-3552.988522,995.924147
1007.722271,-10658.965565,-3775.050304,0.000000
1007.722592,-10288.862594,-4071.132681,153.219100
1007.722913,-9992.780217,-4293.194464,76.609550
1007.723234,-9548.656652,-3701.029710,536.266849
1007.723555,-9474.636058,-2738.761985,153.219100
1007.723876,-9548.656652,-1998.556043,1225.752797
1007.724196,-9770.718434,-1184.329507,1378.971896
1007.724517,-9548.656652,-1184.329507,383.047749
1007.724838,-9474.636058,-888.247130,-153.219100
1007.725159,-8808.450710,-1406.391290,-1149.143247
1007.725480,-8660.409521,-2146.597232,-2374.896044
1007.725801,-8586.388927,-2146.597232,-3140.991542
1007.726122,-8586.388927,-1332.370696,-2987.772442
1007.726443,-9474.636058,-2146.597232,-4213.525239
1007.726764,-9992.780217,-1924.535449,-4443.353888
1007.727085,-10362.883188,-1924.535449,-4443.353888
1007.727406,-10288.862594,-1628.453072,-5515.887586
1007.727726,-9918.759623,-1480.411884,-3753.867940
1007.728047,-10140.821405,-1110.308913,-2757.943793
1007.728368,-10066.800811,-1332.370696,-1915.238745
1007.728689,-10066.800811,-1480.411884,-1685.410096
1007.729010,-9548.656652,-1184.329507,-1302.362347
1007.729331,-9474.636058,-518.144159,-2068.457845
1007.729652,-9104.533087,0.000000,-1838.629195
1007.729973,-8956.491898,-222.061783,-2068.457845
1007.730294,-8438.347739,-592.164754,-2068.457845
1007.730615,-8660.409521,-1924.535449,-3294.210641
1007.730935,-8956.491898,-2368.659014,-3294.210641
1007.731256,-9474.636058,-1924.535449,-2757.943793
1007.731577,-10140.821405,-1850.514855,-1685.410096
1007.731898,-9918.759623,-888.247130,76.609550
1007.732219,-11251.130318,-518.144159,0.000000
1007.732540,-11325.150913,-1480.411884,842.705048
1007.732861,-10436.903782,-2146.597232,-229.828649
1007.733182,-10362.883188,-2220.617826,153.219100
1007.733503,-9474.636058,-1998.556043,229.828649
1007.733824,-8882.471304,-2442.679609,306.438199
1007.734144,-8660.409521,-2886.803174,0.000000
1007.734465,-7920.203579,-3627.009116,-1378.971896
1007.734786,-8438.347739,-2516.700203,-1685.410096
1007.735107,-8586.388927,-1850.514855,612.876398
1007.735428,-10066.800811,-2590.720797,1838.629195
1007.735749,-10658.965565,-3256.906145,2451.505594
1007.736070,-9992.780217,-3256.906145,919.314598
1007.736391,-10288.862594,-3552.988522,1149.143247
1007.736712,-10510.924376,-2442.679609,1685.410096
1007.737033,-10658.965565,-2368.659014,1225.752797
1007.737354,-9622.677246,-1998.556043,0.000000
1007.737674,-8512.368333,-1702.473667,-1302.362347
1007.737995,-8512.368333,-1924.535449,-383.047749
1007.738316,-9030.512492,-2590.720797,536.266849
1007.738637,-9326.594869,-3775.050304,0.000000
1007.738958,-9104.533087,-4219.173869,-1455.581446
1007.739279,-8290.306550,-3997.112087,-1915.238745
1007.739600,-8512.368333,-4071.132681,-1455.581446
1007.739921,-9030.512492,-3256.906145,-459.657299
1007.740242,-10807.006753,-6291.750507,612.876398
1007.740563,-8290.306550,-3997.112087,-3447.429741
1007.740883,-10881.027347,-3775.050304,-3830.477490
1007.741204,-10807.006753,-1184.329507,-1991.848295
1007.741525,-10584.944971,-1702.473667,-2451.505594
1007.741846,-10288.862594,-1036.288319,-3217.601092
1007.742167,-9474.636058,-1628.453072,-3677.258390
1007.742488,-8290.306550,-2664.741391,-4443.353888
1007.742809,-10288.862594,-2368.659014,-1608.800546
1007.743130,-9474.636058,-2368.659014,-2374.896044
1007.743451,-10436.903782,-1406.391290,-1838.629195
1007.743772,-9696.697840,-1554.432478,-306.438199
1007.744092,-8660.409521,-2072.576638,-1455.581446
1007.744413,-9474.636058,-2368.659014,-2221.676944
1007.744734,-9696.697840,-2442.679609,-1685.410096
1007.745055,-7994.224174,-3552.988522,-2987.772442
1007.745376,-8882.471304,-3108.864956,-3524.039291
1007.745697,-9548.656652,-2368.659014,-2528.115143
1007.746018,-10066.800811,-2072.576638,-1762.019645
1007.746339,-10881.027347,-2812.782580,-1762.019645
1007.746660,-10140.821405,-2294.638420,-2298.286494
1007.746981,-10362.883188,-1850.514855,-2528.115143
1007.747302,-9844.739029,-2220.617826,-1991.848295
1007.747622,-9548.656652,-1628.453072,229.828649
1007.747943,-9992.780217,-1628.453072,1149.143247
1007.748264,-9844.739029,-2886.803174,919.314598
1007.748585,-9252.574275,-2442.679609,1991.848295
1007.748906,-8734.430116,-2368.659014,-766.095498
1007.749227,-9474.636058,-814.226536,306.438199
1007.749548,-8660.409521,296.082377,1225.752797
1007.749869,-8290.306550,-1184.329507,919.314598
1007.750190,-9252.574275,-2886.803174,0.000000
1007.750511,-8956.491898,-3997.112087,-383.047749
1007.750831,-9918.759623,-4441.235652,-229.828649
1007.751152,-11029.068536,-3108.864956,689.485948
1007.751473,-10658.965565,-888.247130,0.000000
1007.751794,-9400.615463,-592.164754,-459.657299
1007.752115,-9918.759623,-518.144159,153.219100
1007.752436,-10436.903782,-2220.617826,0.000000
1007.752757,-9770.718434,-3182.885551,-612.876398
1007.753078,-10732.986159,-2886.803174,766.095498
1007.753399,-9992.780217,-3182.885551,0.000000
1007.753720,-8882.471304,-2590.720797,612.876398
1007.754042,-9178.553681,-2294.638420,995.924147
1007.754363,-8512.368333,-740.205942,-766.095498
1007.754684,-9104.533087,-2442.679609,-1532.190996
1007.755005,-7772.162391,-3330.926739,-3447.429741
1007.755326,-8438.347739,-2590.720797,-3447.429741
1007.755647,-9030.512492,-2886.803174,-3294.210641
1007.755968,-9326.594869,-1480.411884,-536.266849
1007.756289,-10584.944971,-2368.659014,-536.266849
1007.756610,-10214.842000,-3330.926739,-2451.505594
1007.756931,-10732.986159,-2812.782580,-2451.505594
1007.757252,-10362.883188,-444.123565,-1762.019645
1007.757574,-10436.903782,148.041188,-842.705048
1007.757895,-10214.842000,-296.082377,-1072.533697
1007.758216,-8586.388927,-2368.659014,-3983.696590
1007.758537,-8142.265362,-3108.864956,-4979.620737
1007.758858,-8586.388927,-2368.659014,-3830.477490
1007.759179,-8808.450710,0.000000,-1302.362347
1007.759500,-10807.006753,0.000000,1455.581446
1007.759821,-11029.068536,-814.226536,153.219100
1007.760142,-9326.594869,-1628.453072,-689.485948
1007.760463,-11547.212695,-1702.473667,229.828649
1007.760784,-10214.842000,-1924.535449,1072.533697
1007.761105,-9622.677246,-1258.350101,1149.143247
1007.761427,-10066.800811,-2516.700203,689.485948
1007.761748,-7328.038826,-3701.029710,-2604.724693
1007.762069,-8882.471304,-2738.761985,-3370.820191
1007.762390,-9474.636058,-962.267725,-1225.752797
1007.762711,-7846.182985,-888.247130,-1072.533697
1007.763032,-9474.636058,-666.185348,842.705048
1007.763353,-9474.636058,-3330.926739,0.000000
1007.763674,-8808.450710,-4219.173869,-1378.971896
1007.763995,-10807.006753,-4811.338623,-1915.238745
1007.764316,-9104.533087,-1628.453072,919.314598
1007.764637,-9844.739029,666.185348,2145.067394
1007.764958,-10214.842000,814.226536,1532.190996
1007.765280,-8882.471304,518.144159,229.828649
1007.765601,-9400.615463,666.185348,536.266849
1007.765922,-9548.656652,-148.041188,536.266849
1007.766243,-9474.636058,0.000000,2757.943793
1007.766564,-10140.821405,-1480.411884,2374.896044
1007.766885,-8734.430116,-1480.411884,1149.143247
1007.767206,-9474.636058,-1036.288319,995.924147
1007.767527,-8364.327145,0.000000,1072.533697
1007.767848,-10436.903782,0.000000,2374.896044
1007.768169,-11177.109724,1036.288319,2681.334243
1007.768490,-8808.450710,1332.370696,1072.533697
1007.768811,-10584.944971,-666.185348,153.219100
1007.769133,-8364.327145,2516.700203,3140.991542
1007.769454,-10732.986159,740.205942,4060.306139
1007.769775,-11103.089130,-222.061783,3370.820191
1007.770096,-9548.656652,-222.061783,1838.629195
1007.770417,-9252.574275,148.041188,-383.047749
1007.770738,-8364.327145,1480.411884,1225.752797
1007.771059,-10436.903782,666.185348,2528.115143
1007.771380,-10066.800811,-1554.432478,1991.848295
1007.771701,-7772.162391,-2812.782580,-1838.629195
1007.772022,-7772.162391,-3108.864956,-3677.258390
1007.772343,-7624.121203,148.041188,-3524.039291
1007.772664,-9918.759623,1554.432478,-383.047749
1007.772986,-9918.759623,2664.741391,1915.238745
1007.773307,-9844.739029,74.020594,459.657299
1007.773628,-9918.759623,-1480.411884,-153.219100
1007.773949,-12287.418637,-1850.514855,1455.581446
1007.774270,-10955.047942,-592.164754,3524.039291
1007.774591,-11621.233289,-592.164754,3753.867940
1007.774912,-8882.471304,-222.061783,1762.019645
1007.775233,-6883.915261,-1406.391290,-2145.067394
1007.775554,-7179.997637,-148.041188,-1072.533697
1007.775875,-8586.388927,222.061783,0.000000
1007.776196,-9178.553681,-518.144159,1685.410096
1007.776517,-7402.059420,-1406.391290,-995.924147
1007.776839,-8882.471304,-1110.308913,-1149.143247
1007.777160,-9474.636058,1332.370696,1072.533697
1007.777481,-11769.274478,1924.535449,3830.477490
1007.777802,-12139.377449,0.000000,3907.087040
1007.778123,-9400.615463,-2072.576638,306.438199
1007.778444,-10584.944971,-1924.535449,-1532.190996
1007.778765,-11177.109724,296.082377,1455.581446
1007.779086,-11695.253884,888.247130,3677.258390
1007.779407,-11621.233289,592.164754,3983.696590
1007.779728,-7920.203579,-592.164754,0.000000
1007.780049,-7254.018232,-2220.617826,-3217.601092
1007.780370,-7254.018232,-666.185348,-2528.115143
1007.780692,-7550.100608,1184.329507,-459.657299
1007.781013,-8660.409521,148.041188,612.876398
1007.781334,-7328.038826,148.041188,-919.314598
1007.781655,-9474.636058,-740.205942,-995.924147
1007.781976,-11399.171507,148.041188,2528.115143
1007.782297,-12657.521608,888.247130,6894.859482
1007.782618,-14137.933492,0.000000,7507.735880
1007.782939,-11177.109724,-2220.617826,3677.258390
1007.783260,-9474.636058,-3256.906145,-383.047749
1007.783581,-9770.718434,-814.226536,1225.752797
1007.783902,-8290.306550,-518.144159,995.924147
1007.784223,-8808.450710,-296.082377,1302.362347
1007.784545,-7105.977043,-148.041188,-383.047749
1007.784866,-7624.121203,-1110.308913,-2145.067394
1007.785187,-9474.636058,148.041188,1302.362347
1007.785508,-11177.109724,-962.267725,5362.668486
1007.785829,-12065.356855,-3034.844362,5592.497135
1007.786150,-7402.059420,-666.185348,2221.676944
1007.786471,-11621.233289,-1480.411884,0.000000
1007.786792,-8068.244768,1332.370696,1838.629195
1007.787113,-8882.471304,1184.329507,1915.238745
1007.787434,-11103.089130,444.123565,2834.553343
1007.787755,-6661.853478,-962.267725,-2451.505594
1007.788076,-7920.203579,-740.205942,-2374.896044
1007.788398,-10288.862594,-1036.288319,153.219100
1007.788719,-9918.759623,-592.164754,1378.971896
1007.789040,-12065.356855,-1332.370696,4519.963438
1007.789361,-9474.636058,-3256.906145,1225.752797
1007.789682,-8438.347739,-2368.659014,-1532.190996
1007.790003,-11695.253884,-370.102971,1685.410096
1007.790324,-9400.615463,1258.350101,1991.848295
1007.790645,-10066.800811,2664.741391,3600.648841
1007.790966,-9400.615463,1110.308913,229.828649
1007.791287,-7994.224174,-1924.535449,-3064.381992
1007.791608,-9178.553681,-370.102971,-995.924147
1007.791929,-10732.986159,-222.061783,1302.362347
1007.792251,-11399.171507,222.061783,2757.943793
1007.792572,-9400.615463,-814.226536,153.219100
1007.792893,-9622.677246,-740.205942,-1455.581446
1007.793214,-10140.821405,74.020594,0.000000
1007.793535,-10658.965565,296.082377,1378.971896
1007.793856,-12213.398043,-814.226536,2834.553343
1007.794177,-8512.368333,-1184.329507,-459.657299
1007.794498,-9474.636058,-2368.659014,-3064.381992
1007.794819,-9918.759623,814.226536,1302.362347
1007.795140,-10066.800811,814.226536,2987.772442
1007.795461,-12435.459826,518.144159,4290.134789
1007.795782,-9770.718434,666.185348,1838.629195
1007.796104,-9326.594869,-444.123565,-1532.190996
1007.796425,-10584.944971,444.123565,1149.143247
1007.796746,-8956.491898,1924.535449,1915.238745
1007.797067,-9696.697840,2146.597232,2987.772442
1007.797388,-8586.388927,-148.041188,689.485948
1007.797709,-8216.285956,222.061783,-2221.676944
1007.798030,-10066.800811,-1184.329507,2068.457845
1007.798351,-9918.759623,518.144159,4060.306139
1007.798672,-11991.336260,444.123565,5898.935335
1007.798993,-9400.615463,-592.164754,1915.238745
1007.799314,-7031.956449,-370.102971,-1608.800546
1007.799636,-8808.450710,-148.041188,-536.266849
1007.799957,-8364.327145,370.102971,1455.581446
1007.800278,-9844.739029,0.000000,2681.334243
1007.800599,-8512.368333,-1110.308913,2911.162892
1007.800920,-7624.121203,-3108.864956,-1072.533697
1007.801241,-9326.594869,-1036.288319,1991.848295
1007.801562,-10214.842000,222.061783,4366.744339
1007.801883,-9918.759623,1628.453072,4749.792088
1007.802204,-9770.718434,-1036.288319,1302.362347
1007.802525,-7031.956449,-1702.473667,-459.657299
1007.802846,-9104.533087,-2516.700203,-229.828649
1007.803167,-9992.780217,-2220.617826,1072.533697
1007.803489,-10066.800811,-666.185348,2911.162892
1007.803810,-8882.471304,888.247130,0.000000
1007.804131,-8956.491898,888.247130,-459.657299
1007.804452,-10955.047942,0.000000,1149.143247
1007.804773,-11177.109724,-814.226536,306.438199
1007.805094,-12287.418637,-2072.576638,2604.724693
1007.805415,-9178.553681,-1998.556043,0.000000
1007.805736,-8290.306550,-1554.432478,-1915.238745
1007.806057,-9844.739029,962.267725,0.000000
1007.806378,-9622.677246,2220.617826,612.876398
1007.806699,-10362.883188,518.144159,1072.533697
1007.807020,-8882.471304,-814.226536,-995.924147
1007.807342,-8290.306550,-2664.741391,-3677.258390
1007.807663,-10066.800811,-1554.432478,-2451.505594
1007.807984,-9474.636058,1480.411884,1225.752797
1007.808305,-11621.233289,888.247130,2834.553343
1007.808626,-9252.574275,1480.411884,1532.190996
1007.808947,-9622.677246,74.020594,689.485948
1007.809268,-10955.047942,-592.164754,1532.190996
1007.809589,-10436.903782,-1628.453072,1838.629195
1007.809910,-10732.986159,-1036.288319,2834.553343
1007.810231,-8734.430116,-1184.329507,229.828649
1007.810552,-7254.018232,-962.267725,-2451.505594
1007.810873,-8956.491898,1110.308913,306.438199
1007.811195,-9474.636058,740.205942,2451.505594
1007.811516,-9844.739029,-370.102971,3370.820191
1007.811837,-8586.388927,-1776.494261,2681.334243
1007.812158,-9474.636058,-3034.844362,-306.438199
1007.812479,-9696.697840,-666.185348,2374.896044
1007.812800,-10066.800811,592.164754,3830.477490
1007.813121,-9918.759623,1332.370696,5822.325785
1007.813442,-9252.574275,-1036.288319,2145.067394
1007.813763,-8290.306550,-1776.494261,-306.438199
1007.814084,-8956.491898,-1480.411884,536.266849
1007.814405,-9178.553681,-592.164754,2528.115143
1007.814726,-10658.965565,814.226536,3753.867940
1007.815048,-8956.491898,814.226536,1455.581446
1007.815369,-8512.368333,444.123565,-612.876398
1007.815690,-10288.862594,740.205942,1685.410096
1007.816011,-9178.553681,1406.391290,2298.286494
1007.816332,-11251.130318,-1702.473667,3140.991542
1007.816653,-9622.677246,-1776.494261,1915.238745
1007.816974,-9326.594869,-2738.761985,-1378.971896
1007.817295,-10658.965565,444.123565,1149.143247
1007.817616,-11473.192101,2146.597232,4213.525239
1007.817937,-12361.439231,2220.617826,5822.325785
1007.818258,-11621.233289,666.185348,4443.353888
1007.818579,-8364.327145,-1924.535449,-1608.800546
1007.818901,-8586.388927,-1702.473667,-306.438199
1007.819222,-8142.265362,1998.556043,-919.314598
1007.819543,-9400.615463,888.247130,0.000000
1007.819864,-7105.977043,1554.432478,-1608.800546
1007.820185,-8142.265362,-666.185348,-1838.629195
1007.820506,-8586.388927,-1406.391290,-612.876398
1007.820827,-11695.253884,-592.164754,3370.820191
1007.821148,-12435.459826,-1110.308913,4826.401637
1007.821469,-11769.274478,0.000000,3217.601092
1007.821790,-8660.409521,-1406.391290,-689.485948
1007.822111,-9622.677246,0.000000,-229.828649
1007.822432,-7550.100608,-592.164754,306.438199
1007.822754,-9178.553681,-1036.288319,0.000000
1007.823075,-7920.203579,-962.267725,-919.314598
1007.823396,-8586.388927,-2072.576638,-4213.525239
1007.823717,-8882.471304,-370.102971,-1455.581446
1007.824038,-10214.842000,592.164754,1532.190996
1007.824359,-12435.459826,962.267725,4749.792088
1007.824680,-9992.780217,-814.226536,2221.676944
1007.825001,-8290.306550,-2146.597232,-1378.971896
1007.825322,-9770.718434,-592.164754,76.609550
1007.825643,-9696.697840,1036.288319,1225.752797
1007.825964,-10288.862594,740.205942,1762.019645
1007.826285,-8216.285956,592.164754,0.000000
1007.826607,-7698.141797,-814.226536,-2911.162892
1007.826928,-8808.450710,-740.205942,-1608.800546
1007.827249,-9548.656652,-592.164754,2068.457845
1007.827570,-11621.233289,-814.226536,3217.601092
1007.827891,-10066.800811,-296.082377,3064.381992
1007.828212,-9400.615463,-2590.720797,536.266849
1007.828533,-9474.636058,0.000000,2604.724693
1007.828854,-11103.089130,-962.267725,3217.601092
1007.829175,-9770.718434,518.144159,2681.334243
1007.829496,-10066.800811,1332.370696,1838.629195
1007.829817,-8438.347739,-740.205942,-1532.190996
1007.830138,-9326.594869,1406.391290,153.219100
1007.830460,-10140.821405,2368.659014,2528.115143
1007.830781,-11917.315666,814.226536,3830.477490
1007.831102,-9326.594869,74.020594,2298.286494
1007.831423,-9770.718434,-1998.556043,-689.485948
1007.831744,-9918.759623,-1332.370696,459.657299
1007.832065,-10140.821405,888.247130,3217.601092
1007.832386,-11029.068536,962.267725,4136.915689
1007.832707,-9400.615463,888.247130,2221.676944
1007.833028,-8586.388927,-1184.329507,459.657299
1007.833349,-10510.924376,-2220.617826,2068.457845
1007.833670,-10066.800811,-814.226536,4213.525239
1007.833991,-11029.068536,-1406.391290,4749.792088
1007.834313,-9770.718434,-1702.473667,2604.724693
1007.834634,-7846.182985,-2812.782580,-1302.362347
1007.834955,-8216.285956,-518.144159,-1685.410096
1007.835276,-8660.409521,888.247130,689.485948
1007.835597,-9030.512492,370.102971,2528.115143
1007.835918,-8364.327145,-518.144159,1685.410096
1007.836239,-8586.388927,-3478.967927,-1838.629195
1007.836560,-9696.697840,-1850.514855,-306.438199
1007.836881,-10288.862594,-1036.288319,3447.429741
1007.837202,-11695.253884,-666.185348,3983.696590
1007.837523,-9918.759623,-740.205942,2145.067394
1007.837844,-8586.388927,-1406.391290,-1915.238745
1007.838166,-8956.491898,148.041188,-1225.752797
1007.838487,-10214.842000,296.082377,76.609550
1007.838808,-10140.821405,444.123565,1608.800546
1007.839129,-8882.471304,-222.061783,-459.657299
1007.839450,-8364.327145,-1406.391290,-2681.334243
1007.839771,-9918.759623,0.000000,-1302.362347
1007.840092,-10214.842000,518.144159,1991.848295
1007.840413,-11399.171507,1110.308913,2604.724693
1007.840734,-9918.759623,888.247130,1838.629195
1007.841055,-9178.553681,-740.205942,-1685.410096
1007.841376,-9844.739029,518.144159,-612.876398
1007.841698,-9622.677246,814.226536,919.314598
1007.842019,-10732.986159,74.020594,2451.505594
1007.842340,-9474.636058,-370.102971,459.657299
1007.842661,-8808.450710,-1702.473667,-2221.676944
1007.842982,-9178.553681,-1850.514855,-2987.772442
1007.843303,-7846.182985,1036.288319,0.000000
1007.843624,-11547.212695,1036.288319,3064.381992
1007.843945,-11325.150913,1480.411884,3524.039291
1007.844266,-10066.800811,-518.144159,1225.752797
1007.844587,-11325.150913,-666.185348,2451.505594
1007.844908,-10288.862594,-1258.350101,2987.772442
1007.845229,-11695.253884,-444.123565,6052.154434
1007.845551,-9844.739029,-222.061783,3294.210641
1007.845872,-7179.997637,-370.102971,-1378.971896
1007.846193,-7624.121203,74.020594,-766.095498
1007.846514,-8364.327145,0.000000,1302.362347
1007.846835,-9474.636058,1702.473667,2681.334243
1007.847156,-11547.212695,0.000000,3830.477490
1007.847477,-9474.636058,-1924.535449,536.266849
1007.847798,-9104.533087,-814.226536,1685.410096
1007.848119,-9992.780217,-2886.803174,2374.896044
1007.848440,-11029.068536,740.205942,5132.839837
1007.848761,-10732.986159,-296.082377,3753.867940
1007.849082,-7994.224174,-222.061783,306.438199
1007.849404,-8512.368333,370.102971,-153.219100
1007.849725,-8216.285956,1406.391290,2298.286494
1007.850046,-11103.089130,0.000000,4060.306139
1007.850367,-9104.533087,-592.164754,1915.238745
1007.850688,-6809.894666,-1776.494261,-2068.457845
1007.851009,-9104.533087,-962.267725,-766.095498
1007.851330,-9178.553681,74.020594,1302.362347
1007.851651,-10658.965565,1406.391290,3064.381992
1007.851972,-9992.780217,1406.391290,2757.943793
1007.852293,-7254.018232,0.000000,-1838.629195
1007.852614,-9696.697840,-2294.638420,-689.485948
1007.852935,-10510.924376,-740.205942,2068.457845
1007.853257,-11843.295072,-518.144159,2834.553343
1007.853578,-10214.842000,888.247130,3140.991542
1007.853899,-10362.883188,-1184.329507,766.095498
1007.854220,-10066.800811,-2146.597232,-536.266849
1007.854541,-9770.718434,-2368.659014,76.609550
1007.854862,-9918.759623,370.102971,0.000000
1007.855183,-7994.224174,592.164754,-1455.581446
1007.855503,-7031.956449,-592.164754,-3907.087040
1007.855824,-8438.347739,-370.102971,-2374.896044
1007.856145,-8512.368333,-1110.308913,0.000000
1007.856466,-11325.150913,-1184.329507,2451.505594
1007.856786,-11547.212695,-1036.288319,2834.553343
1007.857107,-10288.862594,-518.144159,459.657299
1007.857428,-11473.192101,518.144159,2298.286494
1007.857748,-10436.903782,444.123565,2604.724693
1007.858069,-9548.656652,148.041188,2298.286494
1007.858390,-9030.512492,-1998.556043,229.828649
1007.858711,-7105.977043,-3330.926739,-2451.505594
1007.859031,-8808.450710,-1850.514855,-1608.800546
1007.859352,-9104.533087,-814.226536,383.047749
1007.859673,-9770.718434,592.164754,1838.629195
1007.859993,-9696.697840,962.267725,2068.457845
1007.860314,-9548.656652,-518.144159,76.609550
1007.860635,-10881.027347,-148.041188,1532.190996
1007.860956,-10510.924376,-592.164754,2757.943793
1007.861276,-9844.739029,-1110.308913,3524.039291
1007.861597,-9844.739029,-888.247130,2681.334243
1007.861918,-8068.244768,-814.226536,-842.705048
1007.862238,-8808.450710,1554.432478,-383.047749
1007.862559,-8586.388927,3034.844362,2221.676944
1007.862880,-10066.800811,1924.535449,2451.505594
1007.863201,-11177.109724,370.102971,2987.772442
1007.863521,-8512.368333,-2072.576638,-766.095498
1007.863842,-9992.780217,-3108.864956,383.047749
1007.864163,-8808.450710,148.041188,2374.896044
1007.864483,-11177.109724,-222.061783,4213.525239
1007.864804,-10140.821405,-148.041188,3217.601092
1007.865125,-8068.244768,-740.205942,-306.438199
1007.865446,-9400.615463,-814.226536,153.219100
1007.865766,-9992.780217,0.000000,4060.306139
1007.866087,-11473.192101,1036.288319,3983.696590
1007.866408,-10732.986159,1184.329507,3294.210641
1007.866729,-8290.306550,-592.164754,-1455.581446
1007.867049,-8364.327145,0.000000,-536.266849
1007.867370,-9474.636058,-740.205942,1685.410096
1007.867691,-10584.944971,-1184.329507,2681.334243
1007.868011,-9918.759623,-370.102971,2068.457845
1007.868332,-8290.306550,-296.082377,-1072.533697
1007.868653,-9548.656652,1036.288319,612.876398
1007.868974,-9844.739029,1332.370696,3294.210641
1007.869294,-10658.965565,370.102971,4060.306139
1007.869615,-11029.068536,-1406.391290,2757.943793
1007.869936,-7772.162391,-2072.576638,-2528.115143
1007.870256,-9400.615463,-1776.494261,-1225.752797
1007.870577,-9326.594869,222.061783,-153.219100
1007.870898,-9178.553681,1554.432478,306.438199
1007.871219,-9104.533087,1628.453072,-842.705048
1007.871539,-7550.100608,0.000000,-2757.943793
1007.871860,-9252.574275,-962.267725,-2298.286494
1007.872181,-9918.759623,-222.061783,1225.752797
1007.872501,-10881.027347,-1036.288319,2987.772442
1007.872822,-10362.883188,-666.185348,3370.820191
1007.873143,-8586.388927,-1924.535449,-306.438199
1007.873464,-9326.594869,-1258.350101,-383.047749
1007.873784,-9474.636058,666.185348,766.095498
1007.874105,-10658.965565,2072.576638,2451.505594
1007.874426,-10362.883188,888.247130,842.705048
1007.874746,-7994.224174,-592.164754,-2221.676944
1007.875067,-9400.615463,-148.041188,-2145.067394
1007.875388,-10362.883188,1110.308913,1455.581446
1007.875709,-11029.068536,444.123565,3064.381992
1007.876029,-10807.006753,0.000000,2681.334243
1007.876350,-8290.306550,-1406.391290,-689.485948
1007.876671,-10066.800811,-1628.453072,-612.876398
1007.876991,-10362.883188,1554.432478,2604.724693
1007.877312,-11029.068536,518.144159,3370.820191
1007.877633,-9918.759623,1036.288319,3294.210641
1007.877954,-8068.244768,-370.102971,689.485948
1007.878274,-9474.636058,-3182.885551,-612.876398
1007.878595,-8438.347739,-370.102971,1455.581446
1007.878916,-9918.759623,-888.247130,2068.457845
1007.879237,-10214.842000,592.164754,2221.676944
1007.879557,-6439.791695,-444.123565,-1072.533697
1007.879878,-9474.636058,-1110.308913,0.000000
1007.880199,-9918.759623,1184.329507,3064.381992
1007.880519,-10881.027347,0.000000,4213.525239
1007.880840,-12287.418637,0.000000,5515.887586
1007.881161,-8882.471304,-1480.411884,612.876398
1007.881482,-10066.800811,-962.267725,689.485948
1007.881802,-9326.594869,592.164754,2757.943793
1007.882123,-9474.636058,1406.391290,3217.601092
1007.882444,-9252.574275,962.267725,2374.896044
1007.882764,-7402.059420,-1406.391290,-1532.190996
1007.883085,-7476.080014,-1110.308913,-2145.067394
1007.883406,-9400.615463,-444.123565,536.266849
1007.883727,-9770.718434,740.205942,2757.943793
1007.884047,-10658.965565,148.041188,3217.601092
1007.884368,-9992.780217,-1480.411884,612.876398
1007.884689,-9992.780217,-1036.288319,76.609550
1007.885009,-10436.903782,0.000000,2451.505594
1007.885330,-10807.006753,444.123565,2451.505594
1007.885651,-10510.924376,888.247130,2604.724693
1007.885972,-8068.244768,-1480.411884,-1762.019645
1007.886292,-8068.244768,-1406.391290,-2681.334243
1007.886613,-9400.615463,-148.041188,-1455.581446
1007.886934,-10066.800811,0.000000,919.314598
1007.887254,-10140.821405,0.000000,1225.752797
1007.887575,-8438.347739,-1850.514855,-1378.971896
1007.887896,-9474.636058,-1998.556043,-2298.286494
1007.888217,-10362.883188,0.000000,842.705048
1007.888537,-11843.295072,74.020594,2757.943793
1007.888858,-10955.047942,-666.185348,2681.334243
1007.889179,-9622.677246,-2146.597232,0.000000
1007.889499,-10807.006753,-2072.576638,229.828649
1007.889820,-8808.450710,1184.329507,383.047749
1007.890141,-11621.233289,592.164754,536.266849
1007.890462,-8290.306550,1406.391290,1838.629195
1007.890782,-7328.038826,-444.123565,0.000000
1007.891103,-8586.388927,-592.164754,-2068.457845
1007.891424,-8364.327145,0.000000,919.314598
1007.891745,-10066.800811,148.041188,2374.896044
1007.892065,-11251.130318,148.041188,3677.258390
1007.892386,-8068.244768,-370.102971,536.266849
1007.892707,-10288.862594,370.102971,689.485948
1007.893027,-9326.594869,814.226536,2451.505594
1007.893348,-9474.636058,0.000000,3064.381992
1007.893669,-9844.739029,-444.123565,1838.629195
1007.893990,-8808.450710,-1258.350101,766.095498
1007.894310,-8660.409521,-1480.411884,0.000000
1007.894631,-8882.471304,0.000000,2528.115143
1007.894952,-10584.944971,-740.205942,4213.525239
1007.895272,-9252.574275,740.205942,3524.039291
1007.895593,-8956.491898,-1184.329507,459.657299
1007.895914,-8438.347739,-1110.308913,-153.219100
1007.896235,-9252.574275,-444.123565,2145.067394
1007.896555,-8956.491898,-518.144159,2911.162892
1007.896876,-10214.842000,-888.247130,2681.334243
1007.897197,-8660.409521,-814.226536,383.047749
1007.897517,-10362.883188,-1184.329507,229.828649
1007.897838,-9252.574275,370.102971,3447.429741
1007.898159,-11399.171507,0.000000,3524.039291
1007.898480,-11177.109724,0.000000,3677.258390
1007.898800,-9030.512492,-592.164754,306.438199
1007.899121,-9474.636058,-370.102971,-995.924147
1007.899442,-9844.739029,74.020594,766.095498
1007.899762,-8956.491898,296.082377,1915.238745
1007.900083,-11325.150913,-592.164754,1685.410096
1007.900404,-8586.388927,296.082377,-229.828649
1007.900725,-10214.842000,-1258.350101,-1149.143247
1007.901045,-9326.594869,814.226536,919.314598
1007.901366,-11695.253884,-222.061783,1915.238745
1007.901687,-10362.883188,1258.350101,2528.115143
1007.902007,-9030.512492,-1258.350101,153.219100
1007.902328,-9474.636058,-740.205942,-1532.190996
1007.902649,-9474.636058,518.144159,842.705048
1007.902970,-10214.842000,-740.205942,536.266849
1007.903290,-9992.780217,666.185348,1225.752797
1007.903611,-8734.430116,-814.226536,-919.314598
1007.903932,-8882.471304,-2294.638420,-2451.505594
1007.904253,-8512.368333,-1036.288319,0.000000
1007.904573,-10066.800811,888.247130,2604.724693
1007.904894,-11843.295072,-518.144159,3217.601092
1007.905215,-9400.615463,74.020594,919.314598
1007.905535,-9548.656652,-2146.597232,536.266849
1007.905856,-9326.594869,-1998.556043,229.828649
1007.906177,-10066.800811,-592.164754,306.438199
1007.906498,-9696.697840,0.000000,766.095498
1007.906818,-7846.182985,0.000000,-1455.581446
1007.907139,-8142.265362,0.000000,-2604.724693
1007.907460,-9548.656652,1184.329507,1915.238745
1007.907780,-9030.512492,814.226536,1762.019645
1007.908101,-11769.274478,1332.370696,3217.601092
1007.908422,-10214.842000,-370.102971,1838.629195
1007.908743,-9770.718434,-1480.411884,766.095498
1007.909063,-9474.636058,-148.041188,2528.115143
1007.909384,-10362.883188,74.020594,3447.429741
1007.909705,-9992.780217,2590.720797,6052.154434
1007.910025,-10658.965565,-3404.947333,-1149.143247
1007.910346,-3923.091493,-592.164754,-1455.581446
1007.910667,-11177.109724,-148.041188,153.219100
1007.910988,-9548.656652,1406.391290,4749.792088
1007.911308,-9252.574275,0.000000,2451.505594
1007.911629,-12065.356855,-666.185348,3753.867940
1007.911950,-6735.874072,-1998.556043,-1838.629195
1007.912270,-11547.212695,-814.226536,2757.943793
1007.912591,-11399.171507,-592.164754,4749.792088
1007.912912,-9622.677246,-222.061783,1762.019645
1007.913233,-8586.388927,-2072.576638,995.924147
1007.913553,-7624.121203,-962.267725,-1225.752797
1007.913874,-9400.615463,444.123565,1225.752797
1007.914195,-12287.418637,740.205942,4673.182538
1007.914516,-9326.594869,-148.041188,2987.772442
1007.914836,-7920.203579,-1628.453072,-1532.190996
1007.915157,-8364.327145,-1258.350101,-3217.601092
1007.915478,-7772.162391,370.102971,-612.876398
1007.915798,-8660.409521,1110.308913,612.876398
1007.916119,-10584.944971,1406.391290,1762.019645
1007.916440,-9178.553681,-1036.288319,-229.828649
1007.916761,-9326.594869,-2146.597232,-1455.581446
1007.917081,-12065.356855,-1332.370696,2681.334243
1007.917402,-11029.068536,0.000000,4213.525239
1007.917723,-11399.171507,-962.267725,2604.724693
1007.918043,-9622.677246,-592.164754,229.828649
1007.918364,-7772.162391,-888.247130,-2298.286494
1007.918685,-9104.533087,148.041188,0.000000
1007.919006,-9696.697840,962.267725,919.314598
1007.919326,-9252.574275,592.164754,-536.266849
1007.919647,-9104.533087,-666.185348,-1838.629195
1007.919968,-8216.285956,-1110.308913,-2221.676944
1007.920288,-9178.553681,-444.123565,995.924147
1007.920609,-11991.336260,-1406.391290,2911.162892
1007.920930,-11399.171507,-444.123565,3753.867940
1007.921251,-9252.574275,-1850.514855,612.876398
1007.921571,-9844.739029,-2072.576638,-1762.019645
1007.921892,-9622.677246,518.144159,1532.190996
1007.922213,-10362.883188,-296.082377,1915.238745
1007.922533,-9474.636058,0.000000,2068.457845
1007.922854,-6809.894666,-370.102971,-536.266849
1007.923175,-8142.265362,-1554.432478,-1991.848295
1007.923496,-10362.883188,148.041188,1608.800546
1007.923816,-11325.150913,0.000000,3600.648841
1007.924137,-9326.594869,666.185348,4060.306139
1007.924458,-10214.842000,-1776.494261,995.924147
1007.924778,-7624.121203,-814.226536,-1225.752797
1007.925099,-9326.594869,-444.123565,153.219100
1007.925420,-9992.780217,1332.370696,2604.724693
1007.925741,-9178.553681,2294.638420,3983.696590
1007.926061,-9548.656652,-148.041188,1838.629195
1007.926382,-10066.800811,-592.164754,1225.752797
1007.926703,-10510.924376,-962.267725,2911.162892
1007.927024,-11695.253884,0.000000,6128.763984
1007.927344,-11029.068536,444.123565,4596.572988
1007.927665,-7772.162391,-592.164754,-153.219100
1007.927986,-8142.265362,-370.102971,-995.924147
1007.928306,-8956.491898,1184.329507,689.485948
1007.928627,-9178.553681,740.205942,2068.457845
1007.928948,-10066.800811,-518.144159,2451.505594
1007.929269,-7994.224174,-1110.308913,612.876398
1007.929589,-9844.739029,-1850.514855,-383.047749
1007.929910,-11029.068536,0.000000,2451.505594
1007.930231,-10362.883188,592.164754,4060.306139
1007.930551,-10362.883188,-74.020594,3677.258390
1007.930872,-8882.471304,-1850.514855,0.000000
1007.931193,-7328.038826,-1258.350101,-995.924147
1007.931514,-9400.615463,148.041188,153.219100
1007.931834,-9252.574275,962.267725,1685.410096
1007.932155,-9918.759623,-74.020594,1915.238745
1007.932476,-8734.430116,-1628.453072,-306.438199
1007.932796,-9400.615463,-2072.576638,-1378.971896
1007.933117,-9770.718434,0.000000,1915.238745
1007.933438,-11399.171507,-296.082377,3370.820191
1007.933759,-11029.068536,148.041188,3524.039291
1007.934079,-9400.615463,-518.144159,-842.705048
1007.934400,-9326.594869,-222.061783,-1991.848295
1007.934721,-8660.409521,1184.329507,-383.047749
1007.935041,-9622.677246,962.267725,1302.362347
1007.935362,-10288.862594,370.102971,76.609550
1007.935683,-8438.347739,-1480.411884,-1149.143247
1007.936004,-7994.224174,-2220.617826,-2451.505594
1007.936324,-9696.697840,-296.082377,383.047749
1007.936645,-10955.047942,222.061783,3064.381992
1007.936966,-11917.315666,-518.144159,3600.648841
1007.937286,-8290.306550,-2368.659014,229.828649
1007.937607,-8512.368333,-3034.844362,-1838.629195
1007.937928,-8956.491898,-296.082377,0.000000
1007.938249,-9992.780217,592.164754,1838.629195
1007.938569,-12213.398043,888.247130,3370.820191
1007.938890,-7698.141797,444.123565,0.000000
1007.939211,-9178.553681,-2960.823768,-2298.286494
1007.939532,-9104.533087,74.020594,383.047749
1007.939852,-11251.130318,-296.082377,2528.115143
1007.940173,-11325.150913,962.267725,3370.820191
1007.940494,-8586.388927,1776.494261,1532.190996
1007.940814,-9844.739029,0.000000,-1072.533697
1007.941135,-9770.718434,1702.473667,842.705048
1007.941456,-11473.192101,222.061783,2451.505594
1007.941777,-10214.842000,0.000000,2987.772442
1007.942097,-8660.409521,-1036.288319,919.314598
1007.942418,-10362.883188,-370.102971,-612.876398
1007.942739,-10288.862594,222.061783,2604.724693
1007.943059,-10362.883188,518.144159,3217.601092
1007.943380,-10881.027347,-222.061783,4290.134789
1007.943701,-8142.265362,-1702.473667,1378.971896
1007.944022,-9252.574275,0.000000,-153.219100
1007.944342,-11769.274478,-148.041188,2757.943793
1007.944663,-9622.677246,222.061783,3064.381992
1007.944984,-9252.574275,-1184.329507,2145.067394
1007.945304,-7698.141797,-2442.679609,-1302.362347
1007.945625,-6883.915261,-666.185348,-2528.115143
1007.945946,-9770.718434,74.020594,1608.800546
1007.946267,-8512.368333,592.164754,2834.553343
1007.946587,-9474.636058,740.205942,2681.334243
1007.946908,-10288.862594,-1702.473667,1608.800546
1007.947229,-8216.285956,-888.247130,-383.047749
1007.947549,-10510.924376,-444.123565,2681.334243
1007.947870,-8216.285956,-296.082377,3677.258390
1007.948191,-9326.594869,296.082377,2681.334243
1007.948512,-8956.491898,-814.226536,459.657299
1007.948832,-7772.162391,-1184.329507,-1838.629195
1007.949153,-8438.347739,222.061783,766.095498
1007.949474,-9474.636058,222.061783,2451.505594
1007.949794,-11843.295072,0.000000,3064.381992
1007.950115,-10510.924376,-592.164754,995.924147
1007.950436,-9400.615463,-1332.370696,-1378.971896
1007.950757,-9696.697840,444.123565,-766.095498
1007.951077,-9030.512492,592.164754,-536.266849
1007.951398,-9622.677246,814.226536,0.000000
1007.951719,-7698.141797,1850.514855,-1608.800546
1007.952039,-10732.986159,0.000000,-842.705048
1007.952360,-10881.027347,-1628.453072,0.000000
1007.952681,-9178.553681,-1406.391290,3677.258390
1007.953001,-14434.015869,-1998.556043,3217.601092
1007.953322,-9474.636058,-1036.288319,2681.334243
1007.953643,-8956.491898,-3034.844362,-1302.362347
1007.953963,-11325.150913,814.226536,2451.505594
1007.954284,-9030.512492,-1258.350101,-76.609550
1007.954605,-10881.027347,-296.082377,2298.286494
1007.954925,-8364.327145,-518.144159,-995.924147
1007.955246,-7846.182985,-2368.659014,-3907.087040
1007.955567,-9622.677246,296.082377,1455.581446
1007.955887,-10807.006753,148.041188,3294.210641
1007.956208,-10510.924376,370.102971,3064.381992
1007.956529,-11325.150913,-370.102971,2757.943793
1007.956849,-8438.347739,-1554.432478,76.609550
1007.957170,-9992.780217,1184.329507,1149.143247
1007.957490,-11103.089130,1776.494261,3140.991542
1007.957811,-9104.533087,2516.700203,3064.381992
1007.958132,-8512.368333,0.000000,229.828649
1007.958452,-8216.285956,-1998.556043,-1455.581446
1007.958773,-8216.285956,-1480.411884,306.438199
1007.959094,-9992.780217,-2368.659014,612.876398
1007.959414,-10732.986159,-518.144159,3600.648841
1007.959735,-9252.574275,592.164754,1685.410096
1007.960056,-9770.718434,666.185348,0.000000
1007.960376,-10362.883188,1628.453072,2298.286494
1007.960697,-9474.636058,740.205942,1762.019645
1007.961018,-10214.842000,-1110.308913,1455.581446
1007.961338,-7698.141797,-1776.494261,-536.266849
1007.961659,-8660.409521,-3552.988522,-1455.581446
1007.961980,-9548.656652,-1406.391290,1762.019645
1007.962300,-10362.883188,296.082377,4596.572988
1007.962621,-11769.274478,-666.185348,4826.401637
1007.962942,-10288.862594,-1702.473667,1762.019645
1007.963262,-10066.800811,-962.267725,-995.924147
1007.963583,-8808.450710,148.041188,0.000000
1007.963904,-8956.491898,1184.329507,1302.362347
1007.964224,-10362.883188,592.164754,3447.429741
1007.964545,-7994.224174,-1702.473667,153.219100
1007.964866,-9474.636058,-2294.638420,-842.705048
1007.965186,-10362.883188,-222.061783,1838.629195
1007.965507,-11177.109724,-518.144159,2834.553343
1007.965828,-11399.171507,1184.329507,2987.772442
1007.966148,-8734.430116,1184.329507,-1149.143247
1007.966469,-7772.162391,740.205942,-3217.601092
1007.966790,-7846.182985,1184.329507,-2068.457845
1007.967110,-8956.491898,222.061783,229.828649
1007.967431,-9326.594869,-740.205942,1915.238745
1007.967752,-9252.574275,-1702.473667,0.000000
1007.968072,-9474.636058,-2442.679609,-919.314598
1007.968393,-10362.883188,-592.164754,1302.362347
1007.968713,-10881.027347,888.247130,3447.429741
1007.969034,-12361.439231,666.185348,4673.182538
1007.969355,-8808.450710,-222.061783,842.705048
1007.969675,-8438.347739,-2442.679609,-1072.533697
1007.969996,-9178.553681,-1998.556043,-1072.533697
1007.970317,-9400.615463,-1480.411884,612.876398
1007.970637,-10140.821405,74.020594,1225.752797
1007.970958,-8512.368333,814.226536,-306.438199
1007.971279,-8290.306550,222.061783,-2145.067394
1007.971599,-9918.759623,1480.411884,689.485948
1007.971920,-10732.986159,1628.453072,3524.039291
1007.972241,-12213.398043,444.123565,3753.867940
1007.972561,-9326.594869,370.102971,2145.067394
1007.972882,-9252.574275,-1850.514855,-995.924147
1007.973203,-9030.512492,-296.082377,0.000000
1007.973523,-9770.718434,666.185348,2221.676944
1007.973844,-9400.615463,1184.329507,2834.553343
1007.974165,-9104.533087,-148.041188,1072.533697
1007.974485,-9326.594869,-2294.638420,-2221.676944
1007.974806,-9104.533087,-296.082377,536.266849
1007.975127,-10881.027347,148.041188,3140.991542
1007.975447,-11177.109724,1036.288319,4443.353888
1007.975768,-9178.553681,-296.082377,2068.457845
1007.976089,-8734.430116,-1480.411884,-766.095498
1007.976409,-8956.491898,0.000000,459.657299
1007.976730,-10066.800811,-1110.308913,2451.505594
1007.977051,-10732.986159,-1110.308913,3830.477490
1007.977371,-7994.224174,74.020594,612.876398
1007.977692,-8956.491898,-2664.741391,-459.657299
1007.978013,-8364.327145,0.000000,1532.190996
1007.978333,-10510.924376,-592.164754,3677.258390
1007.978654,-10881.027347,-444.123565,4596.572988
1007.978974,-9030.512492,-814.226536,1455.581446
1007.979295,-8660.409521,-2368.659014,-1072.533697
1007.979616,-8882.471304,-148.041188,612.876398
1007.979936,-9770.718434,444.123565,2374.896044
1007.980257,-9474.636058,0.000000,2604.724693
1007.980578,-8808.450710,-1036.288319,153.219100
1007.980898,-9252.574275,-1850.514855,-1762.019645
1007.981219,-9474.636058,-296.082377,0.000000
1007.981540,-10807.006753,0.000000,2374.896044
1007.981860,-10510.924376,0.000000,3140.991542
1007.982181,-9178.553681,-296.082377,76.609550
1007.982502,-8512.368333,-1184.329507,-1915.238745
1007.982822,-9992.780217,0.000000,2298.286494
1007.983143,-10066.800811,-222.061783,1455.581446
1007.983464,-9770.718434,518.144159,1378.971896
1007.983784,-9474.636058,-592.164754,-536.266849
1007.984105,-8142.265362,-1850.514855,-3524.039291
1007.984426,-9474.636058,-444.123565,-1072.533697
1007.984746,-10955.047942,74.020594,1838.629195
1007.985067,-12213.398043,222.061783,3447.429741
1007.985388,-11029.068536,-888.247130,2987.772442
1007.985708,-10584.944971,-3627.009116,-1378.971896
1007.986029,-8660.409521,-1480.411884,-1991.848295
1007.986350,-9252.574275,-1480.411884,-1762.019645
1007.986670,-7550.100608,740.205942,-995.924147
1007.986991,-6439.791695,1036.288319,-3677.258390
1007.987312,-6143.709319,1184.329507,-4366.744339
1007.987632,-9400.615463,1406.391290,-229.828649
1007.987953,-11843.295072,-296.082377,3217.601092
1007.988274,-13101.645173,-592.164754,7201.297681
1007.988594,-12953.603985,-3552.988522,5822.325785
1007.988915,-10362.883188,-2886.803174,2451.505594
1007.989235,-10732.986159,-592.164754,2834.553343
1007.989556,-9030.512492,1924.535449,3447.429741
1007.989877,-8068.244768,2146.597232,1608.800546
1007.990197,-7402.059420,2442.679609,-459.657299
1007.990518,-6661.853478,-740.205942,-2757.943793
1007.990839,-7105.977043,-1554.432478,-2145.067394
1007.991159,-9252.574275,740.205942,5132.839837
1007.991480,-10881.027347,-444.123565,4903.011187
1007.991801,-9992.780217,-148.041188,4290.134789
1007.992121,-10955.047942,-814.226536,2987.772442
1007.992442,-9770.718434,-74.020594,2987.772442
1007.992763,-10881.027347,814.226536,4749.792088
1007.993083,-10955.047942,1184.329507,4749.792088
1007.993404,-8142.265362,296.082377,1608.800546
1007.993725,-7846.182985,-1924.535449,-1915.238745
1007.994045,-8142.265362,-814.226536,459.657299
1007.994366,-9178.553681,-962.267725,2145.067394
1007.994687,-11325.150913,-1258.350101,3064.381992
1007.995007,-10436.903782,-1036.288319,2911.162892
1007.995328,-10214.842000,-2368.659014,-1915.238745
1007.995649,-10066.800811,888.247130,1685.410096
1007.995969,-11029.068536,1480.411884,2757.943793
1007.996290,-10066.800811,2072.576638,3370.820191
1007.996611,-9622.677246,-1036.288319,0.000000
1007.996931,-7179.997637,-1480.411884,-3370.820191
1007.997252,-9252.574275,-2146.597232,-2068.457845
1007.997573,-9918.759623,888.247130,2451.505594
1007.997893,-12361.439231,740.205942,4673.182538
1007.998214,-11251.130318,888.247130,1915.238745
1007.998535,-10288.862594,-1110.308913,-689.485948
1007.998855,-9474.636058,370.102971,-153.219100
1007.999176,-9992.780217,74.020594,1455.581446
1007.999497,-10214.842000,-740.205942,689.485948
1007.999817,-8364.327145,-444.123565,536.266849
1008.000138,-8216.285956,-2960.823768,-2911.162892
1008.000458,-8216.285956,-1480.411884,-1455.581446
1008.000779,-9400.615463,0.000000,1532.190996
1008.001100,-11621.233289,0.000000,1455.581446
1008.001420,-9030.512492,444.123565,1225.752797
1008.001741,-7994.224174,-814.226536,-2987.772442
1008.002062,-8882.471304,592.164754,-1225.752797
1008.002382,-9474.636058,0.000000,536.266849
1008.002703,-10510.924376,-148.041188,2145.067394
1008.003024,-8734.430116,-888.247130,842.705048
1008.003344,-9474.636058,-4885.359217,-1225.752797
1008.003665,-7920.203579,-3627.009116,-1991.848295
1008.003986,-9844.739029,-370.102971,2298.286494
1008.004306,-13619.789333,2220.617826,4443.353888
1008.004627,-9474.636058,4145.153275,4136.915689
1008.004948,-9178.553681,148.041188,-689.485948
1008.005268,-11325.150913,814.226536,1455.581446
1008.005589,-9400.615463,-666.185348,919.314598
1008.005910,-11769.274478,-1628.453072,3677.258390
1008.006230,-8364.327145,-740.205942,1762.019645
1008.006551,-8068.244768,-1554.432478,-2451.505594
1008.006872,-9474.636058,-814.226536,612.876398
1008.007192,-9104.533087,1480.411884,2221.676944
1008.007513,-10362.883188,1554.432478,4136.915689
1008.007834,-12361.439231,-296.082377,3140.991542
1008.008154,-7031.956449,-814.226536,-536.266849
1008.008475,-10807.006753,-1406.391290,612.876398
1008.008796,-10658.965565,-518.144159,3140.991542
1008.009116,-9104.533087,518.144159,3983.696590
1008.009437,-10066.800811,-2368.659014,3753.867940
1008.009758,-7772.162391,-3034.844362,-1225.752797
1008.010078,-9474.636058,-1628.453072,612.876398
1008.010399,-10140.821405,-148.041188,2834.553343
1008.010719,-10362.883188,814.226536,3753.867940
1008.011040,-10140.821405,740.205942,3370.820191
1008.011361,-6883.915261,-666.185348,-612.876398
1008.011681,-8882.471304,74.020594,-229.828649
1008.012002,-8216.285956,-222.061783,2987.772442
1008.012323,-10584.944971,-592.164754,2911.162892
1008.012643,-8882.471304,0.000000,2145.067394
1008.012964,-7698.141797,-1702.473667,-2604.724693
1008.013285,-8734.430116,0.000000,-1072.533697
1008.013605,-9326.594869,1036.288319,1915.238745
1008.013926,-11251.130318,0.000000,2451.505594
1008.014247,-10288.862594,592.164754,1915.238745
1008.014567,-8438.347739,-1036.288319,-1149.143247
1008.014888,-9770.718434,0.000000,-536.266849
1008.015209,-10732.986159,444.123565,1991.848295
1008.015529,-10584.944971,0.000000,1915.238745
1008.015850,-8808.450710,-370.102971,76.609550
1008.016171,-7328.038826,-2294.638420,-2451.505594
1008.016491,-9178.553681,-1480.411884,-2451.505594
1008.016812,-9400.615463,1036.288319,689.485948
1008.017133,-11251.130318,74.020594,1072.533697
1008.017453,-9548.656652,444.123565,1149.143247
1008.017774,-9400.615463,-1554.432478,-1915.238745
1008.018095,-9548.656652,-888.247130,-689.485948
1008.018415,-10510.924376,-74.020594,2145.067394
1008.018736,-11325.150913,-370.102971,2911.162892
1008.019057,-9844.739029,-148.041188,1225.752797
1008.019377,-9030.512492,-1628.453072,-2298.286494
1008.019698,-9326.594869,-148.041188,-1455.581446
1008.020019,-9474.636058,1776.494261,1685.410096
1008.020339,-10658.965565,888.247130,3064.381992
1008.020660,-9992.780217,814.226536,2145.067394
1008.020981,-9622.677246,-1332.370696,-306.438199
1008.021301,-10658.965565,-888.247130,1225.752797
1008.021622,-9474.636058,666.185348,2451.505594
1008.021942,-9992.780217,814.226536,2757.943793
1008.022263,-8956.491898,1258.350101,1685.410096
1008.022584,-7105.977043,0.000000,-1838.629195
1008.022904,-8956.491898,-518.144159,-536.266849
1008.023225,-8364.327145,518.144159,1149.143247
1008.023546,-11325.150913,-592.164754,3907.087040
1008.023866,-10362.883188,0.000000,3907.087040
1008.024187,-10066.800811,-2146.597232,1378.971896
1008.024508,-10288.862594,-740.205942,3753.867940
1008.024828,-9992.780217,-1480.411884,4443.353888
1008.025149,-9030.512492,-592.164754,3064.381992
1008.025470,-10362.883188,-1036.288319,3677.258390
1008.025790,-7402.059420,-3108.864956,-1685.410096
1008.026111,-8216.285956,-666.185348,-1608.800546
1008.026432,-9178.553681,0.000000,1685.410096
1008.026752,-9326.594869,888.247130,2987.772442
1008.027073,-10510.924376,222.061783,2987.772442
1008.027394,-9474.636058,-1628.453072,153.219100
1008.027714,-8364.327145,-2146.597232,-153.219100
1008.028035,-10362.883188,-666.185348,2221.676944
1008.028356,-10658.965565,0.000000,3370.820191
1008.028676,-10066.800811,370.102971,2374.896044
1008.028997,-8438.347739,0.000000,-1072.533697
1008.029318,-8364.327145,296.082377,-995.924147
1008.029638,-9400.615463,592.164754,919.314598
1008.029959,-10955.047942,962.267725,3064.381992
1008.030280,-10436.903782,0.000000,2221.676944
1008.030600,-8660.409521,-1332.370696,-1225.752797
1008.030921,-9252.574275,-888.247130,-919.314598
1008.031242,-9992.780217,296.082377,766.095498
1008.031562,-10584.944971,370.102971,1762.019645
1008.031883,-10807.006753,148.041188,1149.143247
1008.032203,-7624.121203,370.102971,-2145.067394
1008.032524,-8512.368333,-370.102971,-2911.162892
1008.032845,-9474.636058,740.205942,0.000000
1008.033165,-10658.965565,370.102971,1608.800546
1008.033486,-10510.924376,-814.226536,1072.533697
1008.033807,-8216.285956,-1480.411884,-842.705048
1008.034127,-10510.924376,-1702.473667,459.657299
1008.034448,-11621.233289,-814.226536,2451.505594
1008.034769,-11991.336260,-1110.308913,3524.039291
1008.035089,-10658.965565,-1184.329507,2374.896044
1008.035410,-7920.203579,-2590.720797,-2221.676944
1008.035731,-9474.636058,-2738.761985,-1532.190996
1008.036051,-8882.471304,444.123565,229.828649
1008.036372,-10732.986159,1332.370696,2987.772442
1008.036693,-9992.780217,1554.432478,2834.553343
1008.037013,-7772.162391,-444.123565,-1608.800546
1008.037334,-10955.047942,-666.185348,-995.924147
1008.037655,-10658.965565,1480.411884,995.924147
1008.037975,-9770.718434,1258.350101,2681.334243
1008.038296,-9918.759623,0.000000,2068.457845
1008.038617,-7105.977043,-1924.535449,-1225.752797
1008.038937,-8364.327145,-2146.597232,-1838.629195
1008.039258,-9844.739029,222.061783,3064.381992
1008.039579,-10584.944971,-740.205942,4136.915689
1008.039899,-10362.883188,222.061783,3524.039291
1008.040220,-9992.780217,-518.144159,1608.800546
1008.040541,-9030.512492,-370.102971,229.828649
1008.040861,-8660.409521,1406.391290,3217.601092
1008.041182,-10510.924376,-370.102971,3830.477490
1008.041503,-9326.594869,444.123565,3677.258390
1008.041823,-9400.615463,-2368.659014,306.438199
1008.042144,-8956.491898,-3330.926739,-306.438199
1008.042464,-7624.121203,888.247130,1991.848295
1008.042785,-12065.356855,1036.288319,4519.963438
1008.043106,-9622.677246,888.247130,3677.258390
1008.043426,-9178.553681,-1036.288319,383.047749
1008.043747,-8882.471304,-2146.597232,-1608.800546
1008.044068,-8956.491898,518.144159,1685.410096
1008.044388,-10732.986159,444.123565,3217.601092
1008.044709,-10214.842000,370.102971,3600.648841
1008.045030,-9104.533087,-1258.350101,-383.047749
1008.045350,-8438.347739,-814.226536,-919.314598
1008.045671,-9992.780217,0.000000,612.876398
1008.045992,-11695.253884,0.000000,3217.601092
1008.046312,-10510.924376,-592.164754,2298.286494
1008.046633,-8438.347739,-1258.350101,-1302.362347
1008.046954,-8808.450710,1184.329507,-1762.019645
1008.047274,-9548.656652,1258.350101,0.000000
1008.047595,-10807.006753,740.205942,2221.676944
1008.047916,-9326.594869,-370.102971,229.828649
1008.048236,-8882.471304,-1184.329507,-2834.553343
1008.048557,-9400.615463,-1480.411884,-2221.676944
1008.048878,-9622.677246,222.061783,459.657299
1008.049198,-11547.212695,814.226536,2911.162892
1008.049519,-9992.780217,1406.391290,2374.896044
1008.049840,-8586.388927,-518.144159,-995.924147
1008.050160,-9474.636058,-1554.432478,-1455.581446
1008.050481,-10214.842000,-592.164754,766.095498
1008.050802,-10955.047942,-1036.288319,1915.238745
1008.051122,-9474.636058,-1702.473667,1225.752797
1008.051443,-8068.244768,-592.164754,-919.314598
1008.051764,-9696.697840,-370.102971,0.000000
1008.052085,-10362.883188,888.247130,3907.087040
1008.052405,-11917.315666,-1184.329507,4903.011187
1008.052726,-10510.924376,-666.185348,3983.696590
1008.053047,-9030.512492,-3034.844362,-459.657299
1008.053368,-8364.327145,-2812.782580,-2374.896044
1008.053688,-7254.018232,962.267725,-995.924147
1008.054009,-9178.553681,2146.597232,995.924147
1008.054330,-8068.244768,2738.761985,1608.800546
1008.054651,-8586.388927,0.000000,0.000000
1008.054971,-9474.636058,-2368.659014,-612.876398
1008.055292,-10066.800811,-1776.494261,1072.533697
1008.055613,-11843.295072,-1480.411884,4443.353888
1008.055933,-11325.150913,-296.082377,5439.278036
1008.056254,-9178.553681,-1036.288319,1762.019645
1008.056575,-8512.368333,370.102971,689.485948
1008.056896,-9178.553681,888.247130,1149.143247
1008.057216,-10066.800811,-296.082377,689.485948
1008.057537,-8734.430116,148.041188,689.485948
1008.057858,-7179.997637,-2146.597232,-3217.601092
1008.058179,-6809.894666,0.000000,-2681.334243
1008.058499,-10881.027347,1702.473667,3294.210641
1008.058820,-11917.315666,740.205942,5898.935335
1008.059141,-12361.439231,148.041188,6588.421283
1008.059462,-11991.336260,-2812.782580,3983.696590
1008.059782,-10066.800811,-1628.453072,1149.143247
1008.060103,-10955.047942,-222.061783,2374.896044
1008.060424,-10288.862594,814.226536,3524.039291
1008.060745,-8364.327145,1628.453072,1685.410096
1008.061065,-7698.141797,-1480.411884,-2298.286494
1008.061386,-7920.203579,-1554.432478,-3447.429741
1008.061707,-8734.430116,0.000000,-153.219100
1008.062028,-11103.089130,0.000000,2451.505594
1008.062348,-10881.027347,1332.370696,4749.792088
1008.062669,-10584.944971,-518.144159,1302.362347
1008.062990,-9992.780217,-1258.350101,153.219100
1008.063310,-10436.903782,-962.267725,1532.190996
1008.063631,-9252.574275,-1036.288319,3140.991542
1008.063952,-10066.800811,0.000000,1455.581446
1008.064273,-8216.285956,-592.164754,-1991.848295
1008.064593,-7328.038826,-444.123565,-2911.162892
1008.064914,-9474.636058,74.020594,1455.581446
1008.065235,-10066.800811,1036.288319,1838.629195
1008.065556,-11177.109724,-444.123565,2757.943793
1008.065876,-9548.656652,-2664.741391,0.000000
1008.066197,-9252.574275,-2220.617826,-842.705048
1008.066518,-10288.862594,-592.164754,1225.752797
1008.066839,-10140.821405,444.123565,2451.505594
1008.067159,-10140.821405,666.185348,1915.238745
1008.067480,-8364.327145,-1258.350101,-2068.457845
1008.067801,-7105.977043,-1258.350101,-4290.134789
1008.068122,-9178.553681,0.000000,-689.485948
1008.068442,-10140.821405,222.061783,1838.629195
1008.068763,-11399.171507,1776.494261,3677.258390
1008.069084,-8956.491898,-370.102971,0.000000
1008.069405,-9104.533087,-444.123565,-842.705048
1008.069725,-10288.862594,962.267725,1685.410096
1008.070046,-10658.965565,1480.411884,3370.820191
1008.070367,-12509.480420,1850.514855,5209.449386
1008.070687,-9474.636058,-518.144159,1915.238745
1008.071008,-9030.512492,-2516.700203,-1225.752797
1008.071329,-10066.800811,-2294.638420,-153.219100
1008.071650,-9400.615463,-444.123565,1072.533697
1008.071970,-9844.739029,814.226536,2987.772442
1008.072291,-8364.327145,592.164754,842.705048
1008.072612,-8660.409521,-888.247130,-919.314598
1008.072933,-10658.965565,-740.205942,842.705048
1008.073253,-9770.718434,1776.494261,2911.162892
1008.073574,-11251.130318,-1184.329507,3753.867940
1008.073895,-7994.224174,740.205942,1072.533697
1008.074216,-8364.327145,-1998.556043,-1302.362347
1008.074536,-7994.224174,-1924.535449,229.828649
1008.074857,-9474.636058,-962.267725,2528.115143
1008.075178,-11547.212695,-1850.514855,3753.867940
1008.075499,-7772.162391,-962.267725,229.828649
1008.075819,-9326.594869,-666.185348,-459.657299
1008.076140,-10510.924376,1258.350101,2604.724693
1008.076461,-8734.430116,2368.659014,5822.325785
1008.076782,-12731.542202,-2664.741391,3217.601092
1008.077102,-5255.462188,-2220.617826,76.609550
1008.077423,-8660.409521,-3923.091493,-2987.772442
1008.077744,-10140.821405,814.226536,2451.505594
1008.078064,-9104.533087,296.082377,3140.991542
1008.078385,-10955.047942,592.164754,4290.134789
1008.078706,-8438.347739,74.020594,-536.266849
1008.079027,-8734.430116,-814.226536,-1991.848295
1008.079347,-11473.192101,1184.329507,2681.334243
1008.079668,-9696.697840,0.000000,1685.410096
1008.079989,-10732.986159,888.247130,1302.362347
1008.080310,-8438.347739,-1036.288319,-306.438199
1008.080630,-8438.347739,-148.041188,-3064.381992
1008.080951,-11103.089130,0.000000,1685.410096
1008.081272,-10807.006753,-2368.659014,1915.238745
1008.081593,-9474.636058,1110.308913,1991.848295
1008.081913,-10732.986159,-888.247130,689.485948
1008.082234,-9992.780217,-1332.370696,-995.924147
1008.082555,-9992.780217,1554.432478,1455.581446
1008.082876,-10510.924376,-666.185348,2374.896044
1008.083196,-8956.491898,518.144159,919.314598
1008.083517,-9400.615463,-1406.391290,-766.095498
1008.083838,-8364.327145,-2590.720797,-2834.553343
1008.084159,-8438.347739,444.123565,0.000000
1008.084479,-10066.800811,0.000000,1838.629195
1008.084800,-11251.130318,814.226536,2221.676944
1008.085121,-9326.594869,0.000000,459.657299
1008.085441,-9770.718434,-666.185348,-536.266849
1008.085762,-10732.986159,148.041188,2987.772442
1008.086083,-10140.821405,-1406.391290,2604.724693
1008.086404,-9622.677246,-962.267725,919.314598
1008.086724,-8586.388927,518.144159,-383.047749
1008.087045,-8512.368333,296.082377,-766.095498
1008.087366,-9474.636058,666.185348,2681.334243
1008.087687,-10732.986159,-222.061783,4826.401637
1008.088007,-10214.842000,-1184.329507,3294.210641
1008.088328,-10140.821405,-1850.514855,1532.190996
1008.088649,-9326.594869,-2220.617826,612.876398
1008.088970,-8290.306550,222.061783,2298.286494
1008.089290,-9622.677246,1998.556043,2374.896044
1008.089611,-8512.368333,3182.885551,2068.457845
1008.089932,-8068.244768,0.000000,-766.095498
1008.090253,-8586.388927,-1258.350101,-1072.533697
1008.090573,-8660.409521,-1628.453072,766.095498
1008.090894,-11547.212695,-2146.597232,3217.601092
1008.091215,-12213.398043,-1258.350101,4443.353888
1008.091536,-9622.677246,-2516.700203,2068.457845
1008.091856,-9326.594869,-1628.453072,76.609550
1008.092177,-10214.842000,74.020594,2451.505594
1008.092498,-11103.089130,148.041188,3294.210641
1008.092818,-10436.903782,-222.061783,2451.505594
1008.093139,-7550.100608,-1702.473667,-1608.800546
1008.093460,-7550.100608,-2590.720797,-3447.429741
1008.093781,-8290.306550,0.000000,-1149.143247
1008.094101,-9400.615463,962.267725,1608.800546
1008.094422,-10362.883188,592.164754,2604.724693
1008.094743,-10214.842000,-1036.288319,995.924147
1008.095064,-9696.697840,-1480.411884,76.609550
1008.095384,-11991.336260,-1480.411884,1455.581446
1008.095705,-11029.068536,814.226536,2298.286494
1008.096026,-10584.944971,1702.473667,2987.772442
1008.096347,-8660.409521,0.000000,0.000000
1008.096667,-7994.224174,-1998.556043,-3447.429741
1008.096988,-7624.121203,-666.185348,-1532.190996
1008.097309,-9548.656652,-296.082377,-153.219100
1008.097630,-10140.821405,1184.329507,1378.971896
1008.097950,-9178.553681,296.082377,383.047749
1008.098271,-9400.615463,-222.061783,-995.924147
1008.098592,-10214.842000,1258.350101,1608.800546
1008.098913,-10362.883188,0.000000,4366.744339
1008.099233,-10510.924376,-962.267725,3217.601092
1008.099554,-8216.285956,-2368.659014,0.000000
1008.099875,-8438.347739,-2516.700203,-2374.896044
1008.100195,-8068.244768,592.164754,0.000000
1008.100516,-9622.677246,1258.350101,1532.190996
1008.100837,-10288.862594,2072.576638,2987.772442
1008.101158,-9844.739029,-370.102971,766.095498
1008.101478,-9400.615463,-296.082377,0.000000
1008.101799,-11029.068536,74.020594,3600.648841
1008.102120,-10955.047942,-592.164754,2911.162892
1008.102441,-9992.780217,1406.391290,3677.258390
1008.102761,-9844.739029,444.123565,1532.190996
1008.103082,-8734.430116,-518.144159,-229.828649
1008.103403,-8142.265362,1258.350101,766.095498
1008.103724,-10140.821405,-592.164754,2528.115143
1008.104044,-9770.718434,518.144159,2451.505594
1008.104365,-8882.471304,296.082377,1302.362347
1008.104686,-8364.327145,-1184.329507,-536.266849
1008.105007,-8660.409521,0.000000,-383.047749
1008.105327,-11251.130318,-148.041188,2987.772442
1008.105648,-9918.759623,740.205942,4673.182538
1008.105969,-10140.821405,-1702.473667,2145.067394
1008.106290,-10807.006753,-222.061783,1149.143247
1008.106610,-10436.903782,-592.164754,2374.896044
1008.106931,-10140.821405,0.000000,2987.772442
1008.107252,-11029.068536,222.061783,3447.429741
1008.107572,-8068.244768,370.102971,306.438199
1008.107893,-6957.935855,-518.144159,-2451.505594
1008.108214,-9178.553681,888.247130,306.438199
1008.108535,-9844.739029,222.061783,2451.505594
1008.108855,-10436.903782,-888.247130,2834.553343
1008.109176,-9178.553681,-1702.473667,1149.143247
1008.109497,-8586.388927,-1332.370696,-459.657299
1008.109818,-11325.150913,0.000000,1915.238745
1008.110138,-11399.171507,814.226536,4290.134789
1008.110459,-11177.109724,222.061783,3983.696590
1008.110780,-9400.615463,-2072.576638,-459.657299
1008.111101,-6735.874072,-1628.453072,-3294.210641
1008.111421,-9178.553681,-1036.288319,-1838.629195
1008.111742,-8364.327145,296.082377,-919.314598
1008.112063,-9104.533087,1332.370696,0.000000
1008.112384,-7846.182985,1776.494261,-766.095498
1008.112704,-9030.512492,-1924.535449,-1991.848295
1008.113025,-9770.718434,-1184.329507,459.657299
1008.113346,-11177.109724,-2220.617826,2757.943793
1008.113667,-11473.192101,-1332.370696,3524.039291
1008.113987,-10732.986159,-1332.370696,1608.800546
1008.114308,-9474.636058,-1110.308913,-306.438199
1008.114629,-8586.388927,518.144159,-995.924147
1008.114949,-9326.594869,518.144159,459.657299
1008.115270,-9622.677246,74.020594,995.924147
1008.115591,-7994.224174,-1184.329507,-995.924147
1008.115912,-9474.636058,-1850.514855,383.047749
1008.116232,-10362.883188,-592.164754,1302.362347
1008.116553,-10658.965565,0.000000,3677.258390
1008.116874,-12139.377449,0.000000,4749.792088
1008.117195,-9474.636058,0.000000,2987.772442
1008.117515,-9030.512492,-2368.659014,153.219100
1008.117836,-9622.677246,-444.123565,766.095498
1008.118157,-9918.759623,0.000000,1991.848295
1008.118478,-9030.512492,370.102971,2145.067394
1008.118798,-8734.430116,888.247130,536.266849
1008.119119,-8808.450710,-1036.288319,-689.485948
1008.119440,-9104.533087,0.000000,536.266849
1008.119761,-9622.677246,-1110.308913,2298.286494
1008.120081,-10214.842000,-1110.308913,3370.820191
1008.120402,-9474.636058,-1850.514855,1762.019645
1008.120723,-10436.903782,-2664.741391,612.876398
1008.121044,-9030.512492,-296.082377,1302.362347
1008.121364,-9548.656652,0.000000,2145.067394
1008.121685,-10362.883188,666.185348,3140.991542
1008.122006,-8586.388927,370.102971,919.314598
1008.122326,-9548.656652,-962.267725,-612.876398
1008.122647,-9474.636058,0.000000,1072.533697
1008.122968,-8660.409521,222.061783,2221.676944
1008.123289,-11103.089130,-370.102971,3064.381992
1008.123609,-9696.697840,0.000000,1455.581446
1008.123930,-9178.553681,-444.123565,-689.485948
1008.124251,-8808.450710,-814.226536,0.000000
1008.124572,-8882.471304,888.247130,1225.752797
1008.124892,-11325.150913,-444.123565,2298.286494
1008.125213,-8734.430116,-296.082377,229.828649
1008.125534,-9252.574275,0.000000,-919.314598
1008.125855,-10436.903782,0.000000,1302.362347
1008.126175,-9770.718434,0.000000,3524.039291
1008.126496,-12139.377449,-370.102971,3983.696590
1008.126817,-10066.800811,-296.082377,2145.067394
1008.127138,-9548.656652,-1628.453072,-1608.800546
1008.127458,-6883.915261,592.164754,-2681.334243
1008.127779,-8364.327145,1554.432478,-1608.800546
1008.128100,-9696.697840,2886.803174,536.266849
1008.128421,-8068.244768,2442.679609,-919.314598
1008.128741,-9474.636058,-1406.391290,-1225.752797
1008.129062,-8808.450710,-2516.700203,-1915.238745
1008.129383,-10214.842000,-2146.597232,536.266849
1008.129703,-11177.109724,-666.185348,2145.067394
1008.130024,-9178.553681,1480.411884,766.095498
1008.130345,-8734.430116,518.144159,-1072.533697
1008.130666,-9992.780217,444.123565,612.876398
1008.130986,-8882.471304,0.000000,1072.533697
1008.131307,-13323.706956,-2368.659014,3294.210641
1008.131628,-9696.697840,-2220.617826,2068.457845
1008.131949,-9844.739029,-4219.173869,-689.485948
1008.132269,-8290.306550,-666.185348,306.438199
1008.132590,-9104.533087,592.164754,2451.505594
1008.132911,-10584.944971,1110.308913,3753.867940
1008.133232,-9844.739029,148.041188,2604.724693
1008.133552,-8364.327145,-592.164754,-1991.848295
1008.133873,-8290.306550,1850.514855,-612.876398
1008.134194,-10066.800811,1480.411884,1762.019645
1008.134515,-11103.089130,2072.576638,3677.258390
1008.134835,-9474.636058,814.226536,2528.115143
1008.135156,-9696.697840,-1998.556043,153.219100
1008.135477,-8808.450710,-814.226536,2757.943793
1008.135798,-11695.253884,-1850.514855,3064.381992
1008.136118,-11695.253884,444.123565,5056.230287
1008.136439,-9400.615463,-296.082377,2374.896044
1008.136760,-7624.121203,-740.205942,-995.924147
1008.137080,-8660.409521,518.144159,0.000000
1008.137401,-9770.718434,0.000000,1762.019645
1008.137722,-9400.615463,1184.329507,3600.648841
1008.138043,-10362.883188,-1998.556043,2145.067394
1008.138363,-8438.347739,-3108.864956,-306.438199
1008.138684,-9844.739029,-1924.535449,919.314598
1008.139005,-10510.924376,-2516.700203,2911.162892
1008.139326,-10288.862594,592.164754,3294.210641
1008.139646,-10584.944971,370.102971,2145.067394
1008.139967,-6365.771101,-814.226536,-1915.238745
1008.140288,-8438.347739,296.082377,-536.266849
1008.140609,-9030.512492,-1406.391290,1072.533697
1008.140929,-9474.636058,-1480.411884,1072.533697
1008.141250,-9400.615463,-1554.432478,536.266849
1008.141571,-8142.265362,-1406.391290,-689.485948
1008.141892,-11251.130318,296.082377,2528.115143
1008.142212,-12139.377449,370.102971,5209.449386
1008.142533,-13101.645173,-148.041188,5439.278036
1008.142854,-10510.924376,-1036.288319,2221.676944
1008.143175,-7994.224174,-2442.679609,-2451.505594
1008.143495,-9400.615463,592.164754,-1302.362347
1008.143816,-7550.100608,1406.391290,153.219100
1008.144137,-8734.430116,1406.391290,459.657299
1008.144457,-7624.121203,296.082377,-1608.800546
1008.144778,-8586.388927,-2146.597232,-3447.429741
1008.145099,-10807.006753,-1850.514855,-2298.286494
1008.145420,-11843.295072,148.041188,2757.943793
1008.145740,-12731.542202,148.041188,3677.258390
1008.146061,-10955.047942,1184.329507,2757.943793
1008.146382,-9770.718434,-370.102971,-153.219100
1008.146703,-9178.553681,-296.082377,-612.876398
1008.147023,-10732.986159,-1776.494261,306.438199
1008.147344,-9104.533087,-518.144159,1149.143247
1008.147665,-8364.327145,-1924.535449,-689.485948
1008.147986,-6069.688724,-2516.700203,-3370.820191
1008.148306,-7624.121203,-740.205942,-1762.019645
1008.148627,-9918.759623,1184.329507,2068.457845
1008.148948,-11325.150913,1554.432478,4749.792088
1008.149269,-11029.068536,444.123565,4213.525239
1008.149589,-10807.006753,-2146.597232,1455.581446
1008.149910,-10362.883188,-2072.576638,995.924147
1008.150231,-9770.718434,-444.123565,2604.724693
1008.150552,-9252.574275,1480.411884,3294.210641
1008.150872,-8660.409521,1628.453072,1378.971896
1008.151193,-7328.038826,592.164754,-766.095498
1008.151514,-9918.759623,-888.247130,-612.876398
1008.151834,-8882.471304,-592.164754,1685.410096
1008.152155,-11251.130318,222.061783,3830.477490
1008.152476,-10288.862594,592.164754,3447.429741
1008.152797,-9844.739029,-592.164754,1225.752797
1008.153117,-9474.636058,814.226536,2451.505594
1008.153438,-9992.780217,444.123565,3217.601092
1008.153759,-10288.862594,-296.082377,2911.162892
1008.154079,-9696.697840,888.247130,2451.505594
1008.154400,-9474.636058,-1776.494261,-919.314598
1008.154721,-7846.182985,-444.123565,-1072.533697
1008.155041,-8660.409521,0.000000,612.876398
1008.155362,-9622.677246,0.000000,1685.410096
1008.155682,-9844.739029,148.041188,1608.800546
1008.156003,-10436.903782,-2960.823768,0.000000
1008.156324,-8882.471304,-1184.329507,-1225.752797
1008.156644,-10140.821405,-1110.308913,1378.971896
1008.156965,-10955.047942,-370.102971,2681.334243
1008.157285,-9474.636058,592.164754,2145.067394
1008.157606,-9400.615463,-1036.288319,-612.876398
1008.157927,-9400.615463,-962.267725,-383.047749
1008.158247,-9474.636058,-444.123565,842.705048
1008.158568,-10362.883188,-592.164754,2451.505594
1008.158888,-10066.800811,666.185348,1532.190996
1008.159209,-9474.636058,-592.164754,-995.924147
1008.159530,-8882.471304,0.000000,-995.924147
1008.159850,-9474.636058,296.082377,842.705048
1008.160171,-9844.739029,0.000000,919.314598
1008.160492,-9918.759623,0.000000,995.924147
1008.160812,-9696.697840,-3034.844362,-1608.800546
1008.161133,-8438.347739,-666.185348,-1149.143247
1008.161453,-9844.739029,148.041188,689.485948
1008.161774,-10955.047942,666.185348,3140.991542
1008.162095,-10362.883188,296.082377,3140.991542
1008.162415,-10362.883188,-1480.411884,612.876398
1008.162736,-8586.388927,148.041188,-153.219100
1008.163056,-9178.553681,296.082377,306.438199
1008.163377,-10214.842000,370.102971,1608.800546
1008.163698,-8290.306550,814.226536,383.047749
1008.164018,-7550.100608,-1702.473667,-2757.943793
1008.164339,-7550.100608,-1332.370696,-1378.971896
1008.164660,-9474.636058,-1184.329507,689.485948
1008.164980,-12879.583391,-740.205942,4290.134789
1008.165301,-11399.171507,148.041188,3524.039291
1008.165621,-8882.471304,-888.247130,536.266849
1008.165942,-8808.450710,148.041188,-306.438199
1008.166263,-9030.512492,1924.535449,2451.505594
1008.166583,-10955.047942,1776.494261,2681.334243
1008.166904,-9770.718434,592.164754,2451.505594
1008.167224,-8142.265362,-1776.494261,-229.828649
1008.167545,-9844.739029,-1480.411884,229.828649
1008.167866,-11325.150913,-888.247130,3753.867940
1008.168186,-11991.336260,0.000000,5439.278036
1008.168507,-9770.718434,1406.391290,4596.572988
1008.168828,-9104.533087,-1406.391290,689.485948
1008.169148,-7624.121203,-74.020594,0.000000
1008.169469,-10066.800811,-296.082377,1149.143247
1008.169789,-8660.409521,1554.432478,2528.115143
1008.170110,-9696.697840,-888.247130,1532.190996
1008.170431,-6587.832884,-888.247130,-842.705048
1008.170751,-9474.636058,74.020594,536.266849
1008.171072,-11399.171507,0.000000,3524.039291
1008.171392,-11029.068536,0.000000,4903.011187
1008.171713,-10436.903782,-740.205942,3140.991542
1008.172034,-9770.718434,-1554.432478,-1225.752797
1008.172354,-8512.368333,814.226536,0.000000
1008.172675,-10881.027347,0.000000,2298.286494
1008.172995,-9622.677246,888.247130,3140.991542
1008.173316,-7846.182985,-1776.494261,0.000000
1008.173637,-8068.244768,-2738.761985,-2298.286494
1008.173957,-8586.388927,-666.185348,-1225.752797
1008.174278,-10955.047942,0.000000,2221.676944
1008.174599,-11029.068536,518.144159,2911.162892
1008.174919,-9844.739029,296.082377,2145.067394
1008.175240,-9548.656652,-2664.741391,-919.314598
1008.175560,-9474.636058,-666.185348,-153.219100
1008.175881,-9770.718434,592.164754,612.876398
1008.176202,-10584.944971,962.267725,1991.848295
1008.176522,-7846.182985,518.144159,0.000000
1008.176843,-7698.141797,-2146.597232,-2987.772442
1008.177163,-8956.491898,-1184.329507,-2451.505594
1008.177484,-9770.718434,962.267725,2681.334243
1008.177805,-11843.295072,222.061783,3753.867940
1008.178125,-10732.986159,0.000000,3294.210641
1008.178446,-9844.739029,-2590.720797,-306.438199
1008.178767,-10288.862594,-1110.308913,0.000000
1008.179087,-10066.800811,0.000000,1149.143247
1008.179408,-9548.656652,296.082377,2068.457845
1008.179728,-8438.347739,-444.123565,766.095498
1008.180049,-7550.100608,-2146.597232,-2298.286494
1008.180370,-8290.306550,-1184.329507,-1762.019645
1008.180690,-9992.780217,148.041188,842.705048
1008.181011,-10955.047942,592.164754,2757.943793
1008.181331,-11029.068536,740.205942,2911.162892
1008.181652,-9548.656652,-2146.597232,2374.896044
1008.181973,-9992.780217,-296.082377,842.705048
1008.182293,-10881.027347,0.000000,2987.772442
1008.182614,-11251.130318,-1184.329507,3217.601092
1008.182935,-8142.265362,-296.082377,1608.800546
1008.183255,-7994.224174,-814.226536,-1838.629195
1008.183576,-7846.182985,296.082377,-1915.238745
1008.183896,-8364.327145,1332.370696,1149.143247
1008.184217,-10140.821405,518.144159,3294.210641
1008.184538,-9548.656652,-1332.370696,2911.162892
1008.184858,-9918.759623,-3330.926739,306.438199
1008.185179,-9992.780217,-1924.535449,1532.190996
1008.185499,-11547.212695,-222.061783,3217.601092
1008.185820,-10955.047942,740.205942,4596.572988
1008.186141,-9622.677246,1924.535449,3830.477490
1008.186461,-8290.306550,-592.164754,-612.876398
1008.186782,-7920.203579,-1184.329507,-2145.067394
1008.187102,-8438.347739,-74.020594,383.047749
1008.187423,-10362.883188,518.144159,2911.162892
1008.187744,-10140.821405,0.000000,2374.896044
1008.188064,-9104.533087,-1850.514855,-153.219100
1008.188385,-8882.471304,-962.267725,-229.828649
1008.188706,-10066.800811,-222.061783,1532.190996
1008.189026,-11103.089130,0.000000,3370.820191
1008.189347,-10881.027347,0.000000,2757.943793
1008.189667,-8216.285956,-592.164754,-1302.362347
1008.189988,-9992.780217,-666.185348,-2068.457845
1008.190309,-8808.450710,888.247130,1149.143247
1008.190629,-10214.842000,296.082377,2374.896044
1008.190950,-10288.862594,-592.164754,2068.457845
1008.191270,-8216.285956,-1406.391290,-1915.238745
1008.191591,-9696.697840,-1776.494261,-1838.629195
1008.191912,-9918.759623,-444.123565,919.314598
1008.192232,-10955.047942,-592.164754,2145.067394
1008.192553,-9622.677246,-444.123565,2068.457845
1008.192874,-8660.409521,-1406.391290,-1532.190996
1008.193194,-8882.471304,-1258.350101,-1608.800546
1008.193515,-9400.615463,296.082377,1302.362347
1008.193835,-11103.089130,-444.123565,2604.724693
1008.194156,-9548.656652,1110.308913,1455.581446
1008.194477,-9178.553681,-1776.494261,-1149.143247
1008.194797,-9252.574275,-666.185348,-995.924147
1008.195118,-9622.677246,222.061783,1838.629195
1008.195438,-11621.233289,-1702.473667,3064.381992
1008.195759,-8586.388927,518.144159,2145.067394
1008.196080,-9474.636058,-2664.741391,-612.876398
1008.196400,-9178.553681,-1702.473667,-1378.971896
1008.196721,-9252.574275,518.144159,2528.115143
1008.197042,-12435.459826,-740.205942,3983.696590
1008.197362,-10362.883188,1110.308913,4366.744339
1008.197683,-10140.821405,-148.041188,1608.800546
1008.198003,-9326.594869,-296.082377,229.828649
1008.198324,-8956.491898,444.123565,2145.067394
1008.198645,-10066.800811,148.041188,1838.629195
1008.198965,-9030.512492,2590.720797,1149.143247
1008.199286,-8586.388927,74.020594,-1378.971896
1008.199606,-8068.244768,-1332.370696,-1532.190996
1008.199927,-9474.636058,74.020594,2298.286494
1008.200248,-12065.356855,-1332.370696,3983.696590
1008.200568,-10510.924376,1036.288319,4213.525239
1008.200889,-10066.800811,-1480.411884,1915.238745
1008.201209,-8216.285956,-962.267725,229.828649
1008.201530,-9474.636058,444.123565,1838.629195
1008.201851,-10066.800811,148.041188,1838.629195
1008.202171,-7698.141797,222.061783,76.609550
1008.202492,-7772.162391,-222.061783,-1149.143247
1008.202813,-7772.162391,666.185348,306.438199
1008.203133,-10807.006753,-814.226536,2221.676944
1008.203454,-11177.109724,-962.267725,6511.811733
1008.203774,-11917.315666,-2220.617826,4290.134789
1008.204095,-7994.224174,-2294.638420,536.266849
1008.204416,-10140.821405,-2146.597232,0.000000
1008.204736,-9696.697840,1702.473667,1149.143247
1008.205057,-8364.327145,3775.050304,1685.410096
1008.205377,-8660.409521,-148.041188,-842.705048
1008.205698,-6217.729913,222.061783,-3370.820191
1008.206019,-9992.780217,-2294.638420,-2451.505594
1008.206339,-9400.615463,-518.144159,1072.533697
1008.206660,-11029.068536,222.061783,2987.772442
1008.206981,-11843.295072,-296.082377,3830.477490
1008.207301,-9178.553681,-1332.370696,1072.533697
1008.207622,-9992.780217,-1480.411884,-306.438199
1008.207942,-10362.883188,-296.082377,1532.190996
1008.208263,-10436.903782,-148.041188,1072.533697
1008.208584,-9622.677246,1776.494261,766.095498
1008.208904,-7846.182985,-370.102971,-3524.039291
1008.209225,-9178.553681,666.185348,-2528.115143
1008.209545,-8068.244768,2368.659014,229.828649
1008.209866,-11325.150913,-222.061783,2068.457845
1008.210187,-11695.253884,-296.082377,3370.820191
1008.210507,-9918.759623,-3034.844362,0.000000
1008.210828,-10288.862594,-1332.370696,-459.657299
1008.211149,-10658.965565,370.102971,1915.238745
1008.211469,-9844.739029,1036.288319,2451.505594
1008.211790,-9622.677246,1850.514855,2221.676944
1008.212110,-7254.018232,-1628.453072,-995.924147
1008.212431,-6143.709319,-3182.885551,-3217.601092
1008.212752,-8512.368333,-1332.370696,1072.533697
1008.213072,-11621.233289,-74.020594,3907.087040
1008.213393,-12139.377449,0.000000,6818.249932
1008.213713,-10658.965565,-2294.638420,3370.820191
1008.214034,-10362.883188,-2368.659014,1149.143247
1008.214355,-11843.295072,-666.185348,2298.286494
1008.214675,-10584.944971,0.000000,2451.505594
1008.214996,-9030.512492,962.267725,3600.648841
1008.215316,-7846.182985,74.020594,-612.876398
1008.215637,-7031.956449,-1184.329507,-2681.334243
1008.215958,-7402.059420,444.123565,-459.657299
1008.216278,-10436.903782,-814.226536,1991.848295
1008.216599,-11177.109724,0.000000,3600.648841
1008.216920,-10288.862594,-1258.350101,2451.505594
1008.217240,-10288.862594,-1036.288319,1225.752797
1008.217561,-10066.800811,962.267725,2528.115143
1008.217881,-10732.986159,-518.144159,4596.572988
1008.218202,-9400.615463,296.082377,2221.676944
1008.218523,-8142.265362,-518.144159,-2298.286494
1008.218843,-7550.100608,-1184.329507,-3753.867940
1008.219164,-6661.853478,962.267725,612.876398
1008.219484,-10288.862594,814.226536,1991.848295
1008.219805,-10584.944971,370.102971,3217.601092
1008.220126,-8142.265362,-814.226536,0.000000
1008.220446,-10214.842000,-1850.514855,459.657299
1008.220767,-10584.944971,-1258.350101,1532.190996
1008.221088,-11695.253884,-888.247130,3447.429741
1008.221408,-9918.759623,592.164754,2757.943793
1008.221729,-8660.409521,148.041188,0.000000
1008.222049,-9400.615463,-814.226536,-2451.505594
1008.222370,-8290.306550,148.041188,-536.266849
1008.222691,-9548.656652,518.144159,766.095498
1008.223011,-10807.006753,592.164754,2528.115143
1008.223332,-8734.430116,-1406.391290,1608.800546
1008.223652,-9548.656652,-1184.329507,-383.047749
1008.223973,-9770.718434,-740.205942,689.485948
1008.224294,-10584.944971,-222.061783,1762.019645
1008.224614,-10362.883188,222.061783,2681.334243
1008.224935,-8142.265362,-1554.432478,-1225.752797
1008.225256,-9326.594869,-592.164754,-2604.724693
1008.225576,-8512.368333,1258.350101,842.705048
1008.225897,-10066.800811,-740.205942,1532.190996
1008.226217,-10436.903782,-296.082377,2451.505594
1008.226538,-9178.553681,-1036.288319,-153.219100
1008.226859,-8068.244768,1628.453072,1762.019645
1008.227179,-13175.665768,-2886.803174,0.000000
1008.227500,-6735.874072,1924.535449,3753.867940
1008.227820,-12361.439231,-2368.659014,1762.019645
1008.228141,-7698.141797,-740.205942,689.485948
1008.228462,-7624.121203,-1924.535449,-1991.848295
1008.228782,-10658.965565,0.000000,2834.553343
1008.229103,-9326.594869,-962.267725,1455.581446
1008.229423,-10140.821405,-1184.329507,2298.286494
1008.229744,-9696.697840,-370.102971,2374.896044
1008.230065,-8068.244768,-1776.494261,-1608.800546
1008.230385,-10288.862594,2516.700203,2298.286494
1008.230706,-11695.253884,962.267725,4673.182538
1008.231027,-8216.285956,666.185348,1225.752797
1008.231347,-10510.924376,-740.205942,0.000000
1008.231668,-9474.636058,-1184.329507,-689.485948
1008.231988,-8512.368333,0.000000,1378.971896
1008.232309,-11843.295072,-740.205942,3830.477490
1008.232630,-9770.718434,0.000000,4366.744339
1008.232950,-8660.409521,-1036.288319,842.705048
1008.233271,-10436.903782,-1184.329507,229.828649
1008.233591,-9030.512492,1258.350101,2451.505594
1008.233912,-10066.800811,222.061783,2298.286494
1008.234233,-9178.553681,740.205942,2528.115143
1008.234553,-8364.327145,-1184.329507,-1302.362347
1008.234874,-7550.100608,-1480.411884,-2604.724693
1008.235195,-9326.594869,-222.061783,459.657299
1008.235515,-9548.656652,148.041188,2681.334243
1008.235836,-11251.130318,222.061783,2911.162892
1008.236156,-10214.842000,-370.102971,1302.362347
1008.236477,-9326.594869,-370.102971,0.000000
1008.236798,-9474.636058,740.205942,2068.457845
1008.237118,-10955.047942,0.000000,3447.429741
1008.237439,-10066.800811,518.144159,1532.190996
1008.237759,-8512.368333,-1258.350101,-1302.362347
1008.238080,-8512.368333,-1702.473667,-1915.238745
1008.238401,-7624.121203,222.061783,-766.095498
1008.238721,-11103.089130,-296.082377,1608.800546
1008.239042,-11029.068536,148.041188,2911.162892
1008.239362,-9326.594869,-592.164754,0.000000
1008.239683,-10658.965565,-1184.329507,-229.828649
1008.240004,-11325.150913,-148.041188,995.924147
1008.240324,-10362.883188,296.082377,1915.238745
1008.240645,-10584.944971,-1628.453072,1378.971896
1008.240966,-7402.059420,814.226536,-1838.629195
1008.241286,-9474.636058,-1998.556043,-1991.848295
1008.241607,-7698.141797,-1554.432478,-1608.800546
1008.241927,-9400.615463,1776.494261,1608.800546
1008.242248,-11843.295072,-222.061783,1685.410096
1008.242569,-8512.368333,148.041188,536.266849
1008.242889,-10881.027347,-1184.329507,459.657299
1008.243210,-9622.677246,444.123565,1225.752797
1008.243530,-11843.295072,74.020594,2987.772442
1008.243851,-10732.986159,0.000000,2911.162892
1008.244172,-7994.224174,-1554.432478,-459.657299
1008.244492,-8586.388927,-3182.885551,-2528.115143
1008.244813,-6735.874072,-1332.370696,-2298.286494
1008.245134,-8660.409521,-1406.391290,-1225.752797
1008.245454,-9178.553681,1628.453072,306.438199
1008.245775,-8142.265362,1184.329507,0.000000
1008.246095,-10881.027347,-740.205942,1608.800546
1008.246416,-10066.800811,-370.102971,3600.648841
1008.246737,-12435.459826,-2664.741391,5515.887586
1008.247057,-11547.212695,-1554.432478,4443.353888
1008.247378,-9474.636058,-2368.659014,3217.601092
1008.247698,-8660.409521,-2960.823768,-383.047749
1008.248019,-7031.956449,888.247130,383.047749
1008.248340,-8734.430116,888.247130,919.314598
1008.248660,-8438.347739,1332.370696,842.705048
1008.248981,-8586.388927,-592.164754,536.266849
1008.249302,-8438.347739,-2368.659014,-1149.143247
1008.249622,-9844.739029,-518.144159,2451.505594
1008.249943,-12139.377449,-296.082377,4903.011187
1008.250263,-11399.171507,0.000000,5209.449386
1008.250584,-9992.780217,-518.144159,3064.381992
1008.250905,-9474.636058,-814.226536,0.000000
1008.251225,-9030.512492,2220.617826,919.314598
1008.251546,-10955.047942,1998.556043,2681.334243
1008.251866,-9622.677246,2072.576638,2757.943793
1008.252187,-7772.162391,-1110.308913,-459.657299
1008.252508,-8068.244768,-1998.556043,-2757.943793
1008.252828,-9474.636058,1258.350101,1072.533697
1008.253149,-11399.171507,-444.123565,1915.238745
1008.253469,-10214.842000,666.185348,4749.792088
1008.253790,-9474.636058,-1850.514855,153.219100
1008.254111,-7328.038826,-2368.659014,-2221.676944
1008.254431,-10807.006753,518.144159,919.314598
1008.254752,-11325.150913,1850.514855,3753.867940
1008.255072,-10955.047942,2368.659014,4903.011187
1008.255393,-9844.739029,-222.061783,1149.143247
1008.255714,-8734.430116,-1850.514855,-919.314598
1008.256034,-10066.800811,-962.267725,229.828649
1008.256355,-10362.883188,-1628.453072,1302.362347
1008.256675,-8808.450710,814.226536,1302.362347
1008.256996,-7698.141797,444.123565,-995.924147
1008.257316,-7698.141797,-888.247130,-2757.943793
1008.257637,-9030.512492,962.267725,-459.657299
1008.257958,-10436.903782,-962.267725,1302.362347
1008.258278,-9918.759623,74.020594,1149.143247
1008.258599,-10214.842000,-1258.350101,536.266849
1008.258919,-9252.574275,-2146.597232,-612.876398
1008.259240,-9474.636058,1184.329507,919.314598
1008.259561,-10732.986159,0.000000,2145.067394
1008.259881,-9474.636058,-518.144159,919.314598
1008.260202,-8586.388927,-1628.453072,-612.876398
1008.260522,-8808.450710,-3627.009116,-3524.039291
1008.260843,-9326.594869,740.205942,306.438199
1008.261164,-11547.212695,-518.144159,4060.306139
1008.261484,-10214.842000,592.164754,2221.676944
1008.261805,-9474.636058,-1036.288319,-306.438199
1008.262125,-7476.080014,-962.267725,-2604.724693
1008.262446,-7550.100608,296.082377,-536.266849
1008.262767,-10955.047942,-962.267725,1532.190996
1008.263087,-9178.553681,666.185348,3294.210641
1008.263408,-9104.533087,-1554.432478,459.657299
1008.263728,-8734.430116,-1554.432478,-995.924147
1008.264049,-9548.656652,518.144159,1685.410096
1008.264369,-11621.233289,444.123565,3217.601092
1008.264690,-10510.924376,1480.411884,3983.696590
1008.265011,-9474.636058,-592.164754,1302.362347
1008.265331,-8660.409521,-2294.638420,0.000000
1008.265652,-9326.594869,-962.267725,919.314598
1008.265972,-10658.965565,-74.020594,3447.429741
1008.266293,-9770.718434,740.205942,4443.353888
1008.266614,-9326.594869,-1332.370696,2528.115143
1008.266934,-9326.594869,-2146.597232,536.266849
1008.267255,-10510.924376,-666.185348,1838.629195
1008.267575,-10362.883188,740.205942,4060.306139
1008.267896,-11325.150913,814.226536,4749.792088
1008.268217,-8438.347739,962.267725,2374.896044
1008.268537,-9548.656652,-1776.494261,-459.657299
1008.268858,-9178.553681,370.102971,1455.581446
1008.269178,-9696.697840,1332.370696,3983.696590
1008.269499,-10436.903782,592.164754,5209.449386
1008.269819,-9178.553681,444.123565,2987.772442
1008.270140,-9474.636058,-1776.494261,0.000000
1008.270461,-8512.368333,814.226536,1302.362347
1008.270781,-9992.780217,814.226536,3140.991542
1008.271102,-11325.150913,1036.288319,4366.744339
1008.271422,-9474.636058,-370.102971,2451.505594
1008.271743,-7920.203579,-2368.659014,-1762.019645
1008.272064,-8438.347739,-296.082377,-536.266849
1008.272384,-10066.800811,0.000000,1532.190996
1008.272705,-9844.739029,444.123565,3064.381992
1008.273025,-9474.636058,740.205942,1378.971896
1008.273346,-7550.100608,1332.370696,-995.924147
1008.273667,-10436.903782,814.226536,-153.219100
1008.273987,-9030.512492,2738.761985,3140.991542
1008.274308,-10955.047942,2220.617826,3217.601092
1008.274628,-8956.491898,3923.091493,2604.724693
1008.274949,-9474.636058,1332.370696,153.219100
1008.275269,-8586.388927,1036.288319,76.609550
1008.275590,-9474.636058,1702.473667,1915.238745
1008.275911,-10066.800811,740.205942,3524.039291
1008.276231,-9252.574275,1998.556043,2834.553343
1008.276552,-9326.594869,-888.247130,1225.752797
1008.276872,-9326.594869,-814.226536,153.219100
1008.277193,-9474.636058,2442.679609,2911.162892
1008.277514,-12065.356855,2220.617826,5286.058936
1008.277834,-10584.944971,4293.194464,5439.278036
1008.278155,-9548.656652,1776.494261,2987.772442
1008.278475,-8808.450710,296.082377,459.657299
1008.278796,-8734.430116,3034.844362,2298.286494
1008.279117,-11325.150913,2886.803174,2757.943793
1008.279437,-8290.306550,4663.297435,4519.963438
1008.279758,-8808.450710,3997.112087,4673.182538
1008.280078,-9252.574275,1184.329507,3064.381992
1008.280399,-9992.780217,1332.370696,4136.915689
1008.280719,-11473.192101,1184.329507,5515.887586
1008.281040,-9918.759623,1406.391290,4903.011187
1008.281361,-9326.594869,2516.700203,5439.278036
1008.281681,-10140.821405,592.164754,4213.525239
1008.282002,-9400.615463,518.144159,3370.820191
1008.282322,-9622.677246,1702.473667,2528.115143
1008.282643,-9252.574275,1406.391290,2374.896044
1008.282964,-8364.327145,2442.679609,2221.676944
1008.283284,-10214.842000,3701.029710,4060.306139
1008.283605,-10584.944971,888.247130,4673.182538
1008.283925,-9992.780217,1628.453072,4903.011187
1008.284246,-10881.027347,518.144159,5669.106685
1008.284567,-10140.821405,444.123565,5132.839837
1008.284887,-8734.430116,1850.514855,4596.572988
1008.285208,-9030.512492,2368.659014,5132.839837
1008.285528,-8882.471304,2146.597232,4826.401637
1008.285849,-8068.244768,2146.597232,2528.115143
1008.286170,-8808.450710,962.267725,1378.971896
1008.286490,-7772.162391,2960.823768,1072.533697
1008.286811,-9770.718434,2812.782580,2451.505594
1008.287131,-10881.027347,2960.823768,4596.572988
1008.287452,-9548.656652,3478.967927,6052.154434
1008.287772,-11473.192101,0.000000,3524.039291
1008.288093,-11251.130318,0.000000,3907.087040
1008.288414,-10214.842000,518.144159,3140.991542
1008.288734,-9548.656652,740.205942,2757.943793
1008.289055,-9030.512492,3849.070898,2221.676944
1008.289375,-8068.244768,3552.988522,1991.848295
1008.289696,-9252.574275,1628.453072,2374.896044
1008.290017,-9992.780217,1850.514855,2681.334243
1008.290337,-9252.574275,-296.082377,2145.067394
1008.290658,-9622.677246,0.000000,1225.752797
1008.290978,-10140.821405,1258.350101,2298.286494
1008.291299,-9474.636058,1480.411884,2298.286494
1008.291620,-9474.636058,1554.432478,1225.752797
1008.291940,-9400.615463,2812.782580,1991.848295
1008.292261,-10658.965565,1776.494261,1378.971896
1008.292581,-10658.965565,2442.679609,2451.505594
1008.292902,-10214.842000,1406.391290,2528.115143
1008.293222,-9918.759623,1776.494261,3064.381992
1008.293543,-10140.821405,1628.453072,2834.553343
1008.293864,-8956.491898,1406.391290,3370.820191
1008.294184,-9474.636058,2072.576638,4673.182538
1008.294505,-10288.862594,1554.432478,5898.935335
1008.294825,-9696.697840,888.247130,5515.887586
1008.295146,-9548.656652,444.123565,4290.134789
1008.295467,-9252.574275,1258.350101,3294.210641
1008.295787,-8216.285956,2072.576638,2911.162892
1008.296108,-8734.430116,1776.494261,3370.820191
1008.296428,-7994.224174,592.164754,1991.848295
1008.296749,-8734.430116,222.061783,1685.410096
1008.297070,-9474.636058,148.041188,2374.896044
1008.297390,-10214.842000,888.247130,4290.134789
1008.297711,-11103.089130,1036.288319,4673.182538
1008.298031,-9696.697840,2738.761985,3830.477490
1008.298352,-10066.800811,2812.782580,4136.915689
1008.298672,-9400.615463,2886.803174,3677.258390
1008.298993,-8956.491898,2072.576638,4443.353888
1008.299314,-9400.615463,1258.350101,4213.525239
1008.299634,-8512.368333,2220.617826,4673.182538
1008.299955,-9696.697840,2072.576638,5286.058936
1008.300275,-9104.533087,2368.659014,6128.763984
1008.300596,-9548.656652,1998.556043,4826.401637
1008.300917,-9474.636058,2664.741391,4213.525239
1008.301237,-9770.718434,3108.864956,3370.820191
1008.301558,-10066.800811,2812.782580,3140.991542
1008.301878,-10362.883188,1776.494261,2604.724693
1008.302199,-10658.965565,888.247130,1608.800546
1008.302520,-10362.883188,1110.308913,1072.533697
1008.302840,-9474.636058,2960.823768,1838.629195
1008.303161,-10510.924376,3108.864956,3140.991542
1008.303481,-10510.924376,2812.782580,4136.915689
1008.303802,-10362.883188,1776.494261,3524.039291
1008.304123,-9474.636058,1702.473667,2068.457845
1008.304443,-9326.594869,2072.576638,2451.505594
1008.304764,-9622.677246,1998.556043,3830.477490
1008.305084,-8956.491898,1036.288319,2911.162892
1008.305405,-8660.409521,962.267725,1532.190996
1008.305725,-8808.450710,1258.350101,1149.143247
1008.306046,-9474.636058,2146.597232,2145.067394
1008.306367,-11029.068536,2368.659014,3830.477490
1008.306687,-10881.027347,3182.885551,4596.572988
1008.307008,-11325.150913,2516.700203,4519.963438
1008.307328,-10436.903782,2442.679609,3907.087040
1008.307649,-9696.697840,2072.576638,3217.601092
1008.307970,-9326.594869,1998.556043,3064.381992
1008.308290,-8586.388927,1776.494261,2911.162892
1008.308611,-7920.203579,1258.350101,1455.581446
1008.308931,-7846.182985,814.226536,689.485948
1008.309252,-8438.347739,814.226536,1302.362347
1008.309573,-9178.553681,296.082377,1762.019645
1008.309893,-9326.594869,518.144159,2987.772442
1008.310214,-9844.739029,1184.329507,3907.087040
1008.310534,-10066.800811,1480.411884,4903.011187
1008.310855,-10362.883188,1110.308913,5822.325785
1008.311175,-10584.944971,518.144159,5669.106685
1008.311496,-10436.903782,1332.370696,6052.154434
1008.311817,-10288.862594,518.144159,3370.820191
1008.312137,-8142.265362,2368.659014,2757.943793
1008.312458,-8734.430116,2516.700203,3294.210641
1008.312778,-8364.327145,2220.617826,2604.724693
1008.313099,-8586.388927,1258.350101,2451.505594
1008.313420,-9696.697840,740.205942,3447.429741
1008.313740,-9474.636058,0.000000,2834.553343
1008.314061,-10510.924376,0.000000,3677.258390
1008.314381,-10658.965565,1184.329507,5132.839837
1008.314702,-10066.800811,1184.329507,4290.134789
1008.315023,-10436.903782,2146.597232,4673.182538
1008.315343,-8882.471304,814.226536,4903.011187
1008.315664,-9474.636058,1036.288319,3907.087040
1008.315984,-10288.862594,962.267725,4519.963438
1008.316305,-10066.800811,1628.453072,4749.792088
1008.316625,-9918.759623,2368.659014,4826.401637
1008.316946,-9992.780217,2294.638420,4443.353888
1008.317267,-9474.636058,2368.659014,3447.429741
1008.317587,-9326.594869,2146.597232,2987.772442
1008.317908,-9696.697840,1036.288319,2374.896044
1008.318228,-9104.533087,1036.288319,689.485948
1008.318549,-9104.533087,592.164754,383.047749
1008.318870,-9326.594869,888.247130,229.828649
1008.319190,-9622.677246,1628.453072,995.924147
1008.319511,-9622.677246,1628.453072,995.924147
1008.319831,-10214.842000,1480.411884,2145.067394
1008.320152,-10436.903782,740.205942,2145.067394
1008.320473,-10288.862594,592.164754,2451.505594
1008.320793,-10214.842000,1184.329507,3524.039291
1008.321114,-9622.677246,1480.411884,3677.258390
1008.321434,-9252.574275,1554.432478,3217.601092
1008.321755,-8512.368333,1924.535449,2911.162892
1008.322075,-8364.327145,1850.514855,2604.724693
1008.322396,-9030.512492,1776.494261,2834.553343
1008.322717,-9400.615463,2072.576638,3217.601092
1008.323037,-9252.574275,2072.576638,3140.991542
1008.323358,-9622.677246,2220.617826,3140.991542
1008.323678,-9474.636058,2442.679609,4596.572988
1008.323999,-10066.800811,2516.700203,4136.915689
1008.324320,-10066.800811,2368.659014,3907.087040
1008.324640,-9918.759623,2590.720797,3370.820191
1008.324961,-9844.739029,3034.844362,4749.792088
1008.325281,-10066.800811,2516.700203,3830.477490
1008.325602,-10066.800811,2368.659014,4749.792088
1008.325923,-9696.697840,2220.617826,4826.401637
1008.326243,-9474.636058,1924.535449,4673.182538
1008.326564,-9400.615463,1480.411884,4596.572988
1008.326884,-9622.677246,1480.411884,4519.963438
1008.327205,-9474.636058,1554.432478,3983.696590
1008.327526,-9252.574275,1480.411884,3524.039291
1008.327846,-8290.306550,1554.432478,2604.724693
1008.328167,-9474.636058,1924.535449,2681.334243
1008.328487,-9548.656652,1998.556043,2528.115143
1008.328808,-9844.739029,1924.535449,2374.896044
1008.329128,-9474.636058,2072.576638,1072.533697
1008.329449,-9844.739029,1332.370696,2604.724693
1008.329770,-9622.677246,1332.370696,2911.162892
1008.330090,-9770.718434,1332.370696,2528.115143
1008.330411,-9696.697840,1628.453072,3140.991542
1008.330731,-9548.656652,1332.370696,2681.334243
1008.331052,-9178.553681,1036.288319,2604.724693
1008.331373,-9104.533087,592.164754,1762.019645
1008.331693,-9030.512492,0.000000,1302.362347
1008.332014,-9030.512492,148.041188,689.485948
1008.332334,-9178.553681,74.020594,842.705048
1008.332655,-9474.636058,0.000000,612.876398
1008.332976,-10140.821405,888.247130,1302.362347
1008.333296,-10362.883188,222.061783,1149.143247
1008.333617,-10436.903782,1036.288319,1532.190996
1008.333937,-10436.903782,1184.329507,1532.190996
1008.334258,-10066.800811,962.267725,1532.190996
1008.334578,-9548.656652,888.247130,919.314598
1008.334899,-9030.512492,1110.308913,153.219100
1008.335220,-8956.491898,1332.370696,919.314598
1008.335540,-9104.533087,814.226536,1378.971896
1008.335861,-9548.656652,1258.350101,1915.238745
1008.336181,-9844.739029,888.247130,2528.115143
1008.336502,-9844.739029,1110.308913,2604.724693
1008.336823,-10140.821405,1332.370696,2834.553343
1008.337143,-10066.800811,1332.370696,3370.820191
1008.337464,-9770.718434,1332.370696,4136.915689
1008.337784,-9548.656652,1554.432478,3370.820191
1008.338105,-9622.677246,1702.473667,3370.820191
1008.338426,-9770.718434,1776.494261,3524.039291
1008.338746,-9696.697840,1628.453072,4213.525239
1008.339067,-9696.697840,1554.432478,4596.572988
1008.339387,-9844.739029,1554.432478,4826.401637
1008.339708,-10288.862594,1554.432478,5515.887586
1008.340028,-10140.821405,1480.411884,5898.935335
1008.340349,-9770.718434,1258.350101,6435.202183
1008.340670,-9992.780217,1036.288319,6358.592633
1008.340990,-9474.636058,1406.391290,6358.592633
1008.341311,-9326.594869,1406.391290,5745.716235
1008.341631,-9178.553681,2220.617826,4903.011187
1008.341952,-9030.512492,2072.576638,5898.935335
1008.342273,-9252.574275,1924.535449,6205.373534
1008.342593,-9252.574275,2146.597232,6205.373534
1008.342914,-9474.636058,2072.576638,6588.421283
1008.343234,-9770.718434,2442.679609,6588.421283
1008.343555,-9844.739029,2812.782580,6894.859482
1008.343876,-9844.739029,3034.844362,7201.297681
1008.344196,-9770.718434,3404.947333,6818.249932
1008.344517,-9474.636058,3108.864956,5515.887586
1008.344837,-9252.574275,3404.947333,4749.792088
1008.345158,-9252.574275,3478.967927,4443.353888
1008.345479,-9178.553681,3330.926739,4136.915689
1008.345799,-9104.533087,3182.885551,4213.525239
1008.346120,-9178.553681,2738.761985,2911.162892
1008.346440,-9622.677246,2442.679609,2757.943793
1008.346761,-9844.739029,2886.803174,2681.334243
1008.347081,-9844.739029,2960.823768,2221.676944
1008.347402,-9992.780217,2664.741391,1378.971896
1008.347723,-9326.594869,2590.720797,306.438199
1008.348043,-9400.615463,2368.659014,-459.657299
1008.348364,-9400.615463,2516.700203,-612.876398
1008.348684,-9474.636058,2812.782580,-842.705048
1008.349005,-9622.677246,2368.659014,-153.219100
1008.349326,-10362.883188,2442.679609,612.876398
1008.349646,-10214.842000,2590.720797,1302.362347
1008.349967,-10955.047942,2960.823768,2145.067394
1008.350287,-10584.944971,2886.803174,2834.553343
1008.350608,-10140.821405,2516.700203,1838.629195
1008.350929,-9474.636058,2368.659014,1378.971896
1008.351249,-9252.574275,2442.679609,1532.190996
1008.351570,-8882.471304,1702.473667,1991.848295
1008.351890,-9400.615463,1850.514855,1838.629195
1008.352211,-9474.636058,888.247130,229.828649
1008.352531,-8882.471304,1258.350101,-153.219100
1008.352852,-9400.615463,1554.432478,-306.438199
1008.353173,-9844.739029,1850.514855,1685.410096
1008.353493,-9696.697840,962.267725,1685.410096
1008.353814,-10066.800811,518.144159,2987.772442
1008.354134,-10436.903782,74.020594,4749.792088
1008.354455,-10807.006753,-222.061783,6741.640382
1008.354776,-10955.047942,222.061783,7354.516781
1008.355096,-10288.862594,740.205942,7431.126331
1008.355417,-9104.533087,1998.556043,7660.954980
1008.355738,-9326.594869,1998.556043,7967.393179
1008.356058,-8956.491898,1480.411884,7737.564530
1008.356379,-8512.368333,148.041188,6205.373534
1008.356700,-8660.409521,-1036.288319,4290.134789
1008.357020,-7920.203579,-518.144159,2757.943793
1008.357341,-7698.141797,-518.144159,3294.210641
1008.357662,-9178.553681,888.247130,3677.258390
1008.357983,-9548.656652,0.000000,3447.429741
1008.358303,-10288.862594,0.000000,3447.429741
1008.358624,-10807.006753,296.082377,2298.286494
1008.358945,-11177.109724,-148.041188,4749.792088
1008.359265,-10955.047942,666.185348,6128.763984
1008.359586,-10510.924376,740.205942,7201.297681
1008.359907,-9548.656652,666.185348,6205.373534
1008.360228,-8956.491898,518.144159,4519.963438
1008.360548,-8882.471304,1184.329507,4366.744339
1008.360869,-8956.491898,1406.391290,4519.963438
1008.361190,-9030.512492,1924.535449,4979.620737
1008.361511,-9474.636058,2146.597232,6205.373534
1008.361831,-9326.594869,1258.350101,3677.258390
1008.362152,-9474.636058,592.164754,2604.724693
1008.362473,-10881.027347,666.185348,2834.553343
1008.362793,-10288.862594,1184.329507,1838.629195
1008.363114,-10436.903782,1924.535449,-153.219100
1008.363435,-8290.306550,3701.029710,-1608.800546
1008.363756,-9326.594869,3701.029710,-1608.800546
1008.364076,-9030.512492,3627.009116,76.609550
1008.364397,-9548.656652,2072.576638,0.000000
1008.364718,-9696.697840,1406.391290,459.657299
1008.365038,-8956.491898,1406.391290,0.000000
1008.365359,-10140.821405,2368.659014,2757.943793
1008.365680,-10288.862594,2664.741391,5056.230287
1008.366001,-10066.800811,1554.432478,4213.525239
1008.366321,-9400.615463,1776.494261,1991.848295
1008.366642,-8142.265362,2072.576638,229.828649
1008.366963,-8956.491898,3182.885551,1302.362347
1008.367283,-9992.780217,4145.153275,2757.943793
1008.367604,-9400.615463,4441.235652,2681.334243
1008.367925,-9992.780217,4071.132681,1838.629195
1008.368246,-10362.883188,3849.070898,2681.334243
1008.368566,-11251.130318,2664.741391,3064.381992
1008.368887,-10955.047942,2220.617826,4060.306139
1008.369208,-9918.759623,2886.803174,3294.210641
1008.369528,-9326.594869,3552.988522,3524.039291
1008.369849,-9400.615463,2368.659014,4290.134789
1008.370170,-9178.553681,1850.514855,4136.915689
1008.370491,-10807.006753,-296.082377,3600.648841
1008.370811,-8586.388927,2886.803174,5592.497135
1008.371132,-11843.295072,-296.082377,5132.839837
1008.371453,-7846.182985,1554.432478,6052.154434
1008.371773,-10362.883188,-370.102971,5056.230287
1008.372094,-9918.759623,1406.391290,6588.421283
1008.372415,-9400.615463,444.123565,5439.278036
1008.372736,-10140.821405,2294.638420,3294.210641
1008.373056,-9770.718434,2812.782580,5669.106685
1008.373377,-9622.677246,2220.617826,3983.696590
1008.373698,-9992.780217,3923.091493,4979.620737
1008.374018,-8882.471304,2886.803174,4979.620737
1008.374339,-8882.471304,1776.494261,3370.820191
1008.374660,-9548.656652,814.226536,4903.011187
1008.374981,-8586.388927,148.041188,3600.648841
1008.375301,-9474.636058,-148.041188,3677.258390
1008.375622,-9992.780217,888.247130,4290.134789
1008.375943,-9696.697840,2294.638420,3217.601092
1008.376263,-9326.594869,2812.782580,2298.286494
1008.376584,-9992.780217,2442.679609,2757.943793
1008.376905,-9252.574275,2886.803174,4443.353888
1008.377226,-10066.800811,518.144159,2757.943793
1008.377546,-9770.718434,666.185348,1608.800546
1008.377867,-9030.512492,1850.514855,1608.800546
1008.378188,-9400.615463,2590.720797,2298.286494
1008.378509,-9770.718434,3478.967927,3524.039291
1008.378829,-9844.739029,2590.720797,3217.601092
1008.379150,-10066.800811,1850.514855,2221.676944
1008.379471,-10584.944971,888.247130,1455.581446
1008.379791,-9548.656652,74.020594,153.219100
1008.380112,-9548.656652,1776.494261,459.657299
1008.380433,-9252.574275,2072.576638,1455.581446
1008.380754,-8734.430116,1776.494261,1685.410096
1008.381074,-9474.636058,0.000000,995.924147
1008.381395,-10288.862594,-444.123565,1455.581446
1008.381716,-10214.842000,-148.041188,1149.143247
1008.382036,-10881.027347,1110.308913,2298.286494
1008.382357,-10214.842000,2368.659014,3907.087040
1008.382678,-9918.759623,1554.432478,3064.381992
1008.382999,-9770.718434,1110.308913,3140.991542
1008.383319,-9326.594869,-592.164754,2451.505594
1008.383640,-8956.491898,-2368.659014,459.657299
1008.383961,-8142.265362,-1480.411884,1685.410096
1008.384281,-9400.615463,-296.082377,2681.334243
1008.384602,-8438.347739,2368.659014,3370.820191
1008.384923,-10807.006753,2220.617826,4749.792088
1008.385244,-9770.718434,1924.535449,3907.087040
1008.385564,-9474.636058,1036.288319,3677.258390
1008.385885,-11325.150913,444.123565,4826.401637
1008.386206,-9474.636058,0.000000,4979.620737
1008.386526,-9622.677246,-592.164754,4749.792088
1008.386847,-9696.697840,-370.102971,3370.820191
1008.387168,-7920.203579,-148.041188,1685.410096
1008.387489,-8808.450710,370.102971,842.705048
1008.387809,-8956.491898,2220.617826,3600.648841
1008.388130,-7772.162391,2294.638420,3217.601092
1008.388451,-10436.903782,74.020594,4060.306139
1008.388771,-9844.739029,0.000000,2757.943793
1008.389092,-10214.842000,444.123565,3677.258390
1008.389413,-10362.883188,1258.350101,4136.915689
1008.389734,-10288.862594,2442.679609,5898.935335
1008.390054,-9622.677246,1628.453072,3677.258390
1008.390375,-8734.430116,1258.350101,2145.067394
1008.390696,-9104.533087,444.123565,1225.752797
1008.391016,-8512.368333,3552.988522,2374.896044
1008.391337,-10584.944971,1554.432478,4290.134789
1008.391658,-9400.615463,740.205942,2145.067394
1008.391979,-9400.615463,1110.308913,2604.724693
1008.392299,-9400.615463,-1554.432478,0.000000
1008.392620,-9474.636058,222.061783,1302.362347
1008.392941,-10732.986159,518.144159,2374.896044
1008.393261,-10066.800811,296.082377,919.314598
1008.393582,-10436.903782,2442.679609,-1455.581446
1008.393903,-10066.800811,888.247130,-1225.752797
1008.394224,-9844.739029,74.020594,-689.485948
1008.394544,-10436.903782,1554.432478,1378.971896
1008.394865,-10436.903782,444.123565,1149.143247
1008.395186,-10510.924376,148.041188,919.314598
1008.395507,-9844.739029,-2738.761985,-2221.676944
1008.395827,-6587.832884,2590.720797,0.000000
1008.396148,-12361.439231,-1924.535449,1149.143247
1008.396469,-6661.853478,666.185348,1072.533697
1008.396789,-9548.656652,-2442.679609,-2911.162892
1008.397110,-8438.347739,-962.267725,-2604.724693
1008.397431,-7179.997637,-1332.370696,-4903.011187
1008.397752,-10955.047942,1998.556043,2374.896044
1008.398072,-10214.842000,1258.350101,3217.601092
1008.398393,-8808.450710,-296.082377,-1072.533697
1008.398714,-11029.068536,962.267725,1072.533697
1008.399034,-8586.388927,-1258.350101,383.047749
1008.399355,-9844.739029,888.247130,3064.381992
1008.399676,-12065.356855,592.164754,5822.325785
1008.399997,-7772.162391,-222.061783,2145.067394
1008.400317,-7994.224174,-1554.432478,-459.657299
1008.400638,-7920.203579,-2442.679609,-689.485948
1008.400959,-9178.553681,0.000000,2681.334243
1008.401279,-10362.883188,666.185348,3294.210641
1008.401600,-8808.450710,-592.164754,689.485948
1008.401921,-7105.977043,296.082377,-306.438199
1008.402242,-8882.471304,148.041188,-1532.190996
1008.402562,-11695.253884,1036.288319,3600.648841
1008.402883,-11843.295072,74.020594,5286.058936
1008.403204,-11473.192101,-2738.761985,4213.525239
1008.403524,-10214.842000,-4589.276840,919.314598
1008.403845,-9474.636058,-3404.947333,536.266849
1008.404166,-11621.233289,-370.102971,4290.134789
1008.404487,-9918.759623,74.020594,4903.011187
1008.404807,-8882.471304,-148.041188,689.485948
1008.405128,-7105.977043,-1036.288319,-689.485948
1008.405449,-8808.450710,-1998.556043,-383.047749
1008.405769,-9770.718434,-740.205942,3294.210641
1008.406090,-10732.986159,-1924.535449,3677.258390
1008.406411,-9252.574275,-1184.329507,1915.238745
1008.406732,-8808.450710,-2664.741391,-1532.190996
1008.407052,-8734.430116,-370.102971,0.000000
1008.407373,-11843.295072,2220.617826,4519.963438
1008.407694,-11695.253884,0.000000,4903.011187
1008.408014,-11325.150913,-1850.514855,3217.601092
1008.408335,-8364.327145,-2664.741391,-383.047749
1008.408656,-9770.718434,-4737.318029,-3064.381992
1008.408977,-7624.121203,518.144159,536.266849
1008.409297,-8290.306550,814.226536,1225.752797
1008.409618,-7105.977043,222.061783,-1991.848295
1008.409939,-6513.812290,296.082377,-2987.772442
1008.410260,-8290.306550,296.082377,-1838.629195
1008.410580,-10955.047942,740.205942,612.876398
1008.410901,-11843.295072,962.267725,3064.381992
1008.411222,-11325.150913,-222.061783,2374.896044
1008.411542,-8660.409521,-370.102971,-459.657299
1008.411863,-9030.512492,-296.082377,-1149.143247
1008.412184,-10584.944971,592.164754,1302.362347
1008.412505,-10362.883188,1406.391290,1225.752797
1008.412825,-11399.171507,666.185348,-229.828649
1008.413146,-7105.977043,1628.453072,-3524.039291
1008.413467,-9474.636058,1110.308913,-2145.067394
1008.413787,-11251.130318,1554.432478,2528.115143
1008.414108,-10584.944971,-148.041188,2834.553343
1008.414429,-10436.903782,-2368.659014,-842.705048
1008.414750,-7846.182985,-1480.411884,-1608.800546
1008.415070,-9252.574275,0.000000,-689.485948
1008.415391,-11843.295072,1110.308913,3907.087040
1008.415712,-8808.450710,2738.761985,4366.744339
1008.416032,-9252.574275,-148.041188,2068.457845
1008.416353,-8438.347739,-1406.391290,-536.266849
1008.416674,-9770.718434,-1258.350101,-459.657299
1008.416995,-11251.130318,222.061783,4136.915689
1008.417315,-10214.842000,666.185348,4749.792088
1008.417636,-10807.006753,222.061783,3907.087040
1008.417957,-8364.327145,-1924.535449,-229.828649
1008.418277,-8364.327145,-2072.576638,-842.705048
1008.418598,-10510.924376,814.226536,5286.058936
1008.418919,-10955.047942,-1850.514855,4060.306139
1008.419240,-8734.430116,-222.061783,2145.067394
1008.419560,-8882.471304,-814.226536,-459.657299
1008.419881,-7698.141797,-962.267725,-919.314598
1008.420202,-10214.842000,1702.473667,4213.525239
1008.420522,-10140.821405,518.144159,4903.011187
1008.420843,-9474.636058,-296.082377,1685.410096
1008.421164,-8660.409521,-740.205942,612.876398
1008.421485,-7920.203579,-1184.329507,-536.266849
1008.421805,-10140.821405,814.226536,3447.429741
1008.422126,-10436.903782,1332.370696,4749.792088
1008.422447,-8364.327145,-222.061783,1991.848295
1008.422767,-8068.244768,-962.267725,-3294.210641
1008.423088,-8216.285956,-740.205942,-1302.362347
1008.423409,-10214.842000,740.205942,2298.286494
1008.423730,-10732.986159,888.247130,3217.601092
1008.424050,-10658.965565,0.000000,1378.971896
1008.424371,-9030.512492,-444.123565,-383.047749
1008.424692,-9622.677246,-1480.411884,-689.485948
1008.425012,-11473.192101,-814.226536,1838.629195
1008.425333,-10066.800811,222.061783,2451.505594
1008.425654,-9622.677246,-1776.494261,-766.095498
1008.425975,-7846.182985,-1184.329507,-2604.724693
1008.426295,-8808.450710,-1110.308913,-2757.943793
1008.426616,-11399.171507,444.123565,1378.971896
1008.426937,-10807.006753,962.267725,1991.848295
1008.427258,-10288.862594,-1776.494261,0.000000
1008.427578,-9252.574275,-2516.700203,-2145.067394
1008.427899,-9326.594869,-2294.638420,-1915.238745
1008.428220,-11029.068536,-370.102971,1455.581446
1008.428540,-9918.759623,0.000000,1608.800546
1008.428861,-9178.553681,296.082377,-766.095498
1008.429182,-7994.224174,0.000000,-3064.381992
1008.429503,-8808.450710,222.061783,-995.924147
1008.429823,-11843.295072,74.020594,5439.278036
1008.430144,-10584.944971,-1036.288319,3370.820191
1008.430465,-10362.883188,-1702.473667,1532.190996
1008.430785,-9770.718434,-1036.288319,1149.143247
1008.431106,-9400.615463,-2294.638420,153.219100
1008.431427,-10288.862594,-444.123565,2374.896044
1008.431748,-9030.512492,1184.329507,3294.210641
1008.432068,-8364.327145,-444.123565,-229.828649
1008.432389,-7698.141797,-370.102971,-689.485948
1008.432710,-8364.327145,-2294.638420,0.000000
1008.433030,-9696.697840,-592.164754,1762.019645
1008.433351,-10732.986159,-888.247130,3370.820191
1008.433672,-9400.615463,-1258.350101,2528.115143
1008.433993,-9474.636058,-1998.556043,536.266849
1008.434313,-10066.800811,-2664.741391,1378.971896
1008.434634,-9992.780217,-1184.329507,3064.381992
1008.434955,-9474.636058,-444.123565,3753.867940
1008.435275,-9918.759623,-2146.597232,1378.971896
1008.435596,-7179.997637,-888.247130,153.219100
1008.435917,-8290.306550,-1480.411884,-383.047749
1008.436238,-10066.800811,888.247130,3064.381992
1008.436558,-10584.944971,666.185348,4749.792088
1008.436879,-10140.821405,-1110.308913,2528.115143
1008.437200,-9622.677246,-1110.308913,1149.143247
1008.437520,-9696.697840,222.061783,766.095498
1008.437841,-10732.986159,1628.453072,3753.867940
1008.438162,-10214.842000,1406.391290,4519.963438
1008.438483,-9252.574275,888.247130,995.924147
1008.438803,-8808.450710,-666.185348,-1685.410096
1008.439124,-8512.368333,296.082377,-1149.143247
1008.439445,-10214.842000,1036.288319,1685.410096
1008.439765,-10732.986159,2294.638420,4136.915689
1008.440086,-11029.068536,592.164754,3217.601092
1008.440407,-9474.636058,0.000000,306.438199
1008.440728,-10066.800811,444.123565,-459.657299
1008.441048,-10881.027347,2294.638420,3907.087040
1008.441369,-10881.027347,1776.494261,3907.087040
1008.441690,-9992.780217,-666.185348,766.095498
1008.442010,-8290.306550,-518.144159,-2068.457845
1008.442331,-7624.121203,-1184.329507,-1455.581446
1008.442652,-9622.677246,1776.494261,-1378.971896
1008.442973,-10066.800811,3108.864956,1532.190996
1008.443293,-8734.430116,1850.514855,-842.705048
1008.443614,-8808.450710,1184.329507,-919.314598
1008.443935,-10214.842000,-2146.597232,-689.485948
1008.444256,-11325.150913,-222.061783,2681.334243
1008.444576,-12435.459826,-1406.391290,4749.792088
1008.444897,-10658.965565,-814.226536,2068.457845
1008.445218,-9030.512492,0.000000,0.000000
1008.445538,-8586.388927,-888.247130,-2604.724693
1008.445859,-8586.388927,1702.473667,76.609550
1008.446180,-9178.553681,888.247130,1302.362347
1008.446501,-9474.636058,-1184.329507,0.000000
1008.446821,-7698.141797,-962.267725,-1302.362347
1008.447142,-9400.615463,-3256.906145,-229.828649
1008.447463,-9696.697840,-962.267725,2681.334243
1008.447783,-10510.924376,-296.082377,4213.525239
1008.448104,-9918.759623,-2072.576638,3064.381992
1008.448425,-8290.306550,-1850.514855,-459.657299
1008.448746,-8364.327145,-1184.329507,-536.266849
1008.449066,-9622.677246,296.082377,2068.457845
1008.449387,-10732.986159,1036.288319,3983.696590
1008.449708,-11399.171507,-592.164754,3907.087040
1008.450028,-9548.656652,-2368.659014,2681.334243
1008.450349,-8956.491898,-4737.318029,0.000000
1008.450670,-9770.718434,-2146.597232,1838.629195
1008.450991,-9918.759623,148.041188,3447.429741
1008.451311,-8512.368333,592.164754,1225.752797
1008.451632,-7994.224174,518.144159,-383.047749
1008.451953,-7105.977043,-814.226536,-2145.067394
1008.452273,-9326.594869,-370.102971,612.876398
1008.452594,-11991.336260,-518.144159,4366.744339
1008.452915,-11695.253884,-370.102971,4519.963438
1008.453236,-10584.944971,-2368.659014,2221.676944
1008.453556,-8956.491898,0.000000,76.609550
1008.453877,-10955.047942,1036.288319,2757.943793
1008.454198,-10658.965565,888.247130,3600.648841
1008.454518,-10066.800811,-814.226536,1455.581446
1008.454837,-9178.553681,-2516.700203,-1532.190996
1008.455158,-6513.812290,-1332.370696,-3370.820191
1008.455479,-11695.253884,-814.226536,995.924147
1008.455799,-11399.171507,740.205942,4290.134789
1008.456120,-11843.295072,74.020594,3677.258390
1008.456441,-10658.965565,-1480.411884,1685.410096
1008.456762,-7550.100608,-1480.411884,-919.314598
1008.457083,-11473.192101,-1332.370696,1608.800546
1008.457403,-9696.697840,370.102971,2068.457845
1008.457724,-7846.182985,0.000000,-2374.896044
1008.458045,-6809.894666,-592.164754,-4213.525239
1008.458366,-6069.688724,-370.102971,-5209.449386
1008.458687,-9918.759623,0.000000,-1378.971896
1008.459007,-10881.027347,888.247130,2604.724693
1008.459328,-11029.068536,-888.247130,2298.286494
1008.459649,-9844.739029,-1332.370696,1072.533697
1008.459970,-9770.718434,-1480.411884,153.219100
1008.460291,-11547.212695,74.020594,2757.943793
1008.460611,-8956.491898,1184.329507,3447.429741
1008.460932,-7994.224174,0.000000,306.438199
1008.461253,-6735.874072,296.082377,-2528.115143
1008.461574,-7031.956449,-1110.308913,-3753.867940
1008.461895,-9844.739029,2294.638420,2451.505594
1008.462215,-9992.780217,1850.514855,3370.820191
1008.462536,-10214.842000,-444.123565,1991.848295
1008.462857,-9548.656652,0.000000,1532.190996
1008.463178,-9400.615463,-962.267725,1455.581446
1008.463499,-11251.130318,-222.061783,3370.820191
1008.463819,-11399.171507,2516.700203,5439.278036
1008.464140,-9474.636058,-222.061783,1762.019645
1008.464461,-6587.832884,592.164754,-2068.457845
1008.464782,-8438.347739,0.000000,-2834.553343
1008.465103,-8956.491898,0.000000,995.924147
1008.465423,-11621.233289,-740.205942,4366.744339
1008.465744,-11029.068536,-3552.988522,3370.820191
1008.466065,-10436.903782,-2664.741391,3830.477490
1008.466386,-10510.924376,-2146.597232,2374.896044
1008.466707,-12953.603985,592.164754,5209.449386
1008.467027,-10955.047942,3404.947333,7048.078582
1008.467348,-9770.718434,666.185348,2604.724693
1008.467669,-8216.285956,370.102971,-459.657299
1008.467990,-8512.368333,-1998.556043,-2911.162892
1008.468311,-8660.409521,370.102971,153.219100
1008.468631,-9548.656652,2368.659014,3524.039291
1008.468952,-10214.842000,74.020594,3217.601092
1008.469273,-9770.718434,962.267725,1608.800546
1008.469594,-10140.821405,-296.082377,1225.752797
1008.469914,-11177.109724,0.000000,2604.724693
1008.470235,-11251.130318,666.185348,4596.572988
1008.470556,-10140.821405,-814.226536,1838.629195
1008.470877,-7994.224174,0.000000,-1762.019645
1008.471198,-7105.977043,-592.164754,-3217.601092
1008.471518,-7994.224174,444.123565,-536.266849
1008.471839,-9474.636058,962.267725,2604.724693
1008.472160,-11029.068536,-1924.535449,1532.190996
1008.472481,-9918.759623,-1998.556043,-229.828649
1008.472802,-9992.780217,-2072.576638,-536.266849
1008.473122,-11103.089130,-962.267725,919.314598
1008.473443,-11103.089130,1554.432478,3677.258390
1008.473764,-9770.718434,-444.123565,612.876398
1008.474085,-7476.080014,-666.185348,-2528.115143
1008.474406,-7846.182985,-3256.906145,-5898.935335
1008.474726,-8290.306550,-1776.494261,-2604.724693
1008.475047,-9696.697840,296.082377,766.095498
1008.475368,-10807.006753,0.000000,612.876398
1008.475689,-9252.574275,0.000000,-76.609550
1008.476010,-9400.615463,-2664.741391,-1225.752797
1008.476330,-9992.780217,-1258.350101,919.314598
1008.476651,-11769.274478,-370.102971,3524.039291
1008.476972,-10584.944971,-1406.391290,2451.505594
1008.477293,-8586.388927,-666.185348,-153.219100
1008.477614,-8512.368333,-1628.453072,-1991.848295
1008.477934,-8438.347739,-518.144159,-383.047749
1008.478255,-9844.739029,518.144159,2298.286494
1008.478576,-8808.450710,-370.102971,0.000000
1008.478897,-7476.080014,-148.041188,-1378.971896
1008.479218,-8956.491898,518.144159,-1225.752797
1008.479538,-11473.192101,1554.432478,2911.162892
1008.479859,-13101.645173,1036.288319,6052.154434
