#time,accel_x,accel_y,accel_z
971.998365,-9622.677246,-444.123565,1072.533697
971.998686,-9104.533087,296.082377,1072.533697
971.999008,-9696.697840,-222.061783,1072.533697
971.999329,-9474.636058,-370.102971,919.314598
971.999650,-9696.697840,-296.082377,689.485948
971.999971,-9474.636058,-370.102971,919.314598
972.000292,-9622.677246,-296.082377,1608.800546
972.000613,-9622.677246,-222.061783,1072.533697
972.000934,-9548.656652,-296.082377,766.095498
972.001255,-9696.697840,-296.082377,919.314598
972.001576,-9844.739029,-222.061783,1302.362347
972.001897,-9548.656652,-370.102971,1225.752797
972.002219,-9770.718434,-222.061783,766.095498
972.002540,-9400.615463,-592.164754,689.485948
972.002861,-9474.636058,-592.164754,1302.362347
972.003182,-9400.615463,-444.123565,1149.143247
972.003503,-9474.636058,-592.164754,689.485948
972.003824,-9474.636058,-370.102971,689.485948
972.004145,-9770.718434,-370.102971,153.219100
972.004466,-9918.759623,-370.102971,766.095498
972.004787,-9622.677246,-888.247130,1378.971896
972.005108,-9622.677246,-666.185348,1225.752797
972.005429,-9622.677246,-518.144159,1072.533697
972.005751,-9474.636058,-222.061783,689.485948
972.006072,-9474.636058,-222.061783,1378.971896
972.006393,-9474.636058,-592.164754,1302.362347
972.006714,-9622.677246,-740.205942,919.314598
972.007035,-9400.615463,148.041188,2221.676944
972.007356,-9400.615463,-962.267725,459.657299
972.007677,-9696.697840,-814.226536,153.219100
972.007998,-9770.718434,-740.205942,689.485948
972.008319,-9622.677246,-592.164754,612.876398
972.008640,-9474.636058,-740.205942,0.000000
972.008962,-9992.780217,-740.205942,-153.219100
972.009283,-9770.718434,-592.164754,0.000000
972.009604,-9770.718434,-740.205942,0.000000
972.009925,-9696.697840,-888.247130,306.438199
972.010246,-9548.656652,-1110.308913,-689.485948
972.010567,-9622.677246,-1184.329507,-612.876398
972.010888,-9548.656652,-1702.473667,-766.095498
972.011209,-9326.594869,-814.226536,-2221.676944
972.011530,-9474.636058,-1480.411884,-1608.800546
972.011851,-9548.656652,-1480.411884,-1838.629195
972.012173,-9400.615463,-1554.432478,-2145.067394
972.012494,-9622.677246,-1332.370696,-3370.820191
972.012815,-9622.677246,-1184.329507,-3370.820191
972.013136,-9696.697840,-1850.514855,-3217.601092
972.013457,-9622.677246,-2516.700203,-3447.429741
972.013778,-9696.697840,-2812.782580,-3753.867940
972.014099,-9770.718434,-2664.741391,-3600.648841
972.014420,-9992.780217,-3108.864956,-3370.820191
972.014741,-9622.677246,-2812.782580,-3370.820191
972.015062,-9696.697840,-3849.070898,-3064.381992
972.015384,-9030.512492,-3108.864956,-2068.457845
972.015705,-9178.553681,-4737.318029,-2757.943793
972.016026,-9474.636058,-5033.400406,-2834.553343
972.016347,-9030.512492,-4885.359217,-2604.724693
972.016668,-9252.574275,-4811.338623,-2528.115143
972.016989,-8956.491898,-4663.297435,-2374.896044
972.017310,-9178.553681,-4441.235652,-2757.943793
972.017631,-9474.636058,-3701.029710,-2681.334243
972.017952,-9548.656652,-3923.091493,-2298.286494
972.018273,-9770.718434,-3627.009116,-1915.238745
972.018594,-9770.718434,-4145.153275,-1762.019645
972.018916,-10066.800811,-4145.153275,-1149.143247
972.019237,-9992.780217,-3849.070898,-229.828649
972.019558,-10066.800811,-4811.338623,153.219100
972.019879,-9770.718434,-3701.029710,1072.533697
972.020200,-9696.697840,-3627.009116,1608.800546
972.020521,-9770.718434,-3478.967927,1762.019645
972.020842,-9474.636058,-3775.050304,1225.752797
972.021163,-9252.574275,-3552.988522,766.095498
972.021484,-8882.471304,-3849.070898,306.438199
972.021805,-8882.471304,-3701.029710,-76.609550
972.022127,-9104.533087,-3997.112087,-612.876398
972.022448,-8956.491898,-3775.050304,-1149.143247
972.022769,-9696.697840,-3478.967927,-842.705048
972.023090,-9770.718434,-3701.029710,-612.876398
972.023411,-10362.883188,-3775.050304,-612.876398
972.023732,-10140.821405,-3923.091493,689.485948
972.024053,-10658.965565,-3701.029710,76.609550
972.024374,-10214.842000,-3552.988522,612.876398
972.024695,-10214.842000,-3478.967927,1072.533697
972.025016,-9918.759623,-2738.761985,919.314598
972.025338,-9696.697840,-2442.679609,1302.362347
972.025659,-9474.636058,-1702.473667,1378.971896
972.025980,-9400.615463,-1406.391290,766.095498
972.026301,-9252.574275,-1480.411884,0.000000
972.026622,-9104.533087,-1776.494261,-1149.143247
972.026943,-8660.409521,-2146.597232,-2374.896044
972.027264,-8438.347739,-2072.576638,-3217.601092
972.027585,-9252.574275,-2220.617826,-3217.601092
972.027906,-9844.739029,-2294.638420,-3677.258390
972.028227,-10066.800811,-2590.720797,-4290.134789
972.028549,-10510.924376,-2368.659014,-4519.963438
972.028870,-9918.759623,-2072.576638,-4596.572988
972.029191,-9770.718434,-1702.473667,-3370.820191
972.029512,-9918.759623,-1776.494261,-2834.553343
972.029833,-9696.697840,-1110.308913,-2298.286494
972.030154,-9622.677246,-1332.370696,-2145.067394
972.030475,-8956.491898,-1110.308913,-2298.286494
972.030796,-9104.533087,-740.205942,-1762.019645
972.031117,-8586.388927,0.000000,-2221.676944
972.031438,-8882.471304,0.000000,-2068.457845
972.031759,-8290.306550,-740.205942,-2604.724693
972.032081,-9104.533087,-1554.432478,-2145.067394
972.032402,-9474.636058,-2664.741391,-2451.505594
972.032723,-10436.903782,-2442.679609,-1685.410096
972.033044,-10214.842000,-1776.494261,-1072.533697
972.033365,-11399.171507,-666.185348,153.219100
972.033686,-10807.006753,-444.123565,919.314598
972.034007,-11325.150913,-1480.411884,229.828649
972.034328,-10436.903782,-1480.411884,0.000000
972.034649,-9992.780217,-2072.576638,-689.485948
972.034970,-9326.594869,-2442.679609,689.485948
972.035292,-8660.409521,-2516.700203,-383.047749
972.035613,-8290.306550,-2516.700203,-1455.581446
972.035934,-8364.327145,-2220.617826,-1991.848295
972.036255,-8512.368333,-1480.411884,-1532.190996
972.036576,-9030.512492,-1184.329507,0.000000
972.036897,-10436.903782,-1332.370696,1378.971896
972.037218,-10955.047942,-1924.535449,2374.896044
972.037539,-11103.089130,-3108.864956,919.314598
972.037860,-9622.677246,-3330.926739,1455.581446
972.038181,-10140.821405,-3108.864956,1072.533697
972.038503,-10066.800811,-3182.885551,766.095498
972.038824,-9030.512492,-3034.844362,-383.047749
972.039145,-8734.430116,-2886.803174,-2374.896044
972.039466,-7994.224174,-1184.329507,-1072.533697
972.039787,-9326.594869,-1480.411884,459.657299
972.040108,-9178.553681,-2590.720797,1225.752797
972.040429,-9030.512492,-3923.091493,-919.314598
972.040750,-7402.059420,-2960.823768,-1225.752797
972.041071,-9474.636058,-5181.441594,-1378.971896
972.041392,-7550.100608,-3330.926739,-383.047749
972.041714,-10584.944971,-5329.482782,-1608.800546
972.042035,-8660.409521,-3330.926739,-3294.210641
972.042356,-9104.533087,-2516.700203,-3524.039291
972.042677,-10066.800811,-1628.453072,-1915.238745
972.042998,-10732.986159,-2590.720797,-2451.505594
972.043319,-9252.574275,-3404.947333,-4136.915689
972.043640,-8438.347739,-3923.091493,-3524.039291
972.043961,-8142.265362,-3330.926739,-3447.429741
972.044282,-10066.800811,-2886.803174,-1608.800546
972.044603,-10436.903782,-1776.494261,536.266849
972.044924,-10658.965565,-1184.329507,229.828649
972.045246,-10362.883188,-740.205942,153.219100
972.045567,-10658.965565,-1258.350101,-383.047749
972.045888,-9696.697840,-1628.453072,-1532.190996
972.046209,-9474.636058,-2072.576638,-2298.286494
972.046530,-8586.388927,-2664.741391,-3753.867940
972.046851,-7624.121203,-2590.720797,-4673.182538
972.047172,-9030.512492,-2294.638420,-3753.867940
972.047493,-10732.986159,-2516.700203,-2451.505594
972.047814,-10066.800811,-2886.803174,-1838.629195
972.048135,-11029.068536,-2368.659014,-2451.505594
972.048457,-11621.233289,-1332.370696,-2145.067394
972.048778,-10436.903782,-1184.329507,-1225.752797
972.049099,-10288.862594,-1924.535449,766.095498
972.049420,-10214.842000,-2146.597232,1685.410096
972.049741,-10658.965565,-3849.070898,1762.019645
972.050062,-9770.718434,-4367.215058,1302.362347
972.050383,-9030.512492,-3627.009116,919.314598
972.050704,-9030.512492,-1110.308913,689.485948
972.051025,-9178.553681,-148.041188,229.828649
972.051346,-7031.956449,-222.061783,0.000000
972.051668,-7550.100608,-1850.514855,-1991.848295
972.051989,-7698.141797,-3552.988522,-1608.800546
972.052310,-8808.450710,-4145.153275,-1455.581446
972.052631,-9252.574275,-2368.659014,1455.581446
972.052952,-12361.439231,-3849.070898,-612.876398
972.053273,-6217.729913,74.020594,1685.410096
972.053594,-11177.109724,-1480.411884,919.314598
972.053915,-9696.697840,-740.205942,2757.943793
972.054236,-9696.697840,-2738.761985,0.000000
972.054557,-10436.903782,-2368.659014,1838.629195
972.054877,-7402.059420,-4811.338623,-2757.943793
972.055198,-8512.368333,-2812.782580,-1149.143247
972.055519,-9030.512492,-1036.288319,766.095498
972.055839,-8586.388927,-592.164754,0.000000
972.056160,-9252.574275,-592.164754,-383.047749
972.056481,-9474.636058,-1480.411884,-306.438199
972.056801,-9918.759623,-2368.659014,-1991.848295
972.057122,-11843.295072,-1332.370696,0.000000
972.057443,-9918.759623,444.123565,1072.533697
972.057763,-10362.883188,444.123565,1149.143247
972.058084,-10955.047942,-1702.473667,-842.705048
972.058405,-9474.636058,-2220.617826,-2528.115143
972.058725,-9548.656652,-2220.617826,-2987.772442
972.059046,-9400.615463,-444.123565,-2451.505594
972.059367,-10436.903782,1110.308913,76.609550
972.059687,-10140.821405,444.123565,-459.657299
972.060008,-9400.615463,-740.205942,-1532.190996
972.060329,-9844.739029,-1110.308913,-1149.143247
972.060649,-9104.533087,-2146.597232,-1225.752797
972.060970,-10140.821405,-518.144159,536.266849
972.061291,-10436.903782,-518.144159,1455.581446
972.061611,-9252.574275,-1110.308913,229.828649
972.061932,-9992.780217,-1036.288319,229.828649
972.062253,-9548.656652,-666.185348,612.876398
972.062573,-9474.636058,-1184.329507,229.828649
972.062894,-9548.656652,444.123565,1455.581446
972.063215,-9696.697840,222.061783,76.609550
972.063535,-9178.553681,74.020594,76.609550
972.063856,-8956.491898,444.123565,612.876398
972.064177,-9104.533087,-148.041188,689.485948
972.064497,-8660.409521,296.082377,689.485948
972.064818,-9104.533087,518.144159,2221.676944
972.065139,-9474.636058,-296.082377,3753.867940
972.065459,-9104.533087,-2220.617826,2068.457845
972.065780,-9474.636058,-1554.432478,2604.724693
972.066101,-9252.574275,-1332.370696,2221.676944
972.066421,-8512.368333,-370.102971,1149.143247
972.066742,-9844.739029,222.061783,2374.896044
972.067063,-9326.594869,296.082377,1838.629195
972.067383,-8216.285956,1406.391290,-842.705048
972.067704,-10658.965565,-518.144159,1532.190996
972.068025,-10214.842000,-888.247130,1149.143247
972.068345,-9474.636058,296.082377,1225.752797
972.068666,-11251.130318,-740.205942,2987.772442
972.068987,-9104.533087,0.000000,2451.505594
972.069307,-10436.903782,-1850.514855,1915.238745
972.069628,-10584.944971,-888.247130,2221.676944
972.069949,-9178.553681,0.000000,2068.457845
972.070269,-10140.821405,-370.102971,3294.210641
972.070590,-9696.697840,962.267725,3370.820191
972.070911,-9918.759623,-666.185348,995.924147
972.071231,-9696.697840,0.000000,842.705048
972.071552,-9474.636058,-444.123565,2451.505594
972.071873,-9252.574275,0.000000,919.314598
972.072193,-10140.821405,296.082377,1302.362347
972.072514,-11399.171507,74.020594,1685.410096
972.072835,-8882.471304,0.000000,229.828649
972.073155,-10436.903782,-888.247130,153.219100
972.073476,-9918.759623,-148.041188,459.657299
972.073797,-9474.636058,0.000000,995.924147
972.074117,-11029.068536,-296.082377,1991.848295
972.074438,-9696.697840,-1110.308913,995.924147
972.074759,-9030.512492,-222.061783,-153.219100
972.075079,-9844.739029,-962.267725,612.876398
972.075400,-8586.388927,814.226536,536.266849
972.075721,-9400.615463,148.041188,1532.190996
972.076041,-9178.553681,-222.061783,689.485948
972.076362,-8586.388927,-1258.350101,-1072.533697
972.076683,-8882.471304,-1036.288319,-1378.971896
972.077003,-9622.677246,-1480.411884,-919.314598
972.077324,-8586.388927,-666.185348,0.000000
972.077645,-9474.636058,-296.082377,842.705048
972.077965,-9400.615463,-1184.329507,842.705048
972.078286,-9918.759623,-962.267725,612.876398
972.078607,-10584.944971,-1184.329507,1302.362347
972.078927,-9474.636058,-1332.370696,1072.533697
972.079248,-8956.491898,-962.267725,1225.752797
972.079569,-9178.553681,-370.102971,2221.676944
972.079889,-9844.739029,-1406.391290,2451.505594
972.080210,-8956.491898,-1036.288319,306.438199
972.080531,-9622.677246,-666.185348,0.000000
972.080851,-9252.574275,74.020594,612.876398
972.081172,-9400.615463,222.061783,689.485948
972.081493,-10362.883188,-296.082377,1225.752797
972.081813,-9400.615463,0.000000,306.438199
972.082134,-9474.636058,-1258.350101,-995.924147
972.082455,-10140.821405,-296.082377,306.438199
972.082775,-9474.636058,740.205942,1532.190996
972.083096,-10881.027347,1554.432478,2451.505594
972.083417,-12139.377449,518.144159,3370.820191
972.083737,-9992.780217,-1332.370696,1149.143247
972.084058,-10732.986159,-888.247130,689.485948
972.084379,-10214.842000,-1480.411884,1225.752797
972.084699,-9400.615463,-222.061783,2374.896044
972.085020,-10362.883188,740.205942,2987.772442
972.085341,-9178.553681,888.247130,1608.800546
972.085661,-9030.512492,888.247130,0.000000
972.085982,-10732.986159,74.020594,842.705048
972.086303,-8438.347739,1036.288319,1685.410096
972.086623,-9844.739029,0.000000,1685.410096
972.086944,-10436.903782,0.000000,2681.334243
972.087265,-8808.450710,-1702.473667,1225.752797
972.087585,-10510.924376,-888.247130,1532.190996
972.087906,-9992.780217,-962.267725,2221.676944
972.088227,-8142.265362,-148.041188,229.828649
972.088547,-9548.656652,296.082377,1991.848295
972.088868,-8882.471304,-370.102971,1608.800546
972.089189,-8586.388927,-148.041188,612.876398
972.089509,-9178.553681,-1776.494261,919.314598
972.089830,-8586.388927,-518.144159,459.657299
972.090151,-7920.203579,814.226536,2145.067394
972.090471,-10436.903782,-296.082377,2604.724693
972.090792,-8586.388927,222.061783,1608.800546
972.091113,-8956.491898,-1258.350101,-459.657299
972.091433,-9474.636058,-1554.432478,76.609550
972.091754,-10584.944971,814.226536,1455.581446
972.092075,-11325.150913,1332.370696,4136.915689
972.092395,-11769.274478,740.205942,3677.258390
972.092716,-10658.965565,0.000000,1991.848295
972.093037,-9918.759623,-888.247130,-919.314598
972.093357,-9104.533087,-296.082377,-1608.800546
972.093678,-6809.894666,1628.453072,-1685.410096
972.093999,-8734.430116,1628.453072,-306.438199
972.094319,-8438.347739,-518.144159,-842.705048
972.094640,-8216.285956,0.000000,-1302.362347
972.094961,-11547.212695,-1406.391290,0.000000
972.095281,-11843.295072,-296.082377,2987.772442
972.095602,-10584.944971,0.000000,2911.162892
972.095923,-11843.295072,-222.061783,3064.381992
972.096243,-9696.697840,-666.185348,1225.752797
972.096564,-8586.388927,-1332.370696,76.609550
972.096885,-10066.800811,-2368.659014,-153.219100
972.097205,-8364.327145,-1628.453072,-919.314598
972.097526,-8660.409521,-296.082377,0.000000
972.097847,-10955.047942,-1110.308913,1532.190996
972.098167,-9474.636058,-666.185348,306.438199
972.098488,-10214.842000,-1406.391290,459.657299
972.098809,-9918.759623,-1332.370696,536.266849
972.099129,-8586.388927,-518.144159,0.000000
972.099450,-10066.800811,444.123565,1455.581446
972.099771,-9548.656652,518.144159,1455.581446
972.100091,-8438.347739,1184.329507,0.000000
972.100412,-10658.965565,444.123565,766.095498
972.100733,-8808.450710,-222.061783,1608.800546
972.101053,-8216.285956,740.205942,995.924147
972.101374,-10436.903782,-518.144159,2068.457845
972.101695,-8956.491898,-740.205942,995.924147
972.102015,-10214.842000,-1110.308913,842.705048
972.102336,-9622.677246,-444.123565,766.095498
972.102657,-8364.327145,148.041188,842.705048
972.102977,-9400.615463,0.000000,1915.238745
972.103298,-9326.594869,-1332.370696,1838.629195
972.103619,-8438.347739,-1332.370696,766.095498
972.103939,-9474.636058,-518.144159,612.876398
972.104260,-9918.759623,-740.205942,1915.238745
972.104581,-10658.965565,-518.144159,2604.724693
972.104901,-9622.677246,518.144159,3677.258390
972.105222,-9770.718434,-1554.432478,2834.553343
972.105543,-9030.512492,-2368.659014,383.047749
972.105863,-10066.800811,-740.205942,612.876398
972.106184,-9474.636058,370.102971,0.000000
972.106505,-9030.512492,1850.514855,995.924147
972.106825,-9844.739029,1998.556043,2604.724693
972.107146,-9030.512492,518.144159,1072.533697
972.107467,-9548.656652,-666.185348,306.438199
972.107787,-10436.903782,-888.247130,1762.019645
972.108108,-9918.759623,-666.185348,2298.286494
972.108429,-10066.800811,444.123565,3140.991542
972.108749,-11251.130318,-888.247130,3830.477490
972.109070,-9622.677246,-1110.308913,1378.971896
972.109391,-10955.047942,-444.123565,1378.971896
972.109711,-9992.780217,148.041188,1685.410096
972.110032,-8808.450710,148.041188,766.095498
972.110353,-9696.697840,296.082377,1838.629195
972.110673,-8216.285956,-1258.350101,-1225.752797
972.110994,-7920.203579,-296.082377,-2528.115143
972.111315,-9400.615463,-222.061783,-842.705048
972.111635,-8364.327145,444.123565,383.047749
972.111956,-9992.780217,1184.329507,2145.067394
972.112277,-10955.047942,0.000000,2298.286494
972.112597,-10140.821405,-1036.288319,1302.362347
972.112918,-10436.903782,-1628.453072,612.876398
972.113239,-10140.821405,-1258.350101,1378.971896
972.113559,-8956.491898,-370.102971,1302.362347
972.113880,-9104.533087,-370.102971,1455.581446
972.114201,-9252.574275,-1110.308913,0.000000
972.114521,-8808.450710,0.000000,1685.410096
972.114842,-9696.697840,-962.267725,-459.657299
972.115163,-9548.656652,-222.061783,612.876398
972.115483,-9696.697840,222.061783,1225.752797
972.115804,-10658.965565,0.000000,2374.896044
972.116125,-10510.924376,-1480.411884,2451.505594
972.116445,-9400.615463,-1776.494261,612.876398
972.116766,-10881.027347,-1332.370696,536.266849
972.117087,-9104.533087,222.061783,689.485948
972.117407,-7624.121203,1554.432478,2068.457845
972.117728,-9992.780217,0.000000,1225.752797
972.118049,-8882.471304,-740.205942,0.000000
972.118369,-9326.594869,-1628.453072,-459.657299
972.118690,-10881.027347,-1332.370696,459.657299
972.119011,-9326.594869,518.144159,2221.676944
972.119331,-10955.047942,740.205942,4366.744339
972.119652,-11029.068536,-666.185348,3447.429741
972.119973,-9696.697840,-1406.391290,612.876398
972.120293,-9844.739029,-1184.329507,536.266849
972.120614,-9622.677246,-444.123565,919.314598
972.120935,-8586.388927,592.164754,1149.143247
972.121255,-9918.759623,888.247130,2221.676944
972.121576,-9918.759623,444.123565,536.266849
972.121897,-9696.697840,370.102971,766.095498
972.122217,-10955.047942,-74.020594,1991.848295
972.122538,-9474.636058,148.041188,1991.848295
972.122859,-9104.533087,222.061783,689.485948
972.123179,-9918.759623,-666.185348,1302.362347
972.123500,-7105.977043,-962.267725,-919.314598
972.123821,-8068.244768,-740.205942,-1378.971896
972.124141,-9252.574275,370.102971,306.438199
972.124462,-9400.615463,444.123565,1455.581446
972.124783,-10140.821405,814.226536,2987.772442
972.125103,-11029.068536,-1480.411884,3064.381992
972.125424,-9178.553681,-2442.679609,1455.581446
972.125745,-10140.821405,-2664.741391,1225.752797
972.126065,-9696.697840,0.000000,1455.581446
972.126386,-8290.306550,1480.411884,1378.971896
972.126707,-9326.594869,148.041188,2145.067394
972.127027,-7179.997637,-444.123565,2068.457845
972.127348,-8364.327145,-1480.411884,-1838.629195
972.127669,-9992.780217,-518.144159,-612.876398
972.127989,-8882.471304,1184.329507,1455.581446
972.128310,-9696.697840,1554.432478,1302.362347
972.128631,-11029.068536,888.247130,2528.115143
972.128951,-10214.842000,0.000000,1225.752797
972.129272,-9770.718434,-740.205942,1225.752797
972.129593,-11103.089130,-1258.350101,1378.971896
972.129913,-9548.656652,-148.041188,2528.115143
972.130234,-10732.986159,-444.123565,1532.190996
972.130555,-10288.862594,148.041188,1302.362347
972.130875,-9252.574275,-666.185348,-689.485948
972.131196,-9844.739029,-666.185348,0.000000
972.131517,-10436.903782,-888.247130,919.314598
972.131837,-10066.800811,222.061783,1991.848295
972.132158,-11547.212695,-888.247130,2681.334243
972.132479,-8808.450710,-2146.597232,-306.438199
972.132799,-8808.450710,-518.144159,-2221.676944
972.133120,-10288.862594,148.041188,-1378.971896
972.133441,-7328.038826,222.061783,-459.657299
972.133761,-7550.100608,962.267725,383.047749
972.134082,-9252.574275,-1998.556043,2145.067394
972.134403,-7179.997637,-3182.885551,-995.924147
972.134723,-11473.192101,-2294.638420,1149.143247
972.135044,-11399.171507,518.144159,2757.943793
972.135365,-10584.944971,1998.556043,3370.820191
972.135685,-11103.089130,1776.494261,4749.792088
972.136006,-9770.718434,0.000000,2604.724693
972.136327,-8512.368333,-888.247130,383.047749
972.136647,-9992.780217,-1406.391290,0.000000
972.136968,-7994.224174,740.205942,-229.828649
972.137289,-7476.080014,2368.659014,612.876398
972.137609,-9918.759623,740.205942,2221.676944
972.137930,-8068.244768,0.000000,1378.971896
972.138251,-9622.677246,-888.247130,1455.581446
972.138571,-10214.842000,1110.308913,3140.991542
972.138892,-10362.883188,-592.164754,0.000000
972.139213,-5921.647536,1406.391290,2145.067394
972.139533,-11843.295072,-222.061783,1762.019645
972.139854,-6883.915261,444.123565,1225.752797
972.140175,-7846.182985,-2072.576638,-995.924147
972.140495,-11695.253884,-444.123565,2451.505594
972.140816,-7402.059420,-1110.308913,-1455.581446
972.141137,-11177.109724,-592.164754,2911.162892
972.141457,-9844.739029,0.000000,4366.744339
972.141778,-9696.697840,-1332.370696,0.000000
972.142099,-11621.233289,-1480.411884,1915.238745
972.142419,-9918.759623,-1406.391290,1072.533697
972.142740,-7328.038826,0.000000,-383.047749
972.143061,-12139.377449,0.000000,2604.724693
972.143381,-7846.182985,222.061783,229.828649
972.143702,-9104.533087,1036.288319,-459.657299
972.144023,-11103.089130,814.226536,689.485948
972.144343,-8660.409521,1184.329507,1072.533697
972.144664,-10732.986159,518.144159,2911.162892
972.144985,-11917.315666,-1702.473667,3524.039291
972.145305,-9104.533087,-1924.535449,383.047749
972.145626,-10584.944971,-2368.659014,459.657299
972.145947,-9918.759623,740.205942,1838.629195
972.146267,-9696.697840,2886.803174,1838.629195
972.146588,-8882.471304,2516.700203,3677.258390
972.146909,-9992.780217,222.061783,1072.533697
972.147229,-7328.038826,-888.247130,-1225.752797
972.147550,-10140.821405,-3552.988522,-1225.752797
972.147871,-9400.615463,-1332.370696,1072.533697
972.148191,-8660.409521,1036.288319,1072.533697
972.148512,-11103.089130,666.185348,2987.772442
972.148833,-9474.636058,-370.102971,2374.896044
972.149153,-9326.594869,-1628.453072,536.266849
972.149474,-11251.130318,-2146.597232,1608.800546
972.149795,-9178.553681,-1554.432478,919.314598
972.150115,-8734.430116,-592.164754,1225.752797
972.150436,-9030.512492,-1776.494261,0.000000
972.150757,-6957.935855,-296.082377,-1455.581446
972.151077,-8512.368333,-592.164754,-1762.019645
972.151398,-9326.594869,-518.144159,689.485948
972.151719,-8808.450710,370.102971,1532.190996
972.152039,-11251.130318,-592.164754,2681.334243
972.152360,-10955.047942,-2590.720797,2298.286494
972.152681,-9252.574275,-1776.494261,536.266849
972.153001,-11029.068536,-1776.494261,1149.143247
972.153322,-9252.574275,-592.164754,1532.190996
972.153643,-8586.388927,222.061783,919.314598
972.153963,-9770.718434,0.000000,995.924147
972.154284,-9474.636058,-444.123565,-536.266849
972.154605,-9178.553681,74.020594,-766.095498
972.154926,-10066.800811,-296.082377,612.876398
972.155246,-9400.615463,-444.123565,1378.971896
972.155567,-9770.718434,-888.247130,1532.190996
972.155888,-11251.130318,-1998.556043,2681.334243
972.156208,-9474.636058,-888.247130,383.047749
972.156529,-10881.027347,0.000000,1378.971896
972.156850,-11029.068536,740.205942,2298.286494
972.157170,-8956.491898,1776.494261,1072.533697
972.157491,-10066.800811,1184.329507,1685.410096
972.157812,-9252.574275,-296.082377,1225.752797
972.158133,-8734.430116,-592.164754,306.438199
972.158453,-11325.150913,-296.082377,1072.533697
972.158774,-9400.615463,74.020594,1608.800546
972.159095,-9474.636058,296.082377,-1378.971896
972.159415,-10214.842000,148.041188,2221.676944
972.159736,-9252.574275,-370.102971,1072.533697
972.160057,-9252.574275,-296.082377,0.000000
972.160377,-9770.718434,-222.061783,995.924147
972.160698,-8364.327145,370.102971,995.924147
972.161019,-9474.636058,444.123565,2604.724693
972.161340,-10066.800811,0.000000,2911.162892
972.161660,-9474.636058,-888.247130,1608.800546
972.161981,-9474.636058,-1480.411884,1149.143247
972.162302,-9400.615463,-1702.473667,1225.752797
972.162622,-7994.224174,666.185348,1072.533697
972.162943,-9252.574275,148.041188,919.314598
972.163264,-8142.265362,-1258.350101,-842.705048
972.163584,-6291.750507,518.144159,-2374.896044
972.163905,-9030.512492,0.000000,-612.876398
972.164226,-9992.780217,1036.288319,1608.800546
972.164547,-10732.986159,888.247130,4213.525239
972.164867,-12435.459826,-1258.350101,4903.011187
972.165188,-10288.862594,-1702.473667,2374.896044
972.165509,-10955.047942,-1554.432478,1072.533697
972.165829,-10436.903782,-888.247130,1838.629195
972.166150,-8438.347739,888.247130,1378.971896
972.166471,-8734.430116,2072.576638,1149.143247
972.166791,-8882.471304,222.061783,536.266849
972.167112,-7698.141797,-888.247130,-2681.334243
972.167433,-8808.450710,-1184.329507,-612.876398
972.167754,-10066.800811,74.020594,536.266849
972.168074,-9696.697840,814.226536,1991.848295
972.168395,-11325.150913,0.000000,3217.601092
972.168716,-11177.109724,-1998.556043,1838.629195
972.169036,-9548.656652,-1628.453072,383.047749
972.169357,-11029.068536,-2442.679609,229.828649
972.169678,-9178.553681,-888.247130,0.000000
972.169998,-9548.656652,1110.308913,383.047749
972.170319,-10362.883188,888.247130,1072.533697
972.170640,-9252.574275,0.000000,0.000000
972.170961,-9326.594869,-592.164754,-383.047749
972.171281,-10658.965565,-962.267725,612.876398
972.171602,-9770.718434,-740.205942,1762.019645
972.171923,-10362.883188,-592.164754,2451.505594
972.172243,-10066.800811,-740.205942,2145.067394
972.172564,-8956.491898,-888.247130,229.828649
972.172885,-10140.821405,-888.247130,1608.800546
972.173205,-9474.636058,0.000000,1455.581446
972.173526,-9178.553681,74.020594,1072.533697
972.173847,-9474.636058,74.020594,1991.848295
972.174167,-8734.430116,-888.247130,1072.533697
972.174488,-8364.327145,-1332.370696,0.000000
972.174809,-9622.677246,-148.041188,995.924147
972.175130,-8660.409521,444.123565,1072.533697
972.175450,-8734.430116,-148.041188,2068.457845
972.175771,-10140.821405,-666.185348,1302.362347
972.176092,-8142.265362,-222.061783,689.485948
972.176412,-10584.944971,-1850.514855,612.876398
972.176733,-9992.780217,-814.226536,2451.505594
972.177054,-9770.718434,370.102971,2145.067394
972.177374,-11325.150913,-592.164754,3677.258390
972.177695,-8660.409521,-370.102971,1685.410096
972.178016,-9030.512492,-666.185348,153.219100
972.178337,-7920.203579,-962.267725,-1991.848295
972.178657,-8734.430116,888.247130,-229.828649
972.178978,-7846.182985,740.205942,-612.876398
972.179299,-9400.615463,518.144159,919.314598
972.179619,-9992.780217,-370.102971,766.095498
972.179940,-11029.068536,-1406.391290,3600.648841
972.180261,-12657.521608,-1628.453072,4903.011187
972.180581,-11843.295072,-592.164754,4519.963438
972.180902,-10955.047942,1036.288319,3983.696590
972.181223,-11991.336260,0.000000,4826.401637
972.181544,-8216.285956,0.000000,0.000000
972.181864,-8068.244768,0.000000,-1378.971896
972.182185,-7994.224174,-888.247130,-1838.629195
972.182506,-6217.729913,888.247130,-2451.505594
972.182826,-11029.068536,740.205942,1072.533697
972.183147,-10362.883188,-222.061783,2068.457845
972.183468,-10066.800811,296.082377,1072.533697
972.183788,-11769.274478,-222.061783,2757.943793
972.184109,-9474.636058,0.000000,1302.362347
972.184430,-9326.594869,1406.391290,995.924147
972.184751,-11399.171507,-518.144159,2451.505594
972.185071,-7105.977043,0.000000,-383.047749
972.185392,-8808.450710,-666.185348,-919.314598
972.185713,-9400.615463,-1036.288319,-612.876398
972.186033,-8216.285956,-148.041188,-306.438199
972.186354,-9400.615463,-444.123565,766.095498
972.186675,-10362.883188,-740.205942,1762.019645
972.186995,-9252.574275,-1332.370696,689.485948
972.187316,-10436.903782,-1776.494261,842.705048
972.187637,-10288.862594,-1110.308913,1838.629195
972.187958,-8956.491898,-296.082377,1608.800546
972.188278,-10214.842000,0.000000,3140.991542
972.188599,-8882.471304,0.000000,1838.629195
972.188920,-8660.409521,-1850.514855,-1608.800546
972.189240,-9770.718434,-74.020594,-383.047749
972.189561,-9548.656652,592.164754,383.047749
972.189882,-8956.491898,666.185348,1072.533697
972.190202,-11547.212695,-740.205942,2298.286494
972.190523,-9696.697840,-1628.453072,919.314598
972.190844,-9400.615463,-1850.514855,-612.876398
972.191165,-10288.862594,-1258.350101,459.657299
972.191485,-8586.388927,666.185348,1149.143247
972.191806,-10214.842000,1036.288319,1685.410096
972.192127,-10807.006753,518.144159,2757.943793
972.192447,-8216.285956,-1036.288319,383.047749
972.192768,-10436.903782,-2368.659014,153.219100
972.193089,-10584.944971,-1406.391290,1608.800546
972.193409,-9548.656652,-148.041188,1532.190996
972.193730,-10140.821405,-148.041188,1838.629195
972.194051,-9474.636058,370.102971,1378.971896
972.194372,-9770.718434,666.185348,229.828649
972.194692,-10584.944971,444.123565,1378.971896
972.195013,-9548.656652,148.041188,1225.752797
972.195334,-8586.388927,888.247130,1608.800546
972.195654,-11103.089130,0.000000,2681.334243
972.195975,-9474.636058,-1258.350101,2298.286494
972.196296,-9474.636058,-1628.453072,842.705048
972.196616,-9400.615463,-962.267725,2145.067394
972.196937,-8586.388927,74.020594,995.924147
972.197258,-9622.677246,740.205942,1991.848295
972.197579,-9992.780217,-370.102971,1991.848295
972.197899,-8142.265362,-296.082377,919.314598
972.198220,-9252.574275,-1776.494261,229.828649
972.198541,-9104.533087,-962.267725,1225.752797
972.198861,-8808.450710,222.061783,1302.362347
972.199182,-10362.883188,148.041188,2834.553343
972.199503,-9400.615463,-592.164754,2068.457845
972.199823,-8586.388927,-740.205942,153.219100
972.200144,-9992.780217,-1184.329507,0.000000
972.200465,-9104.533087,222.061783,153.219100
972.200786,-9474.636058,1110.308913,919.314598
972.201106,-9474.636058,148.041188,1072.533697
972.201427,-8808.450710,-1110.308913,-689.485948
972.201748,-9548.656652,-740.205942,-153.219100
972.202068,-10140.821405,-1258.350101,842.705048
972.202389,-9400.615463,-296.082377,1378.971896
972.202710,-10510.924376,370.102971,2834.553343
972.203030,-11029.068536,-666.185348,2068.457845
972.203351,-9474.636058,-962.267725,0.000000
972.203672,-10510.924376,-2146.597232,-383.047749
972.203993,-8586.388927,-518.144159,-1149.143247
972.204313,-8364.327145,-370.102971,-1838.629195
972.204634,-9548.656652,1036.288319,-306.438199
972.204955,-9178.553681,222.061783,-1072.533697
972.205275,-9178.553681,-222.061783,-1072.533697
972.205596,-10807.006753,-518.144159,612.876398
972.205917,-10807.006753,-1110.308913,2374.896044
972.206237,-11251.130318,-74.020594,5132.839837
972.206558,-12139.377449,-1110.308913,4903.011187
972.206879,-10436.903782,-1850.514855,3064.381992
972.207199,-9770.718434,-2146.597232,1532.190996
972.207520,-9326.594869,-962.267725,-229.828649
972.207841,-9178.553681,814.226536,536.266849
972.208162,-8882.471304,888.247130,536.266849
972.208482,-9474.636058,962.267725,536.266849
972.208803,-8586.388927,444.123565,-383.047749
972.209124,-9918.759623,888.247130,919.314598
972.209444,-10436.903782,888.247130,2681.334243
972.209765,-10658.965565,444.123565,3370.820191
972.210086,-10584.944971,-148.041188,3753.867940
972.210406,-10288.862594,-1406.391290,2604.724693
972.210727,-9178.553681,-888.247130,995.924147
972.211048,-10362.883188,370.102971,1685.410096
972.211369,-8808.450710,888.247130,1302.362347
972.211689,-7328.038826,666.185348,995.924147
972.212010,-9326.594869,-1332.370696,1225.752797
972.212331,-7772.162391,-1480.411884,-229.828649
972.212651,-9474.636058,-2220.617826,306.438199
972.212972,-9548.656652,-1776.494261,1762.019645
972.213293,-8216.285956,-444.123565,2834.553343
972.213613,-11251.130318,592.164754,4290.134789
972.213934,-10955.047942,-444.123565,3753.867940
972.214255,-9252.574275,-888.247130,1378.971896
972.214576,-10066.800811,-1924.535449,-842.705048
972.214896,-8660.409521,370.102971,0.000000
972.215217,-8660.409521,296.082377,383.047749
972.215538,-8586.388927,1628.453072,766.095498
972.215858,-8142.265362,592.164754,0.000000
972.216179,-8290.306550,740.205942,-919.314598
972.216500,-9844.739029,0.000000,766.095498
972.216820,-9770.718434,74.020594,1532.190996
972.217141,-10584.944971,0.000000,2681.334243
972.217462,-11473.192101,-1628.453072,3294.210641
972.217783,-9918.759623,-1850.514855,919.314598
972.218103,-10658.965565,-1110.308913,689.485948
972.218424,-11621.233289,370.102971,1838.629195
972.218745,-8586.388927,1924.535449,153.219100
972.219065,-9326.594869,1110.308913,-612.876398
972.219386,-8068.244768,222.061783,-2374.896044
972.219707,-7328.038826,-296.082377,-3907.087040
972.220027,-9548.656652,296.082377,-2068.457845
972.220348,-8586.388927,370.102971,-306.438199
972.220669,-10510.924376,592.164754,2451.505594
972.220990,-12583.501014,74.020594,4519.963438
972.221310,-12213.398043,-1776.494261,3753.867940
972.221631,-11325.150913,-518.144159,2834.553343
972.221952,-11695.253884,-1554.432478,2451.505594
972.222272,-8660.409521,0.000000,-153.219100
972.222593,-7698.141797,666.185348,76.609550
972.222914,-8068.244768,-222.061783,-612.876398
972.223234,-7105.977043,-592.164754,-1532.190996
972.223555,-8660.409521,-2590.720797,-1378.971896
972.223876,-9474.636058,-2516.700203,0.000000
972.224197,-9696.697840,-1776.494261,1072.533697
972.224517,-11177.109724,-740.205942,4213.525239
972.224838,-11399.171507,-1184.329507,4290.134789
972.225159,-9326.594869,-1702.473667,2068.457845
972.225479,-9770.718434,-1776.494261,1455.581446
972.225800,-9326.594869,-1184.329507,1838.629195
972.226121,-7846.182985,-1406.391290,1378.971896
972.226441,-9104.533087,-1258.350101,1838.629195
972.226762,-7698.141797,-1480.411884,0.000000
972.227083,-7698.141797,-1036.288319,-1149.143247
972.227404,-10066.800811,-888.247130,1302.362347
972.227724,-8808.450710,-148.041188,1838.629195
972.228045,-9844.739029,1110.308913,2528.115143
972.228366,-11843.295072,0.000000,4290.134789
972.228686,-9622.677246,74.020594,1991.848295
972.229007,-11177.109724,444.123565,1532.190996
972.229328,-9844.739029,0.000000,1455.581446
972.229648,-8586.388927,296.082377,459.657299
972.229969,-8882.471304,740.205942,459.657299
972.230290,-8956.491898,-740.205942,1149.143247
972.230611,-7994.224174,-444.123565,-842.705048
972.230931,-10214.842000,1184.329507,995.924147
972.231252,-11029.068536,148.041188,1149.143247
972.231573,-8956.491898,2516.700203,612.876398
972.231893,-11621.233289,1850.514855,2681.334243
972.232214,-9474.636058,0.000000,1378.971896
972.232535,-9622.677246,-962.267725,459.657299
972.232855,-11029.068536,-1850.514855,1302.362347
972.233176,-8882.471304,-1184.329507,919.314598
972.233497,-8808.450710,962.267725,995.924147
972.233818,-10584.944971,518.144159,2374.896044
972.234138,-9030.512492,0.000000,919.314598
972.234459,-10362.883188,-370.102971,1762.019645
972.234780,-9622.677246,-592.164754,766.095498
972.235100,-8512.368333,222.061783,1149.143247
972.235421,-10584.944971,0.000000,2528.115143
972.235742,-9400.615463,-222.061783,1608.800546
972.236062,-7920.203579,-148.041188,-536.266849
972.236383,-9400.615463,-444.123565,-1225.752797
972.236704,-8216.285956,1110.308913,842.705048
972.237025,-8956.491898,444.123565,1302.362347
972.237345,-11177.109724,-222.061783,1915.238745
972.237666,-9770.718434,-740.205942,1455.581446
972.237987,-9252.574275,-1332.370696,0.000000
972.238307,-10658.965565,-592.164754,1762.019645
972.238628,-9474.636058,888.247130,1838.629195
972.238949,-9548.656652,444.123565,2298.286494
972.239269,-9844.739029,-888.247130,1302.362347
972.239590,-8216.285956,-1702.473667,-536.266849
972.239911,-9770.718434,-2294.638420,-689.485948
972.240231,-9844.739029,-1480.411884,0.000000
972.240552,-8290.306550,666.185348,612.876398
972.240873,-10658.965565,962.267725,1762.019645
972.241194,-9844.739029,592.164754,1838.629195
972.241514,-9918.759623,-222.061783,766.095498
972.241835,-10955.047942,-1776.494261,842.705048
972.242156,-9474.636058,-1554.432478,229.828649
972.242476,-9770.718434,-592.164754,1455.581446
972.242797,-10214.842000,-1628.453072,1149.143247
972.243118,-9474.636058,-962.267725,1378.971896
972.243438,-9622.677246,-1554.432478,919.314598
972.243759,-9992.780217,-592.164754,1225.752797
972.244080,-9548.656652,148.041188,383.047749
972.244401,-10288.862594,814.226536,2757.943793
972.244721,-10955.047942,-1184.329507,1455.581446
972.245042,-8660.409521,-740.205942,-1455.581446
972.245363,-9178.553681,-740.205942,-2068.457845
972.245683,-8364.327145,666.185348,-1762.019645
972.246004,-7698.141797,1924.535449,-1455.581446
972.246325,-9844.739029,2294.638420,919.314598
972.246645,-10140.821405,1184.329507,1608.800546
972.246966,-10436.903782,-1776.494261,1378.971896
972.247287,-11547.212695,-1776.494261,2298.286494
972.247608,-11103.089130,-2220.617826,2298.286494
972.247928,-9770.718434,-370.102971,2757.943793
972.248249,-10807.006753,-74.020594,4366.744339
972.248570,-7920.203579,-592.164754,995.924147
972.248890,-7698.141797,-1184.329507,-766.095498
972.249211,-7772.162391,-1850.514855,-1532.190996
972.249532,-7772.162391,888.247130,-536.266849
972.249852,-7846.182985,2886.803174,2068.457845
972.250173,-10955.047942,0.000000,2987.772442
972.250494,-7328.038826,-666.185348,2374.896044
972.250815,-10881.027347,-3330.926739,1225.752797
972.251135,-10140.821405,-444.123565,3677.258390
972.251456,-9992.780217,-518.144159,2681.334243
972.251777,-9918.759623,1110.308913,4136.915689
972.252097,-9178.553681,740.205942,1762.019645
972.252418,-8438.347739,962.267725,1532.190996
972.252739,-9400.615463,148.041188,459.657299
972.253060,-8586.388927,0.000000,919.314598
972.253380,-9474.636058,-222.061783,1915.238745
972.253701,-10436.903782,-1332.370696,3064.381992
972.254022,-9326.594869,-1110.308913,2298.286494
972.254343,-10066.800811,-296.082377,1225.752797
972.254663,-11399.171507,518.144159,2451.505594
972.254984,-9992.780217,1776.494261,3140.991542
972.255305,-10807.006753,1036.288319,2757.943793
972.255626,-10584.944971,74.020594,1455.581446
972.255946,-8660.409521,-222.061783,-689.485948
972.256267,-9770.718434,-296.082377,-459.657299
972.256588,-9474.636058,1110.308913,-383.047749
972.256909,-8882.471304,1406.391290,459.657299
972.257229,-10362.883188,1776.494261,1532.190996
972.257550,-10584.944971,0.000000,1455.581446
972.257871,-9326.594869,-1110.308913,-229.828649
972.258192,-11769.274478,-1702.473667,383.047749
972.258512,-9918.759623,-1036.288319,459.657299
972.258833,-9622.677246,-1036.288319,536.266849
972.259154,-10955.047942,-1184.329507,1455.581446
972.259475,-8586.388927,518.144159,612.876398
972.259795,-10288.862594,-1776.494261,-766.095498
972.260116,-9178.553681,-518.144159,-919.314598
972.260437,-7105.977043,-370.102971,-2298.286494
972.260758,-8956.491898,0.000000,-153.219100
972.261078,-8882.471304,-1332.370696,536.266849
972.261399,-8512.368333,-1628.453072,229.828649
972.261720,-10955.047942,-2294.638420,1225.752797
972.262041,-9696.697840,-1258.350101,1532.190996
972.262361,-11251.130318,-518.144159,3294.210641
972.262682,-10732.986159,-1332.370696,2451.505594
972.263003,-9178.553681,0.000000,0.000000
972.263324,-7328.038826,0.000000,-1149.143247
972.263644,-7031.956449,-666.185348,-1455.581446
972.263965,-7254.018232,-1110.308913,-229.828649
972.264286,-8290.306550,-1554.432478,0.000000
972.264607,-9474.636058,-2072.576638,1455.581446
972.264928,-9252.574275,-1332.370696,612.876398
972.265248,-10955.047942,592.164754,1225.752797
972.265569,-11843.295072,592.164754,2757.943793
972.265890,-9030.512492,1258.350101,2221.676944
972.266211,-9474.636058,0.000000,1838.629195
972.266531,-10658.965565,-444.123565,459.657299
972.266852,-8882.471304,-1036.288319,306.438199
972.267173,-10510.924376,-1036.288319,1608.800546
972.267494,-9474.636058,0.000000,1915.238745
972.267814,-8734.430116,1998.556043,-76.609550
972.268135,-11621.233289,1998.556043,3677.258390
972.268456,-10288.862594,444.123565,2911.162892
972.268777,-11399.171507,-888.247130,2068.457845
972.269097,-10658.965565,-1924.535449,1991.848295
972.269418,-9474.636058,-740.205942,919.314598
972.269739,-10214.842000,0.000000,2298.286494
972.270060,-10066.800811,74.020594,3064.381992
972.270380,-8586.388927,222.061783,1685.410096
972.270701,-8660.409521,-370.102971,1455.581446
972.271022,-10214.842000,148.041188,1915.238745
972.271343,-9622.677246,1776.494261,2451.505594
972.271663,-11103.089130,0.000000,3447.429741
972.271984,-9696.697840,-518.144159,1532.190996
972.272305,-8438.347739,-1332.370696,536.266849
972.272626,-10066.800811,-1776.494261,0.000000
972.272946,-9178.553681,-148.041188,919.314598
972.273267,-8734.430116,-370.102971,536.266849
972.273588,-9548.656652,74.020594,1455.581446
972.273909,-9844.739029,148.041188,1608.800546
972.274229,-10362.883188,0.000000,842.705048
972.274550,-10066.800811,370.102971,2145.067394
972.274871,-9326.594869,0.000000,76.609550
972.275192,-7846.182985,-296.082377,536.266849
972.275512,-8956.491898,-1998.556043,0.000000
972.275833,-7328.038826,-1332.370696,-1991.848295
972.276154,-9104.533087,-814.226536,-2374.896044
972.276475,-8438.347739,222.061783,-1378.971896
972.276796,-7772.162391,1702.473667,0.000000
972.277116,-10955.047942,1110.308913,2221.676944
972.277437,-11325.150913,-1184.329507,2451.505594
972.277758,-9474.636058,-1850.514855,612.876398
972.278079,-11399.171507,-2960.823768,459.657299
972.278399,-9622.677246,-444.123565,306.438199
972.278720,-9474.636058,1998.556043,1455.581446
972.279041,-11621.233289,1702.473667,2298.286494
972.279362,-8956.491898,-222.061783,153.219100
972.279682,-8882.471304,-2368.659014,-2145.067394
972.280003,-10807.006753,-2294.638420,-689.485948
972.280324,-9104.533087,-666.185348,459.657299
972.280645,-10066.800811,296.082377,1685.410096
972.280965,-10362.883188,370.102971,2604.724693
972.281286,-9178.553681,518.144159,1149.143247
972.281607,-11473.192101,-444.123565,1378.971896
972.281928,-11325.150913,0.000000,2374.896044
972.282248,-9622.677246,1110.308913,1991.848295
972.282569,-10732.986159,1258.350101,2911.162892
972.282890,-10362.883188,0.000000,1838.629195
972.283211,-8142.265362,-1110.308913,1608.800546
972.283531,-9770.718434,-1332.370696,383.047749
972.283852,-9252.574275,-1036.288319,612.876398
972.284173,-9178.553681,0.000000,1838.629195
972.284494,-11547.212695,-814.226536,2911.162892
972.284814,-9178.553681,-888.247130,1225.752797
972.285135,-9548.656652,-888.247130,1225.752797
972.285456,-10362.883188,-1110.308913,1991.848295
972.285777,-8216.285956,666.185348,2604.724693
972.286097,-9548.656652,-296.082377,2834.553343
972.286418,-9252.574275,74.020594,2374.896044
972.286739,-8734.430116,-2220.617826,76.609550
972.287060,-9696.697840,-2294.638420,-612.876398
972.287380,-7105.977043,-592.164754,0.000000
972.287701,-6883.915261,-1332.370696,-766.095498
972.288022,-7328.038826,666.185348,76.609550
972.288343,-9622.677246,148.041188,1302.362347
972.288664,-8882.471304,148.041188,1991.848295
972.288984,-10584.944971,-296.082377,2528.115143
972.289305,-10510.924376,-814.226536,3983.696590
972.289626,-9844.739029,-1258.350101,3217.601092
972.289947,-10881.027347,-1036.288319,3294.210641
972.290267,-9178.553681,-962.267725,1685.410096
972.290588,-8364.327145,-888.247130,-689.485948
972.290909,-9548.656652,1258.350101,0.000000
972.291230,-7920.203579,2072.576638,-689.485948
972.291550,-9030.512492,1332.370696,-229.828649
972.291871,-9844.739029,148.041188,612.876398
972.292192,-9104.533087,-1184.329507,-306.438199
972.292513,-10955.047942,-2072.576638,459.657299
972.292833,-11103.089130,888.247130,2451.505594
972.293154,-10807.006753,2368.659014,3064.381992
972.293475,-11621.233289,1332.370696,3140.991542
972.293796,-10362.883188,444.123565,1302.362347
972.294116,-9326.594869,-148.041188,-842.705048
972.294437,-10658.965565,222.061783,-995.924147
972.294758,-9548.656652,666.185348,153.219100
972.295079,-9696.697840,814.226536,1149.143247
972.295399,-9770.718434,-1036.288319,1149.143247
972.295720,-10288.862594,-1480.411884,842.705048
972.296041,-10066.800811,-2146.597232,842.705048
972.296362,-10732.986159,-1702.473667,1225.752797
972.296682,-9252.574275,518.144159,2298.286494
972.297003,-10732.986159,592.164754,2604.724693
972.297324,-9696.697840,-296.082377,3064.381992
972.297645,-8586.388927,-1480.411884,229.828649
972.297965,-9844.739029,-2072.576638,1149.143247
972.298286,-9030.512492,-3182.885551,0.000000
972.298607,-7920.203579,-1036.288319,766.095498
972.298928,-10288.862594,-592.164754,1302.362347
972.299249,-9326.594869,296.082377,1149.143247
972.299569,-9326.594869,74.020594,1608.800546
972.299890,-10214.842000,-740.205942,1915.238745
972.300211,-8142.265362,-666.185348,229.828649
972.300532,-8586.388927,-370.102971,383.047749
972.300852,-9326.594869,-888.247130,1378.971896
972.301173,-8216.285956,-1110.308913,1915.238745
972.301494,-8290.306550,-1110.308913,-689.485948
972.301815,-9252.574275,518.144159,842.705048
972.302135,-9992.780217,2220.617826,1608.800546
972.302456,-11843.295072,592.164754,3600.648841
972.302777,-11325.150913,-1554.432478,3140.991542
972.303098,-8364.327145,-1036.288319,0.000000
972.303418,-9696.697840,-1850.514855,-689.485948
972.303739,-8956.491898,0.000000,0.000000
972.304060,-7698.141797,1110.308913,1532.190996
972.304381,-9548.656652,444.123565,1149.143247
972.304701,-8956.491898,-148.041188,383.047749
972.305022,-9844.739029,-1110.308913,0.000000
972.305343,-11547.212695,296.082377,2681.334243
972.305664,-10584.944971,592.164754,2451.505594
972.305984,-9474.636058,1332.370696,3370.820191
972.306305,-10732.986159,-1258.350101,2298.286494
972.306626,-8438.347739,-1480.411884,-612.876398
972.306947,-10066.800811,-1924.535449,-153.219100
972.307267,-9770.718434,-1036.288319,1455.581446
972.307588,-8512.368333,814.226536,1072.533697
972.307909,-10140.821405,1406.391290,1991.848295
972.308230,-9992.780217,296.082377,3370.820191
972.308550,-9474.636058,0.000000,919.314598
972.308871,-10584.944971,-518.144159,1455.581446
972.309192,-10214.842000,-1998.556043,995.924147
972.309513,-8882.471304,-518.144159,1225.752797
972.309833,-10288.862594,-370.102971,2451.505594
972.310154,-9474.636058,-1110.308913,536.266849
972.310475,-8142.265362,74.020594,0.000000
972.310796,-9770.718434,0.000000,76.609550
972.311117,-8512.368333,1480.411884,1302.362347
972.311437,-10140.821405,370.102971,2374.896044
972.311758,-10214.842000,-1406.391290,3140.991542
972.312079,-9030.512492,-2516.700203,689.485948
972.312400,-10584.944971,-2812.782580,-842.705048
972.312720,-9326.594869,-888.247130,0.000000
972.313041,-8956.491898,888.247130,229.828649
972.313362,-9474.636058,1332.370696,919.314598
972.313683,-9474.636058,-222.061783,689.485948
972.314003,-8512.368333,-1184.329507,-842.705048
972.314324,-10362.883188,-2220.617826,-459.657299
972.314645,-9622.677246,-1036.288319,383.047749
972.314966,-9400.615463,296.082377,1532.190996
972.315286,-10658.965565,148.041188,2604.724693
972.315607,-9696.697840,-444.123565,1532.190996
972.315928,-9844.739029,-888.247130,383.047749
972.316249,-10658.965565,-370.102971,1455.581446
972.316569,-9030.512492,370.102971,919.314598
972.316890,-10288.862594,148.041188,2145.067394
972.317211,-9474.636058,-444.123565,1149.143247
972.317532,-8586.388927,0.000000,-995.924147
972.317852,-9696.697840,-1258.350101,-995.924147
972.318173,-8956.491898,444.123565,-689.485948
972.318494,-9474.636058,1258.350101,76.609550
972.318815,-10658.965565,2220.617826,1532.190996
972.319135,-10732.986159,1554.432478,2451.505594
972.319456,-9844.739029,-814.226536,1072.533697
972.319777,-10066.800811,-666.185348,919.314598
972.320098,-10066.800811,-962.267725,1915.238745
972.320418,-9548.656652,-518.144159,2757.943793
972.320739,-9030.512492,-1554.432478,2451.505594
972.321060,-9178.553681,-1702.473667,306.438199
972.321381,-8364.327145,-962.267725,-536.266849
972.321701,-9696.697840,-518.144159,919.314598
972.322022,-8290.306550,666.185348,1149.143247
972.322343,-10510.924376,592.164754,2374.896044
972.322664,-11399.171507,-814.226536,3370.820191
972.322985,-8438.347739,-1110.308913,1455.581446
972.323305,-10881.027347,-2368.659014,766.095498
972.323626,-9252.574275,-444.123565,1149.143247
972.323947,-8438.347739,-296.082377,1762.019645
972.324268,-9030.512492,1110.308913,1685.410096
972.324588,-9178.553681,-222.061783,1455.581446
972.324909,-8438.347739,0.000000,0.000000
972.325230,-10140.821405,-814.226536,1532.190996
972.325551,-8364.327145,0.000000,1532.190996
972.325871,-8956.491898,592.164754,2681.334243
972.326192,-10955.047942,0.000000,3830.477490
972.326513,-9474.636058,-1332.370696,1991.848295
972.326834,-9474.636058,-1628.453072,0.000000
972.327154,-9326.594869,-888.247130,229.828649
972.327475,-7698.141797,148.041188,-842.705048
972.327796,-9548.656652,148.041188,-383.047749
972.328117,-8808.450710,518.144159,-306.438199
972.328437,-8290.306550,592.164754,-1072.533697
972.328758,-11843.295072,-148.041188,612.876398
972.329079,-11177.109724,74.020594,2221.676944
972.329400,-11103.089130,-518.144159,3524.039291
972.329720,-11843.295072,-1110.308913,3370.820191
972.330041,-10362.883188,-518.144159,2374.896044
972.330362,-9844.739029,-74.020594,383.047749
972.330683,-10214.842000,-518.144159,76.609550
972.331003,-7772.162391,592.164754,-919.314598
972.331324,-8586.388927,0.000000,-842.705048
972.331645,-8660.409521,-1110.308913,-1149.143247
972.331966,-9918.759623,-1184.329507,-2068.457845
972.332286,-10362.883188,-962.267725,0.000000
972.332607,-11251.130318,0.000000,1762.019645
972.332928,-10288.862594,740.205942,2451.505594
972.333249,-11177.109724,148.041188,3524.039291
972.333569,-10881.027347,-1776.494261,2374.896044
972.333890,-9030.512492,-1776.494261,612.876398
972.334211,-9770.718434,-1480.411884,-153.219100
972.334532,-8734.430116,-222.061783,306.438199
972.334853,-8216.285956,444.123565,229.828649
972.335173,-8808.450710,370.102971,1302.362347
972.335494,-9178.553681,-962.267725,459.657299
972.335815,-8734.430116,-1628.453072,536.266849
972.336136,-10955.047942,-2146.597232,919.314598
972.336456,-10066.800811,0.000000,2528.115143
972.336777,-10214.842000,444.123565,3753.867940
972.337098,-10584.944971,444.123565,3524.039291
972.337419,-8882.471304,148.041188,2757.943793
972.337739,-9622.677246,-814.226536,0.000000
972.338060,-8808.450710,1036.288319,1072.533697
972.338381,-9178.553681,0.000000,842.705048
972.338702,-8734.430116,-666.185348,1302.362347
972.339022,-9252.574275,-1924.535449,1072.533697
972.339343,-8956.491898,-1998.556043,229.828649
972.339664,-10288.862594,-296.082377,1532.190996
972.339985,-11547.212695,962.267725,3447.429741
972.340305,-8438.347739,2368.659014,2145.067394
972.340626,-10214.842000,1480.411884,2298.286494
972.340947,-9474.636058,-1850.514855,1838.629195
972.341268,-7402.059420,-2886.803174,-2451.505594
972.341588,-9992.780217,-1554.432478,0.000000
972.341909,-7402.059420,0.000000,-383.047749
972.342230,-9696.697840,1554.432478,3524.039291
972.342551,-12065.356855,1332.370696,4213.525239
972.342871,-10807.006753,-1258.350101,2528.115143
972.343192,-11177.109724,-1332.370696,383.047749
972.343513,-11399.171507,-962.267725,1455.581446
972.343834,-9030.512492,1702.473667,383.047749
972.344154,-10066.800811,2664.741391,2221.676944
972.344475,-7772.162391,888.247130,612.876398
972.344796,-7624.121203,-2368.659014,-1762.019645
972.345117,-8438.347739,-2294.638420,-1838.629195
972.345437,-9992.780217,-1480.411884,0.000000
972.345758,-9992.780217,1184.329507,2528.115143
972.346079,-11177.109724,1554.432478,3447.429741
972.346400,-10510.924376,1036.288319,2681.334243
972.346721,-9178.553681,-962.267725,229.828649
972.347041,-9918.759623,-1776.494261,153.219100
972.347362,-9770.718434,-518.144159,536.266849
972.347683,-8438.347739,0.000000,153.219100
972.348004,-9770.718434,-370.102971,919.314598
972.348324,-7476.080014,-296.082377,-229.828649
972.348645,-9178.553681,-888.247130,-612.876398
972.348966,-10066.800811,-592.164754,459.657299
972.349287,-8882.471304,0.000000,919.314598
972.349607,-10584.944971,-444.123565,1991.848295
972.349928,-10584.944971,-444.123565,1838.629195
972.350249,-9030.512492,-1554.432478,229.828649
972.350570,-9992.780217,-1776.494261,612.876398
972.350890,-8808.450710,-814.226536,229.828649
972.351211,-8364.327145,222.061783,76.609550
972.351532,-10288.862594,74.020594,1685.410096
972.351853,-9696.697840,-1258.350101,1532.190996
972.352173,-9696.697840,-2146.597232,76.609550
972.352494,-9918.759623,-1110.308913,229.828649
972.352815,-10436.903782,592.164754,229.828649
972.353135,-9326.594869,1480.411884,2145.067394
972.353456,-11843.295072,0.000000,2987.772442
972.353777,-8882.471304,-444.123565,612.876398
972.354097,-9844.739029,-1406.391290,-536.266849
972.354418,-10584.944971,0.000000,383.047749
972.354739,-8586.388927,1850.514855,689.485948
972.355059,-10584.944971,1628.453072,2221.676944
972.355380,-9622.677246,740.205942,2374.896044
972.355701,-8364.327145,-1110.308913,536.266849
972.356021,-11029.068536,-1628.453072,1378.971896
972.356342,-10658.965565,-1628.453072,2604.724693
972.356663,-10510.924376,0.000000,3677.258390
972.356983,-11325.150913,-370.102971,2681.334243
972.357304,-8216.285956,-740.205942,306.438199
972.357625,-7846.182985,0.000000,-689.485948
972.357945,-9326.594869,-740.205942,459.657299
972.358266,-7772.162391,0.000000,-229.828649
972.358587,-8808.450710,1110.308913,842.705048
972.358907,-9844.739029,592.164754,2145.067394
972.359228,-9622.677246,-1850.514855,76.609550
972.359549,-8068.244768,-222.061783,1608.800546
972.359869,-10955.047942,-962.267725,2068.457845
972.360190,-8586.388927,1258.350101,995.924147
972.360511,-10436.903782,1258.350101,3524.039291
972.360831,-9770.718434,-666.185348,2451.505594
972.361152,-7920.203579,-1184.329507,-306.438199
972.361473,-10362.883188,-1332.370696,306.438199
972.361793,-7920.203579,222.061783,766.095498
972.362114,-8586.388927,444.123565,1532.190996
972.362435,-10436.903782,-444.123565,3600.648841
972.362755,-8956.491898,-1110.308913,1455.581446
972.363076,-9326.594869,-1110.308913,-383.047749
972.363397,-10807.006753,74.020594,995.924147
972.363717,-9030.512492,1036.288319,1072.533697
972.364038,-9696.697840,1258.350101,1991.848295
972.364359,-9918.759623,-1110.308913,1149.143247
972.364680,-8290.306550,-1258.350101,-842.705048
972.365000,-9474.636058,-1480.411884,-383.047749
972.365321,-9474.636058,-1036.288319,2298.286494
972.365642,-9474.636058,1332.370696,1685.410096
972.365962,-11103.089130,1258.350101,2757.943793
972.366283,-10510.924376,370.102971,2757.943793
972.366604,-9548.656652,-1258.350101,383.047749
972.366924,-10955.047942,-1998.556043,0.000000
972.367245,-9400.615463,-1406.391290,-612.876398
972.367566,-8216.285956,444.123565,-1532.190996
972.367886,-9622.677246,148.041188,0.000000
972.368207,-7624.121203,444.123565,-612.876398
972.368528,-8808.450710,0.000000,-995.924147
972.368848,-11769.274478,-814.226536,612.876398
972.369169,-10288.862594,592.164754,2145.067394
972.369490,-11843.295072,-518.144159,3370.820191
972.369810,-12213.398043,-814.226536,4826.401637
972.370131,-9548.656652,-2738.761985,1685.410096
972.370452,-10066.800811,-2664.741391,229.828649
972.370772,-9326.594869,-1332.370696,-153.219100
972.371093,-6661.853478,518.144159,-306.438199
972.371414,-9400.615463,296.082377,459.657299
972.371734,-8808.450710,-296.082377,383.047749
972.372055,-7772.162391,-1332.370696,-1532.190996
972.372376,-9918.759623,-1702.473667,1149.143247
972.372696,-9548.656652,-592.164754,2757.943793
972.373017,-10066.800811,-296.082377,3217.601092
972.373338,-12065.356855,-444.123565,4596.572988
972.373658,-9104.533087,-1554.432478,2374.896044
972.373979,-9252.574275,-1406.391290,383.047749
972.374300,-9844.739029,-888.247130,383.047749
972.374620,-7550.100608,370.102971,0.000000
972.374941,-8364.327145,740.205942,459.657299
972.375262,-9104.533087,-666.185348,1072.533697
972.375582,-7846.182985,-1480.411884,0.000000
972.375903,-9844.739029,-3997.112087,383.047749
972.376224,-9770.718434,-2960.823768,1915.238745
972.376544,-9252.574275,148.041188,2757.943793
972.376865,-11399.171507,1406.391290,4136.915689
972.377186,-10584.944971,1110.308913,3524.039291
972.377506,-9030.512492,666.185348,612.876398
972.377827,-8438.347739,-222.061783,-612.876398
972.378148,-9030.512492,740.205942,0.000000
972.378468,-8068.244768,1258.350101,919.314598
972.378789,-10066.800811,-1036.288319,1225.752797
972.379110,-9104.533087,-1406.391290,76.609550
972.379430,-10066.800811,-888.247130,153.219100
972.379751,-11843.295072,518.144159,2604.724693
972.380072,-10881.027347,1184.329507,3524.039291
972.380392,-11177.109724,2146.597232,4290.134789
972.380713,-11769.274478,-666.185348,3217.601092
972.381034,-7698.141797,-222.061783,-1991.848295
972.381354,-9252.574275,-148.041188,-995.924147
972.381675,-8290.306550,-962.267725,-3370.820191
972.381996,-4811.338623,1776.494261,-1302.362347
972.382316,-9474.636058,666.185348,842.705048
972.382637,-9918.759623,0.000000,1378.971896
972.382958,-11473.192101,-296.082377,2451.505594
972.383278,-13989.892304,-1554.432478,3677.258390
972.383599,-9992.780217,-296.082377,3447.429741
972.383920,-12213.398043,74.020594,3370.820191
972.384240,-9474.636058,0.000000,2451.505594
972.384561,-7624.121203,-1258.350101,-306.438199
972.384882,-6883.915261,-1998.556043,-2298.286494
972.385202,-7328.038826,-2516.700203,-2451.505594
972.385523,-7846.182985,0.000000,-1685.410096
972.385844,-8956.491898,888.247130,919.314598
972.386164,-9548.656652,74.020594,1149.143247
972.386485,-9252.574275,-296.082377,2298.286494
972.386806,-10658.965565,-1850.514855,1378.971896
972.387126,-11029.068536,-1258.350101,2145.067394
972.387447,-8512.368333,0.000000,306.438199
972.387768,-9992.780217,888.247130,1838.629195
972.388088,-9474.636058,74.020594,766.095498
972.388409,-6957.935855,0.000000,-1532.190996
972.388730,-10362.883188,-1184.329507,-612.876398
972.389050,-7698.141797,592.164754,-612.876398
972.389371,-9918.759623,296.082377,1378.971896
972.389692,-11251.130318,-1036.288319,2374.896044
972.390012,-9326.594869,-1110.308913,995.924147
972.390333,-10214.842000,-1258.350101,1762.019645
972.390654,-10881.027347,-444.123565,1991.848295
972.390974,-9178.553681,518.144159,1838.629195
972.391295,-10436.903782,1406.391290,2757.943793
972.391616,-10732.986159,222.061783,4596.572988
972.391936,-9400.615463,-518.144159,0.000000
972.392257,-9474.636058,-1332.370696,-306.438199
972.392578,-9548.656652,-740.205942,-306.438199
972.392898,-8734.430116,1110.308913,1072.533697
972.393219,-10732.986159,0.000000,1991.848295
972.393540,-9918.759623,-666.185348,2145.067394
972.393860,-9104.533087,-1702.473667,0.000000
972.394181,-10881.027347,-2368.659014,766.095498
972.394502,-9474.636058,-1258.350101,1455.581446
972.394822,-9326.594869,888.247130,2145.067394
972.395143,-11325.150913,148.041188,4519.963438
972.395464,-9474.636058,-2146.597232,1378.971896
972.395784,-8290.306550,-1332.370696,229.828649
972.396105,-10732.986159,-2220.617826,536.266849
972.396426,-7772.162391,1406.391290,1608.800546
972.396747,-10288.862594,592.164754,3370.820191
972.397067,-9400.615463,-148.041188,1838.629195
972.397388,-7179.997637,-296.082377,-383.047749
972.397709,-9474.636058,-888.247130,383.047749
972.398029,-9178.553681,-74.020594,1762.019645
972.398350,-9030.512492,370.102971,2298.286494
972.398671,-10288.862594,-740.205942,2987.772442
972.398991,-8882.471304,-962.267725,1762.019645
972.399312,-8882.471304,-592.164754,919.314598
972.399633,-10510.924376,-814.226536,919.314598
972.399953,-8586.388927,1036.288319,766.095498
972.400274,-8290.306550,814.226536,766.095498
972.400595,-10066.800811,-296.082377,919.314598
972.400915,-8216.285956,1332.370696,2451.505594
972.401236,-12583.501014,-6291.750507,-306.438199
972.401557,-7476.080014,1850.514855,995.924147
972.401877,-11103.089130,-962.267725,-995.924147
972.402198,-9918.759623,2812.782580,3064.381992
972.402519,-9622.677246,666.185348,2298.286494
972.402839,-9918.759623,-296.082377,766.095498
972.403160,-9918.759623,-1554.432478,-1378.971896
972.403481,-8882.471304,-1036.288319,-1915.238745
972.403801,-10214.842000,1036.288319,1608.800546
972.404122,-9326.594869,-222.061783,919.314598
972.404443,-9770.718434,592.164754,612.876398
972.404763,-9548.656652,-1036.288319,536.266849
972.405084,-8882.471304,-2368.659014,-1149.143247
972.405405,-10732.986159,-370.102971,1302.362347
972.405725,-11103.089130,148.041188,3294.210641
972.406046,-9918.759623,370.102971,3294.210641
972.406367,-10066.800811,-888.247130,1225.752797
972.406687,-9770.718434,-1110.308913,76.609550
972.407008,-8660.409521,-444.123565,-459.657299
972.407329,-9474.636058,-962.267725,383.047749
972.407649,-8808.450710,148.041188,153.219100
972.407970,-8438.347739,-962.267725,-1915.238745
972.408291,-7402.059420,-962.267725,-2451.505594
972.408611,-9178.553681,-888.247130,-1149.143247
972.408932,-8586.388927,-222.061783,0.000000
972.409253,-9918.759623,814.226536,2068.457845
972.409573,-10807.006753,1036.288319,4290.134789
972.409894,-11547.212695,-1332.370696,3600.648841
972.410215,-11103.089130,-962.267725,4060.306139
972.410535,-11843.295072,-1258.350101,2834.553343
972.410856,-8660.409521,-444.123565,76.609550
972.411177,-7624.121203,1406.391290,1072.533697
972.411497,-7772.162391,814.226536,0.000000
972.411818,-7328.038826,-666.185348,-1225.752797
972.412139,-8734.430116,-1702.473667,-1302.362347
972.412459,-8956.491898,-740.205942,459.657299
972.412780,-9770.718434,-518.144159,842.705048
972.413101,-11695.253884,1184.329507,4366.744339
972.413421,-11325.150913,370.102971,4290.134789
972.413742,-10807.006753,-370.102971,2221.676944
972.414063,-10658.965565,-1184.329507,2145.067394
972.414383,-9178.553681,-2220.617826,1072.533697
972.414704,-8438.347739,-1924.535449,153.219100
972.415025,-9548.656652,0.000000,1302.362347
972.415345,-7698.141797,814.226536,842.705048
972.415666,-8660.409521,370.102971,842.705048
972.415987,-10436.903782,-666.185348,2374.896044
972.416307,-9992.780217,-370.102971,3140.991542
972.416628,-11621.233289,-740.205942,4826.401637
972.416949,-11325.150913,-1258.350101,4596.572988
972.417269,-9696.697840,-1480.411884,1455.581446
972.417590,-8290.306550,0.000000,-229.828649
972.417911,-9622.677246,74.020594,-536.266849
972.418231,-7105.977043,2738.761985,-689.485948
972.418552,-9326.594869,888.247130,-689.485948
972.418873,-9104.533087,888.247130,-229.828649
972.419193,-9030.512492,-888.247130,-842.705048
972.419514,-11473.192101,-2664.741391,536.266849
972.419835,-8660.409521,-888.247130,2528.115143
972.420155,-10584.944971,-592.164754,2834.553343
972.420476,-11029.068536,-222.061783,3140.991542
972.420797,-8660.409521,-962.267725,3524.039291
972.421117,-9030.512492,-1924.535449,-383.047749
972.421438,-7920.203579,-222.061783,-1149.143247
972.421759,-8586.388927,296.082377,-1072.533697
972.422079,-7772.162391,222.061783,-383.047749
972.422400,-9474.636058,-1480.411884,0.000000
972.422721,-9252.574275,-1258.350101,-306.438199
972.423041,-10214.842000,-1258.350101,76.609550
972.423362,-11473.192101,-222.061783,1685.410096
972.423683,-10362.883188,1924.535449,2757.943793
972.424003,-12065.356855,888.247130,3294.210641
972.424324,-11325.150913,-296.082377,1991.848295
972.424645,-9474.636058,-1184.329507,-229.828649
972.424965,-9030.512492,-592.164754,-2145.067394
972.425286,-8364.327145,-1036.288319,-842.705048
972.425607,-7994.224174,148.041188,-459.657299
972.425927,-9622.677246,666.185348,1225.752797
972.426248,-9770.718434,-296.082377,229.828649
972.426569,-10732.986159,-1036.288319,153.219100
972.426889,-11547.212695,-814.226536,1149.143247
972.427210,-10510.924376,962.267725,1685.410096
972.427531,-10807.006753,3256.906145,3447.429741
972.427851,-11399.171507,1480.411884,3447.429741
972.428172,-8364.327145,370.102971,-459.657299
972.428493,-9252.574275,-814.226536,-1532.190996
972.428814,-8956.491898,-1184.329507,-459.657299
972.429134,-8290.306550,-222.061783,3064.381992
972.429455,-9918.759623,-962.267725,1532.190996
972.429776,-9326.594869,-1406.391290,1838.629195
972.430096,-8882.471304,-1110.308913,536.266849
972.430417,-10807.006753,-1702.473667,2221.676944
972.430738,-9252.574275,-1332.370696,2068.457845
972.431058,-9326.594869,-370.102971,2451.505594
972.431379,-10066.800811,-666.185348,3447.429741
972.431700,-8290.306550,-2368.659014,1762.019645
972.432020,-9474.636058,-1480.411884,1762.019645
972.432341,-10066.800811,-666.185348,1608.800546
972.432662,-8364.327145,0.000000,459.657299
972.432982,-8438.347739,1776.494261,2145.067394
972.433303,-9844.739029,-740.205942,2987.772442
972.433624,-7550.100608,518.144159,76.609550
972.433944,-10955.047942,-1184.329507,2221.676944
972.434265,-8586.388927,-740.205942,842.705048
972.434586,-8808.450710,148.041188,2298.286494
972.434906,-10807.006753,148.041188,3370.820191
972.435227,-8808.450710,0.000000,1915.238745
972.435548,-9770.718434,0.000000,1072.533697
972.435868,-9992.780217,-444.123565,1302.362347
972.436189,-8660.409521,0.000000,689.485948
972.436510,-10140.821405,592.164754,1532.190996
972.436830,-10807.006753,-370.102971,1838.629195
972.437151,-9770.718434,0.000000,1302.362347
972.437472,-10955.047942,-740.205942,1149.143247
972.437792,-9844.739029,-1480.411884,612.876398
972.438113,-9474.636058,0.000000,1225.752797
972.438434,-11325.150913,-740.205942,2528.115143
972.438754,-10362.883188,740.205942,2298.286494
972.439075,-8956.491898,-962.267725,-1225.752797
972.439396,-9474.636058,518.144159,-229.828649
972.439716,-10510.924376,3404.947333,-689.485948
972.440037,-7846.182985,1036.288319,0.000000
972.440358,-7994.224174,-592.164754,383.047749
972.440678,-8290.306550,-2220.617826,-383.047749
972.440999,-7698.141797,-3256.906145,-2068.457845
972.441320,-11177.109724,-2368.659014,1685.410096
972.441640,-9622.677246,-666.185348,0.000000
972.441961,-11251.130318,0.000000,2451.505594
972.442282,-9844.739029,-444.123565,3064.381992
972.442602,-9104.533087,-962.267725,0.000000
972.442923,-9992.780217,0.000000,76.609550
972.443244,-9622.677246,296.082377,689.485948
972.443564,-7402.059420,518.144159,-459.657299
972.443885,-9252.574275,-666.185348,153.219100
972.444206,-8512.368333,-2072.576638,0.000000
972.444526,-7846.182985,-1924.535449,-1072.533697
972.444847,-10362.883188,0.000000,766.095498
972.445168,-9252.574275,888.247130,2298.286494
972.445488,-8290.306550,740.205942,1685.410096
972.445809,-10807.006753,-1184.329507,2451.505594
972.446130,-9252.574275,-1702.473667,1685.410096
972.446450,-9252.574275,-1998.556043,153.219100
972.446771,-9844.739029,-666.185348,842.705048
972.447092,-8808.450710,1258.350101,689.485948
972.447412,-8956.491898,2960.823768,995.924147
972.447733,-11251.130318,1480.411884,1532.190996
972.448054,-8882.471304,2220.617826,612.876398
972.448374,-10362.883188,-1702.473667,-612.876398
972.448695,-8956.491898,-962.267725,-383.047749
972.449016,-8438.347739,-814.226536,0.000000
972.449336,-10732.986159,0.000000,2911.162892
972.449657,-11177.109724,-370.102971,3907.087040
972.449978,-9400.615463,0.000000,2681.334243
972.450298,-12213.398043,-1184.329507,2145.067394
972.450619,-11029.068536,-296.082377,2145.067394
972.450940,-10510.924376,1554.432478,3064.381992
972.451260,-11177.109724,222.061783,2987.772442
972.451581,-8586.388927,-148.041188,153.219100
972.451902,-8068.244768,-1110.308913,-766.095498
972.452222,-9548.656652,-1850.514855,-766.095498
972.452543,-8290.306550,-592.164754,842.705048
972.452864,-9844.739029,370.102971,1838.629195
972.453184,-10955.047942,592.164754,3370.820191
972.453505,-9400.615463,296.082377,1915.238745
972.453826,-10955.047942,-222.061783,1838.629195
972.454146,-10066.800811,-962.267725,2221.676944
972.454467,-7846.182985,444.123565,536.266849
972.454788,-9992.780217,814.226536,2451.505594
972.455108,-9918.759623,-222.061783,919.314598
972.455428,-7772.162391,0.000000,0.000000
972.455749,-9696.697840,-962.267725,1072.533697
972.456070,-7698.141797,1554.432478,1915.238745
972.456391,-10584.944971,296.082377,3064.381992
972.456711,-10732.986159,1184.329507,4903.011187
972.457032,-10288.862594,-1332.370696,1838.629195
972.457353,-8882.471304,-2146.597232,689.485948
972.457674,-8290.306550,-2146.597232,-1225.752797
972.457994,-7772.162391,-814.226536,-2451.505594
972.458315,-7698.141797,1036.288319,-1838.629195
972.458636,-8586.388927,888.247130,-306.438199
972.458957,-8142.265362,148.041188,-536.266849
972.459277,-10436.903782,-2590.720797,-689.485948
972.459598,-11473.192101,-2590.720797,1072.533697
972.459919,-10140.821405,-962.267725,2451.505594
972.460240,-12435.459826,-962.267725,3524.039291
972.460560,-10436.903782,-888.247130,3370.820191
972.460881,-8956.491898,-518.144159,-612.876398
972.461202,-9918.759623,-888.247130,-919.314598
972.461523,-8956.491898,0.000000,-689.485948
972.461843,-8438.347739,-148.041188,-1225.752797
972.462164,-9992.780217,-370.102971,0.000000
972.462485,-7920.203579,888.247130,-2374.896044
972.462806,-10066.800811,-222.061783,-306.438199
972.463126,-11399.171507,0.000000,2374.896044
972.463447,-9844.739029,-296.082377,2068.457845
972.463768,-12139.377449,148.041188,3524.039291
972.464089,-12805.562797,1258.350101,4443.353888
972.464410,-11177.109724,370.102971,3064.381992
972.464730,-10362.883188,1184.329507,1072.533697
972.465051,-9400.615463,1036.288319,0.000000
972.465372,-6809.894666,1406.391290,-1455.581446
972.465693,-8956.491898,888.247130,0.000000
972.466013,-8734.430116,-1258.350101,76.609550
972.466334,-8068.244768,-1850.514855,-612.876398
972.466655,-11177.109724,-2664.741391,1225.752797
972.466976,-10066.800811,-1036.288319,2451.505594
972.467296,-9326.594869,592.164754,3600.648841
972.467617,-11769.274478,592.164754,4673.182538
972.467938,-8734.430116,-370.102971,2145.067394
972.468259,-8956.491898,-2146.597232,-612.876398
972.468579,-7846.182985,-962.267725,-459.657299
972.468900,-7920.203579,-1184.329507,-612.876398
972.469221,-7402.059420,1628.453072,919.314598
972.469542,-9918.759623,-444.123565,2221.676944
972.469862,-7698.141797,-1110.308913,689.485948
972.470183,-9696.697840,-2368.659014,1302.362347
972.470504,-10584.944971,-1850.514855,2681.334243
972.470825,-8734.430116,444.123565,2681.334243
972.471145,-10732.986159,-518.144159,3753.867940
972.471466,-9474.636058,-740.205942,2451.505594
972.471787,-8512.368333,-518.144159,153.219100
972.472108,-9696.697840,-444.123565,1072.533697
972.472428,-8808.450710,296.082377,1302.362347
972.472749,-8808.450710,1036.288319,689.485948
972.473070,-10732.986159,592.164754,995.924147
972.473391,-9104.533087,740.205942,-153.219100
972.473711,-9696.697840,0.000000,1072.533697
972.474032,-11325.150913,-518.144159,1378.971896
972.474353,-9474.636058,222.061783,1532.190996
972.474674,-10214.842000,888.247130,1378.971896
972.474994,-11103.089130,296.082377,1991.848295
972.475315,-8882.471304,-666.185348,229.828649
972.475636,-11103.089130,-814.226536,76.609550
972.475957,-9400.615463,-1406.391290,-612.876398
972.476277,-7772.162391,666.185348,-919.314598
972.476598,-10584.944971,370.102971,459.657299
972.476919,-10214.842000,0.000000,766.095498
972.477240,-9622.677246,0.000000,0.000000
972.477561,-11029.068536,-2368.659014,229.828649
972.477881,-9104.533087,-666.185348,76.609550
972.478202,-10955.047942,-1110.308913,1608.800546
972.478523,-10584.944971,-1406.391290,2834.553343
972.478844,-9326.594869,-2146.597232,995.924147
972.479164,-9696.697840,-1406.391290,1225.752797
972.479485,-10066.800811,-740.205942,383.047749
972.479806,-8734.430116,-592.164754,76.609550
972.480127,-9474.636058,666.185348,536.266849
972.480447,-9400.615463,-222.061783,153.219100
972.480768,-7624.121203,-666.185348,-1915.238745
972.481089,-9252.574275,-1110.308913,-383.047749
972.481410,-8882.471304,-148.041188,1149.143247
972.481730,-9400.615463,148.041188,2834.553343
972.482051,-11399.171507,-296.082377,4213.525239
972.482372,-9474.636058,-1702.473667,3294.210641
972.482693,-9992.780217,-1998.556043,1072.533697
972.483013,-10436.903782,74.020594,1838.629195
972.483334,-8512.368333,666.185348,1455.581446
972.483655,-8586.388927,2442.679609,1762.019645
972.483976,-9770.718434,296.082377,1149.143247
972.484296,-8364.327145,296.082377,306.438199
972.484617,-10214.842000,-1702.473667,536.266849
972.484938,-9474.636058,-2368.659014,1072.533697
972.485259,-9400.615463,-740.205942,2528.115143
972.485579,-10732.986159,-148.041188,3447.429741
972.485900,-10807.006753,-740.205942,3370.820191
972.486221,-9918.759623,-1406.391290,1762.019645
972.486542,-10288.862594,-666.185348,1072.533697
972.486862,-9696.697840,222.061783,1072.533697
972.487183,-10288.862594,370.102971,2068.457845
972.487504,-9548.656652,-444.123565,2221.676944
972.487825,-8882.471304,-1924.535449,-383.047749
972.488145,-8068.244768,-1702.473667,-2451.505594
972.488466,-9178.553681,-1406.391290,-995.924147
972.488787,-8734.430116,370.102971,0.000000
972.489108,-9326.594869,1850.514855,1378.971896
972.489428,-11399.171507,1184.329507,3217.601092
972.489749,-9844.739029,-444.123565,2221.676944
972.490070,-11843.295072,-1036.288319,2451.505594
972.490391,-12139.377449,-1554.432478,2911.162892
972.490712,-8438.347739,74.020594,2221.676944
972.491032,-10436.903782,0.000000,1762.019645
972.491353,-9252.574275,592.164754,383.047749
972.491674,-7698.141797,518.144159,-995.924147
972.491995,-8734.430116,-1184.329507,-2145.067394
972.492315,-7254.018232,1480.411884,-842.705048
972.492636,-9918.759623,1110.308913,306.438199
972.492957,-10140.821405,1184.329507,2374.896044
972.493278,-9992.780217,-740.205942,2451.505594
972.493598,-9622.677246,-2886.803174,459.657299
972.493919,-10584.944971,-2146.597232,1608.800546
972.494240,-8808.450710,148.041188,2374.896044
972.494561,-11251.130318,-2590.720797,1455.581446
972.494881,-7920.203579,1776.494261,1455.581446
972.495202,-9622.677246,-1258.350101,-1915.238745
972.495523,-9474.636058,-148.041188,-612.876398
972.495844,-8586.388927,-296.082377,383.047749
972.496164,-9252.574275,222.061783,2221.676944
972.496485,-10658.965565,-1036.288319,3600.648841
972.496806,-9622.677246,-2220.617826,1685.410096
972.497127,-11251.130318,-296.082377,2681.334243
972.497447,-9622.677246,-1628.453072,689.485948
972.497768,-9918.759623,0.000000,306.438199
972.498089,-9104.533087,2072.576638,1378.971896
972.498410,-8808.450710,592.164754,229.828649
972.498730,-9252.574275,-370.102971,0.000000
972.499051,-9844.739029,-1702.473667,153.219100
972.499372,-9030.512492,-1628.453072,0.000000
972.499693,-10436.903782,-814.226536,1455.581446
972.500013,-10955.047942,1406.391290,3294.210641
972.500334,-10955.047942,2368.659014,4366.744339
972.500655,-10955.047942,370.102971,2145.067394
972.500976,-9770.718434,1110.308913,1302.362347
972.501296,-10214.842000,0.000000,766.095498
972.501617,-8734.430116,0.000000,153.219100
972.501938,-9252.574275,74.020594,1149.143247
972.502259,-8438.347739,-1184.329507,0.000000
972.502579,-8734.430116,-666.185348,-1225.752797
972.502900,-9548.656652,-444.123565,76.609550
972.503221,-9474.636058,-222.061783,1762.019645
972.503542,-10140.821405,666.185348,3064.381992
972.503862,-11473.192101,0.000000,3830.477490
972.504183,-10066.800811,-2072.576638,2528.115143
972.504504,-10140.821405,-1850.514855,1149.143247
972.504825,-9178.553681,-518.144159,1302.362347
972.505146,-9696.697840,-592.164754,306.438199
972.505466,-7550.100608,1184.329507,919.314598
972.505787,-8290.306550,-1184.329507,-459.657299
972.506108,-7254.018232,-962.267725,-1838.629195
972.506429,-9770.718434,-2072.576638,-383.047749
972.506749,-9474.636058,-962.267725,919.314598
972.507070,-8882.471304,444.123565,3294.210641
972.507391,-11177.109724,222.061783,3907.087040
972.507712,-9770.718434,-296.082377,2911.162892
972.508032,-9622.677246,-2220.617826,612.876398
972.508353,-9326.594869,-1258.350101,306.438199
972.508674,-8438.347739,-444.123565,689.485948
972.508995,-8068.244768,1480.411884,153.219100
972.509315,-9622.677246,1850.514855,1455.581446
972.509636,-9622.677246,370.102971,689.485948
972.509957,-9252.574275,-1480.411884,-383.047749
972.510278,-10288.862594,-3330.926739,1072.533697
972.510598,-9474.636058,-888.247130,1225.752797
972.510919,-10807.006753,-740.205942,1991.848295
972.511240,-10510.924376,370.102971,3064.381992
972.511561,-9474.636058,0.000000,995.924147
972.511881,-9696.697840,-518.144159,0.000000
972.512202,-10732.986159,296.082377,1378.971896
972.512523,-9474.636058,1110.308913,766.095498
972.512844,-10066.800811,814.226536,689.485948
972.513164,-9770.718434,-666.185348,-229.828649
972.513485,-8142.265362,-370.102971,-536.266849
972.513806,-10658.965565,-2294.638420,-689.485948
972.514127,-9696.697840,222.061783,1608.800546
972.514447,-10066.800811,592.164754,2145.067394
972.514768,-11177.109724,444.123565,3294.210641
972.515089,-10658.965565,-592.164754,3064.381992
972.515410,-9548.656652,-1184.329507,842.705048
972.515730,-10214.842000,-1480.411884,1302.362347
972.516051,-8290.306550,-222.061783,76.609550
972.516372,-8216.285956,370.102971,459.657299
972.516693,-9548.656652,-1554.432478,1378.971896
972.517013,-7994.224174,-1258.350101,-383.047749
972.517334,-9844.739029,-1184.329507,0.000000
972.517655,-10140.821405,-814.226536,995.924147
972.517976,-8512.368333,1110.308913,995.924147
972.518297,-10955.047942,518.144159,3064.381992
972.518617,-9770.718434,-962.267725,2451.505594
972.518938,-8734.430116,-1554.432478,536.266849
972.519259,-9844.739029,-1258.350101,1302.362347
972.519580,-9474.636058,-296.082377,1225.752797
972.519900,-9252.574275,1628.453072,1762.019645
972.520221,-10807.006753,1258.350101,2757.943793
972.520542,-8734.430116,592.164754,1225.752797
972.520863,-9326.594869,-962.267725,0.000000
972.521183,-9770.718434,-1702.473667,229.828649
972.521504,-8808.450710,-148.041188,153.219100
972.521825,-9696.697840,148.041188,1915.238745
972.522146,-10584.944971,444.123565,2987.772442
972.522466,-9474.636058,-222.061783,1149.143247
972.522787,-10510.924376,666.185348,-229.828649
972.523108,-10288.862594,0.000000,1915.238745
972.523429,-9474.636058,888.247130,1915.238745
972.523749,-11695.253884,814.226536,2834.553343
972.524070,-10214.842000,-814.226536,1532.190996
972.524391,-8216.285956,-962.267725,-1685.410096
972.524712,-9770.718434,-1924.535449,153.219100
972.525032,-9400.615463,-444.123565,536.266849
972.525353,-9030.512492,444.123565,1532.190996
972.525674,-10658.965565,-74.020594,2604.724693
972.525995,-8364.327145,-888.247130,459.657299
972.526315,-9770.718434,-1110.308913,383.047749
972.526636,-10732.986159,-222.061783,1838.629195
972.526957,-9030.512492,2368.659014,2604.724693
972.527278,-11547.212695,518.144159,3524.039291
972.527598,-9770.718434,-1110.308913,1455.581446
972.527919,-7624.121203,-3330.926739,-536.266849
972.528240,-9474.636058,-3923.091493,-2528.115143
972.528561,-7920.203579,-444.123565,-1608.800546
972.528881,-7698.141797,2220.617826,-612.876398
972.529202,-7994.224174,2146.597232,1532.190996
972.529523,-8216.285956,592.164754,612.876398
972.529844,-10362.883188,-1850.514855,1455.581446
972.530164,-11325.150913,-2516.700203,2451.505594
972.530485,-10732.986159,-2442.679609,2374.896044
972.530806,-10807.006753,814.226536,2451.505594
972.531127,-11103.089130,-222.061783,3217.601092
972.531448,-8364.327145,0.000000,919.314598
972.531768,-9622.677246,-1850.514855,-459.657299
972.532089,-8586.388927,-1480.411884,-919.314598
972.532410,-7254.018232,-1998.556043,-689.485948
972.532731,-10066.800811,962.267725,1149.143247
972.533051,-11769.274478,518.144159,2451.505594
972.533372,-8142.265362,-592.164754,1149.143247
972.533693,-9252.574275,-1184.329507,919.314598
972.534014,-9104.533087,0.000000,-612.876398
972.534334,-9770.718434,-370.102971,689.485948
972.534655,-9622.677246,740.205942,2068.457845
972.534976,-9474.636058,-74.020594,842.705048
972.535297,-7994.224174,148.041188,-766.095498
972.535617,-11547.212695,-740.205942,306.438199
972.535938,-9474.636058,518.144159,1455.581446
972.536259,-10881.027347,1184.329507,1378.971896
972.536580,-12139.377449,740.205942,3753.867940
972.536900,-9104.533087,888.247130,2298.286494
972.537221,-11991.336260,0.000000,842.705048
972.537542,-10584.944971,-592.164754,1915.238745
972.537863,-7772.162391,74.020594,689.485948
972.538183,-9696.697840,-444.123565,1378.971896
972.538504,-9474.636058,-444.123565,459.657299
972.538825,-8438.347739,222.061783,536.266849
972.539146,-10362.883188,-592.164754,459.657299
972.539466,-8882.471304,296.082377,1378.971896
972.539787,-8956.491898,962.267725,1532.190996
972.540108,-10362.883188,888.247130,3294.210641
972.540429,-9696.697840,-962.267725,2145.067394
972.540749,-7920.203579,-296.082377,306.438199
972.541070,-10584.944971,-2590.720797,766.095498
972.541391,-8586.388927,-740.205942,153.219100
972.541712,-8438.347739,962.267725,306.438199
972.542032,-10066.800811,-2738.761985,1149.143247
972.542353,-6661.853478,0.000000,0.000000
972.542674,-10288.862594,-1924.535449,766.095498
972.542995,-8068.244768,-1406.391290,0.000000
972.543315,-8586.388927,222.061783,2374.896044
972.543636,-11177.109724,222.061783,4290.134789
972.543957,-9992.780217,-592.164754,3677.258390
972.544278,-9696.697840,-888.247130,1838.629195
972.544599,-10436.903782,-1184.329507,2221.676944
972.544919,-10955.047942,-1332.370696,1838.629195
972.545240,-9622.677246,-296.082377,1762.019645
972.545561,-9696.697840,74.020594,1762.019645
972.545882,-8734.430116,0.000000,-612.876398
972.546202,-8438.347739,-666.185348,-1072.533697
972.546523,-10288.862594,-1332.370696,306.438199
972.546844,-8068.244768,-444.123565,0.000000
972.547165,-9992.780217,296.082377,1455.581446
972.547485,-11695.253884,0.000000,2987.772442
972.547806,-10140.821405,-888.247130,1149.143247
972.548127,-11621.233289,-518.144159,536.266849
972.548448,-10436.903782,518.144159,842.705048
972.548768,-9030.512492,148.041188,0.000000
972.549089,-9992.780217,444.123565,383.047749
972.549410,-9770.718434,0.000000,689.485948
972.549731,-8290.306550,-1036.288319,1149.143247
972.550051,-11251.130318,-1998.556043,1685.410096
972.550372,-9400.615463,-2072.576638,1225.752797
972.550693,-9474.636058,666.185348,1532.190996
972.551014,-11029.068536,296.082377,2681.334243
972.551334,-7920.203579,-962.267725,1302.362347
972.551655,-7550.100608,-222.061783,-1991.848295
972.551976,-9622.677246,-444.123565,-1149.143247
972.552297,-7254.018232,148.041188,-1072.533697
972.552617,-9326.594869,-296.082377,842.705048
972.552938,-10510.924376,-888.247130,459.657299
972.553259,-8660.409521,-1110.308913,76.609550
972.553580,-10510.924376,-1036.288319,1532.190996
972.553900,-10658.965565,-444.123565,2298.286494
972.554221,-9400.615463,962.267725,2987.772442
972.554542,-10510.924376,518.144159,3677.258390
972.554863,-8512.368333,-222.061783,1915.238745
972.555183,-8586.388927,-1702.473667,-153.219100
972.555504,-8808.450710,-1036.288319,76.609550
972.555825,-8512.368333,-814.226536,153.219100
972.556146,-8068.244768,740.205942,689.485948
972.556466,-10362.883188,370.102971,1378.971896
972.556787,-10362.883188,740.205942,1608.800546
972.557108,-9918.759623,222.061783,1608.800546
972.557429,-11325.150913,-1184.329507,2451.505594
972.557749,-9400.615463,74.020594,1762.019645
972.558070,-10214.842000,-296.082377,1685.410096
972.558391,-10214.842000,-814.226536,1762.019645
972.558712,-8364.327145,-1258.350101,229.828649
972.559032,-9400.615463,740.205942,919.314598
972.559353,-10732.986159,444.123565,229.828649
972.559674,-9030.512492,2368.659014,1225.752797
972.559995,-10881.027347,1924.535449,2604.724693
972.560315,-10955.047942,814.226536,2757.943793
972.560636,-9770.718434,-296.082377,919.314598
972.560957,-10140.821405,-1554.432478,1072.533697
972.561278,-9622.677246,-888.247130,1149.143247
972.561598,-9622.677246,370.102971,2221.676944
972.561919,-10436.903782,-666.185348,2374.896044
972.562240,-8586.388927,-666.185348,76.609550
972.562561,-8808.450710,-888.247130,-919.314598
972.562881,-9696.697840,-592.164754,0.000000
972.563202,-9326.594869,444.123565,919.314598
972.563523,-8956.491898,2072.576638,2374.896044
972.563844,-10658.965565,-1406.391290,1762.019645
972.564164,-8068.244768,-1184.329507,1225.752797
972.564485,-10584.944971,-2442.679609,1455.581446
972.564806,-9400.615463,-2442.679609,919.314598
972.565127,-7994.224174,296.082377,1915.238745
972.565447,-9918.759623,0.000000,1915.238745
972.565768,-7920.203579,0.000000,536.266849
972.566089,-8734.430116,-1628.453072,-919.314598
972.566409,-9252.574275,-1480.411884,0.000000
972.566730,-8586.388927,-1480.411884,-229.828649
972.567051,-9622.677246,-592.164754,689.485948
972.567372,-9326.594869,888.247130,1302.362347
972.567692,-9770.718434,-370.102971,689.485948
972.568013,-10214.842000,-296.082377,919.314598
972.568334,-10658.965565,-1036.288319,1072.533697
972.568655,-8882.471304,444.123565,306.438199
972.568975,-9770.718434,1184.329507,2145.067394
972.569296,-10955.047942,-888.247130,1991.848295
972.569617,-9104.533087,-1258.350101,689.485948
972.569938,-9178.553681,-666.185348,-1455.581446
972.570258,-9622.677246,-518.144159,0.000000
972.570579,-8438.347739,592.164754,-306.438199
972.570900,-9548.656652,296.082377,919.314598
972.571221,-9030.512492,-888.247130,-612.876398
972.571541,-8512.368333,-666.185348,-536.266849
972.571862,-12435.459826,-1998.556043,383.047749
972.572183,-9918.759623,-370.102971,766.095498
972.572504,-12435.459826,-148.041188,3524.039291
972.572824,-12879.583391,0.000000,5209.449386
972.573145,-10584.944971,1258.350101,3983.696590
972.573466,-10510.924376,-666.185348,842.705048
972.573787,-9030.512492,1184.329507,766.095498
972.574107,-8068.244768,3034.844362,-1225.752797
972.574428,-7920.203579,2442.679609,-536.266849
972.574749,-7698.141797,888.247130,-689.485948
972.575070,-6735.874072,370.102971,-1378.971896
972.575390,-9178.553681,-1406.391290,0.000000
972.575711,-10732.986159,-666.185348,2757.943793
972.576032,-10807.006753,962.267725,6205.373534
972.576353,-12509.480420,-1036.288319,4519.963438
972.576673,-9844.739029,-888.247130,4060.306139
972.576994,-9252.574275,-1406.391290,1225.752797
972.577315,-9326.594869,-518.144159,1685.410096
972.577636,-8438.347739,-888.247130,1072.533697
972.577956,-6365.771101,296.082377,-383.047749
972.578277,-8586.388927,0.000000,689.485948
972.578598,-7550.100608,-740.205942,-459.657299
972.578919,-8956.491898,-1480.411884,842.705048
972.579239,-10807.006753,-1924.535449,3140.991542
972.579560,-7920.203579,962.267725,3294.210641
972.579881,-10881.027347,-296.082377,3830.477490
972.580202,-9474.636058,0.000000,3983.696590
972.580522,-8808.450710,-592.164754,1149.143247
972.580843,-9622.677246,74.020594,1072.533697
972.581164,-8586.388927,-370.102971,229.828649
972.581485,-7031.956449,666.185348,-612.876398
972.581805,-9548.656652,222.061783,306.438199
972.582126,-9548.656652,-1036.288319,-306.438199
972.582447,-9252.574275,148.041188,1225.752797
972.582767,-10510.924376,-1406.391290,0.000000
972.583088,-9474.636058,1036.288319,842.705048
972.583409,-10510.924376,666.185348,1302.362347
972.583730,-11103.089130,370.102971,2604.724693
972.584050,-10214.842000,-1184.329507,1532.190996
972.584371,-10140.821405,-1628.453072,-76.609550
972.584692,-10658.965565,-592.164754,1225.752797
972.585013,-10362.883188,962.267725,1225.752797
972.585333,-12065.356855,2368.659014,2834.553343
972.585654,-11325.150913,-592.164754,1302.362347
972.585975,-8290.306550,-592.164754,-1838.629195
972.586296,-10214.842000,-1406.391290,-1991.848295
972.586616,-9474.636058,-1110.308913,-1225.752797
972.586937,-7994.224174,74.020594,-306.438199
972.587258,-10732.986159,-962.267725,1225.752797
972.587579,-9178.553681,-1258.350101,-229.828649
972.587899,-9622.677246,-1332.370696,-383.047749
972.588220,-10658.965565,-518.144159,995.924147
972.588541,-9474.636058,74.020594,1225.752797
972.588862,-9474.636058,666.185348,1378.971896
972.589182,-9548.656652,-888.247130,459.657299
972.589503,-8586.388927,-2220.617826,-229.828649
972.589824,-9474.636058,-2220.617826,536.266849
972.590145,-9844.739029,-1184.329507,2068.457845
972.590465,-9696.697840,-148.041188,2834.553343
972.590786,-9548.656652,148.041188,3600.648841
972.591107,-9992.780217,-1702.473667,2681.334243
972.591428,-7994.224174,-1332.370696,383.047749
972.591748,-9104.533087,-888.247130,-536.266849
972.592069,-9252.574275,296.082377,766.095498
972.592390,-7476.080014,1998.556043,842.705048
972.592711,-10066.800811,1628.453072,2451.505594
972.593031,-11177.109724,-1332.370696,2145.067394
972.593352,-8808.450710,-3256.906145,0.000000
972.593673,-9622.677246,-2220.617826,1149.143247
972.593994,-11843.295072,1036.288319,1838.629195
972.594314,-9696.697840,1850.514855,4290.134789
972.594635,-11177.109724,0.000000,3677.258390
972.594956,-10584.944971,0.000000,2681.334243
972.595277,-7772.162391,-2294.638420,-1915.238745
972.595597,-10584.944971,148.041188,1838.629195
972.595918,-8586.388927,222.061783,1532.190996
972.596239,-10140.821405,814.226536,995.924147
972.596560,-11103.089130,-666.185348,2451.505594
972.596880,-7920.203579,-814.226536,0.000000
972.597201,-10510.924376,-888.247130,153.219100
972.597522,-12361.439231,592.164754,2681.334243
972.597843,-8512.368333,2590.720797,2987.772442
972.598163,-11325.150913,518.144159,2298.286494
972.598484,-9844.739029,-1184.329507,689.485948
972.598805,-7772.162391,-740.205942,-842.705048
972.599126,-10510.924376,-1776.494261,0.000000
972.599446,-8956.491898,814.226536,0.000000
972.599767,-9178.553681,2664.741391,1455.581446
972.600088,-10066.800811,0.000000,612.876398
972.600408,-8660.409521,666.185348,-153.219100
972.600729,-10955.047942,-1406.391290,306.438199
972.601050,-9252.574275,-1924.535449,229.828649
972.601371,-8956.491898,0.000000,383.047749
972.601691,-9844.739029,0.000000,1149.143247
972.602012,-9326.594869,-1480.411884,766.095498
972.602333,-7698.141797,-1110.308913,-229.828649
972.602654,-9770.718434,-962.267725,-842.705048
972.602974,-9252.574275,0.000000,-459.657299
972.603295,-8660.409521,814.226536,306.438199
972.603616,-9770.718434,-296.082377,612.876398
972.603937,-9178.553681,666.185348,995.924147
972.604257,-9696.697840,-1776.494261,-842.705048
972.604578,-7920.203579,-1258.350101,0.000000
972.604899,-9696.697840,-2146.597232,0.000000
972.605220,-9104.533087,-296.082377,919.314598
972.605540,-10510.924376,-518.144159,2528.115143
972.605861,-9622.677246,0.000000,536.266849
972.606182,-10214.842000,592.164754,1455.581446
972.606503,-10436.903782,-518.144159,1608.800546
972.606823,-8068.244768,518.144159,1762.019645
972.607144,-11103.089130,0.000000,1838.629195
972.607465,-9844.739029,-518.144159,1225.752797
972.607786,-8808.450710,-1184.329507,459.657299
972.608106,-10881.027347,-2072.576638,612.876398
972.608427,-8438.347739,-814.226536,2528.115143
972.608748,-9992.780217,370.102971,1608.800546
972.609069,-11103.089130,1110.308913,3907.087040
972.609389,-10436.903782,-1480.411884,1915.238745
972.609710,-9474.636058,-1110.308913,842.705048
972.610031,-10658.965565,-1554.432478,995.924147
972.610352,-9696.697840,518.144159,1685.410096
972.610672,-10066.800811,962.267725,3294.210641
972.610993,-9770.718434,-962.267725,3064.381992
972.611314,-7772.162391,-1628.453072,612.876398
972.611635,-9918.759623,-2294.638420,76.609550
972.611955,-9474.636058,-296.082377,1532.190996
972.612276,-8808.450710,1036.288319,2298.286494
972.612597,-9918.759623,0.000000,3217.601092
972.612918,-9622.677246,-1554.432478,2911.162892
972.613238,-8586.388927,-1628.453072,766.095498
972.613559,-10214.842000,-1554.432478,919.314598
972.613880,-8734.430116,592.164754,1455.581446
972.614201,-9178.553681,1184.329507,2451.505594
972.614521,-10955.047942,74.020594,3064.381992
972.614842,-8290.306550,0.000000,229.828649
972.615163,-9178.553681,-1702.473667,0.000000
972.615484,-9474.636058,-370.102971,383.047749
972.615804,-9178.553681,888.247130,1302.362347
972.616125,-10510.924376,1850.514855,2221.676944
972.616446,-9696.697840,74.020594,2145.067394
972.616766,-8364.327145,-1258.350101,-1302.362347
972.617087,-8808.450710,-518.144159,-2068.457845
972.617408,-9326.594869,0.000000,-1455.581446
972.617729,-8068.244768,1924.535449,-536.266849
972.618049,-10732.986159,1776.494261,1455.581446
972.618370,-10436.903782,592.164754,842.705048
972.618691,-9918.759623,-740.205942,842.705048
972.619012,-11843.295072,-1184.329507,2221.676944
972.619332,-11325.150913,-1332.370696,2911.162892
972.619653,-10510.924376,222.061783,1762.019645
972.619974,-10584.944971,-296.082377,1991.848295
972.620295,-8438.347739,-592.164754,-76.609550
972.620615,-8364.327145,-814.226536,-1685.410096
972.620936,-9474.636058,-666.185348,-689.485948
972.621257,-8068.244768,1036.288319,-689.485948
972.621578,-9326.594869,1628.453072,459.657299
972.621898,-11103.089130,0.000000,2451.505594
972.622219,-8734.430116,0.000000,1915.238745
972.622540,-11695.253884,-1776.494261,2221.676944
972.622861,-9918.759623,-1036.288319,2681.334243
972.623181,-9252.574275,444.123565,2298.286494
972.623502,-11029.068536,-888.247130,2834.553343
972.623823,-8290.306550,-444.123565,842.705048
972.624144,-7328.038826,-888.247130,-1072.533697
972.624464,-9400.615463,-222.061783,-459.657299
972.624785,-8216.285956,444.123565,153.219100
972.625106,-8956.491898,0.000000,1608.800546
972.625427,-9918.759623,-518.144159,2451.505594
972.625747,-9104.533087,-2516.700203,76.609550
972.626068,-9770.718434,-1702.473667,459.657299
972.626389,-10066.800811,-592.164754,1608.800546
972.626710,-8586.388927,888.247130,1838.629195
972.627030,-8734.430116,1406.391290,1915.238745
972.627351,-10658.965565,-592.164754,2298.286494
972.627672,-8586.388927,-1776.494261,536.266849
972.627993,-10066.800811,-1036.288319,1072.533697
972.628313,-11103.089130,-370.102971,3294.210641
972.628634,-9474.636058,1480.411884,2681.334243
972.628955,-11843.295072,296.082377,3753.867940
972.629276,-8956.491898,-518.144159,1378.971896
972.629596,-8882.471304,-1036.288319,-995.924147
972.629917,-10066.800811,-1998.556043,-1532.190996
972.630238,-8586.388927,74.020594,-383.047749
972.630559,-9770.718434,518.144159,536.266849
972.630879,-10510.924376,-370.102971,1838.629195
972.631200,-10436.903782,-1628.453072,1532.190996
972.631521,-11325.150913,-1776.494261,383.047749
972.631842,-11547.212695,-518.144159,1302.362347
972.632162,-10436.903782,592.164754,1685.410096
972.632483,-9770.718434,2072.576638,766.095498
972.632804,-9326.594869,-1110.308913,919.314598
972.633124,-5699.585753,-1480.411884,-2604.724693
972.633445,-9474.636058,-1924.535449,-536.266849
972.633766,-8956.491898,-1924.535449,-1149.143247
972.634087,-8956.491898,814.226536,1072.533697
972.634407,-12065.356855,444.123565,4213.525239
972.634728,-9548.656652,-888.247130,2298.286494
972.635049,-10510.924376,148.041188,1838.629195
972.635370,-10584.944971,-222.061783,612.876398
972.635690,-8734.430116,592.164754,536.266849
972.636011,-10362.883188,1480.411884,1685.410096
972.636332,-8660.409521,-1110.308913,1225.752797
972.636653,-7476.080014,-1332.370696,-919.314598
972.636973,-8660.409521,-1776.494261,-842.705048
972.637294,-9252.574275,-1110.308913,0.000000
972.637615,-8586.388927,2664.741391,1991.848295
972.637936,-11325.150913,1406.391290,3294.210641
972.638256,-9252.574275,-296.082377,2145.067394
972.638577,-9030.512492,-2220.617826,306.438199
972.638898,-10214.842000,-2738.761985,766.095498
972.639219,-9474.636058,-888.247130,2911.162892
972.639539,-8512.368333,-74.020594,1302.362347
972.639860,-9474.636058,-148.041188,1302.362347
972.640181,-7698.141797,-740.205942,76.609550
972.640502,-9030.512492,-1480.411884,-842.705048
972.640822,-9918.759623,-814.226536,2528.115143
972.641143,-9622.677246,0.000000,1838.629195
972.641464,-10066.800811,962.267725,3294.210641
972.641785,-10881.027347,-444.123565,3447.429741
972.642105,-8808.450710,-666.185348,1072.533697
972.642426,-10140.821405,-962.267725,1532.190996
972.642747,-10066.800811,-666.185348,1991.848295
972.643068,-7624.121203,962.267725,1302.362347
972.643388,-10658.965565,740.205942,2451.505594
972.643709,-9770.718434,1036.288319,2145.067394
972.644030,-9770.718434,296.082377,1302.362347
972.644351,-10066.800811,444.123565,2221.676944
972.644671,-9770.718434,1332.370696,2221.676944
972.644992,-10584.944971,2072.576638,3600.648841
972.645313,-11547.212695,370.102971,4673.182538
972.645634,-9992.780217,-222.061783,2604.724693
972.645954,-9030.512492,-518.144159,766.095498
972.646275,-9696.697840,0.000000,1149.143247
972.646596,-9030.512492,1480.411884,1225.752797
972.646917,-9030.512492,2368.659014,2987.772442
972.647237,-10510.924376,1184.329507,2068.457845
972.647558,-7550.100608,1184.329507,153.219100
972.647879,-10214.842000,-296.082377,689.485948
972.648200,-11251.130318,1258.350101,2604.724693
972.648520,-9178.553681,2442.679609,1762.019645
972.648841,-11029.068536,2442.679609,3907.087040
972.649162,-10362.883188,2516.700203,4903.011187
972.649482,-9400.615463,-296.082377,2834.553343
972.649803,-10658.965565,-740.205942,2987.772442
972.650124,-9548.656652,148.041188,2451.505594
972.650445,-7476.080014,-222.061783,612.876398
972.650765,-8438.347739,1184.329507,2068.457845
972.651086,-8660.409521,2146.597232,2451.505594
972.651407,-8290.306550,1480.411884,1685.410096
972.651728,-9326.594869,1776.494261,4136.915689
972.652048,-9474.636058,1702.473667,3524.039291
972.652369,-9474.636058,814.226536,3294.210641
972.652690,-10584.944971,2220.617826,4903.011187
972.653011,-9770.718434,3034.844362,5286.058936
972.653331,-10807.006753,666.185348,4903.011187
972.653652,-9474.636058,1036.288319,3830.477490
972.653973,-8586.388927,1480.411884,1838.629195
972.654294,-9474.636058,2146.597232,1225.752797
972.654614,-9326.594869,2516.700203,3983.696590
972.654935,-8660.409521,2516.700203,3524.039291
972.655256,-9992.780217,518.144159,2987.772442
972.655577,-10510.924376,-592.164754,3140.991542
972.655897,-9770.718434,-296.082377,3140.991542
972.656218,-11029.068536,148.041188,3830.477490
972.656539,-10732.986159,2072.576638,3217.601092
972.656860,-9696.697840,3923.091493,3753.867940
972.657180,-9770.718434,3923.091493,3830.477490
972.657501,-10510.924376,2960.823768,3600.648841
972.657822,-10510.924376,1924.535449,2834.553343
972.658142,-9696.697840,370.102971,2145.067394
972.658463,-9548.656652,1332.370696,2145.067394
972.658784,-9696.697840,2220.617826,2911.162892
972.659105,-9474.636058,1924.535449,3677.258390
972.659425,-8586.388927,1776.494261,3907.087040
972.659746,-9844.739029,370.102971,3064.381992
972.660067,-9696.697840,74.020594,2681.334243
972.660387,-10214.842000,814.226536,3370.820191
972.660708,-10436.903782,1332.370696,3907.087040
972.661029,-9622.677246,2072.576638,3524.039291
972.661350,-9178.553681,2146.597232,3447.429741
972.661670,-8586.388927,2368.659014,3217.601092
972.661991,-9918.759623,1850.514855,4673.182538
972.662312,-10214.842000,1184.329507,5592.497135
972.662632,-9474.636058,444.123565,3983.696590
972.662953,-9030.512492,962.267725,2221.676944
972.663274,-8660.409521,2146.597232,2145.067394
972.663595,-8512.368333,2294.638420,2451.505594
972.663915,-8660.409521,1554.432478,2374.896044
972.664236,-8438.347739,-296.082377,1072.533697
972.664557,-9104.533087,740.205942,1149.143247
972.664877,-10214.842000,888.247130,3064.381992
972.665198,-10362.883188,1628.453072,3677.258390
972.665519,-10288.862594,3701.029710,3370.820191
972.665840,-9252.574275,3997.112087,2834.553343
972.666160,-8882.471304,3404.947333,2528.115143
972.666481,-9252.574275,2664.741391,2451.505594
972.666802,-8956.491898,1480.411884,2451.505594
972.667122,-9104.533087,1554.432478,4136.915689
972.667443,-10362.883188,1036.288319,5286.058936
972.667764,-10288.862594,2072.576638,6358.592633
972.668085,-11399.171507,1184.329507,6281.983084
972.668405,-10510.924376,1776.494261,4596.572988
972.668726,-10066.800811,2442.679609,3600.648841
972.669047,-9252.574275,2442.679609,2681.334243
972.669367,-9326.594869,2738.761985,1915.238745
972.669688,-9548.656652,2072.576638,995.924147
972.670009,-9104.533087,1776.494261,995.924147
972.670330,-9400.615463,2146.597232,1685.410096
972.670650,-10288.862594,2738.761985,3830.477490
972.670971,-11177.109724,2442.679609,5439.278036
972.671292,-11251.130318,1406.391290,6128.763984
972.671612,-10140.821405,888.247130,4903.011187
972.671933,-10066.800811,1554.432478,5056.230287
972.672254,-9474.636058,1850.514855,4903.011187
972.672575,-9178.553681,2368.659014,4903.011187
972.672895,-8142.265362,1628.453072,3140.991542
972.673216,-7624.121203,1628.453072,1225.752797
972.673537,-8734.430116,1406.391290,536.266849
972.673857,-9474.636058,2812.782580,3064.381992
972.674178,-10584.944971,2590.720797,4979.620737
972.674499,-10584.944971,2516.700203,5209.449386
972.674819,-10436.903782,1332.370696,4366.744339
972.675140,-9622.677246,740.205942,3983.696590
972.675461,-10140.821405,1258.350101,3907.087040
972.675782,-9326.594869,1702.473667,2987.772442
972.676102,-8586.388927,1628.453072,1838.629195
972.676423,-7772.162391,962.267725,766.095498
972.676744,-8216.285956,74.020594,0.000000
972.677064,-8808.450710,370.102971,689.485948
972.677385,-10140.821405,296.082377,2145.067394
972.677706,-9918.759623,888.247130,3294.210641
972.678027,-10288.862594,1776.494261,4060.306139
972.678347,-10362.883188,1998.556043,4673.182538
972.678668,-11103.089130,2368.659014,5745.716235
972.678989,-11103.089130,1480.411884,5439.278036
972.679309,-9770.718434,2072.576638,4136.915689
972.679630,-9326.594869,1924.535449,2604.724693
972.679951,-8882.471304,2368.659014,2145.067394
972.680272,-8438.347739,2220.617826,1225.752797
972.680592,-8660.409521,1998.556043,1532.190996
972.680913,-9104.533087,1554.432478,1838.629195
972.681234,-9474.636058,1184.329507,1608.800546
972.681554,-10436.903782,1184.329507,1838.629195
972.681875,-10658.965565,1258.350101,2757.943793
972.682196,-10955.047942,2072.576638,2834.553343
972.682517,-10584.944971,2294.638420,3753.867940
972.682837,-9992.780217,2442.679609,4596.572988
972.683158,-10214.842000,1776.494261,4213.525239
972.683479,-10140.821405,1702.473667,4903.011187
972.683799,-10140.821405,1924.535449,5362.668486
972.684120,-9770.718434,2294.638420,5669.106685
972.684441,-8956.491898,2368.659014,4826.401637
972.684762,-8808.450710,2516.700203,4366.744339
972.685082,-8586.388927,1998.556043,3830.477490
972.685403,-8808.450710,1406.391290,2681.334243
972.685724,-8586.388927,518.144159,1915.238745
972.686044,-8512.368333,222.061783,919.314598
972.686365,-9326.594869,370.102971,536.266849
972.686686,-9474.636058,888.247130,689.485948
972.687007,-10066.800811,1480.411884,1762.019645
972.687327,-9474.636058,888.247130,2145.067394
972.687648,-10288.862594,1036.288319,2528.115143
972.687969,-10362.883188,962.267725,3524.039291
972.688289,-10140.821405,592.164754,4290.134789
972.688610,-9844.739029,888.247130,4903.011187
972.688931,-9104.533087,1850.514855,3217.601092
972.689252,-8660.409521,1406.391290,4443.353888
972.689572,-8438.347739,1406.391290,3983.696590
972.689893,-8290.306550,1480.411884,3677.258390
972.690214,-8956.491898,1776.494261,3140.991542
972.690534,-9178.553681,2220.617826,3447.429741
972.690855,-9770.718434,2294.638420,2757.943793
972.691176,-9844.739029,2220.617826,2834.553343
972.691497,-9992.780217,2368.659014,2987.772442
972.691817,-10584.944971,2590.720797,3447.429741
972.692138,-9770.718434,2886.803174,4060.306139
972.692459,-10362.883188,2516.700203,3524.039291
972.692779,-10288.862594,2294.638420,3983.696590
972.693100,-10214.842000,2294.638420,4060.306139
972.693421,-9918.759623,1924.535449,4443.353888
972.693742,-9178.553681,1406.391290,3907.087040
972.694062,-9474.636058,1628.453072,4136.915689
972.694383,-9474.636058,1480.411884,4213.525239
972.694704,-9548.656652,1628.453072,3983.696590
972.695024,-9548.656652,1554.432478,3600.648841
972.695345,-9252.574275,1850.514855,2604.724693
972.695666,-9548.656652,1924.535449,2298.286494
972.695986,-9622.677246,1850.514855,1991.848295
972.696307,-9770.718434,1998.556043,1838.629195
972.696628,-9992.780217,1702.473667,2068.457845
972.696949,-10807.006753,2072.576638,2911.162892
972.697269,-10140.821405,1332.370696,2298.286494
972.697590,-9548.656652,1258.350101,2451.505594
972.697911,-9770.718434,1036.288319,2681.334243
972.698231,-9696.697840,1332.370696,2987.772442
972.698552,-9252.574275,740.205942,2604.724693
972.698873,-8808.450710,222.061783,2681.334243
972.699194,-8734.430116,-370.102971,1762.019645
972.699514,-8364.327145,-370.102971,1149.143247
972.699835,-8586.388927,0.000000,1532.190996
972.700156,-9326.594869,0.000000,1302.362347
972.700476,-9474.636058,0.000000,1149.143247
972.700797,-10066.800811,518.144159,1762.019645
972.701118,-10288.862594,518.144159,1762.019645
972.701439,-10214.842000,1702.473667,1378.971896
972.701759,-10214.842000,814.226536,1762.019645
972.702080,-9622.677246,1258.350101,919.314598
972.702401,-9548.656652,1184.329507,459.657299
972.702721,-8808.450710,1628.453072,842.705048
972.703042,-9030.512492,2294.638420,1072.533697
972.703363,-9400.615463,1332.370696,1378.971896
972.703684,-9474.636058,814.226536,1838.629195
972.704004,-9770.718434,962.267725,2298.286494
972.704325,-10288.862594,1184.329507,3370.820191
972.704646,-9474.636058,1036.288319,4443.353888
972.704966,-10066.800811,666.185348,3677.258390
972.705287,-10140.821405,666.185348,3447.429741
972.705608,-9918.759623,740.205942,3217.601092
972.705929,-9992.780217,814.226536,3064.381992
972.706249,-10066.800811,1850.514855,3907.087040
972.706570,-9918.759623,1406.391290,3907.087040
972.706891,-9992.780217,1702.473667,4290.134789
972.707211,-9992.780217,1702.473667,4519.963438
972.707532,-9400.615463,1110.308913,4826.401637
972.707853,-9918.759623,1554.432478,5515.887586
972.708174,-9918.759623,1554.432478,5745.716235
972.708494,-9696.697840,1998.556043,5975.544884
972.708815,-9474.636058,2072.576638,5745.716235
972.709136,-8660.409521,1924.535449,6511.811733
972.709456,-9178.553681,2664.741391,6128.763984
972.709777,-9178.553681,2294.638420,5745.716235
972.710098,-9400.615463,2590.720797,5975.544884
972.710419,-9252.574275,2590.720797,6052.154434
972.710739,-9992.780217,2812.782580,5592.497135
972.711060,-9844.739029,3034.844362,6971.469032
972.711381,-9844.739029,3330.926739,7277.907231
972.711701,-10066.800811,3404.947333,7048.078582
972.712022,-9622.677246,3404.947333,6205.373534
972.712343,-9252.574275,3330.926739,5286.058936
972.712664,-9030.512492,3627.009116,5209.449386
972.712984,-9252.574275,3701.029710,4443.353888
972.713305,-8956.491898,3330.926739,4136.915689
972.713626,-8734.430116,2960.823768,4060.306139
972.713946,-9252.574275,2886.803174,3294.210641
972.714267,-9474.636058,2442.679609,2987.772442
972.714588,-9770.718434,2590.720797,2451.505594
972.714908,-9548.656652,2368.659014,1838.629195
972.715229,-9622.677246,2738.761985,306.438199
972.715550,-9178.553681,1850.514855,306.438199
972.715871,-9326.594869,1776.494261,-536.266849
972.716191,-9178.553681,2072.576638,-766.095498
972.716512,-9548.656652,2072.576638,0.000000
972.716833,-9326.594869,2368.659014,1532.190996
972.717153,-10510.924376,2368.659014,1378.971896
972.717474,-10436.903782,2664.741391,2451.505594
972.717795,-10584.944971,2368.659014,2528.115143
972.718116,-9844.739029,2368.659014,2451.505594
972.718436,-9770.718434,2220.617826,2145.067394
972.718757,-9326.594869,2368.659014,1915.238745
972.719078,-9178.553681,2368.659014,1838.629195
972.719398,-9104.533087,2294.638420,1915.238745
972.719719,-8882.471304,1850.514855,1685.410096
972.720040,-9770.718434,1480.411884,1225.752797
972.720361,-9548.656652,1406.391290,689.485948
972.720681,-9992.780217,1406.391290,1072.533697
972.721002,-9992.780217,1480.411884,1378.971896
972.721323,-10214.842000,1406.391290,1838.629195
972.721643,-10214.842000,1110.308913,3370.820191
972.721964,-10584.944971,962.267725,4443.353888
972.722285,-11029.068536,1110.308913,5745.716235
972.722606,-11029.068536,1406.391290,6665.030833
972.722926,-9992.780217,1998.556043,6511.811733
972.723247,-9474.636058,1924.535449,7354.516781
972.723568,-9400.615463,1628.453072,7354.516781
972.723888,-9474.636058,296.082377,6205.373534
972.724209,-8660.409521,-592.164754,4596.572988
972.724530,-9474.636058,-444.123565,4366.744339
972.724851,-8142.265362,-148.041188,2068.457845
972.725171,-8808.450710,444.123565,2757.943793
972.725492,-9696.697840,296.082377,3140.991542
972.725813,-10436.903782,-444.123565,2987.772442
972.726133,-10362.883188,-592.164754,2757.943793
972.726454,-10807.006753,-666.185348,4213.525239
972.726775,-10510.924376,0.000000,5822.325785
972.727096,-11177.109724,74.020594,6741.640382
972.727416,-10140.821405,444.123565,7354.516781
972.727737,-8956.491898,-518.144159,5745.716235
972.728058,-8216.285956,-370.102971,4136.915689
972.728378,-8364.327145,1258.350101,3600.648841
972.728699,-8438.347739,1850.514855,3753.867940
972.729020,-8142.265362,1628.453072,3217.601092
972.729341,-9104.533087,1480.411884,1838.629195
972.729661,-8882.471304,1036.288319,1072.533697
972.729982,-9622.677246,1258.350101,2068.457845
972.730303,-10436.903782,2294.638420,3140.991542
972.730623,-10658.965565,2072.576638,2757.943793
972.730944,-10288.862594,2368.659014,842.705048
972.731265,-9474.636058,2442.679609,459.657299
972.731586,-9696.697840,2664.741391,536.266849
972.731906,-9770.718434,2220.617826,1915.238745
972.732227,-9844.739029,1184.329507,1455.581446
972.732548,-8956.491898,1332.370696,1225.752797
972.732868,-9178.553681,2072.576638,1532.190996
972.733189,-10066.800811,2886.803174,4213.525239
972.733510,-10436.903782,2960.823768,4749.792088
972.733830,-9992.780217,2368.659014,3524.039291
972.734151,-8956.491898,2072.576638,842.705048
972.734472,-8364.327145,3552.988522,1302.362347
972.734793,-10436.903782,3478.967927,3217.601092
972.735113,-10658.965565,3256.906145,4366.744339
972.735434,-9548.656652,3330.926739,3140.991542
972.735755,-10288.862594,3701.029710,2528.115143
972.736075,-10140.821405,3330.926739,2681.334243
972.736396,-10436.903782,3182.885551,2911.162892
972.736717,-10436.903782,3849.070898,3677.258390
972.737038,-8882.471304,3182.885551,2834.553343
972.737358,-8142.265362,2146.597232,2374.896044
972.737679,-9178.553681,814.226536,3524.039291
972.738000,-10066.800811,518.144159,4749.792088
972.738320,-11103.089130,1184.329507,5515.887586
972.738641,-10066.800811,1702.473667,6128.763984
972.738962,-9622.677246,888.247130,4443.353888
972.739283,-9474.636058,2442.679609,4903.011187
972.739603,-10066.800811,2368.659014,5592.497135
972.739924,-9696.697840,1850.514855,5745.716235
972.740245,-9104.533087,2442.679609,5056.230287
972.740565,-9474.636058,1258.350101,4596.572988
972.740886,-9400.615463,1554.432478,3983.696590
972.741207,-9474.636058,2220.617826,4749.792088
972.741528,-9252.574275,2146.597232,4213.525239
972.741848,-8734.430116,3923.091493,3600.648841
972.742169,-9474.636058,1998.556043,3753.867940
972.742490,-9178.553681,444.123565,3677.258390
972.742810,-9030.512492,1184.329507,3830.477490
972.743131,-11325.150913,-296.082377,3830.477490
972.743452,-9178.553681,962.267725,2451.505594
972.743773,-8734.430116,518.144159,1991.848295
972.744093,-9474.636058,740.205942,1915.238745
972.744414,-9178.553681,1258.350101,2528.115143
972.744735,-9918.759623,1480.411884,3447.429741
972.745055,-9918.759623,1184.329507,2604.724693
972.745376,-9918.759623,666.185348,1762.019645
972.745697,-9104.533087,1850.514855,1608.800546
972.746018,-9548.656652,2886.803174,2451.505594
972.746338,-9918.759623,2368.659014,2451.505594
972.746659,-8660.409521,1924.535449,1915.238745
972.746980,-8660.409521,74.020594,536.266849
972.747300,-9548.656652,-1554.432478,-919.314598
972.747621,-9400.615463,518.144159,-612.876398
972.747942,-9770.718434,2294.638420,689.485948
972.748263,-9252.574275,3478.967927,1225.752797
972.748583,-10362.883188,2516.700203,2834.553343
972.748904,-11177.109724,0.000000,3217.601092
972.749225,-11473.192101,-1036.288319,2145.067394
972.749545,-11917.315666,-1110.308913,2298.286494
972.749866,-10436.903782,814.226536,2451.505594
972.750187,-9474.636058,1554.432478,2604.724693
972.750508,-9030.512492,1776.494261,2374.896044
972.750828,-8142.265362,1332.370696,1608.800546
972.751149,-8512.368333,-1110.308913,-383.047749
972.751470,-8068.244768,-1184.329507,-306.438199
972.751790,-9178.553681,-740.205942,766.095498
972.752111,-9770.718434,148.041188,2451.505594
972.752432,-9696.697840,-296.082377,3830.477490
972.752753,-10510.924376,-1332.370696,4826.401637
972.753073,-10214.842000,-3330.926739,2451.505594
972.753394,-8734.430116,-2146.597232,1685.410096
972.753715,-9474.636058,-370.102971,2604.724693
972.754035,-8956.491898,1110.308913,2757.943793
972.754356,-9252.574275,1258.350101,2528.115143
972.754677,-8734.430116,444.123565,1915.238745
972.754997,-8142.265362,-1998.556043,-459.657299
972.755318,-8882.471304,-2220.617826,0.000000
972.755639,-9474.636058,0.000000,2911.162892
972.755960,-9622.677246,-1480.411884,4366.744339
972.756280,-9474.636058,-296.082377,3907.087040
972.756601,-10510.924376,-1850.514855,3064.381992
972.756922,-8956.491898,-1332.370696,919.314598
972.757242,-9844.739029,222.061783,1915.238745
972.757563,-10288.862594,962.267725,2911.162892
972.757884,-8734.430116,148.041188,919.314598
972.758204,-9326.594869,666.185348,689.485948
972.758525,-10140.821405,0.000000,689.485948
972.758846,-9030.512492,74.020594,536.266849
972.759166,-11399.171507,888.247130,1685.410096
972.759487,-9844.739029,2368.659014,2145.067394
972.759808,-9326.594869,2442.679609,1838.629195
972.760128,-11325.150913,666.185348,3677.258390
972.760449,-10510.924376,-444.123565,1225.752797
972.760770,-9770.718434,-444.123565,995.924147
972.761090,-11103.089130,-518.144159,1455.581446
972.761411,-8142.265362,888.247130,612.876398
972.761732,-9548.656652,888.247130,919.314598
972.762052,-10214.842000,444.123565,842.705048
972.762373,-8734.430116,148.041188,-1455.581446
972.762694,-9844.739029,-148.041188,-2528.115143
972.763014,-9844.739029,1036.288319,-1225.752797
972.763335,-9252.574275,2072.576638,-842.705048
972.763656,-10807.006753,1110.308913,919.314598
972.763976,-10658.965565,-296.082377,612.876398
972.764297,-8882.471304,-888.247130,-919.314598
972.764618,-9548.656652,-1110.308913,-536.266849
972.764938,-8956.491898,-518.144159,1685.410096
972.765259,-9326.594869,-1406.391290,1149.143247
972.765580,-9548.656652,-1924.535449,612.876398
972.765900,-7994.224174,-2590.720797,-995.924147
972.766221,-6365.771101,-2220.617826,-2987.772442
972.766542,-9622.677246,-740.205942,-919.314598
972.766862,-8586.388927,1628.453072,1302.362347
972.767183,-8956.491898,962.267725,1149.143247
972.767503,-9548.656652,0.000000,1455.581446
972.767824,-8882.471304,-1258.350101,0.000000
972.768145,-10807.006753,-814.226536,995.924147
972.768465,-10807.006753,-296.082377,2987.772442
972.768786,-8438.347739,1036.288319,2757.943793
972.769107,-9770.718434,444.123565,2451.505594
972.769427,-9474.636058,0.000000,1762.019645
972.769748,-9622.677246,-1480.411884,1455.581446
972.770069,-8956.491898,-1036.288319,612.876398
972.770389,-9992.780217,814.226536,5515.887586
972.770710,-13101.645173,-592.164754,2987.772442
972.771031,-8882.471304,-2368.659014,3524.039291
972.771351,-10140.821405,-3256.906145,153.219100
972.771672,-9474.636058,1258.350101,1685.410096
972.771993,-8216.285956,0.000000,-383.047749
972.772313,-9474.636058,2812.782580,2528.115143
972.772634,-8438.347739,1554.432478,229.828649
972.772955,-11325.150913,-1110.308913,0.000000
972.773275,-9844.739029,-2220.617826,536.266849
972.773596,-8956.491898,-1406.391290,-1762.019645
972.773917,-10658.965565,-148.041188,1302.362347
972.774237,-11029.068536,1998.556043,3370.820191
972.774558,-9918.759623,222.061783,3524.039291
972.774879,-11917.315666,-1776.494261,3294.210641
972.775199,-10510.924376,-2664.741391,2757.943793
972.775520,-10288.862594,-3256.906145,2145.067394
972.775841,-10807.006753,-2664.741391,2681.334243
972.776161,-9474.636058,-1850.514855,1532.190996
972.776482,-9178.553681,-518.144159,306.438199
972.776803,-7994.224174,-296.082377,-995.924147
972.777123,-9030.512492,-666.185348,-1149.143247
972.777444,-8734.430116,1480.411884,229.828649
972.777765,-9178.553681,-518.144159,842.705048
972.778085,-10140.821405,0.000000,0.000000
972.778406,-10288.862594,-1628.453072,689.485948
972.778727,-9770.718434,-3330.926739,229.828649
972.779047,-8142.265362,0.000000,306.438199
972.779368,-10288.862594,-1480.411884,1378.971896
972.779689,-8438.347739,-1480.411884,919.314598
972.780009,-8660.409521,-888.247130,-153.219100
972.780330,-10658.965565,-1332.370696,-383.047749
972.780651,-7846.182985,814.226536,-995.924147
972.780971,-9178.553681,1332.370696,1608.800546
972.781292,-8808.450710,814.226536,-76.609550
972.781613,-8586.388927,888.247130,0.000000
972.781933,-9696.697840,0.000000,689.485948
972.782254,-9474.636058,-1110.308913,0.000000
972.782575,-9252.574275,-1036.288319,153.219100
972.782895,-10214.842000,444.123565,1455.581446
972.783216,-10584.944971,-222.061783,1532.190996
972.783537,-9400.615463,1776.494261,1225.752797
972.783857,-10288.862594,-444.123565,919.314598
972.784178,-9992.780217,-888.247130,153.219100
972.784499,-9400.615463,1702.473667,306.438199
972.784819,-10584.944971,-296.082377,459.657299
972.785140,-8142.265362,1850.514855,919.314598
972.785461,-10362.883188,74.020594,3907.087040
972.785781,-10214.842000,-1184.329507,2374.896044
972.786102,-9918.759623,-370.102971,2374.896044
972.786423,-11251.130318,-666.185348,2911.162892
972.786743,-10214.842000,0.000000,2987.772442
972.787064,-10658.965565,888.247130,3140.991542
972.787384,-10436.903782,1258.350101,2604.724693
972.787705,-9326.594869,0.000000,1378.971896
972.788026,-8956.491898,0.000000,0.000000
972.788346,-8660.409521,666.185348,842.705048
972.788667,-9252.574275,222.061783,919.314598
972.788988,-9400.615463,1184.329507,1838.629195
972.789308,-10214.842000,518.144159,2681.334243
972.789629,-9548.656652,148.041188,1149.143247
972.789950,-9770.718434,0.000000,1762.019645
972.790270,-10140.821405,-444.123565,2681.334243
972.790591,-8438.347739,0.000000,2451.505594
972.790912,-10066.800811,-1332.370696,1838.629195
972.791232,-9770.718434,-2220.617826,1608.800546
972.791553,-8142.265362,-2738.761985,-689.485948
972.791874,-8734.430116,-888.247130,229.828649
972.792194,-9030.512492,0.000000,1225.752797
972.792515,-7846.182985,1110.308913,1455.581446
972.792836,-9696.697840,-1480.411884,2528.115143
972.793156,-9030.512492,-1850.514855,-229.828649
972.793477,-8956.491898,-1702.473667,-612.876398
972.793798,-10066.800811,-518.144159,1378.971896
972.794118,-9104.533087,0.000000,1378.971896
972.794439,-9622.677246,222.061783,995.924147
972.794760,-9844.739029,-814.226536,689.485948
972.795080,-7772.162391,-2146.597232,-2068.457845
972.795401,-9030.512492,-296.082377,-1149.143247
972.795722,-10658.965565,1036.288319,536.266849
972.796042,-9030.512492,1480.411884,612.876398
972.796363,-10881.027347,888.247130,1455.581446
972.796684,-10214.842000,-222.061783,1225.752797
972.797004,-9770.718434,-1480.411884,-229.828649
972.797325,-10955.047942,-1258.350101,1149.143247
972.797646,-10807.006753,0.000000,1838.629195
972.797966,-9400.615463,814.226536,536.266849
972.798287,-10881.027347,296.082377,689.485948
972.798608,-9400.615463,-370.102971,-612.876398
972.798928,-8882.471304,-148.041188,-766.095498
972.799249,-10658.965565,-1332.370696,0.000000
972.799570,-9474.636058,222.061783,689.485948
972.799890,-10140.821405,0.000000,689.485948
972.800211,-11547.212695,0.000000,2451.505594
972.800532,-9252.574275,0.000000,919.314598
972.800852,-11695.253884,-1998.556043,919.314598
972.801173,-10066.800811,-222.061783,2145.067394
972.801494,-9622.677246,-1036.288319,1455.581446
972.801814,-9178.553681,-1998.556043,3140.991542
