#time,accel_x,accel_y,accel_z
1276.393978,-9548.656652,-296.082377,1225.752797
1276.394298,-9696.697840,-370.102971,1225.752797
1276.394619,-9474.636058,-296.082377,1302.362347
1276.394940,-9548.656652,-296.082377,919.314598
1276.395261,-9548.656652,-296.082377,842.705048
1276.395582,-9326.594869,-296.082377,1149.143247
1276.395903,-9474.636058,-222.061783,1149.143247
1276.396224,-9474.636058,-370.102971,1225.752797
1276.396545,-9622.677246,0.000000,1149.143247
1276.396866,-9178.553681,-666.185348,919.314598
1276.397186,-9770.718434,-518.144159,1072.533697
1276.397507,-9548.656652,-444.123565,1149.143247
1276.397828,-9474.636058,-370.102971,1072.533697
1276.398149,-9474.636058,-222.061783,995.924147
1276.398470,-9474.636058,-444.123565,1149.143247
1276.398791,-9622.677246,0.000000,1302.362347
1276.399112,-9474.636058,-518.144159,1302.362347
1276.399433,-9474.636058,-592.164754,1149.143247
1276.399753,-9918.759623,-296.082377,919.314598
1276.400074,-9844.739029,-740.205942,842.705048
1276.400395,-9474.636058,-740.205942,842.705048
1276.400716,-9548.656652,-888.247130,919.314598
1276.401037,-9178.553681,-666.185348,842.705048
1276.401358,-9548.656652,-444.123565,842.705048
1276.401679,-9770.718434,-740.205942,1149.143247
1276.402000,-9548.656652,-592.164754,1225.752797
1276.402321,-9918.759623,-740.205942,383.047749
1276.402641,-9696.697840,-444.123565,995.924147
1276.402962,-9696.697840,-592.164754,842.705048
1276.403283,-9474.636058,-518.144159,1685.410096
1276.403604,-9696.697840,-1184.329507,919.314598
1276.403925,-9622.677246,-888.247130,1378.971896
1276.404246,-9622.677246,-1184.329507,1608.800546
1276.404567,-9770.718434,-1480.411884,2068.457845
1276.404888,-9400.615463,-1184.329507,2068.457845
1276.405208,-9844.739029,-814.226536,995.924147
1276.405529,-9474.636058,-1184.329507,1838.629195
1276.405850,-9252.574275,-1406.391290,1838.629195
1276.406171,-9474.636058,-1332.370696,1991.848295
1276.406492,-9844.739029,-962.267725,2451.505594
1276.406813,-9548.656652,-1406.391290,2221.676944
1276.407134,-9474.636058,-1776.494261,2528.115143
1276.407455,-9696.697840,-2072.576638,2987.772442
1276.407776,-9474.636058,-1998.556043,3600.648841
1276.408096,-9474.636058,-2590.720797,4290.134789
1276.408417,-9622.677246,-2368.659014,4596.572988
1276.408738,-9400.615463,-2738.761985,4749.792088
1276.409059,-9548.656652,-3330.926739,5132.839837
1276.409380,-9770.718434,-3330.926739,5745.716235
1276.409701,-9474.636058,-4367.215058,5745.716235
1276.410022,-9030.512492,-4145.153275,5515.887586
1276.410343,-8882.471304,-4145.153275,5592.497135
1276.410663,-9030.512492,-4219.173869,5898.935335
1276.410984,-9178.553681,-4441.235652,6128.763984
1276.411305,-9030.512492,-4367.215058,5745.716235
1276.411626,-9252.574275,-4737.318029,5745.716235
1276.411947,-9178.553681,-4515.256246,5745.716235
1276.412268,-9992.780217,-4219.173869,5362.668486
1276.412589,-9326.594869,-4145.153275,4826.401637
1276.412910,-9548.656652,-3849.070898,5056.230287
1276.413231,-9548.656652,-3552.988522,4903.011187
1276.413551,-9400.615463,-3404.947333,3753.867940
1276.413872,-9474.636058,-3552.988522,4596.572988
1276.414193,-9474.636058,-3775.050304,3907.087040
1276.414514,-9622.677246,-3627.009116,4443.353888
1276.414835,-9770.718434,-4145.153275,4060.306139
1276.415156,-9548.656652,-3997.112087,3677.258390
1276.415477,-9622.677246,-4737.318029,3677.258390
1276.415798,-9400.615463,-5033.400406,2911.162892
1276.416118,-9326.594869,-4959.379811,2068.457845
1276.416439,-9400.615463,-3997.112087,2145.067394
1276.416760,-9400.615463,-2960.823768,1072.533697
1276.417081,-9548.656652,-1554.432478,612.876398
1276.417402,-9696.697840,-666.185348,306.438199
1276.417723,-10436.903782,74.020594,229.828649
1276.418044,-10584.944971,222.061783,842.705048
1276.418365,-10658.965565,-370.102971,1149.143247
1276.418686,-10510.924376,-1332.370696,2145.067394
1276.419006,-10436.903782,-2664.741391,2528.115143
1276.419327,-9770.718434,-4293.194464,2451.505594
1276.419648,-9104.533087,-5107.421000,2298.286494
1276.419969,-9030.512492,-5033.400406,2604.724693
1276.420290,-8882.471304,-4515.256246,3217.601092
1276.420611,-8808.450710,-3923.091493,2681.334243
1276.420932,-8734.430116,-3404.947333,2451.505594
1276.421253,-8586.388927,-2886.803174,1838.629195
1276.421573,-9400.615463,-2368.659014,1302.362347
1276.421894,-9030.512492,-1480.411884,-383.047749
1276.422215,-9252.574275,0.000000,383.047749
1276.422536,-9696.697840,1554.432478,995.924147
1276.422857,-9918.759623,2220.617826,919.314598
1276.423178,-9474.636058,2590.720797,1915.238745
1276.423499,-10881.027347,1554.432478,2757.943793
1276.423820,-10214.842000,0.000000,4060.306139
1276.424141,-10066.800811,-2664.741391,4519.963438
1276.424461,-9622.677246,-4219.173869,4903.011187
1276.424782,-8808.450710,-5033.400406,5362.668486
1276.425103,-9030.512492,-5033.400406,6818.249932
1276.425424,-8364.327145,-5181.441594,7201.297681
1276.425745,-8290.306550,-5773.606348,5592.497135
1276.426066,-8216.285956,-5255.462188,4213.525239
1276.426387,-7698.141797,-2442.679609,2298.286494
1276.426708,-8956.491898,222.061783,3447.429741
1276.427028,-10510.924376,1998.556043,4366.744339
1276.427349,-9992.780217,2590.720797,4673.182538
1276.427670,-11029.068536,1850.514855,4290.134789
1276.427991,-11103.089130,666.185348,3830.477490
1276.428312,-10881.027347,-296.082377,4136.915689
1276.428633,-11695.253884,-1110.308913,5592.497135
1276.428954,-9770.718434,-2146.597232,6435.202183
1276.429275,-9474.636058,-4885.359217,5132.839837
1276.429596,-8142.265362,-6439.791695,4673.182538
1276.429916,-8734.430116,-7476.080014,3677.258390
1276.430237,-8216.285956,-5181.441594,4060.306139
1276.430558,-9400.615463,-3552.988522,4673.182538
1276.430879,-8586.388927,-2220.617826,3830.477490
1276.431200,-9326.594869,-1998.556043,3217.601092
1276.431521,-9474.636058,-1554.432478,2298.286494
1276.431842,-9696.697840,-962.267725,1991.848295
1276.432163,-10510.924376,-592.164754,1838.629195
1276.432483,-10658.965565,-666.185348,1838.629195
1276.432804,-9918.759623,-1776.494261,766.095498
1276.433125,-9770.718434,-2294.638420,-689.485948
1276.433446,-9104.533087,-2442.679609,-995.924147
1276.433767,-9326.594869,-1702.473667,-612.876398
1276.434088,-9548.656652,-1184.329507,1378.971896
1276.434409,-8660.409521,-2664.741391,2528.115143
1276.434730,-9104.533087,-3478.967927,1838.629195
1276.435051,-9844.739029,-4071.132681,2451.505594
1276.435371,-9474.636058,-4367.215058,3370.820191
1276.435692,-9918.759623,-4737.318029,4213.525239
1276.436013,-9548.656652,-5329.482782,3217.601092
1276.436334,-8216.285956,-4441.235652,1072.533697
1276.436655,-9178.553681,-2368.659014,1149.143247
1276.436976,-9696.697840,-962.267725,2221.676944
1276.437297,-9252.574275,-888.247130,1302.362347
1276.437618,-9400.615463,-592.164754,76.609550
1276.437938,-9474.636058,370.102971,0.000000
1276.438259,-9844.739029,814.226536,919.314598
1276.438580,-9474.636058,-518.144159,2451.505594
1276.438901,-10140.821405,-2368.659014,1838.629195
1276.439222,-8364.327145,-1628.453072,919.314598
1276.439543,-10066.800811,-2146.597232,1915.238745
1276.439864,-9992.780217,-1332.370696,3830.477490
1276.440185,-10066.800811,-2368.659014,4366.744339
1276.440506,-9918.759623,-4145.153275,3677.258390
1276.440826,-8586.388927,-2960.823768,1838.629195
1276.441147,-9844.739029,-2590.720797,2451.505594
1276.441468,-9844.739029,-2812.782580,2681.334243
1276.441789,-9326.594869,-1332.370696,1685.410096
1276.442110,-8808.450710,1184.329507,0.000000
1276.442431,-9770.718434,4515.256246,1685.410096
1276.442752,-10214.842000,4441.235652,2298.286494
1276.443073,-9844.739029,3182.885551,2298.286494
1276.443393,-11029.068536,2146.597232,1072.533697
1276.443714,-10510.924376,1998.556043,1685.410096
1276.444035,-10732.986159,592.164754,536.266849
1276.444356,-10584.944971,-1702.473667,2298.286494
1276.444677,-7846.182985,-2072.576638,0.000000
1276.444998,-9030.512492,-814.226536,-76.609550
1276.445319,-9030.512492,1258.350101,1532.190996
1276.445640,-8882.471304,1184.329507,1532.190996
1276.445961,-9326.594869,0.000000,2221.676944
1276.446281,-9252.574275,-518.144159,1532.190996
1276.446602,-9474.636058,-592.164754,1685.410096
1276.446923,-10881.027347,-1850.514855,1455.581446
1276.447244,-8808.450710,-666.185348,995.924147
1276.447565,-9104.533087,-148.041188,0.000000
1276.447885,-10140.821405,1702.473667,383.047749
1276.448206,-10066.800811,1554.432478,383.047749
1276.448527,-9770.718434,1628.453072,306.438199
1276.448848,-9770.718434,1628.453072,0.000000
1276.449169,-9992.780217,888.247130,689.485948
1276.449489,-9622.677246,-1554.432478,0.000000
1276.449810,-8882.471304,-2812.782580,-1225.752797
1276.450131,-7846.182985,-1776.494261,-2068.457845
1276.450452,-7698.141797,74.020594,-1149.143247
1276.450772,-9252.574275,592.164754,0.000000
1276.451093,-8364.327145,1332.370696,1532.190996
1276.451414,-9844.739029,296.082377,842.705048
1276.451735,-10436.903782,814.226536,1991.848295
1276.452056,-9844.739029,-74.020594,1762.019645
1276.452376,-10510.924376,-1554.432478,1991.848295
1276.452697,-9696.697840,-370.102971,689.485948
1276.453018,-9548.656652,1406.391290,153.219100
1276.453339,-10214.842000,1406.391290,1072.533697
1276.453659,-9252.574275,1110.308913,1149.143247
1276.453980,-9474.636058,666.185348,229.828649
1276.454301,-10584.944971,1406.391290,1072.533697
1276.454622,-10955.047942,592.164754,2451.505594
1276.454943,-10066.800811,-2146.597232,2221.676944
1276.455263,-8660.409521,-2516.700203,1915.238745
1276.455584,-9622.677246,-2220.617826,842.705048
1276.455905,-10288.862594,-666.185348,2145.067394
1276.456226,-9918.759623,-222.061783,2834.553343
1276.456546,-9030.512492,-296.082377,3447.429741
1276.456867,-9326.594869,-148.041188,1608.800546
1276.457188,-9844.739029,-740.205942,1685.410096
1276.457509,-9844.739029,-1776.494261,1838.629195
1276.457829,-9326.594869,-3108.864956,1149.143247
1276.458150,-8808.450710,-2516.700203,842.705048
1276.458471,-9918.759623,-1184.329507,1302.362347
1276.458792,-10214.842000,0.000000,2681.334243
1276.459113,-10732.986159,-1184.329507,1915.238745
1276.459433,-7402.059420,666.185348,1072.533697
1276.459754,-9844.739029,-444.123565,766.095498
1276.460075,-8512.368333,0.000000,1532.190996
1276.460396,-9548.656652,-2442.679609,1225.752797
1276.460716,-7624.121203,-2368.659014,-919.314598
1276.461037,-8068.244768,-1184.329507,-766.095498
1276.461358,-9400.615463,-296.082377,766.095498
1276.461679,-9696.697840,592.164754,2145.067394
1276.462000,-10140.821405,148.041188,1991.848295
1276.462320,-9178.553681,148.041188,2145.067394
1276.462641,-9992.780217,-962.267725,1532.190996
1276.462962,-9992.780217,-2294.638420,1762.019645
1276.463283,-9326.594869,-1776.494261,842.705048
1276.463603,-8512.368333,-814.226536,153.219100
1276.463924,-8512.368333,444.123565,-306.438199
1276.464245,-9400.615463,148.041188,689.485948
1276.464566,-9326.594869,222.061783,-229.828649
1276.464887,-9696.697840,1184.329507,0.000000
1276.465207,-10584.944971,1850.514855,1072.533697
1276.465528,-10362.883188,222.061783,919.314598
1276.465849,-9770.718434,-666.185348,76.609550
1276.466170,-9696.697840,74.020594,-229.828649
1276.466490,-9992.780217,1776.494261,766.095498
1276.466811,-10584.944971,1258.350101,2374.896044
1276.467132,-9474.636058,0.000000,2451.505594
1276.467453,-9474.636058,-1702.473667,766.095498
1276.467774,-9696.697840,-1332.370696,995.924147
1276.468094,-9844.739029,-1036.288319,1608.800546
1276.468415,-9252.574275,-888.247130,1608.800546
1276.468736,-8734.430116,-296.082377,689.485948
1276.469057,-9326.594869,1184.329507,995.924147
1276.469377,-10362.883188,1628.453072,1532.190996
1276.469698,-9992.780217,296.082377,1838.629195
1276.470019,-9918.759623,592.164754,1532.190996
1276.470340,-10362.883188,1036.288319,1455.581446
1276.470661,-10658.965565,1406.391290,1455.581446
1276.470981,-9770.718434,222.061783,1685.410096
1276.471302,-9030.512492,-740.205942,76.609550
1276.471623,-8660.409521,444.123565,-689.485948
1276.471944,-9178.553681,370.102971,2298.286494
1276.472264,-9992.780217,1184.329507,1915.238745
1276.472585,-10066.800811,370.102971,2374.896044
1276.472906,-9474.636058,-592.164754,1838.629195
1276.473227,-9474.636058,-592.164754,3524.039291
1276.473548,-9770.718434,-2738.761985,2528.115143
1276.473868,-8586.388927,-3108.864956,1455.581446
1276.474189,-8512.368333,-1924.535449,459.657299
1276.474510,-9104.533087,-740.205942,0.000000
1276.474831,-9548.656652,592.164754,459.657299
1276.475151,-9474.636058,444.123565,459.657299
1276.475472,-9474.636058,888.247130,76.609550
1276.475793,-9844.739029,962.267725,229.828649
1276.476114,-9992.780217,-148.041188,1685.410096
1276.476435,-9770.718434,-1850.514855,383.047749
1276.476755,-9252.574275,-1776.494261,-689.485948
1276.477076,-9030.512492,-222.061783,0.000000
1276.477397,-10288.862594,1036.288319,1455.581446
1276.477718,-9770.718434,1036.288319,2374.896044
1276.478038,-9400.615463,-222.061783,1532.190996
1276.478359,-9178.553681,-666.185348,1378.971896
1276.478680,-10140.821405,-2590.720797,1455.581446
1276.479001,-9548.656652,-3108.864956,1378.971896
1276.479321,-8808.450710,-2886.803174,459.657299
1276.479642,-8734.430116,-1406.391290,0.000000
1276.479963,-9770.718434,888.247130,842.705048
1276.480284,-9696.697840,1036.288319,2528.115143
1276.480605,-9474.636058,1480.411884,306.438199
1276.480925,-9844.739029,1776.494261,0.000000
1276.481246,-11177.109724,814.226536,766.095498
1276.481567,-10584.944971,-592.164754,689.485948
1276.481888,-9178.553681,-2072.576638,536.266849
1276.482208,-9178.553681,-1110.308913,-306.438199
1276.482529,-9622.677246,74.020594,842.705048
1276.482850,-10214.842000,0.000000,2911.162892
1276.483171,-10288.862594,-1184.329507,2911.162892
1276.483492,-9252.574275,-2072.576638,2374.896044
1276.483812,-9548.656652,-2590.720797,2374.896044
1276.484133,-9400.615463,-3701.029710,2451.505594
1276.484454,-9104.533087,-4441.235652,1838.629195
1276.484775,-8438.347739,-3775.050304,229.828649
1276.485095,-8290.306550,-1184.329507,689.485948
1276.485416,-9474.636058,444.123565,1225.752797
1276.485737,-9844.739029,1184.329507,1532.190996
1276.486058,-10140.821405,1628.453072,-459.657299
1276.486379,-10214.842000,2220.617826,1685.410096
1276.486699,-10658.965565,666.185348,1762.019645
1276.487020,-9844.739029,-1554.432478,1149.143247
1276.487341,-9178.553681,-1924.535449,0.000000
1276.487662,-9474.636058,-740.205942,306.438199
1276.487982,-9104.533087,370.102971,1608.800546
1276.488303,-9252.574275,0.000000,2451.505594
1276.488624,-9400.615463,-666.185348,2145.067394
1276.488945,-9252.574275,-518.144159,1455.581446
1276.489266,-9622.677246,-2368.659014,2451.505594
1276.489586,-9622.677246,-3034.844362,2451.505594
1276.489907,-8808.450710,-3627.009116,1225.752797
1276.490228,-8734.430116,-1924.535449,1072.533697
1276.490549,-8956.491898,592.164754,766.095498
1276.490869,-10288.862594,1628.453072,1149.143247
1276.491190,-9844.739029,1850.514855,383.047749
1276.491511,-9474.636058,2664.741391,-306.438199
1276.491832,-10881.027347,2960.823768,229.828649
1276.492153,-10584.944971,2812.782580,766.095498
1276.492473,-10807.006753,-148.041188,306.438199
1276.492794,-8586.388927,-296.082377,-766.095498
1276.493115,-8808.450710,296.082377,1378.971896
1276.493436,-10436.903782,888.247130,1532.190996
1276.493756,-10140.821405,-148.041188,1991.848295
1276.494077,-9252.574275,148.041188,1225.752797
1276.494398,-9400.615463,-296.082377,76.609550
1276.494719,-8808.450710,-666.185348,459.657299
1276.495040,-9770.718434,-1850.514855,995.924147
1276.495360,-8956.491898,-1554.432478,1225.752797
1276.495681,-9400.615463,-1258.350101,689.485948
1276.496002,-10807.006753,444.123565,2068.457845
1276.496323,-10732.986159,814.226536,2451.505594
1276.496643,-10732.986159,1184.329507,1608.800546
1276.496964,-10510.924376,3034.844362,1762.019645
1276.497285,-10066.800811,1924.535449,766.095498
1276.497606,-8956.491898,518.144159,-153.219100
1276.497927,-8660.409521,-222.061783,-842.705048
1276.498247,-8142.265362,-370.102971,-1149.143247
1276.498568,-9770.718434,0.000000,1378.971896
1276.498889,-10362.883188,-370.102971,3294.210641
1276.499210,-9844.739029,-1332.370696,3524.039291
1276.499530,-10066.800811,-1924.535449,2757.943793
1276.499851,-9474.636058,-1776.494261,2911.162892
1276.500172,-9548.656652,-2368.659014,2451.505594
1276.500493,-7698.141797,-1998.556043,842.705048
1276.500814,-7624.121203,-1480.411884,-612.876398
1276.501134,-7920.203579,518.144159,-1072.533697
1276.501455,-9770.718434,1258.350101,-153.219100
1276.501776,-9770.718434,1702.473667,-383.047749
1276.502097,-9770.718434,2146.597232,0.000000
1276.502417,-11029.068536,1998.556043,766.095498
1276.502738,-11325.150913,1850.514855,2298.286494
1276.503059,-11103.089130,-1480.411884,2145.067394
1276.503380,-9918.759623,-2812.782580,229.828649
1276.503700,-9104.533087,-1332.370696,-536.266849
1276.504021,-9474.636058,148.041188,306.438199
1276.504342,-9696.697840,444.123565,2145.067394
1276.504663,-9252.574275,-518.144159,1685.410096
1276.504984,-8586.388927,-1850.514855,306.438199
1276.505304,-9326.594869,-2516.700203,919.314598
1276.505625,-10288.862594,-2516.700203,1225.752797
1276.505946,-9770.718434,-2664.741391,2221.676944
1276.506267,-9770.718434,-1924.535449,1838.629195
1276.506587,-9844.739029,0.000000,995.924147
1276.506908,-9918.759623,888.247130,0.000000
1276.507229,-10140.821405,1554.432478,842.705048
1276.507550,-10807.006753,2072.576638,919.314598
1276.507871,-10288.862594,1258.350101,536.266849
1276.508191,-9992.780217,-370.102971,383.047749
1276.508512,-9622.677246,-2146.597232,76.609550
1276.508833,-9770.718434,-2294.638420,76.609550
1276.509154,-9770.718434,-1110.308913,1532.190996
1276.509474,-9770.718434,-518.144159,2451.505594
1276.509795,-9030.512492,-592.164754,2221.676944
1276.510116,-9622.677246,-1998.556043,2221.676944
1276.510437,-8882.471304,-1554.432478,1762.019645
1276.510758,-8956.491898,-2590.720797,1915.238745
1276.511078,-7179.997637,-3552.988522,3064.381992
1276.511399,-7550.100608,-2738.761985,153.219100
1276.511720,-8142.265362,-1480.411884,383.047749
1276.512041,-9326.594869,-222.061783,1225.752797
1276.512361,-9400.615463,222.061783,1378.971896
1276.512682,-10214.842000,518.144159,919.314598
1276.513003,-9918.759623,3627.009116,1455.581446
1276.513324,-12435.459826,2220.617826,2911.162892
1276.513645,-9992.780217,1110.308913,2911.162892
1276.513965,-9548.656652,-1554.432478,1149.143247
1276.514286,-8734.430116,-1924.535449,-689.485948
1276.514607,-8586.388927,-666.185348,0.000000
1276.514928,-9400.615463,0.000000,2068.457845
1276.515248,-9992.780217,-222.061783,4136.915689
1276.515569,-8290.306550,74.020594,1455.581446
1276.515890,-10732.986159,0.000000,2451.505594
1276.516211,-9844.739029,-1258.350101,3294.210641
1276.516532,-9918.759623,-2368.659014,2221.676944
1276.516852,-9770.718434,-1628.453072,1608.800546
1276.517173,-9252.574275,0.000000,459.657299
1276.517494,-9400.615463,814.226536,306.438199
1276.517815,-9770.718434,1776.494261,0.000000
1276.518135,-9178.553681,2664.741391,-536.266849
1276.518456,-10955.047942,3182.885551,-306.438199
1276.518777,-11325.150913,1998.556043,689.485948
1276.519098,-9992.780217,0.000000,-306.438199
1276.519419,-10140.821405,-370.102971,76.609550
1276.519739,-9992.780217,592.164754,229.828649
1276.520060,-10362.883188,962.267725,1762.019645
1276.520381,-9918.759623,74.020594,1685.410096
1276.520702,-8956.491898,-1184.329507,689.485948
1276.521022,-8512.368333,-518.144159,842.705048
1276.521343,-10066.800811,-962.267725,2068.457845
1276.521664,-9548.656652,-1628.453072,2681.334243
1276.521985,-8660.409521,-1924.535449,919.314598
1276.522306,-8290.306550,-1036.288319,-383.047749
1276.522626,-9178.553681,296.082377,766.095498
1276.522947,-9548.656652,222.061783,1378.971896
1276.523268,-9178.553681,296.082377,919.314598
1276.523589,-9770.718434,2368.659014,-306.438199
1276.523909,-9992.780217,1702.473667,306.438199
1276.524230,-10140.821405,296.082377,919.314598
1276.524551,-9474.636058,-888.247130,76.609550
1276.524872,-8956.491898,-814.226536,-1532.190996
1276.525192,-9474.636058,222.061783,0.000000
1276.525513,-9622.677246,148.041188,2221.676944
1276.525834,-9548.656652,-1184.329507,2757.943793
1276.526155,-9548.656652,-2072.576638,2451.505594
1276.526476,-8882.471304,-1258.350101,2068.457845
1276.526796,-9696.697840,-1998.556043,2528.115143
1276.527117,-8956.491898,-3182.885551,2374.896044
1276.527438,-7846.182985,-3034.844362,766.095498
1276.527759,-7846.182985,-1850.514855,-229.828649
1276.528079,-9474.636058,222.061783,689.485948
1276.528400,-9622.677246,1036.288319,1149.143247
1276.528721,-10140.821405,1110.308913,842.705048
1276.529042,-10955.047942,1554.432478,766.095498
1276.529363,-11621.233289,1628.453072,1225.752797
1276.529683,-11695.253884,0.000000,1838.629195
1276.530004,-10066.800811,-1332.370696,229.828649
1276.530325,-9844.739029,-1110.308913,-383.047749
1276.530646,-9326.594869,666.185348,-153.219100
1276.530966,-10732.986159,0.000000,919.314598
1276.531287,-8438.347739,814.226536,1532.190996
1276.531608,-9992.780217,-1924.535449,1302.362347
1276.531929,-8734.430116,-1628.453072,2298.286494
1276.532250,-10362.883188,-3478.967927,2451.505594
1276.532570,-8364.327145,-4071.132681,1378.971896
1276.532891,-8512.368333,-2812.782580,995.924147
1276.533212,-8882.471304,-1554.432478,153.219100
1276.533533,-8660.409521,0.000000,459.657299
1276.533853,-9548.656652,518.144159,153.219100
1276.534174,-9400.615463,2516.700203,-383.047749
1276.534495,-10436.903782,2368.659014,383.047749
1276.534816,-9992.780217,666.185348,1302.362347
1276.535137,-9474.636058,-592.164754,-229.828649
1276.535457,-9696.697840,-1480.411884,-919.314598
1276.535778,-9474.636058,0.000000,383.047749
1276.536099,-9770.718434,1184.329507,1455.581446
1276.536420,-10066.800811,-444.123565,2757.943793
1276.536740,-8956.491898,-1036.288319,1915.238745
1276.537061,-8882.471304,-888.247130,1608.800546
1276.537382,-9400.615463,-1628.453072,2987.772442
1276.537703,-9548.656652,-2368.659014,2298.286494
1276.538024,-8290.306550,-2294.638420,1455.581446
1276.538344,-8586.388927,-1776.494261,536.266849
1276.538665,-9326.594869,-296.082377,1225.752797
1276.538986,-10510.924376,0.000000,842.705048
1276.539307,-10066.800811,1332.370696,1072.533697
1276.539627,-10436.903782,2368.659014,612.876398
1276.539948,-10436.903782,2738.761985,536.266849
1276.540269,-10436.903782,296.082377,842.705048
1276.540590,-9770.718434,-888.247130,-536.266849
1276.540911,-9178.553681,-444.123565,-1225.752797
1276.541231,-10140.821405,1258.350101,612.876398
1276.541552,-10362.883188,1628.453072,2681.334243
1276.541873,-10362.883188,74.020594,2987.772442
1276.542194,-9696.697840,-222.061783,3294.210641
1276.542514,-9622.677246,-1628.453072,2298.286494
1276.542835,-10066.800811,-2516.700203,3677.258390
1276.543156,-9548.656652,-4145.153275,2911.162892
1276.543477,-8068.244768,-2516.700203,1378.971896
1276.543798,-9326.594869,-1036.288319,842.705048
1276.544118,-8734.430116,1036.288319,995.924147
1276.544439,-9030.512492,1554.432478,1532.190996
1276.544760,-9696.697840,1776.494261,536.266849
1276.545081,-9918.759623,1628.453072,383.047749
1276.545401,-10658.965565,1036.288319,919.314598
1276.545722,-10140.821405,-518.144159,459.657299
1276.546043,-9252.574275,-962.267725,0.000000
1276.546364,-9622.677246,518.144159,76.609550
1276.546685,-9622.677246,1406.391290,1225.752797
1276.547005,-9548.656652,296.082377,2374.896044
1276.547326,-9474.636058,-962.267725,1915.238745
1276.547647,-8882.471304,-1998.556043,919.314598
1276.547968,-8808.450710,-1776.494261,2068.457845
1276.548288,-9622.677246,-2886.803174,2298.286494
1276.548609,-8956.491898,-2886.803174,1838.629195
1276.548930,-7994.224174,-2146.597232,689.485948
1276.549251,-8734.430116,-740.205942,383.047749
1276.549572,-9104.533087,740.205942,1149.143247
1276.549893,-10140.821405,666.185348,689.485948
1276.550214,-9696.697840,2146.597232,153.219100
1276.550535,-10214.842000,2146.597232,229.828649
1276.550856,-10288.862594,1184.329507,766.095498
1276.551177,-10288.862594,-814.226536,612.876398
1276.551498,-9548.656652,-1628.453072,-1302.362347
1276.551819,-9474.636058,-222.061783,-153.219100
1276.552140,-10362.883188,-222.061783,995.924147
1276.552461,-9992.780217,222.061783,2068.457845
1276.552782,-9474.636058,-296.082377,1455.581446
1276.553103,-9178.553681,-962.267725,995.924147
1276.553424,-9252.574275,-1480.411884,1532.190996
1276.553745,-9622.677246,-2886.803174,919.314598
1276.554066,-8660.409521,-2664.741391,306.438199
1276.554387,-8956.491898,-1332.370696,0.000000
1276.554708,-10510.924376,444.123565,1685.410096
1276.555029,-10140.821405,888.247130,2145.067394
1276.555350,-11177.109724,814.226536,2451.505594
1276.555671,-11103.089130,888.247130,1455.581446
1276.555992,-10955.047942,518.144159,2068.457845
1276.556313,-10510.924376,-962.267725,1225.752797
1276.556634,-9178.553681,-1702.473667,-766.095498
1276.556955,-7698.141797,-592.164754,-1762.019645
1276.557276,-8956.491898,1184.329507,-612.876398
1276.557597,-9474.636058,1628.453072,1762.019645
1276.557918,-10140.821405,370.102971,2298.286494
1276.558239,-9326.594869,-814.226536,1685.410096
1276.558560,-9770.718434,-1258.350101,2451.505594
1276.558881,-10436.903782,-1850.514855,3677.258390
1276.559202,-9622.677246,-2516.700203,2757.943793
1276.559523,-7920.203579,-1554.432478,919.314598
1276.559844,-8586.388927,0.000000,1225.752797
1276.560165,-9104.533087,740.205942,612.876398
1276.560486,-9178.553681,814.226536,766.095498
1276.560807,-9400.615463,1554.432478,-229.828649
1276.561128,-9844.739029,2516.700203,229.828649
1276.561449,-10732.986159,1776.494261,1532.190996
1276.561770,-9918.759623,-444.123565,1302.362347
1276.562091,-9770.718434,-2294.638420,0.000000
1276.562412,-9622.677246,-740.205942,536.266849
1276.562733,-10140.821405,-518.144159,1378.971896
1276.563054,-9770.718434,-370.102971,2451.505594
1276.563376,-9178.553681,74.020594,1072.533697
1276.563697,-9178.553681,-222.061783,1532.190996
1276.564018,-9400.615463,-666.185348,1072.533697
1276.564339,-9030.512492,-2442.679609,1762.019645
1276.564660,-9104.533087,-3552.988522,536.266849
1276.564981,-8512.368333,-1998.556043,536.266849
1276.565302,-9696.697840,-962.267725,842.705048
1276.565623,-10436.903782,444.123565,2221.676944
1276.565944,-9622.677246,-370.102971,1225.752797
1276.566265,-9770.718434,444.123565,536.266849
1276.566586,-10658.965565,1702.473667,459.657299
1276.566907,-9844.739029,1850.514855,995.924147
1276.567228,-9844.739029,74.020594,612.876398
1276.567549,-9252.574275,74.020594,0.000000
1276.567870,-9622.677246,518.144159,612.876398
1276.568191,-11103.089130,666.185348,3600.648841
1276.568512,-10584.944971,-740.205942,2681.334243
1276.568833,-9548.656652,-1184.329507,2068.457845
1276.569154,-9326.594869,-814.226536,1532.190996
1276.569475,-9252.574275,-1702.473667,1378.971896
1276.569796,-7846.182985,-1776.494261,842.705048
1276.570117,-8142.265362,-1850.514855,0.000000
1276.570438,-7328.038826,-592.164754,-612.876398
1276.570759,-9030.512492,-148.041188,229.828649
1276.571080,-10066.800811,-814.226536,2068.457845
1276.571401,-9252.574275,222.061783,459.657299
1276.571722,-10584.944971,1480.411884,1378.971896
1276.572043,-11473.192101,1406.391290,2757.943793
1276.572364,-10362.883188,-222.061783,2068.457845
1276.572685,-10732.986159,-1332.370696,153.219100
1276.573006,-8882.471304,-814.226536,-1149.143247
1276.573327,-9252.574275,1036.288319,-766.095498
1276.573648,-10362.883188,814.226536,1302.362347
1276.573969,-9178.553681,296.082377,1225.752797
1276.574290,-9548.656652,-592.164754,689.485948
1276.574611,-9918.759623,-1480.411884,1762.019645
1276.574932,-9770.718434,-2072.576638,2451.505594
1276.575253,-9844.739029,-2368.659014,2145.067394
1276.575574,-9326.594869,-2220.617826,1455.581446
1276.575895,-8364.327145,222.061783,1149.143247
1276.576216,-9400.615463,222.061783,612.876398
1276.576537,-8586.388927,1036.288319,689.485948
1276.576858,-8734.430116,740.205942,0.000000
1276.577179,-10066.800811,1036.288319,0.000000
1276.577500,-10288.862594,1110.308913,1149.143247
1276.577821,-9992.780217,-814.226536,919.314598
1276.578142,-9622.677246,-740.205942,766.095498
1276.578463,-10362.883188,962.267725,1302.362347
1276.578784,-11251.130318,1776.494261,2374.896044
1276.579105,-10436.903782,962.267725,2681.334243
1276.579426,-9474.636058,-1110.308913,229.828649
1276.579747,-9178.553681,-518.144159,536.266849
1276.580068,-9474.636058,-1258.350101,995.924147
1276.580389,-9178.553681,-1776.494261,1685.410096
1276.580710,-8068.244768,-2368.659014,0.000000
1276.581032,-8660.409521,-1702.473667,0.000000
1276.581353,-9844.739029,-148.041188,1149.143247
1276.581674,-10436.903782,296.082377,1455.581446
1276.581995,-9918.759623,814.226536,1532.190996
1276.582316,-9918.759623,1184.329507,383.047749
1276.582637,-9992.780217,1628.453072,153.219100
1276.582958,-10214.842000,222.061783,766.095498
1276.583279,-9178.553681,-444.123565,0.000000
1276.583600,-9326.594869,-666.185348,-919.314598
1276.583921,-9548.656652,-74.020594,-306.438199
1276.584242,-9474.636058,222.061783,1762.019645
1276.584563,-10288.862594,-1406.391290,2451.505594
1276.584884,-9178.553681,-296.082377,2451.505594
1276.585205,-10362.883188,-1406.391290,2757.943793
1276.585526,-8956.491898,-1480.411884,2451.505594
1276.585847,-9326.594869,-2368.659014,1762.019645
1276.586168,-8364.327145,-2220.617826,306.438199
1276.586489,-8290.306550,-222.061783,-612.876398
1276.586810,-9474.636058,1110.308913,766.095498
1276.587131,-8808.450710,592.164754,612.876398
1276.587452,-9474.636058,592.164754,229.828649
1276.587773,-11029.068536,1406.391290,1072.533697
1276.588094,-11695.253884,2072.576638,1762.019645
1276.588415,-11399.171507,444.123565,2757.943793
1276.588736,-9918.759623,-1850.514855,919.314598
1276.589057,-9326.594869,-2368.659014,229.828649
1276.589378,-10436.903782,-592.164754,919.314598
1276.589699,-9548.656652,-370.102971,1838.629195
1276.590020,-9252.574275,-1850.514855,766.095498
1276.590341,-8290.306550,-1480.411884,-229.828649
1276.590662,-9326.594869,0.000000,1149.143247
1276.590983,-11103.089130,-518.144159,2528.115143
1276.591304,-9252.574275,-2368.659014,2604.724693
1276.591625,-8808.450710,-2664.741391,383.047749
1276.591946,-10362.883188,-814.226536,612.876398
1276.592267,-9622.677246,-518.144159,536.266849
1276.592588,-10584.944971,222.061783,1685.410096
1276.592909,-9252.574275,518.144159,536.266849
1276.593230,-9844.739029,2220.617826,842.705048
1276.593551,-10362.883188,592.164754,1762.019645
1276.593872,-10510.924376,-1184.329507,766.095498
1276.594193,-9400.615463,-1554.432478,0.000000
1276.594514,-9770.718434,-814.226536,153.219100
1276.594835,-9474.636058,518.144159,1302.362347
1276.595156,-10584.944971,-222.061783,2298.286494
1276.595477,-9622.677246,-296.082377,1915.238745
1276.595798,-9178.553681,-296.082377,1608.800546
1276.596119,-10066.800811,-518.144159,1455.581446
1276.596440,-9178.553681,-1776.494261,1838.629195
1276.596761,-8808.450710,-2516.700203,536.266849
1276.597082,-8512.368333,-1110.308913,0.000000
1276.597403,-9326.594869,370.102971,842.705048
1276.597724,-9844.739029,592.164754,1532.190996
1276.598045,-9474.636058,222.061783,842.705048
1276.598366,-9918.759623,888.247130,842.705048
1276.598687,-10288.862594,1036.288319,995.924147
1276.599009,-10214.842000,0.000000,1532.190996
1276.599330,-9770.718434,-888.247130,229.828649
1276.599651,-8734.430116,-666.185348,-995.924147
1276.599972,-9474.636058,888.247130,306.438199
1276.600293,-10288.862594,2220.617826,2681.334243
1276.600614,-9770.718434,-148.041188,2757.943793
1276.600935,-9252.574275,-1480.411884,1838.629195
1276.601256,-9474.636058,-1480.411884,2221.676944
1276.601577,-10881.027347,-1110.308913,1532.190996
1276.601898,-9844.739029,-1702.473667,2911.162892
1276.602219,-8586.388927,-1776.494261,995.924147
1276.602540,-8142.265362,592.164754,153.219100
1276.602861,-10140.821405,962.267725,536.266849
1276.603182,-9770.718434,962.267725,1072.533697
1276.603503,-9918.759623,1776.494261,842.705048
1276.603824,-10214.842000,1776.494261,689.485948
1276.604145,-10881.027347,1850.514855,1532.190996
1276.604466,-11325.150913,-740.205942,1838.629195
1276.604787,-9474.636058,-1924.535449,76.609550
1276.605108,-9400.615463,-1184.329507,0.000000
1276.605429,-10066.800811,814.226536,995.924147
1276.605750,-9622.677246,1036.288319,4213.525239
1276.606071,-9474.636058,0.000000,1838.629195
1276.606392,-8660.409521,-814.226536,842.705048
1276.606713,-9400.615463,-962.267725,842.705048
1276.607034,-9474.636058,-1924.535449,1149.143247
1276.607355,-9252.574275,-1776.494261,766.095498
1276.607676,-9178.553681,-592.164754,306.438199
1276.607997,-9326.594869,296.082377,612.876398
1276.608318,-9992.780217,592.164754,1149.143247
1276.608639,-9918.759623,0.000000,383.047749
1276.608960,-9622.677246,148.041188,-306.438199
1276.609281,-10288.862594,370.102971,0.000000
1276.609602,-9992.780217,-148.041188,76.609550
1276.609923,-8660.409521,-1184.329507,1991.848295
1276.610244,-9400.615463,-444.123565,-612.876398
1276.610565,-9326.594869,888.247130,-229.828649
1276.610886,-10140.821405,1406.391290,1302.362347
1276.611207,-10288.862594,0.000000,1838.629195
1276.611528,-9622.677246,-592.164754,1915.238745
1276.611849,-9548.656652,-1184.329507,1608.800546
1276.612170,-9770.718434,-962.267725,1991.848295
1276.612491,-9030.512492,-2220.617826,1838.629195
1276.612812,-8068.244768,-2664.741391,-153.219100
1276.613133,-7920.203579,-888.247130,-689.485948
1276.613454,-8734.430116,-296.082377,-1225.752797
1276.613775,-9030.512492,888.247130,153.219100
1276.614096,-9696.697840,1480.411884,-612.876398
1276.614417,-10658.965565,1628.453072,2068.457845
1276.614738,-11695.253884,518.144159,3447.429741
1276.615059,-11473.192101,-1924.535449,4060.306139
1276.615380,-10362.883188,-3849.070898,2221.676944
1276.615701,-9400.615463,-3404.947333,229.828649
1276.616022,-9252.574275,0.000000,1455.581446
1276.616343,-9474.636058,740.205942,2451.505594
1276.616665,-8882.471304,1036.288319,2374.896044
1276.616986,-8364.327145,0.000000,459.657299
1276.617307,-8660.409521,-888.247130,1225.752797
1276.617628,-10140.821405,-2590.720797,1991.848295
1276.617949,-9770.718434,-3034.844362,2374.896044
1276.618270,-8290.306550,-2146.597232,2221.676944
1276.618591,-9474.636058,-962.267725,1302.362347
1276.618912,-10066.800811,148.041188,1838.629195
1276.619233,-10732.986159,-370.102971,1685.410096
1276.619554,-9474.636058,740.205942,0.000000
1276.619875,-10584.944971,740.205942,459.657299
1276.620196,-10288.862594,740.205942,153.219100
1276.620517,-9548.656652,0.000000,306.438199
1276.620838,-9400.615463,-962.267725,-306.438199
1276.621159,-9400.615463,-148.041188,-383.047749
1276.621480,-9992.780217,0.000000,1302.362347
1276.621801,-11177.109724,-296.082377,2987.772442
1276.622122,-10214.842000,-814.226536,2604.724693
1276.622443,-9918.759623,-1406.391290,4060.306139
1276.622764,-9474.636058,-1406.391290,1991.848295
1276.623085,-9326.594869,-2516.700203,689.485948
1276.623406,-7698.141797,-1776.494261,383.047749
1276.623727,-9030.512492,-2220.617826,-306.438199
1276.624048,-8068.244768,74.020594,-306.438199
1276.624369,-9474.636058,0.000000,0.000000
1276.624690,-9474.636058,1776.494261,383.047749
1276.625011,-10214.842000,2664.741391,842.705048
1276.625332,-11029.068536,2960.823768,2374.896044
1276.625653,-10807.006753,888.247130,1991.848295
1276.625974,-9326.594869,-1776.494261,-612.876398
1276.626295,-9474.636058,-1702.473667,-842.705048
1276.626616,-9548.656652,740.205942,383.047749
1276.626937,-9770.718434,1924.535449,1991.848295
1276.627258,-9770.718434,1036.288319,3217.601092
1276.627579,-8808.450710,296.082377,2451.505594
1276.627900,-9696.697840,-740.205942,2757.943793
1276.628221,-10732.986159,-2442.679609,3370.820191
1276.628542,-9622.677246,-3775.050304,3370.820191
1276.628863,-8512.368333,-3478.967927,1302.362347
1276.629184,-8216.285956,-1554.432478,-536.266849
1276.629505,-8882.471304,1406.391290,-459.657299
1276.629826,-9326.594869,2220.617826,306.438199
1276.630147,-9030.512492,2886.803174,0.000000
1276.630468,-9992.780217,2664.741391,-306.438199
1276.630789,-11251.130318,2220.617826,612.876398
1276.631110,-11473.192101,0.000000,1991.848295
1276.631431,-10584.944971,-1998.556043,689.485948
1276.631752,-9548.656652,-1258.350101,766.095498
1276.632073,-9918.759623,370.102971,919.314598
1276.632394,-10732.986159,518.144159,2451.505594
1276.632715,-10066.800811,0.000000,1915.238745
1276.633036,-9104.533087,-1258.350101,995.924147
1276.633357,-9030.512492,-1406.391290,153.219100
1276.633678,-9844.739029,-2590.720797,383.047749
1276.633999,-8512.368333,-2442.679609,612.876398
1276.634320,-8512.368333,-1776.494261,0.000000
1276.634642,-9400.615463,0.000000,459.657299
1276.634963,-10510.924376,1406.391290,1455.581446
1276.635284,-10510.924376,814.226536,766.095498
1276.635605,-10214.842000,1406.391290,0.000000
1276.635926,-10362.883188,2220.617826,306.438199
1276.636247,-10288.862594,1480.411884,766.095498
1276.636568,-9474.636058,-592.164754,-306.438199
1276.636889,-8364.327145,-1110.308913,-1608.800546
1276.637210,-8734.430116,-814.226536,-1149.143247
1276.637531,-9474.636058,592.164754,1302.362347
1276.637852,-10214.842000,-444.123565,2451.505594
1276.638173,-9104.533087,-1258.350101,1991.848295
1276.638494,-8956.491898,-1850.514855,1455.581446
1276.638815,-9252.574275,-1480.411884,1685.410096
1276.639136,-8586.388927,-2590.720797,3217.601092
1276.639457,-8734.430116,-2220.617826,1072.533697
1276.639778,-7624.121203,296.082377,536.266849
1276.640099,-10436.903782,-222.061783,536.266849
1276.640420,-9178.553681,1406.391290,1455.581446
1276.640741,-10881.027347,370.102971,2221.676944
1276.641062,-10732.986159,962.267725,1149.143247
1276.641383,-10807.006753,1850.514855,1532.190996
1276.641704,-10807.006753,148.041188,1378.971896
1276.642025,-8956.491898,-1554.432478,612.876398
1276.642346,-8364.327145,-1924.535449,-1455.581446
1276.642667,-8734.430116,-370.102971,-153.219100
1276.642988,-9474.636058,-444.123565,1072.533697
1276.643309,-9326.594869,-592.164754,1762.019645
1276.643630,-9474.636058,-1036.288319,2604.724693
1276.643951,-10362.883188,-1406.391290,3064.381992
1276.644272,-10881.027347,-1480.411884,4290.134789
1276.644593,-10584.944971,-2516.700203,4060.306139
1276.644914,-9548.656652,-2368.659014,2757.943793
1276.645235,-9178.553681,-1110.308913,1378.971896
1276.645556,-9622.677246,74.020594,1455.581446
1276.645877,-8512.368333,518.144159,536.266849
1276.646198,-9030.512492,740.205942,-766.095498
1276.646519,-9252.574275,2220.617826,-153.219100
1276.646840,-9770.718434,1776.494261,1072.533697
1276.647161,-10658.965565,-592.164754,1532.190996
1276.647482,-10214.842000,-1924.535449,306.438199
1276.647803,-9696.697840,-1332.370696,0.000000
1276.648124,-10436.903782,222.061783,1455.581446
1276.648445,-10658.965565,-148.041188,3140.991542
1276.648766,-9992.780217,-1332.370696,2451.505594
1276.649089,-8660.409521,-1702.473667,1149.143247
1276.649410,-8438.347739,-1480.411884,766.095498
1276.649731,-9178.553681,-2072.576638,1149.143247
1276.650052,-8956.491898,-2590.720797,842.705048
1276.650372,-8068.244768,-2442.679609,-306.438199
1276.650693,-8808.450710,-370.102971,-306.438199
1276.651014,-9548.656652,370.102971,459.657299
1276.651335,-9770.718434,740.205942,1149.143247
1276.651656,-10584.944971,1036.288319,-536.266849
1276.651977,-10584.944971,2590.720797,919.314598
1276.652298,-10510.924376,1628.453072,306.438199
1276.652619,-9252.574275,0.000000,-689.485948
1276.652940,-9252.574275,-1332.370696,-1762.019645
1276.653261,-8956.491898,962.267725,-689.485948
1276.653582,-9770.718434,1332.370696,766.095498
1276.653903,-9400.615463,444.123565,1762.019645
1276.654224,-9326.594869,-740.205942,1685.410096
1276.654544,-9548.656652,-1480.411884,459.657299
1276.654865,-10288.862594,-1406.391290,2834.553343
1276.655186,-9844.739029,-2146.597232,2681.334243
1276.655507,-8956.491898,-2368.659014,1915.238745
1276.655828,-8586.388927,-1924.535449,536.266849
1276.656149,-9178.553681,0.000000,459.657299
1276.656470,-10214.842000,518.144159,1532.190996
1276.656791,-9400.615463,1258.350101,536.266849
1276.657112,-10066.800811,2294.638420,842.705048
1276.657433,-11029.068536,1776.494261,919.314598
1276.657754,-10807.006753,740.205942,1991.848295
1276.658075,-9844.739029,-888.247130,383.047749
1276.658395,-9030.512492,-444.123565,-689.485948
1276.658716,-8956.491898,2146.597232,-459.657299
1276.659037,-9770.718434,1110.308913,1378.971896
1276.659358,-9474.636058,444.123565,1838.629195
1276.659679,-9178.553681,-740.205942,1762.019645
1276.660000,-8882.471304,-1406.391290,1532.190996
1276.660321,-10214.842000,-2516.700203,2604.724693
1276.660642,-9770.718434,-3997.112087,2374.896044
1276.660963,-8512.368333,-3256.906145,1455.581446
1276.661284,-9252.574275,-1406.391290,1685.410096
1276.661605,-9918.759623,74.020594,1915.238745
1276.661926,-9844.739029,888.247130,1455.581446
1276.662247,-9622.677246,1258.350101,306.438199
1276.662567,-9622.677246,2220.617826,0.000000
1276.662888,-10066.800811,1776.494261,766.095498
1276.663209,-11103.089130,-740.205942,0.000000
1276.663530,-8290.306550,518.144159,-536.266849
1276.663851,-10214.842000,-1998.556043,-995.924147
1276.664172,-8956.491898,1036.288319,689.485948
1276.664493,-10362.883188,-222.061783,1838.629195
1276.664814,-10140.821405,-1110.308913,2145.067394
1276.665135,-8438.347739,-1036.288319,612.876398
1276.665456,-9696.697840,-2072.576638,1915.238745
1276.665777,-9252.574275,-2738.761985,2757.943793
1276.666098,-8660.409521,-3256.906145,766.095498
1276.666418,-9400.615463,-1776.494261,919.314598
1276.666739,-9030.512492,-814.226536,842.705048
1276.667060,-9696.697840,370.102971,766.095498
1276.667381,-10510.924376,518.144159,1532.190996
1276.667702,-9622.677246,1924.535449,383.047749
1276.668023,-10510.924376,2146.597232,536.266849
1276.668344,-11029.068536,1184.329507,612.876398
1276.668665,-9326.594869,148.041188,-306.438199
1276.668986,-9104.533087,-814.226536,-1225.752797
1276.669307,-8956.491898,518.144159,-995.924147
1276.669628,-9474.636058,1036.288319,1072.533697
1276.669949,-9252.574275,-444.123565,2374.896044
1276.670269,-9770.718434,-1554.432478,2221.676944
1276.670590,-9770.718434,-2368.659014,2451.505594
1276.670911,-9548.656652,-3108.864956,3524.039291
1276.671232,-10140.821405,-3849.070898,3294.210641
1276.671553,-8438.347739,-3997.112087,1378.971896
1276.671874,-7698.141797,-1998.556043,-306.438199
1276.672195,-8882.471304,-444.123565,-229.828649
1276.672516,-8660.409521,444.123565,-383.047749
1276.672837,-9030.512492,1184.329507,-612.876398
1276.673158,-10066.800811,2368.659014,689.485948
1276.673479,-11399.171507,2220.617826,1991.848295
1276.673800,-12139.377449,0.000000,3447.429741
1276.674121,-10658.965565,-1924.535449,1915.238745
1276.674441,-9770.718434,-2146.597232,995.924147
1276.674762,-10362.883188,-666.185348,1532.190996
1276.675083,-9622.677246,1110.308913,2221.676944
1276.675404,-8586.388927,148.041188,1455.581446
1276.675725,-7772.162391,-518.144159,229.828649
1276.676046,-8512.368333,0.000000,383.047749
1276.676367,-9622.677246,-1110.308913,1915.238745
1276.676688,-9252.574275,-2072.576638,2451.505594
1276.677009,-9326.594869,-2368.659014,1991.848295
1276.677330,-9474.636058,-1406.391290,1608.800546
1276.677651,-10510.924376,0.000000,2221.676944
1276.677972,-10955.047942,888.247130,2451.505594
1276.678292,-10066.800811,2220.617826,1302.362347
1276.678613,-10584.944971,2442.679609,766.095498
1276.678934,-10066.800811,2442.679609,0.000000
1276.679255,-9844.739029,666.185348,-612.876398
1276.679576,-9696.697840,-222.061783,-1532.190996
1276.679897,-8438.347739,0.000000,-1225.752797
1276.680218,-9770.718434,592.164754,766.095498
1276.680539,-10140.821405,0.000000,2145.067394
1276.680860,-9844.739029,-444.123565,1838.629195
1276.681181,-9844.739029,-888.247130,2221.676944
1276.681502,-9696.697840,-666.185348,2757.943793
1276.681823,-10288.862594,-2220.617826,2298.286494
1276.682144,-8586.388927,-2368.659014,1608.800546
1276.682464,-8364.327145,-1850.514855,0.000000
1276.682785,-8512.368333,-740.205942,0.000000
1276.683106,-9030.512492,888.247130,536.266849
1276.683427,-10140.821405,1036.288319,612.876398
1276.683748,-9326.594869,2516.700203,306.438199
1276.684069,-10955.047942,1776.494261,842.705048
1276.684390,-10214.842000,1110.308913,1378.971896
1276.684711,-10214.842000,-1258.350101,383.047749
1276.685032,-9326.594869,-1998.556043,-306.438199
1276.685353,-8882.471304,-444.123565,76.609550
1276.685674,-9548.656652,-370.102971,612.876398
1276.685995,-9326.594869,0.000000,1455.581446
1276.686315,-8660.409521,-444.123565,689.485948
1276.686636,-9474.636058,518.144159,1225.752797
1276.686957,-10214.842000,-296.082377,2528.115143
1276.687278,-10140.821405,-1850.514855,3064.381992
1276.687599,-9548.656652,-2442.679609,2451.505594
1276.687920,-10362.883188,-444.123565,995.924147
1276.688241,-10658.965565,666.185348,1762.019645
1276.688562,-10066.800811,1184.329507,1532.190996
1276.688883,-9622.677246,888.247130,383.047749
1276.689204,-9104.533087,1332.370696,-536.266849
1276.689525,-9548.656652,1184.329507,-612.876398
1276.689846,-9696.697840,-296.082377,-536.266849
1276.690167,-8734.430116,-814.226536,-1378.971896
1276.690487,-9030.512492,-148.041188,-1378.971896
1276.690808,-10140.821405,1776.494261,76.609550
1276.691129,-10510.924376,1110.308913,2145.067394
1276.691450,-10362.883188,-444.123565,2757.943793
1276.691771,-9770.718434,-1776.494261,1915.238745
1276.692092,-9474.636058,-1998.556043,1608.800546
1276.692413,-10214.842000,-2886.803174,2757.943793
1276.692734,-8882.471304,-4071.132681,2221.676944
1276.693055,-8142.265362,-3701.029710,153.219100
1276.693376,-7846.182985,-1332.370696,0.000000
1276.693697,-9326.594869,74.020594,842.705048
1276.694018,-9548.656652,888.247130,2451.505594
1276.694338,-9770.718434,592.164754,1838.629195
1276.694659,-10288.862594,1110.308913,1838.629195
1276.694980,-10362.883188,296.082377,1608.800546
1276.695301,-10881.027347,-1998.556043,1302.362347
1276.695622,-7994.224174,-814.226536,229.828649
1276.695943,-9178.553681,-740.205942,-842.705048
1276.696264,-8438.347739,2960.823768,-306.438199
1276.696585,-9622.677246,518.144159,1378.971896
1276.696906,-9178.553681,222.061783,1225.752797
1276.697227,-9400.615463,518.144159,1915.238745
1276.697548,-10140.821405,-444.123565,3600.648841
1276.697869,-9918.759623,-1850.514855,3524.039291
1276.698190,-9400.615463,-3701.029710,2298.286494
1276.698510,-8734.430116,-3404.947333,766.095498
1276.698831,-9770.718434,-888.247130,995.924147
1276.699152,-10362.883188,0.000000,1532.190996
1276.699473,-10288.862594,962.267725,1149.143247
1276.699794,-10214.842000,1924.535449,919.314598
1276.700115,-10881.027347,1702.473667,306.438199
1276.700436,-11029.068536,1110.308913,1455.581446
1276.700757,-9918.759623,-740.205942,-536.266849
1276.701078,-8438.347739,-592.164754,-1762.019645
1276.701399,-9178.553681,666.185348,-1225.752797
1276.701720,-9252.574275,1184.329507,0.000000
1276.702041,-8956.491898,296.082377,919.314598
1276.702361,-9918.759623,-888.247130,1225.752797
1276.702682,-9992.780217,-666.185348,1838.629195
1276.703003,-10658.965565,-1702.473667,3140.991542
1276.703324,-9844.739029,-2886.803174,3600.648841
1276.703645,-9104.533087,-2960.823768,1378.971896
1276.703966,-8882.471304,-1554.432478,1149.143247
1276.704287,-9548.656652,-370.102971,1915.238745
1276.704608,-9474.636058,0.000000,2757.943793
1276.704929,-9178.553681,666.185348,536.266849
1276.705250,-9252.574275,2294.638420,536.266849
1276.705571,-10807.006753,1776.494261,1149.143247
1276.705892,-9474.636058,0.000000,842.705048
1276.706213,-9030.512492,-1332.370696,-153.219100
1276.706533,-8956.491898,-740.205942,-459.657299
1276.706854,-9696.697840,962.267725,995.924147
1276.707175,-10510.924376,1332.370696,3447.429741
1276.707496,-9770.718434,296.082377,3677.258390
1276.707817,-8438.347739,296.082377,1762.019645
1276.708138,-9104.533087,-1332.370696,995.924147
1276.708459,-8438.347739,-1998.556043,1378.971896
1276.708780,-8660.409521,-1924.535449,229.828649
1276.709101,-8290.306550,-2072.576638,995.924147
1276.709422,-8734.430116,-814.226536,766.095498
1276.709743,-9770.718434,148.041188,2451.505594
1276.710064,-11103.089130,-148.041188,2298.286494
1276.710384,-9770.718434,1850.514855,2451.505594
1276.710705,-11251.130318,518.144159,2068.457845
1276.711026,-9770.718434,148.041188,1838.629195
1276.711347,-9844.739029,-1850.514855,153.219100
1276.711668,-8734.430116,-740.205942,-1302.362347
1276.711989,-9178.553681,962.267725,-306.438199
1276.712310,-9622.677246,1628.453072,766.095498
1276.712631,-10214.842000,814.226536,2298.286494
1276.712952,-10066.800811,-444.123565,1532.190996
1276.713273,-10140.821405,-740.205942,1378.971896
1276.713594,-10732.986159,-1850.514855,2298.286494
1276.713915,-10436.903782,-2960.823768,2528.115143
1276.714236,-8882.471304,-3108.864956,1991.848295
1276.714556,-8882.471304,-1332.370696,-612.876398
1276.714877,-9178.553681,1776.494261,0.000000
1276.715198,-10362.883188,1776.494261,842.705048
1276.715519,-9844.739029,1406.391290,459.657299
1276.715840,-10214.842000,1406.391290,-766.095498
1276.716161,-10807.006753,888.247130,-459.657299
1276.716482,-10510.924376,-222.061783,306.438199
1276.716803,-10140.821405,-1480.411884,76.609550
1276.717124,-9178.553681,-444.123565,-766.095498
1276.717445,-9252.574275,1110.308913,-229.828649
1276.717766,-10288.862594,1110.308913,1378.971896
1276.718087,-9474.636058,74.020594,1225.752797
1276.718407,-8808.450710,-1184.329507,76.609550
1276.718728,-8438.347739,-1332.370696,229.828649
1276.719049,-8882.471304,-1554.432478,842.705048
1276.719370,-8882.471304,-1702.473667,1532.190996
1276.719691,-8364.327145,-2072.576638,1149.143247
1276.720012,-8364.327145,-1184.329507,689.485948
1276.720333,-10362.883188,-592.164754,1915.238745
1276.720654,-10362.883188,296.082377,2451.505594
1276.720975,-11177.109724,1184.329507,2528.115143
1276.721296,-11177.109724,1554.432478,2221.676944
1276.721617,-10066.800811,2072.576638,2374.896044
1276.721938,-10140.821405,-740.205942,1378.971896
1276.722258,-8364.327145,-1850.514855,153.219100
1276.722579,-8586.388927,-1480.411884,-919.314598
1276.722900,-8808.450710,148.041188,842.705048
1276.723221,-9844.739029,444.123565,2068.457845
1276.723542,-9400.615463,-740.205942,2221.676944
1276.723863,-8586.388927,-1110.308913,1991.848295
1276.724184,-9844.739029,-1406.391290,1455.581446
1276.724505,-10066.800811,-1998.556043,3140.991542
1276.724826,-9030.512492,-2738.761985,2451.505594
1276.725147,-9252.574275,-2146.597232,995.924147
1276.725468,-9104.533087,-444.123565,689.485948
1276.725789,-9992.780217,740.205942,1302.362347
1276.726110,-9918.759623,666.185348,1455.581446
1276.726430,-9622.677246,962.267725,0.000000
1276.726751,-10436.903782,1628.453072,689.485948
1276.727072,-10955.047942,0.000000,1762.019645
1276.727393,-9770.718434,-1924.535449,995.924147
1276.727714,-9474.636058,-2960.823768,-536.266849
1276.728035,-8734.430116,0.000000,-536.266849
1276.728356,-10510.924376,1110.308913,-306.438199
1276.728677,-10140.821405,1332.370696,2068.457845
1276.728998,-9474.636058,-222.061783,1762.019645
1276.729319,-9474.636058,-1406.391290,766.095498
1276.729640,-9770.718434,-1850.514855,919.314598
1276.729961,-9992.780217,-2442.679609,1149.143247
1276.730281,-8956.491898,-1924.535449,842.705048
1276.730602,-9030.512492,-148.041188,229.828649
1276.730923,-9622.677246,666.185348,306.438199
1276.731244,-9622.677246,2072.576638,-1302.362347
1276.731565,-10140.821405,1480.411884,306.438199
1276.731886,-10658.965565,2146.597232,766.095498
1276.732207,-10955.047942,1258.350101,1991.848295
1276.732528,-10362.883188,-814.226536,1302.362347
1276.732849,-8438.347739,-1998.556043,-459.657299
1276.733170,-8882.471304,-740.205942,-842.705048
1276.733491,-9326.594869,1110.308913,689.485948
1276.733812,-9400.615463,1184.329507,2374.896044
1276.734133,-9474.636058,74.020594,2221.676944
1276.734453,-8438.347739,-666.185348,229.828649
1276.734774,-9326.594869,-740.205942,1149.143247
1276.735095,-9770.718434,-2368.659014,2451.505594
1276.735416,-8586.388927,-2516.700203,1838.629195
1276.735737,-8068.244768,-2368.659014,919.314598
1276.736058,-8956.491898,-370.102971,766.095498
1276.736379,-10362.883188,1036.288319,2298.286494
1276.736700,-10584.944971,518.144159,2681.334243
1276.737021,-8734.430116,814.226536,1072.533697
1276.737342,-10510.924376,1258.350101,1225.752797
1276.737663,-10658.965565,1110.308913,2068.457845
1276.737984,-10066.800811,-1110.308913,1225.752797
1276.738304,-8882.471304,-2220.617826,-229.828649
1276.738625,-8586.388927,-1258.350101,-459.657299
1276.738946,-9548.656652,0.000000,383.047749
1276.739267,-10436.903782,296.082377,2374.896044
1276.739588,-9622.677246,-592.164754,2451.505594
1276.739909,-9178.553681,-1332.370696,2298.286494
1276.740230,-10066.800811,-1184.329507,1608.800546
1276.740551,-10436.903782,-1924.535449,1608.800546
1276.740872,-9104.533087,-1776.494261,1302.362347
1276.741193,-8660.409521,-1184.329507,1149.143247
1276.741514,-9252.574275,222.061783,0.000000
1276.741835,-9918.759623,1406.391290,0.000000
1276.742156,-10732.986159,1332.370696,0.000000
1276.742476,-9696.697840,3627.009116,229.828649
1276.742797,-11621.233289,2442.679609,459.657299
1276.743118,-10288.862594,592.164754,1072.533697
1276.743439,-9770.718434,-1702.473667,76.609550
1276.743760,-9178.553681,-2294.638420,-842.705048
1276.744081,-8142.265362,-1036.288319,-689.485948
1276.744402,-9104.533087,444.123565,842.705048
1276.744723,-9400.615463,148.041188,1149.143247
1276.745044,-8512.368333,-888.247130,-383.047749
1276.745365,-8364.327145,-962.267725,1915.238745
1276.745686,-9696.697840,-1628.453072,2068.457845
1276.746007,-9844.739029,-2368.659014,2681.334243
1276.746327,-9992.780217,-2960.823768,2528.115143
1276.746648,-9474.636058,-2220.617826,2451.505594
1276.746969,-10066.800811,-1184.329507,2604.724693
1276.747290,-10584.944971,-1332.370696,2757.943793
1276.747611,-9696.697840,0.000000,1762.019645
1276.747932,-9326.594869,518.144159,306.438199
1276.748253,-8586.388927,1776.494261,0.000000
1276.748574,-9622.677246,-148.041188,383.047749
1276.748895,-8216.285956,-740.205942,-995.924147
1276.749216,-8512.368333,-592.164754,-1072.533697
1276.749537,-9696.697840,1184.329507,459.657299
1276.749858,-9622.677246,740.205942,2604.724693
1276.750179,-10881.027347,-666.185348,4136.915689
1276.750499,-10066.800811,-1184.329507,3064.381992
1276.750820,-10436.903782,-1258.350101,3294.210641
1276.751141,-10214.842000,-2294.638420,3447.429741
1276.751462,-9252.574275,-2516.700203,1915.238745
1276.751783,-8956.491898,-1702.473667,689.485948
1276.752104,-8734.430116,-370.102971,229.828649
1276.752424,-9770.718434,1036.288319,612.876398
1276.752745,-10140.821405,222.061783,995.924147
1276.753066,-9622.677246,1110.308913,612.876398
1276.753387,-11473.192101,1924.535449,1685.410096
1276.753708,-11917.315666,592.164754,2681.334243
1276.754028,-11029.068536,-1184.329507,1762.019645
1276.754349,-9474.636058,-1776.494261,0.000000
1276.754670,-9548.656652,-666.185348,-689.485948
1276.754991,-9474.636058,888.247130,919.314598
1276.755311,-9696.697840,0.000000,1225.752797
1276.755632,-8586.388927,-1036.288319,306.438199
1276.755953,-8882.471304,-888.247130,76.609550
1276.756274,-9770.718434,-1110.308913,1302.362347
1276.756594,-10066.800811,-2072.576638,2451.505594
1276.756915,-9030.512492,-2886.803174,1762.019645
1276.757236,-8882.471304,-2590.720797,459.657299
1276.757557,-9252.574275,-1480.411884,536.266849
1276.757877,-9770.718434,-1110.308913,766.095498
1276.758198,-9178.553681,0.000000,612.876398
1276.758519,-8956.491898,1332.370696,-995.924147
1276.758840,-9696.697840,2664.741391,-306.438199
1276.759160,-9770.718434,2072.576638,76.609550
1276.759481,-9104.533087,518.144159,-995.924147
1276.759802,-9400.615463,518.144159,-383.047749
1276.760123,-9770.718434,518.144159,153.219100
1276.760443,-10066.800811,1554.432478,2145.067394
1276.760764,-10881.027347,370.102971,3294.210641
1276.761085,-9474.636058,-444.123565,2374.896044
1276.761406,-8808.450710,-592.164754,2068.457845
1276.761727,-9326.594869,-2146.597232,1915.238745
1276.762047,-8142.265362,-2220.617826,1685.410096
1276.762368,-8364.327145,-2368.659014,153.219100
1276.762689,-8216.285956,-592.164754,383.047749
1276.763010,-9030.512492,1258.350101,1149.143247
1276.763330,-9770.718434,962.267725,2221.676944
1276.763651,-10658.965565,1554.432478,2068.457845
1276.763972,-11177.109724,1776.494261,2145.067394
1276.764293,-11621.233289,666.185348,2757.943793
1276.764613,-10881.027347,-888.247130,2528.115143
1276.764934,-9844.739029,-1702.473667,1685.410096
1276.765255,-9030.512492,-962.267725,0.000000
1276.765576,-9474.636058,1332.370696,995.924147
1276.765896,-9400.615463,666.185348,2298.286494
1276.766217,-9474.636058,-740.205942,2374.896044
1276.766538,-8586.388927,-1480.411884,1838.629195
1276.766859,-10140.821405,-1702.473667,1838.629195
1276.767179,-10362.883188,-1924.535449,2604.724693
1276.767500,-9252.574275,-2442.679609,2068.457845
1276.767821,-8364.327145,-2368.659014,383.047749
1276.768142,-9474.636058,0.000000,229.828649
1276.768462,-9992.780217,814.226536,0.000000
1276.768783,-9696.697840,1184.329507,-306.438199
1276.769104,-9622.677246,1776.494261,-1072.533697
1276.769425,-10510.924376,2368.659014,-536.266849
1276.769746,-10881.027347,1850.514855,612.876398
1276.770066,-10288.862594,-296.082377,-612.876398
1276.770387,-8808.450710,-962.267725,-1225.752797
1276.770708,-8956.491898,-666.185348,-1149.143247
1276.771029,-9622.677246,592.164754,536.266849
1276.771349,-10066.800811,296.082377,1532.190996
1276.771670,-9326.594869,-444.123565,1455.581446
1276.771991,-8512.368333,-962.267725,306.438199
1276.772312,-9474.636058,-2442.679609,1149.143247
1276.772632,-8808.450710,-2812.782580,1149.143247
1276.772953,-9104.533087,-3256.906145,766.095498
1276.773274,-8364.327145,-1184.329507,-306.438199
1276.773595,-9400.615463,148.041188,536.266849
1276.773915,-10140.821405,444.123565,459.657299
1276.774236,-9992.780217,1332.370696,689.485948
1276.774557,-10658.965565,1406.391290,76.609550
1276.774878,-10436.903782,1702.473667,689.485948
1276.775198,-10362.883188,0.000000,766.095498
1276.775519,-9770.718434,-1406.391290,536.266849
1276.775840,-9326.594869,-1258.350101,76.609550
1276.776161,-9770.718434,592.164754,1608.800546
1276.776481,-9696.697840,518.144159,2528.115143
1276.776802,-9474.636058,0.000000,2987.772442
1276.777123,-9104.533087,-1406.391290,2451.505594
1276.777444,-9252.574275,-1776.494261,3830.477490
1276.777764,-9104.533087,-2664.741391,2757.943793
1276.778085,-8882.471304,-3182.885551,2374.896044
1276.778406,-8364.327145,-2368.659014,1532.190996
1276.778727,-9104.533087,-296.082377,1455.581446
1276.779048,-10584.944971,666.185348,2757.943793
1276.779368,-10510.924376,518.144159,2681.334243
1276.779689,-10807.006753,74.020594,2145.067394
1276.780010,-11029.068536,592.164754,1762.019645
1276.780331,-10584.944971,222.061783,2068.457845
1276.780651,-10881.027347,-1110.308913,2221.676944
1276.780972,-9030.512492,-2072.576638,0.000000
1276.781293,-7994.224174,-740.205942,-842.705048
1276.781614,-10140.821405,740.205942,1455.581446
1276.781934,-9400.615463,1406.391290,2374.896044
1276.782255,-10066.800811,-1036.288319,1762.019645
1276.782576,-9030.512492,-1258.350101,1455.581446
1276.782897,-9030.512492,-1480.411884,995.924147
1276.783217,-10658.965565,-2442.679609,2451.505594
1276.783538,-9030.512492,-1554.432478,2451.505594
1276.783859,-9030.512492,-1924.535449,-306.438199
1276.784180,-9104.533087,1110.308913,229.828649
1276.784500,-9622.677246,1036.288319,153.219100
1276.784821,-9696.697840,2072.576638,-229.828649
1276.785142,-10362.883188,2146.597232,-536.266849
1276.785463,-9622.677246,2516.700203,-689.485948
1276.785783,-10214.842000,1110.308913,0.000000
1276.786104,-9992.780217,-1406.391290,-306.438199
1276.786425,-9178.553681,-1554.432478,-1072.533697
1276.786746,-9622.677246,-444.123565,-919.314598
1276.787067,-9770.718434,1480.411884,1149.143247
1276.787387,-10214.842000,1332.370696,1378.971896
1276.787708,-9326.594869,444.123565,1532.190996
1276.788029,-9548.656652,-222.061783,1532.190996
1276.788350,-9474.636058,-1998.556043,1378.971896
1276.788670,-8068.244768,-2738.761985,1302.362347
1276.788991,-8586.388927,-3701.029710,766.095498
1276.789312,-8290.306550,-1850.514855,612.876398
1276.789633,-9474.636058,-296.082377,1225.752797
1276.789953,-9696.697840,1924.535449,3447.429741
1276.790274,-9696.697840,1776.494261,1149.143247
1276.790595,-10658.965565,2220.617826,1838.629195
1276.790916,-10955.047942,1480.411884,2451.505594
1276.791236,-10066.800811,-1036.288319,1685.410096
1276.791557,-9770.718434,-2294.638420,536.266849
1276.791878,-7994.224174,-1184.329507,-919.314598
1276.792199,-8882.471304,1332.370696,536.266849
1276.792519,-10510.924376,888.247130,2681.334243
1276.792840,-9030.512492,0.000000,2604.724693
1276.793161,-9548.656652,-1406.391290,2145.067394
1276.793482,-9326.594869,-1702.473667,1685.410096
1276.793802,-9918.759623,-2516.700203,2834.553343
1276.794123,-9622.677246,-2664.741391,3524.039291
1276.794444,-8808.450710,-2294.638420,1302.362347
1276.794765,-8882.471304,-444.123565,995.924147
1276.795086,-9696.697840,370.102971,919.314598
1276.795406,-10140.821405,1036.288319,1455.581446
1276.795727,-10066.800811,1628.453072,842.705048
1276.796048,-10807.006753,2664.741391,383.047749
1276.796369,-10807.006753,2072.576638,689.485948
1276.796689,-9992.780217,148.041188,-229.828649
1276.797010,-9104.533087,-962.267725,-1455.581446
1276.797331,-9326.594869,0.000000,-1378.971896
1276.797652,-9696.697840,962.267725,459.657299
1276.797972,-9992.780217,222.061783,1455.581446
1276.798293,-9326.594869,-888.247130,-229.828649
1276.798614,-9104.533087,-1258.350101,306.438199
1276.798935,-9474.636058,-1110.308913,1455.581446
1276.799255,-9844.739029,-2072.576638,2451.505594
1276.799576,-8586.388927,-3034.844362,1685.410096
1276.799897,-8364.327145,-3034.844362,0.000000
1276.800218,-9252.574275,-1554.432478,459.657299
1276.800538,-9918.759623,-222.061783,1378.971896
1276.800859,-10140.821405,518.144159,1225.752797
1276.801180,-9104.533087,1998.556043,536.266849
1276.801501,-10881.027347,1406.391290,383.047749
1276.801821,-9992.780217,962.267725,306.438199
1276.802142,-9622.677246,-592.164754,536.266849
1276.802463,-9252.574275,-1406.391290,459.657299
1276.802784,-8882.471304,-296.082377,0.000000
1276.803105,-9844.739029,-666.185348,1072.533697
1276.803425,-8660.409521,148.041188,1685.410096
1276.803746,-9326.594869,518.144159,1378.971896
1276.804067,-8956.491898,74.020594,2681.334243
1276.804388,-9178.553681,-1258.350101,2528.115143
1276.804708,-9474.636058,-3552.988522,2374.896044
1276.805029,-8364.327145,-3552.988522,1762.019645
1276.805350,-8882.471304,-2368.659014,2834.553343
1276.805671,-10510.924376,0.000000,3677.258390
1276.805991,-11251.130318,592.164754,4136.915689
1276.806312,-10436.903782,888.247130,3447.429741
1276.806633,-11103.089130,1258.350101,4290.134789
1276.806954,-11843.295072,1110.308913,2757.943793
1276.807274,-10436.903782,-518.144159,2145.067394
1276.807595,-9178.553681,-2072.576638,-306.438199
1276.807916,-7994.224174,-518.144159,-2298.286494
1276.808237,-8290.306550,518.144159,-1532.190996
1276.808557,-9400.615463,2072.576638,766.095498
1276.808878,-9622.677246,740.205942,1762.019645
1276.809199,-9400.615463,-1036.288319,1072.533697
1276.809520,-10140.821405,-1554.432478,1838.629195
1276.809840,-10732.986159,-3256.906145,2681.334243
1276.810161,-9696.697840,-3552.988522,1915.238745
1276.810482,-9474.636058,-3404.947333,1149.143247
1276.810803,-8808.450710,-1258.350101,153.219100
1276.811124,-9548.656652,148.041188,-383.047749
1276.811444,-10214.842000,1776.494261,0.000000
1276.811765,-9548.656652,2146.597232,-536.266849
1276.812086,-10214.842000,2812.782580,-306.438199
1276.812407,-11177.109724,1924.535449,76.609550
1276.812727,-9844.739029,-444.123565,0.000000
1276.813048,-9104.533087,-962.267725,-919.314598
1276.813369,-9252.574275,370.102971,-229.828649
1276.813690,-9770.718434,1036.288319,1225.752797
1276.814010,-9474.636058,444.123565,1915.238745
1276.814331,-9252.574275,-518.144159,1455.581446
1276.814652,-8586.388927,-666.185348,383.047749
1276.814973,-9252.574275,0.000000,3217.601092
1276.815293,-9474.636058,-2072.576638,2145.067394
1276.815614,-7772.162391,-2368.659014,766.095498
1276.815935,-8660.409521,-2294.638420,229.828649
1276.816256,-8956.491898,-666.185348,842.705048
1276.816576,-10066.800811,-518.144159,1608.800546
1276.816897,-10066.800811,148.041188,1455.581446
1276.817218,-10288.862594,2072.576638,1838.629195
1276.817539,-10881.027347,2738.761985,1991.848295
1276.817859,-11177.109724,1036.288319,1302.362347
1276.818180,-10066.800811,-1258.350101,919.314598
1276.818501,-9252.574275,-1332.370696,-1302.362347
1276.818822,-9474.636058,-148.041188,-306.438199
1276.819143,-9770.718434,1332.370696,-383.047749
1276.819463,-9770.718434,962.267725,2068.457845
1276.819784,-9474.636058,0.000000,766.095498
1276.820105,-8956.491898,592.164754,919.314598
1276.820426,-9770.718434,-740.205942,1378.971896
1276.820746,-9474.636058,-2146.597232,2451.505594
1276.821067,-8882.471304,-2738.761985,842.705048
1276.821388,-8808.450710,-2146.597232,612.876398
1276.821709,-9622.677246,-592.164754,1532.190996
1276.822029,-9844.739029,1554.432478,2604.724693
1276.822350,-10732.986159,888.247130,2221.676944
1276.822671,-10881.027347,1554.432478,2145.067394
1276.822992,-10658.965565,888.247130,1838.629195
1276.823312,-10362.883188,0.000000,1685.410096
1276.823633,-9622.677246,-888.247130,0.000000
1276.823954,-9178.553681,0.000000,-383.047749
1276.824275,-9252.574275,1776.494261,536.266849
1276.824595,-9696.697840,1036.288319,1838.629195
1276.824916,-8956.491898,-518.144159,919.314598
1276.825237,-8956.491898,-1776.494261,383.047749
1276.825558,-9474.636058,-1628.453072,1455.581446
1276.825878,-9844.739029,-2294.638420,2757.943793
1276.826199,-8512.368333,-3478.967927,2374.896044
1276.826520,-8290.306550,-2442.679609,1072.533697
1276.826841,-8586.388927,-1406.391290,459.657299
1276.827161,-9474.636058,-962.267725,1225.752797
1276.827482,-9474.636058,0.000000,1302.362347
1276.827803,-9696.697840,740.205942,612.876398
1276.828124,-9918.759623,1776.494261,536.266849
1276.828445,-10140.821405,888.247130,1149.143247
1276.828765,-9770.718434,-962.267725,383.047749
1276.829086,-9326.594869,-1110.308913,0.000000
1276.829407,-9030.512492,444.123565,-306.438199
1276.829728,-10066.800811,1702.473667,1378.971896
1276.830048,-9770.718434,962.267725,1915.238745
1276.830369,-9104.533087,-296.082377,1532.190996
1276.830690,-9030.512492,-740.205942,1072.533697
1276.831011,-9400.615463,-1924.535449,1378.971896
1276.831331,-9474.636058,-3404.947333,2374.896044
1276.831652,-8882.471304,-3849.070898,1149.143247
1276.831973,-8882.471304,-2294.638420,995.924147
1276.832294,-10214.842000,-592.164754,1915.238745
1276.832614,-10140.821405,74.020594,2681.334243
1276.832935,-9844.739029,296.082377,1991.848295
1276.833256,-10214.842000,222.061783,1378.971896
1276.833577,-10807.006753,1258.350101,1072.533697
1276.833897,-10658.965565,-296.082377,1072.533697
1276.834218,-9326.594869,-1554.432478,-459.657299
1276.834539,-9030.512492,0.000000,-3064.381992
1276.834860,-9326.594869,1184.329507,-842.705048
1276.835180,-9918.759623,1480.411884,689.485948
1276.835501,-9548.656652,962.267725,1838.629195
1276.835822,-9918.759623,-518.144159,1378.971896
1276.836143,-9622.677246,-1184.329507,1072.533697
1276.836464,-10214.842000,-1850.514855,2451.505594
1276.836784,-9622.677246,-2368.659014,2298.286494
1276.837105,-8216.285956,-1850.514855,1225.752797
1276.837426,-8586.388927,-296.082377,612.876398
1276.837747,-9548.656652,592.164754,1378.971896
1276.838067,-10140.821405,888.247130,1532.190996
1276.838388,-10066.800811,1184.329507,1149.143247
1276.838709,-10214.842000,2368.659014,1532.190996
1276.839030,-11325.150913,2294.638420,2145.067394
1276.839350,-10807.006753,296.082377,2298.286494
1276.839671,-9474.636058,-740.205942,306.438199
1276.839992,-8734.430116,-296.082377,-919.314598
1276.840313,-9474.636058,1184.329507,383.047749
1276.840633,-9696.697840,1184.329507,1991.848295
1276.840954,-9474.636058,-148.041188,1838.629195
1276.841275,-8364.327145,-296.082377,229.828649
1276.841596,-9252.574275,0.000000,1455.581446
1276.841916,-9992.780217,-2294.638420,2298.286494
1276.842237,-8512.368333,-3627.009116,2145.067394
1276.842558,-8882.471304,-3182.885551,766.095498
1276.842879,-8734.430116,-1480.411884,2757.943793
1276.843199,-9400.615463,-222.061783,1149.143247
1276.843520,-9770.718434,592.164754,1762.019645
1276.843841,-9844.739029,1258.350101,612.876398
1276.844162,-10584.944971,1998.556043,536.266849
1276.844483,-10362.883188,1554.432478,2145.067394
1276.844803,-10066.800811,-2072.576638,76.609550
1276.845124,-8882.471304,-2368.659014,-1149.143247
1276.845445,-9622.677246,-1406.391290,-612.876398
1276.845766,-9696.697840,1036.288319,1302.362347
1276.846086,-10362.883188,1480.411884,1532.190996
1276.846407,-9400.615463,74.020594,1991.848295
1276.846728,-9178.553681,-370.102971,1302.362347
1276.847049,-9474.636058,-1258.350101,2604.724693
1276.847369,-10066.800811,-2960.823768,1685.410096
1276.847690,-8586.388927,-2442.679609,919.314598
1276.848011,-9178.553681,-1480.411884,-229.828649
1276.848332,-9030.512492,296.082377,1378.971896
1276.848652,-9918.759623,1110.308913,459.657299
1276.848973,-9844.739029,2220.617826,229.828649
1276.849294,-10955.047942,2368.659014,459.657299
1276.849615,-11177.109724,2590.720797,1302.362347
1276.849935,-11547.212695,296.082377,153.219100
1276.850256,-10066.800811,-518.144159,-612.876398
1276.850577,-9030.512492,-296.082377,-1915.238745
1276.850898,-9474.636058,296.082377,0.000000
1276.851219,-9104.533087,0.000000,1838.629195
1276.851539,-9474.636058,-1480.411884,1072.533697
1276.851860,-8882.471304,-1628.453072,153.219100
1276.852181,-9252.574275,-888.247130,995.924147
1276.852502,-10140.821405,-1036.288319,4673.182538
1276.852823,-9696.697840,-2146.597232,2604.724693
1276.853143,-8364.327145,-2072.576638,1455.581446
1276.853464,-8660.409521,-1628.453072,689.485948
1276.853785,-9178.553681,-1480.411884,1149.143247
1276.854106,-9844.739029,-1332.370696,1302.362347
1276.854427,-9178.553681,0.000000,459.657299
1276.854748,-9918.759623,1702.473667,842.705048
1276.855068,-9696.697840,1850.514855,1455.581446
1276.855389,-9696.697840,296.082377,2221.676944
1276.855710,-9030.512492,-1184.329507,459.657299
1276.856031,-8660.409521,0.000000,229.828649
1276.856352,-9918.759623,296.082377,1532.190996
1276.856672,-9548.656652,296.082377,2604.724693
1276.856993,-9104.533087,-444.123565,2681.334243
1276.857314,-9104.533087,-1850.514855,1685.410096
1276.857635,-8956.491898,-814.226536,2145.067394
1276.857956,-9918.759623,-1998.556043,2298.286494
1276.858276,-8586.388927,-1924.535449,1302.362347
1276.858597,-9400.615463,-962.267725,1149.143247
1276.858918,-9400.615463,-148.041188,1455.581446
1276.859239,-10288.862594,296.082377,2145.067394
1276.859560,-9326.594869,0.000000,2221.676944
1276.859881,-9992.780217,666.185348,1149.143247
1276.860201,-11029.068536,1110.308913,1149.143247
1276.860522,-10807.006753,740.205942,1991.848295
1276.860843,-10066.800811,-962.267725,689.485948
1276.861164,-9178.553681,-1184.329507,-689.485948
1276.861485,-9252.574275,0.000000,-689.485948
1276.861805,-10066.800811,518.144159,1072.533697
1276.862126,-10140.821405,-518.144159,1225.752797
1276.862447,-8512.368333,-1776.494261,459.657299
1276.862768,-9030.512492,-814.226536,-229.828649
1276.863089,-9252.574275,-1554.432478,153.219100
1276.863410,-9770.718434,-962.267725,1685.410096
1276.863730,-9770.718434,-1776.494261,1455.581446
1276.864051,-9104.533087,-1258.350101,536.266849
1276.864372,-10732.986159,-592.164754,1455.581446
1276.864693,-10214.842000,-518.144159,2145.067394
1276.865014,-10584.944971,-296.082377,1685.410096
1276.865334,-10288.862594,1258.350101,1608.800546
1276.865655,-10658.965565,1258.350101,1762.019645
1276.865976,-8808.450710,444.123565,0.000000
1276.866297,-8438.347739,-296.082377,-459.657299
1276.866618,-8438.347739,148.041188,-1225.752797
1276.866939,-9548.656652,1850.514855,1149.143247
1276.867259,-9844.739029,518.144159,2681.334243
1276.867580,-9474.636058,-592.164754,2374.896044
1276.867901,-9400.615463,-1628.453072,536.266849
1276.868222,-9548.656652,-1110.308913,1685.410096
1276.868543,-9030.512492,-666.185348,2451.505594
1276.868863,-8808.450710,-1998.556043,1455.581446
1276.869184,-6883.915261,-1702.473667,-153.219100
1276.869505,-8364.327145,-222.061783,-689.485948
1276.869826,-9844.739029,740.205942,842.705048
1276.870147,-10140.821405,1036.288319,1762.019645
1276.870468,-9918.759623,1628.453072,2298.286494
1276.870788,-10732.986159,222.061783,1302.362347
1276.871109,-10436.903782,0.000000,1838.629195
1276.871430,-11251.130318,-2146.597232,1302.362347
1276.871751,-9030.512492,-1628.453072,-306.438199
1276.872072,-9252.574275,0.000000,-612.876398
1276.872392,-9696.697840,1184.329507,1149.143247
1276.872713,-10214.842000,888.247130,2451.505594
1276.873034,-9474.636058,-222.061783,1455.581446
1276.873355,-9474.636058,-1258.350101,1149.143247
1276.873676,-9474.636058,-1480.411884,1838.629195
1276.873996,-10066.800811,-2812.782580,2451.505594
1276.874317,-9326.594869,-2812.782580,1225.752797
1276.874638,-9474.636058,-888.247130,306.438199
1276.874959,-9622.677246,666.185348,229.828649
1276.875280,-10584.944971,962.267725,1762.019645
1276.875601,-10510.924376,1406.391290,1149.143247
1276.875921,-10881.027347,1406.391290,306.438199
1276.876242,-10955.047942,1776.494261,0.000000
1276.876563,-9844.739029,-370.102971,536.266849
1276.876884,-9178.553681,-2368.659014,-842.705048
1276.877205,-8512.368333,-1332.370696,-1685.410096
1276.877525,-8956.491898,666.185348,-536.266849
1276.877846,-10214.842000,1628.453072,1838.629195
1276.878167,-10436.903782,1184.329507,2374.896044
1276.878488,-9696.697840,-666.185348,1225.752797
1276.878809,-9992.780217,-814.226536,995.924147
1276.879130,-10510.924376,-1036.288319,1302.362347
1276.879450,-9326.594869,-2368.659014,1915.238745
1276.879771,-8068.244768,-2664.741391,306.438199
1276.880092,-8068.244768,-1184.329507,-383.047749
1276.880413,-8882.471304,0.000000,-919.314598
1276.880734,-9178.553681,222.061783,153.219100
1276.881054,-8882.471304,814.226536,-306.438199
1276.881375,-9770.718434,1628.453072,153.219100
1276.881696,-10362.883188,1036.288319,1149.143247
1276.882017,-10362.883188,-1110.308913,1991.848295
1276.882338,-9622.677246,-2072.576638,1608.800546
1276.882659,-9622.677246,-1110.308913,1149.143247
1276.882979,-9844.739029,518.144159,2451.505594
1276.883300,-10214.842000,814.226536,3753.867940
1276.883621,-9326.594869,-370.102971,2987.772442
1276.883942,-8364.327145,-592.164754,1685.410096
1276.884263,-8808.450710,-1628.453072,2145.067394
1276.884583,-9104.533087,-1776.494261,3370.820191
1276.884904,-8956.491898,-3478.967927,2681.334243
1276.885225,-8586.388927,-2960.823768,1532.190996
1276.885546,-9400.615463,-814.226536,1915.238745
1276.885867,-10584.944971,-814.226536,2451.505594
1276.886188,-10140.821405,148.041188,1762.019645
1276.886508,-9992.780217,1184.329507,842.705048
1276.886829,-10584.944971,2368.659014,842.705048
1276.887150,-10436.903782,1554.432478,1378.971896
1276.887471,-9770.718434,-666.185348,0.000000
1276.887792,-8882.471304,-1406.391290,-1225.752797
1276.888112,-9252.574275,0.000000,-1455.581446
1276.888433,-10288.862594,1184.329507,1149.143247
1276.888754,-10288.862594,222.061783,1915.238745
1276.889075,-9696.697840,-370.102971,1225.752797
1276.889396,-9326.594869,0.000000,612.876398
1276.889716,-10436.903782,-740.205942,1838.629195
1276.890037,-10066.800811,-2442.679609,2221.676944
1276.890358,-8734.430116,-2590.720797,536.266849
1276.890679,-8660.409521,-2294.638420,-842.705048
1276.891000,-9252.574275,-148.041188,-612.876398
1276.891321,-10140.821405,962.267725,153.219100
1276.891641,-9474.636058,2294.638420,-153.219100
1276.891962,-10288.862594,2368.659014,153.219100
1276.892283,-10807.006753,2664.741391,995.924147
1276.892604,-10881.027347,1110.308913,1225.752797
1276.892925,-10288.862594,-592.164754,689.485948
1276.893245,-8882.471304,-1184.329507,-1072.533697
1276.893566,-9326.594869,74.020594,-229.828649
1276.893887,-9918.759623,518.144159,1225.752797
1276.894208,-9104.533087,444.123565,1608.800546
1276.894529,-9104.533087,0.000000,1455.581446
1276.894850,-9030.512492,0.000000,1378.971896
1276.895170,-9770.718434,-1406.391290,2374.896044
1276.895491,-9400.615463,-3034.844362,2145.067394
1276.895812,-7105.977043,-2886.803174,995.924147
1276.896133,-8808.450710,-592.164754,919.314598
1276.896454,-9548.656652,74.020594,1838.629195
1276.896774,-9178.553681,888.247130,1915.238745
1276.897095,-9178.553681,2368.659014,1608.800546
1276.897416,-9770.718434,2368.659014,842.705048
1276.897737,-10362.883188,1628.453072,1838.629195
1276.898058,-10214.842000,-518.144159,1762.019645
1276.898379,-8882.471304,-2442.679609,-459.657299
1276.898699,-8734.430116,-592.164754,153.219100
1276.899020,-10214.842000,296.082377,2145.067394
1276.899341,-10584.944971,518.144159,3753.867940
1276.899662,-10214.842000,-1110.308913,3524.039291
1276.899983,-9622.677246,-1332.370696,1991.848295
1276.900303,-9992.780217,-1776.494261,2068.457845
1276.900624,-9474.636058,-2812.782580,2451.505594
1276.900945,-8808.450710,-3182.885551,1685.410096
1276.901266,-8068.244768,-2664.741391,-1072.533697
1276.901587,-9178.553681,-444.123565,0.000000
1276.901908,-9770.718434,0.000000,229.828649
1276.902228,-9918.759623,444.123565,612.876398
1276.902549,-10362.883188,1258.350101,229.828649
1276.902870,-11029.068536,2146.597232,919.314598
1276.903191,-11399.171507,666.185348,1072.533697
1276.903512,-10362.883188,-888.247130,0.000000
1276.903832,-9252.574275,-296.082377,-919.314598
1276.904153,-9252.574275,666.185348,-612.876398
1276.904474,-9918.759623,1776.494261,842.705048
1276.904795,-9548.656652,370.102971,1685.410096
1276.905116,-9030.512492,-962.267725,536.266849
1276.905436,-8290.306550,-1850.514855,842.705048
1276.905757,-9696.697840,-1998.556043,1072.533697
1276.906078,-9326.594869,-2664.741391,1685.410096
1276.906399,-8956.491898,-2294.638420,536.266849
1276.906720,-8808.450710,-148.041188,612.876398
1276.907041,-9770.718434,740.205942,842.705048
1276.907361,-9992.780217,1184.329507,1149.143247
1276.907682,-9474.636058,814.226536,153.219100
1276.908003,-9844.739029,1628.453072,153.219100
1276.908324,-10584.944971,1554.432478,919.314598
1276.908645,-9770.718434,-296.082377,919.314598
1276.908965,-9474.636058,-1258.350101,153.219100
1276.909286,-8882.471304,-740.205942,-536.266849
1276.909607,-9474.636058,1628.453072,229.828649
1276.909928,-9918.759623,814.226536,2145.067394
1276.910249,-8438.347739,0.000000,2528.115143
1276.910570,-9178.553681,-2516.700203,1532.190996
1276.910890,-8142.265362,-1702.473667,2451.505594
1276.911211,-9844.739029,-2368.659014,3830.477490
1276.911532,-9474.636058,-3627.009116,3064.381992
1276.911853,-8956.491898,-2664.741391,2604.724693
1276.912174,-9474.636058,-1184.329507,1838.629195
1276.912494,-9030.512492,222.061783,1532.190996
1276.912815,-10510.924376,0.000000,2221.676944
1276.913136,-9400.615463,148.041188,919.314598
1276.913457,-10362.883188,1258.350101,306.438199
1276.913778,-10066.800811,1480.411884,919.314598
1276.914099,-10066.800811,444.123565,1455.581446
1276.914419,-9696.697840,-962.267725,76.609550
1276.914740,-9326.594869,74.020594,-306.438199
1276.915061,-10140.821405,1036.288319,1225.752797
1276.915382,-10584.944971,592.164754,2298.286494
1276.915703,-9474.636058,-296.082377,2145.067394
1276.916023,-10066.800811,-1036.288319,1608.800546
1276.916344,-9326.594869,-888.247130,1302.362347
1276.916665,-9326.594869,-1554.432478,2145.067394
1276.916986,-9178.553681,-1924.535449,1685.410096
1276.917307,-9030.512492,-2072.576638,306.438199
1276.917628,-9400.615463,-148.041188,153.219100
1276.917948,-9548.656652,444.123565,2221.676944
1276.918269,-9696.697840,1036.288319,76.609550
1276.918590,-10584.944971,1776.494261,536.266849
1276.918911,-10288.862594,1924.535449,842.705048
1276.919232,-10732.986159,888.247130,919.314598
1276.919552,-9992.780217,-592.164754,0.000000
1276.919873,-9030.512492,-814.226536,-1762.019645
1276.920194,-9474.636058,1036.288319,-689.485948
1276.920515,-9844.739029,2294.638420,1302.362347
1276.920836,-9474.636058,888.247130,2451.505594
1276.921156,-8882.471304,0.000000,1532.190996
1276.921477,-9104.533087,-1332.370696,1455.581446
1276.921798,-9400.615463,-2664.741391,2145.067394
1276.922119,-8142.265362,-2146.597232,2528.115143
1276.922440,-7846.182985,-2960.823768,1225.752797
1276.922761,-8290.306550,-2146.597232,229.828649
1276.923081,-8956.491898,-444.123565,1149.143247
1276.923402,-9400.615463,0.000000,842.705048
1276.923723,-9696.697840,592.164754,995.924147
1276.924044,-10140.821405,1776.494261,689.485948
1276.924365,-11177.109724,1480.411884,2298.286494
1276.924685,-9770.718434,-518.144159,1149.143247
1276.925006,-9696.697840,-814.226536,-689.485948
1276.925327,-9474.636058,222.061783,-919.314598
1276.925648,-9770.718434,2294.638420,536.266849
1276.925969,-9696.697840,1850.514855,2987.772442
1276.926290,-9770.718434,0.000000,4903.011187
1276.926610,-8882.471304,-2072.576638,2221.676944
1276.926931,-10510.924376,-3182.885551,2834.553343
1276.927252,-9992.780217,-3404.947333,3370.820191
1276.927573,-9178.553681,-3627.009116,3294.210641
1276.927894,-8290.306550,-2664.741391,1532.190996
1276.928214,-8660.409521,-296.082377,0.000000
1276.928535,-8882.471304,1776.494261,459.657299
1276.928856,-9918.759623,2294.638420,459.657299
1276.929177,-9252.574275,2442.679609,-766.095498
1276.929498,-10658.965565,2738.761985,0.000000
1276.929819,-10955.047942,1702.473667,0.000000
1276.930139,-10288.862594,-592.164754,76.609550
1276.930460,-9474.636058,-814.226536,-2068.457845
1276.930781,-9622.677246,-444.123565,-536.266849
1276.931102,-10584.944971,1332.370696,689.485948
1276.931423,-10732.986159,888.247130,2068.457845
1276.931743,-9918.759623,-370.102971,1532.190996
1276.932064,-9030.512492,-962.267725,1072.533697
1276.932385,-9400.615463,-2146.597232,1762.019645
1276.932706,-9474.636058,-3256.906145,1838.629195
1276.933027,-8660.409521,-3701.029710,1225.752797
1276.933348,-8586.388927,-2590.720797,0.000000
1276.933668,-9400.615463,-518.144159,1072.533697
1276.933989,-9548.656652,-444.123565,1455.581446
1276.934310,-9770.718434,-148.041188,536.266849
1276.934631,-9844.739029,740.205942,-229.828649
1276.934952,-10436.903782,1850.514855,153.219100
1276.935272,-10362.883188,518.144159,842.705048
1276.935593,-9252.574275,-1110.308913,76.609550
1276.935914,-8808.450710,-1628.453072,-1608.800546
1276.936235,-9104.533087,296.082377,-536.266849
1276.936556,-9918.759623,592.164754,1838.629195
1276.936876,-9770.718434,0.000000,2911.162892
1276.937197,-9400.615463,-666.185348,2757.943793
1276.937518,-9326.594869,-1258.350101,2528.115143
1276.937839,-9474.636058,-2516.700203,3140.991542
1276.938160,-9178.553681,-3627.009116,2987.772442
1276.938481,-7994.224174,-3404.947333,1455.581446
1276.938801,-8068.244768,-1184.329507,1072.533697
1276.939122,-9474.636058,-296.082377,1455.581446
1276.939443,-9030.512492,222.061783,1455.581446
1276.939764,-9918.759623,1258.350101,766.095498
1276.940085,-10955.047942,2886.803174,1455.581446
1276.940405,-11843.295072,2368.659014,2145.067394
1276.940726,-11473.192101,0.000000,2145.067394
1276.941047,-9844.739029,-1776.494261,0.000000
1276.941368,-9474.636058,-962.267725,-766.095498
1276.941689,-9326.594869,592.164754,536.266849
1276.942010,-9918.759623,888.247130,1762.019645
1276.942330,-9178.553681,0.000000,1838.629195
1276.942651,-8364.327145,-444.123565,229.828649
1276.942972,-9030.512492,-1406.391290,459.657299
1276.943293,-9918.759623,-2072.576638,2298.286494
1276.943614,-9474.636058,-2664.741391,2757.943793
1276.943934,-9770.718434,-2220.617826,1455.581446
1276.944255,-9030.512492,-222.061783,1608.800546
1276.944576,-10732.986159,-222.061783,2298.286494
1276.944897,-10214.842000,444.123565,1685.410096
1276.945218,-10214.842000,1184.329507,229.828649
1276.945539,-9992.780217,2294.638420,0.000000
1276.945859,-9992.780217,2220.617826,76.609550
1276.946180,-9770.718434,0.000000,0.000000
1276.946501,-9400.615463,0.000000,-995.924147
1276.946822,-9030.512492,1184.329507,-1225.752797
1276.947143,-9252.574275,962.267725,612.876398
1276.947463,-9918.759623,370.102971,2298.286494
1276.947784,-9770.718434,-1258.350101,1838.629195
1276.948105,-9030.512492,-1776.494261,1378.971896
1276.948426,-9400.615463,-1628.453072,2068.457845
1276.948747,-8956.491898,-2738.761985,1915.238745
1276.949068,-8068.244768,-2220.617826,766.095498
1276.949388,-8364.327145,-518.144159,689.485948
1276.949709,-9178.553681,592.164754,1225.752797
1276.950030,-9622.677246,962.267725,1838.629195
1276.950351,-9992.780217,370.102971,1149.143247
1276.950672,-9844.739029,814.226536,76.609550
1276.950993,-10955.047942,1184.329507,1225.752797
1276.951313,-10140.821405,296.082377,2451.505594
1276.951634,-9474.636058,-1406.391290,459.657299
1276.951955,-9030.512492,-1480.411884,-995.924147
1276.952276,-8660.409521,0.000000,-383.047749
1276.952597,-9844.739029,888.247130,1762.019645
1276.952918,-9992.780217,666.185348,2374.896044
1276.953239,-9104.533087,-740.205942,1225.752797
1276.953559,-9400.615463,-740.205942,1762.019645
1276.953880,-9992.780217,-2072.576638,2374.896044
1276.954201,-9326.594869,-3478.967927,1991.848295
1276.954522,-9252.574275,-2960.823768,1072.533697
1276.954843,-8956.491898,-1628.453072,-229.828649
1276.955164,-9252.574275,370.102971,0.000000
1276.955485,-8438.347739,0.000000,-995.924147
1276.955805,-9400.615463,740.205942,-536.266849
1276.956126,-10214.842000,2072.576638,-383.047749
1276.956447,-11325.150913,1702.473667,1072.533697
1276.956768,-11547.212695,-666.185348,1838.629195
1276.957089,-10510.924376,-2072.576638,536.266849
1276.957410,-10658.965565,-1258.350101,153.219100
1276.957731,-10584.944971,1258.350101,1302.362347
1276.958051,-10510.924376,1258.350101,2451.505594
1276.958372,-9252.574275,148.041188,1149.143247
1276.958693,-8734.430116,518.144159,0.000000
1276.959014,-8512.368333,0.000000,-229.828649
1276.959335,-9030.512492,-1480.411884,1149.143247
1276.959656,-7994.224174,-2738.761985,536.266849
1276.959977,-8364.327145,-2516.700203,153.219100
1276.960297,-9474.636058,-814.226536,1225.752797
1276.960618,-10214.842000,0.000000,2604.724693
1276.960939,-10214.842000,444.123565,2757.943793
1276.961260,-10288.862594,592.164754,919.314598
1276.961581,-9992.780217,1702.473667,995.924147
1276.961902,-10066.800811,1110.308913,1455.581446
1276.962223,-9400.615463,-888.247130,1072.533697
1276.962543,-8808.450710,-1850.514855,-919.314598
1276.962864,-8068.244768,0.000000,-1072.533697
1276.963185,-9030.512492,888.247130,995.924147
1276.963506,-9548.656652,0.000000,1838.629195
1276.963827,-7402.059420,1554.432478,1225.752797
1276.964148,-10807.006753,-518.144159,2221.676944
1276.964469,-9400.615463,740.205942,3524.039291
1276.964790,-10362.883188,-3552.988522,3677.258390
1276.965110,-8734.430116,-3997.112087,1838.629195
1276.965431,-8142.265362,-1850.514855,766.095498
1276.965752,-9400.615463,-592.164754,1455.581446
1276.966073,-9474.636058,666.185348,2757.943793
1276.966394,-9400.615463,-222.061783,459.657299
1276.966715,-10658.965565,1036.288319,306.438199
1276.967036,-9992.780217,518.144159,612.876398
1276.967356,-11325.150913,592.164754,1455.581446
1276.967677,-10510.924376,-1036.288319,766.095498
1276.967998,-9696.697840,-74.020594,-459.657299
1276.968319,-9400.615463,666.185348,-229.828649
1276.968640,-9918.759623,370.102971,919.314598
1276.968961,-10066.800811,-296.082377,2145.067394
1276.969282,-9474.636058,-1554.432478,919.314598
1276.969602,-10140.821405,-592.164754,1149.143247
1276.969923,-9844.739029,-814.226536,1838.629195
1276.970244,-9474.636058,-2368.659014,1838.629195
1276.970565,-9030.512492,-1924.535449,919.314598
1276.970886,-9252.574275,-518.144159,919.314598
1276.971207,-9622.677246,-666.185348,459.657299
1276.971528,-9696.697840,-296.082377,1608.800546
1276.971848,-9770.718434,0.000000,76.609550
1276.972169,-10288.862594,1480.411884,153.219100
1276.972490,-10362.883188,1998.556043,995.924147
1276.972811,-9844.739029,666.185348,383.047749
1276.973132,-9252.574275,0.000000,-306.438199
1276.973453,-9104.533087,148.041188,-1225.752797
1276.973774,-9474.636058,814.226536,459.657299
1276.974094,-9622.677246,1036.288319,1378.971896
1276.974415,-9474.636058,-222.061783,1532.190996
1276.974736,-8660.409521,0.000000,919.314598
1276.975057,-9844.739029,-1332.370696,2834.553343
1276.975378,-9104.533087,-2442.679609,2451.505594
1276.975699,-8068.244768,-3627.009116,1378.971896
1276.976020,-8808.450710,-3404.947333,0.000000
1276.976341,-8068.244768,-296.082377,383.047749
1276.976661,-9548.656652,-740.205942,1838.629195
1276.976982,-9178.553681,592.164754,1991.848295
1276.977303,-9770.718434,1258.350101,1532.190996
1276.977624,-10955.047942,1406.391290,1762.019645
1276.977945,-10510.924376,222.061783,2374.896044
1276.978266,-9548.656652,-2220.617826,612.876398
1276.978587,-8660.409521,-1628.453072,-612.876398
1276.978907,-8882.471304,0.000000,-229.828649
1276.979228,-8808.450710,1924.535449,2068.457845
1276.979549,-9696.697840,592.164754,2834.553343
1276.979870,-9918.759623,-296.082377,2528.115143
1276.980191,-9770.718434,-962.267725,1991.848295
1276.980512,-9770.718434,-1924.535449,2451.505594
1276.980833,-9696.697840,-3775.050304,2451.505594
1276.981153,-8660.409521,-2368.659014,1149.143247
1276.981474,-9104.533087,0.000000,0.000000
1276.981795,-9474.636058,888.247130,536.266849
1276.982116,-9252.574275,1258.350101,842.705048
1276.982437,-9844.739029,1850.514855,459.657299
1276.982758,-11621.233289,1258.350101,153.219100
1276.983079,-10955.047942,1554.432478,1378.971896
1276.983399,-10807.006753,-296.082377,459.657299
1276.983720,-9918.759623,-1258.350101,0.000000
1276.984041,-9474.636058,0.000000,-689.485948
1276.984362,-10140.821405,1184.329507,0.000000
1276.984683,-9696.697840,888.247130,1072.533697
1276.985004,-8660.409521,-592.164754,766.095498
1276.985325,-8956.491898,-222.061783,766.095498
1276.985645,-9622.677246,-222.061783,1532.190996
1276.985966,-9992.780217,-1258.350101,2834.553343
1276.986287,-9474.636058,-2960.823768,2681.334243
1276.986608,-8512.368333,-2664.741391,612.876398
1276.986929,-9030.512492,-1554.432478,842.705048
1276.987250,-10214.842000,-740.205942,1455.581446
1276.987571,-8956.491898,370.102971,306.438199
1276.987892,-6735.874072,1702.473667,-153.219100
1276.988212,-9252.574275,2368.659014,-1685.410096
1276.988533,-9326.594869,1850.514855,-383.047749
1276.988854,-9770.718434,-740.205942,-306.438199
1276.989175,-9178.553681,-962.267725,536.266849
1276.989496,-9326.594869,-222.061783,153.219100
1276.989817,-10362.883188,666.185348,2911.162892
1276.990138,-11177.109724,-962.267725,4596.572988
1276.990458,-9178.553681,-2146.597232,2681.334243
1276.990779,-9030.512492,-2072.576638,1532.190996
1276.991100,-8586.388927,-1480.411884,1915.238745
1276.991421,-9104.533087,-2368.659014,2298.286494
1276.991742,-8734.430116,-2220.617826,1608.800546
1276.992063,-7031.956449,-1110.308913,1149.143247
1276.992384,-8734.430116,0.000000,229.828649
1276.992704,-9918.759623,370.102971,2145.067394
1276.993025,-10584.944971,-148.041188,2298.286494
1276.993346,-11029.068536,222.061783,3370.820191
1276.993667,-11325.150913,888.247130,2145.067394
1276.993988,-10955.047942,148.041188,2451.505594
1276.994309,-10288.862594,-962.267725,1302.362347
1276.994630,-9844.739029,-666.185348,0.000000
1276.994950,-9252.574275,1110.308913,229.828649
1276.995271,-9474.636058,962.267725,919.314598
1276.995592,-9474.636058,-222.061783,1455.581446
1276.995913,-9474.636058,-1554.432478,1149.143247
1276.996234,-10066.800811,-74.020594,995.924147
1276.996555,-10362.883188,-1184.329507,2451.505594
1276.996876,-9474.636058,-2072.576638,1991.848295
1276.997196,-9030.512492,-1184.329507,689.485948
1276.997517,-9474.636058,0.000000,383.047749
1276.997838,-10140.821405,1480.411884,1225.752797
1276.998159,-10436.903782,1110.308913,842.705048
1276.998480,-9474.636058,1258.350101,-229.828649
1276.998801,-9918.759623,1628.453072,-459.657299
1276.999122,-11103.089130,888.247130,1685.410096
1276.999442,-10362.883188,-296.082377,995.924147
1276.999763,-9474.636058,-888.247130,0.000000
1277.000084,-8956.491898,-1554.432478,-689.485948
1277.000405,-9326.594869,1036.288319,0.000000
1277.000726,-9918.759623,-296.082377,2298.286494
1277.001047,-8808.450710,-1406.391290,1225.752797
1277.001368,-7846.182985,-1036.288319,306.438199
1277.001689,-8290.306550,-1184.329507,766.095498
1277.002009,-8438.347739,-2664.741391,1685.410096
1277.002330,-8660.409521,-2368.659014,1915.238745
1277.002651,-8512.368333,-1110.308913,612.876398
1277.002972,-9030.512492,592.164754,1149.143247
1277.003293,-9770.718434,1036.288319,1762.019645
1277.003614,-10584.944971,592.164754,2145.067394
1277.003935,-10214.842000,962.267725,1608.800546
1277.004255,-10362.883188,888.247130,1072.533697
1277.004576,-10066.800811,-148.041188,1762.019645
1277.004897,-9252.574275,-1998.556043,536.266849
1277.005218,-8808.450710,-1998.556043,-306.438199
1277.005539,-9104.533087,444.123565,383.047749
1277.005860,-9696.697840,962.267725,2145.067394
1277.006181,-9474.636058,74.020594,2681.334243
1277.006501,-9696.697840,-592.164754,2451.505594
1277.006822,-9474.636058,-592.164754,1608.800546
1277.007143,-10510.924376,-1184.329507,2298.286494
1277.007464,-9992.780217,-2664.741391,2681.334243
1277.007785,-8660.409521,-2220.617826,689.485948
1277.008106,-8882.471304,-1258.350101,-536.266849
1277.008427,-9992.780217,518.144159,766.095498
1277.008747,-10436.903782,888.247130,995.924147
1277.009068,-10436.903782,1480.411884,689.485948
1277.009389,-10584.944971,1628.453072,0.000000
1277.009710,-11473.192101,1406.391290,842.705048
1277.010031,-11399.171507,-370.102971,1455.581446
1277.010352,-9474.636058,-1628.453072,76.609550
1277.010673,-9474.636058,-1110.308913,-1149.143247
1277.010993,-9400.615463,1036.288319,-153.219100
1277.011314,-9844.739029,1554.432478,919.314598
1277.011635,-9474.636058,888.247130,3064.381992
1277.011956,-8956.491898,-370.102971,1149.143247
1277.012277,-9178.553681,-1554.432478,919.314598
1277.012598,-9696.697840,-2294.638420,1608.800546
1277.012919,-9400.615463,-3108.864956,1225.752797
1277.013240,-8586.388927,-2294.638420,229.828649
1277.013560,-8660.409521,-666.185348,229.828649
1277.013881,-9474.636058,444.123565,689.485948
1277.014202,-9326.594869,592.164754,612.876398
1277.014523,-9474.636058,1110.308913,229.828649
1277.014844,-9992.780217,1850.514855,536.266849
1277.015165,-10288.862594,1036.288319,1762.019645
1277.015486,-9844.739029,-1850.514855,1991.848295
1277.015806,-8586.388927,-2442.679609,2298.286494
1277.016127,-8660.409521,-1258.350101,-612.876398
1277.016448,-8512.368333,1998.556043,1532.190996
1277.016769,-10881.027347,592.164754,3294.210641
1277.017090,-9918.759623,148.041188,3140.991542
1277.017411,-9178.553681,-1776.494261,1532.190996
1277.017732,-8956.491898,-3552.988522,1685.410096
1277.018052,-8512.368333,-3256.906145,2451.505594
1277.018373,-9400.615463,-3256.906145,2145.067394
1277.018694,-7550.100608,-740.205942,766.095498
1277.019015,-9918.759623,1554.432478,1991.848295
1277.019336,-10510.924376,1480.411884,3140.991542
1277.019657,-10362.883188,666.185348,2451.505594
1277.019978,-11399.171507,-222.061783,842.705048
1277.020298,-11399.171507,666.185348,1762.019645
1277.020619,-10881.027347,0.000000,1915.238745
1277.020940,-10288.862594,-2146.597232,842.705048
1277.021261,-8586.388927,-1110.308913,-1072.533697
1277.021582,-9474.636058,518.144159,-689.485948
1277.021903,-9622.677246,1554.432478,1072.533697
1277.022224,-10214.842000,740.205942,1532.190996
1277.022544,-9918.759623,-518.144159,1225.752797
1277.022865,-10510.924376,296.082377,995.924147
1277.023186,-10362.883188,-1480.411884,2374.896044
1277.023507,-9548.656652,-2812.782580,2834.553343
1277.023828,-8660.409521,-3627.009116,1149.143247
1277.024149,-8660.409521,-1850.514855,-383.047749
1277.024470,-9474.636058,-370.102971,0.000000
1277.024791,-9474.636058,518.144159,0.000000
1277.025111,-8956.491898,1850.514855,-459.657299
1277.025432,-9622.677246,2886.803174,-766.095498
1277.025753,-10140.821405,2516.700203,612.876398
1277.026074,-9918.759623,0.000000,919.314598
1277.026395,-9474.636058,-2516.700203,-306.438199
1277.026716,-8808.450710,-1776.494261,-1149.143247
1277.027037,-9622.677246,1332.370696,-459.657299
1277.027357,-10214.842000,2368.659014,2451.505594
1277.027678,-9474.636058,1776.494261,2681.334243
1277.027999,-9252.574275,444.123565,1149.143247
1277.028320,-8586.388927,-888.247130,1302.362347
1277.028641,-9622.677246,-3182.885551,1302.362347
1277.028962,-8956.491898,-3627.009116,1149.143247
1277.029283,-8290.306550,-2220.617826,0.000000
1277.029603,-8364.327145,518.144159,76.609550
1277.029924,-9474.636058,1776.494261,919.314598
1277.030245,-10362.883188,1406.391290,1225.752797
1277.030566,-10214.842000,2220.617826,919.314598
1277.030887,-11251.130318,1258.350101,919.314598
1277.031208,-11547.212695,444.123565,2374.896044
1277.031529,-10288.862594,-1998.556043,1532.190996
1277.031849,-8808.450710,-2812.782580,-153.219100
1277.032170,-8956.491898,-1332.370696,-536.266849
1277.032491,-9400.615463,370.102971,1225.752797
1277.032812,-9696.697840,0.000000,2451.505594
1277.033133,-9178.553681,-592.164754,2451.505594
1277.033454,-9326.594869,-1184.329507,2068.457845
1277.033775,-9844.739029,-1332.370696,2451.505594
1277.034095,-9696.697840,-2738.761985,2681.334243
1277.034416,-8956.491898,-3330.926739,2068.457845
1277.034737,-8882.471304,-1480.411884,1302.362347
1277.035058,-9474.636058,222.061783,1378.971896
1277.035379,-10288.862594,814.226536,2528.115143
1277.035700,-9992.780217,1406.391290,1455.581446
1277.036021,-10214.842000,1924.535449,842.705048
1277.036342,-10584.944971,2368.659014,1378.971896
1277.036662,-10807.006753,814.226536,1225.752797
1277.036983,-9992.780217,-740.205942,459.657299
1277.037304,-8956.491898,-1036.288319,-1149.143247
1277.037625,-9178.553681,222.061783,-536.266849
1277.037946,-9770.718434,814.226536,1838.629195
1277.038267,-10066.800811,-370.102971,2221.676944
1277.038588,-9326.594869,-518.144159,1302.362347
1277.038908,-9474.636058,-814.226536,995.924147
1277.039229,-9474.636058,-1184.329507,2145.067394
1277.039550,-9474.636058,-2146.597232,1532.190996
1277.039871,-9474.636058,-2738.761985,1149.143247
1277.040192,-8438.347739,-74.020594,-383.047749
1277.040513,-9770.718434,74.020594,995.924147
1277.040834,-9326.594869,-222.061783,919.314598
1277.041154,-9548.656652,74.020594,536.266849
1277.041475,-10436.903782,962.267725,76.609550
1277.041796,-10140.821405,1184.329507,919.314598
1277.042117,-9992.780217,-1480.411884,459.657299
1277.042438,-9400.615463,-1554.432478,-383.047749
1277.042759,-8882.471304,-1184.329507,-1455.581446
1277.043080,-9030.512492,518.144159,306.438199
1277.043400,-9548.656652,148.041188,766.095498
1277.043721,-9030.512492,0.000000,689.485948
1277.044042,-8290.306550,-962.267725,-306.438199
1277.044363,-9030.512492,0.000000,995.924147
1277.044684,-9844.739029,-1406.391290,3370.820191
1277.045005,-9548.656652,-3552.988522,4673.182538
1277.045326,-9252.574275,-3034.844362,2911.162892
1277.045646,-10658.965565,-1924.535449,3064.381992
1277.045967,-11547.212695,-370.102971,4596.572988
1277.046288,-11029.068536,74.020594,4366.744339
1277.046609,-9918.759623,444.123565,1838.629195
1277.046930,-9252.574275,1036.288319,229.828649
1277.047251,-8808.450710,222.061783,-919.314598
1277.047572,-8364.327145,74.020594,-1532.190996
1277.047892,-8216.285956,74.020594,-2757.943793
1277.048213,-8068.244768,1628.453072,-1302.362347
1277.048534,-9844.739029,1258.350101,1149.143247
1277.048855,-11251.130318,0.000000,3064.381992
1277.049176,-10732.986159,-1850.514855,2911.162892
1277.049497,-10510.924376,-1924.535449,2834.553343
1277.049818,-10732.986159,-1776.494261,3830.477490
1277.050139,-9844.739029,-2146.597232,3064.381992
1277.050459,-9474.636058,-1998.556043,1072.533697
1277.050780,-7920.203579,-1036.288319,-229.828649
1277.051101,-8364.327145,444.123565,-995.924147
1277.051422,-9696.697840,666.185348,0.000000
1277.051743,-9474.636058,1332.370696,-612.876398
1277.052064,-9622.677246,1924.535449,0.000000
1277.052385,-11177.109724,2072.576638,919.314598
1277.052705,-11325.150913,740.205942,2374.896044
1277.053026,-11473.192101,-666.185348,1838.629195
1277.053347,-10362.883188,-666.185348,1838.629195
1277.053668,-9622.677246,1184.329507,0.000000
1277.053988,-9770.718434,1776.494261,1149.143247
1277.054309,-8882.471304,1110.308913,1532.190996
1277.054630,-8142.265362,0.000000,1225.752797
1277.054951,-8364.327145,-592.164754,689.485948
1277.055271,-8512.368333,-1776.494261,1685.410096
1277.055592,-9178.553681,-3404.947333,1838.629195
1277.055913,-9252.574275,-3182.885551,2145.067394
1277.056234,-8956.491898,0.000000,459.657299
1277.056554,-9918.759623,370.102971,2221.676944
1277.056875,-9918.759623,592.164754,2068.457845
1277.057196,-9252.574275,1406.391290,1149.143247
1277.057517,-10066.800811,1332.370696,229.828649
1277.057837,-9770.718434,1998.556043,995.924147
1277.058158,-9918.759623,148.041188,383.047749
1277.058479,-9178.553681,-1702.473667,-842.705048
1277.058800,-8882.471304,-592.164754,-1608.800546
1277.059120,-9622.677246,740.205942,1608.800546
1277.059441,-10584.944971,0.000000,3140.991542
1277.059762,-10288.862594,-962.267725,2604.724693
1277.060083,-9696.697840,-2368.659014,1378.971896
1277.060403,-9474.636058,-2294.638420,1072.533697
1277.060724,-9178.553681,-2220.617826,1455.581446
1277.061045,-8660.409521,-3034.844362,1072.533697
1277.061366,-7698.141797,-1850.514855,-383.047749
1277.061686,-8438.347739,-888.247130,-383.047749
1277.062007,-9474.636058,-666.185348,0.000000
1277.062328,-10510.924376,222.061783,1149.143247
1277.062648,-10955.047942,1332.370696,1225.752797
1277.062969,-11843.295072,2516.700203,1915.238745
1277.063290,-11325.150913,1554.432478,2451.505594
1277.063611,-10584.944971,-666.185348,306.438199
1277.063931,-9770.718434,-1036.288319,-1378.971896
1277.064252,-9030.512492,666.185348,-919.314598
1277.064573,-9770.718434,2220.617826,842.705048
1277.064894,-10140.821405,2294.638420,2221.676944
1277.065214,-9400.615463,740.205942,1915.238745
1277.065535,-9696.697840,-222.061783,1532.190996
1277.065856,-10140.821405,-1184.329507,3217.601092
1277.066177,-9252.574275,-3775.050304,3600.648841
1277.066497,-8808.450710,-4071.132681,1685.410096
1277.066818,-8290.306550,-1850.514855,-153.219100
1277.067139,-9030.512492,592.164754,459.657299
1277.067460,-9474.636058,1628.453072,995.924147
1277.067780,-9326.594869,1110.308913,995.924147
1277.068101,-9548.656652,1554.432478,76.609550
1277.068422,-10436.903782,1332.370696,842.705048
1277.068743,-10881.027347,-740.205942,1685.410096
1277.069063,-9548.656652,-2146.597232,383.047749
1277.069384,-8808.450710,-1924.535449,-459.657299
1277.069705,-9178.553681,-222.061783,459.657299
1277.070025,-9474.636058,222.061783,2528.115143
1277.070346,-10066.800811,-1184.329507,2987.772442
1277.070667,-8956.491898,-1776.494261,1915.238745
1277.070988,-9400.615463,-2812.782580,1378.971896
1277.071308,-8216.285956,-3108.864956,2451.505594
1277.071629,-8882.471304,-4367.215058,2068.457845
1277.071950,-8142.265362,-2590.720797,766.095498
1277.072271,-9400.615463,-518.144159,1838.629195
1277.072591,-9770.718434,296.082377,1225.752797
1277.072912,-9770.718434,1776.494261,1225.752797
1277.073233,-11473.192101,2072.576638,0.000000
1277.073554,-10732.986159,2146.597232,612.876398
1277.073874,-11399.171507,814.226536,995.924147
1277.074195,-10436.903782,-1184.329507,689.485948
1277.074516,-8956.491898,-1924.535449,-842.705048
1277.074837,-9104.533087,-222.061783,-1608.800546
1277.075157,-10214.842000,1850.514855,842.705048
1277.075478,-10214.842000,1332.370696,2374.896044
1277.075799,-10066.800811,296.082377,1838.629195
1277.076120,-10066.800811,-148.041188,842.705048
1277.076440,-9770.718434,-740.205942,1532.190996
1277.076761,-9770.718434,-2368.659014,2221.676944
1277.077082,-9030.512492,-2294.638420,1378.971896
1277.077402,-7550.100608,-740.205942,-1072.533697
1277.077723,-9030.512492,592.164754,0.000000
1277.078044,-9844.739029,2072.576638,1455.581446
1277.078365,-10658.965565,1998.556043,1991.848295
1277.078685,-10807.006753,1924.535449,1302.362347
1277.079006,-11621.233289,2442.679609,2298.286494
1277.079327,-11325.150913,0.000000,2451.505594
1277.079648,-10066.800811,-2812.782580,1072.533697
1277.079968,-8438.347739,-1702.473667,-995.924147
1277.080289,-8142.265362,-444.123565,-1072.533697
1277.080610,-9178.553681,1332.370696,306.438199
1277.080931,-9474.636058,1110.308913,1838.629195
1277.081251,-8734.430116,-148.041188,1072.533697
1277.081572,-9326.594869,-1258.350101,1532.190996
1277.081893,-9178.553681,-1184.329507,2451.505594
1277.082214,-10288.862594,-2220.617826,3753.867940
1277.082534,-8290.306550,-2072.576638,2221.676944
1277.082855,-8882.471304,-148.041188,536.266849
1277.083176,-8660.409521,740.205942,1762.019645
1277.083497,-9400.615463,148.041188,1072.533697
1277.083817,-8734.430116,222.061783,76.609550
1277.084138,-9622.677246,666.185348,-536.266849
1277.084459,-9474.636058,1776.494261,1072.533697
1277.084780,-10807.006753,-296.082377,1225.752797
1277.085100,-8882.471304,-1776.494261,536.266849
1277.085421,-9030.512492,-1406.391290,-383.047749
1277.085742,-9770.718434,-148.041188,919.314598
1277.086062,-10510.924376,444.123565,2528.115143
1277.086383,-10436.903782,-222.061783,3294.210641
1277.086704,-9474.636058,-1036.288319,1455.581446
1277.087025,-9178.553681,-592.164754,1225.752797
1277.087345,-10140.821405,-1628.453072,2068.457845
1277.087666,-9030.512492,-2664.741391,919.314598
1277.087987,-8660.409521,-1924.535449,383.047749
1277.088308,-9474.636058,-1332.370696,-459.657299
1277.088628,-9104.533087,74.020594,153.219100
1277.088949,-10066.800811,518.144159,919.314598
1277.089270,-10510.924376,814.226536,153.219100
1277.089591,-10881.027347,2072.576638,689.485948
1277.089911,-10807.006753,-148.041188,919.314598
1277.090232,-10436.903782,-1406.391290,383.047749
1277.090553,-9918.759623,-1924.535449,-919.314598
1277.090874,-9400.615463,-370.102971,-1378.971896
1277.091194,-9548.656652,1924.535449,995.924147
1277.091515,-10066.800811,1480.411884,1685.410096
1277.091836,-9178.553681,0.000000,1685.410096
1277.092157,-9548.656652,-1332.370696,689.485948
1277.092477,-9474.636058,-1554.432478,1378.971896
1277.092798,-9548.656652,-2960.823768,2145.067394
1277.093119,-8734.430116,-2738.761985,2221.676944
1277.093439,-8068.244768,-1406.391290,459.657299
1277.093760,-9326.594869,370.102971,1072.533697
1277.094081,-9030.512492,0.000000,1302.362347
1277.094402,-9474.636058,148.041188,1838.629195
1277.094722,-10658.965565,-444.123565,1149.143247
1277.095043,-9918.759623,370.102971,1685.410096
1277.095364,-10140.821405,-1110.308913,2298.286494
1277.095685,-8290.306550,-1184.329507,229.828649
1277.096005,-8808.450710,-1036.288319,-612.876398
1277.096326,-8956.491898,962.267725,153.219100
1277.096647,-9474.636058,1702.473667,1685.410096
1277.096968,-9844.739029,1110.308913,2145.067394
1277.097288,-9400.615463,296.082377,2068.457845
1277.097609,-9622.677246,-296.082377,2911.162892
1277.097930,-10584.944971,-2146.597232,3830.477490
1277.098251,-8956.491898,-3108.864956,2528.115143
1277.098571,-8808.450710,-2960.823768,1685.410096
1277.098892,-8364.327145,-962.267725,1378.971896
1277.099213,-9548.656652,592.164754,1838.629195
1277.099534,-10214.842000,1850.514855,2221.676944
1277.099854,-9400.615463,888.247130,1149.143247
1277.100175,-9992.780217,1036.288319,306.438199
1277.100496,-10807.006753,666.185348,1225.752797
1277.100816,-10584.944971,-1480.411884,995.924147
1277.101137,-9252.574275,-1406.391290,-612.876398
1277.101458,-9474.636058,-518.144159,-1149.143247
1277.101779,-10140.821405,1480.411884,766.095498
1277.102099,-10658.965565,814.226536,1532.190996
1277.102420,-10807.006753,444.123565,1915.238745
1277.102741,-9548.656652,-518.144159,-229.828649
1277.103062,-8808.450710,-592.164754,-229.828649
1277.103382,-9474.636058,-1850.514855,995.924147
1277.103703,-8142.265362,-2812.782580,995.924147
1277.104024,-8364.327145,-2146.597232,-766.095498
1277.104345,-8734.430116,-814.226536,0.000000
1277.104665,-9696.697840,0.000000,842.705048
1277.104986,-11103.089130,0.000000,2911.162892
1277.105307,-11029.068536,444.123565,3294.210641
1277.105628,-10881.027347,1480.411884,2681.334243
1277.105948,-11695.253884,296.082377,2987.772442
1277.106269,-9474.636058,-1702.473667,1072.533697
1277.106590,-7698.141797,-1480.411884,995.924147
1277.106911,-8216.285956,222.061783,-1378.971896
1277.107231,-8364.327145,1998.556043,-842.705048
1277.107552,-8438.347739,2368.659014,306.438199
1277.107873,-9104.533087,888.247130,0.000000
1277.108194,-8734.430116,592.164754,766.095498
1277.108514,-9844.739029,-888.247130,2298.286494
1277.108835,-10584.944971,-3108.864956,3217.601092
1277.109156,-9252.574275,-3627.009116,2374.896044
1277.109476,-8882.471304,-3034.844362,1225.752797
1277.109797,-9474.636058,-1554.432478,2221.676944
1277.110118,-9474.636058,0.000000,1915.238745
1277.110439,-9696.697840,1036.288319,1149.143247
1277.110759,-9548.656652,2146.597232,76.609550
1277.111080,-9918.759623,2146.597232,842.705048
1277.111401,-10881.027347,-222.061783,1455.581446
1277.111722,-10140.821405,-1702.473667,1455.581446
1277.112042,-9548.656652,-1258.350101,1302.362347
1277.112363,-10510.924376,0.000000,1225.752797
1277.112684,-10584.944971,740.205942,2681.334243
1277.113005,-9992.780217,666.185348,2528.115143
1277.113325,-10140.821405,-370.102971,1762.019645
1277.113646,-9030.512492,444.123565,1302.362347
1277.113967,-9474.636058,-814.226536,1762.019645
1277.114288,-9474.636058,-2368.659014,1455.581446
1277.114608,-8290.306550,-2072.576638,383.047749
1277.114929,-8808.450710,-2072.576638,536.266849
1277.115250,-9622.677246,-222.061783,1225.752797
1277.115571,-9992.780217,-666.185348,1455.581446
1277.115891,-10140.821405,0.000000,1072.533697
1277.116212,-10881.027347,1554.432478,-689.485948
1277.116533,-11029.068536,2072.576638,1532.190996
1277.116853,-10214.842000,370.102971,689.485948
1277.117174,-9178.553681,-666.185348,-766.095498
1277.117495,-8512.368333,-518.144159,-2221.676944
1277.117816,-9622.677246,888.247130,0.000000
1277.118136,-10288.862594,740.205942,1378.971896
1277.118457,-9400.615463,148.041188,1685.410096
1277.118778,-9770.718434,-444.123565,536.266849
1277.119099,-8956.491898,-518.144159,2298.286494
1277.119419,-9696.697840,-2072.576638,1685.410096
1277.119740,-8956.491898,-2590.720797,459.657299
1277.120061,-8142.265362,-1924.535449,-1378.971896
1277.120382,-8216.285956,74.020594,-76.609550
1277.120702,-8660.409521,518.144159,-536.266849
1277.121023,-9030.512492,592.164754,-383.047749
1277.121344,-9548.656652,1406.391290,536.266849
1277.121665,-11177.109724,1184.329507,1302.362347
1277.121985,-11029.068536,222.061783,2604.724693
1277.122306,-10955.047942,-1850.514855,2145.067394
1277.122627,-9844.739029,-1702.473667,689.485948
1277.122948,-9326.594869,74.020594,612.876398
1277.123268,-9622.677246,1776.494261,1915.238745
1277.123589,-9474.636058,-148.041188,2374.896044
1277.123910,-7920.203579,-962.267725,689.485948
1277.124231,-8586.388927,-1332.370696,1072.533697
1277.124551,-9030.512492,-814.226536,2145.067394
1277.124872,-8808.450710,-1258.350101,2987.772442
1277.125193,-9696.697840,-2590.720797,2221.676944
1277.125513,-7772.162391,-296.082377,1378.971896
1277.125834,-9770.718434,74.020594,2068.457845
1277.126155,-10214.842000,0.000000,2604.724693
1277.126476,-10140.821405,148.041188,2221.676944
1277.126796,-10658.965565,1258.350101,1149.143247
1277.127117,-10288.862594,1776.494261,1608.800546
1277.127438,-11399.171507,-222.061783,1915.238745
1277.127759,-9400.615463,-1998.556043,1302.362347
1277.128079,-9622.677246,-1554.432478,0.000000
1277.128400,-9474.636058,222.061783,919.314598
1277.128721,-9548.656652,814.226536,2221.676944
1277.129042,-10140.821405,-296.082377,2221.676944
1277.129362,-8808.450710,-592.164754,1378.971896
1277.129683,-9326.594869,-1036.288319,1149.143247
1277.130004,-9992.780217,-2146.597232,1915.238745
1277.130325,-9030.512492,-2812.782580,1072.533697
1277.130645,-8734.430116,-2294.638420,459.657299
1277.130966,-9030.512492,-518.144159,0.000000
1277.131287,-9622.677246,518.144159,1149.143247
1277.131608,-10732.986159,296.082377,2068.457845
1277.131928,-9992.780217,0.000000,383.047749
1277.132249,-10510.924376,740.205942,306.438199
1277.132570,-10955.047942,518.144159,919.314598
1277.132890,-9918.759623,-1406.391290,306.438199
1277.133211,-8660.409521,-1628.453072,-1608.800546
1277.133532,-8364.327145,0.000000,-2145.067394
1277.133853,-9178.553681,1628.453072,-229.828649
1277.134173,-9770.718434,1036.288319,1378.971896
1277.134494,-9622.677246,296.082377,689.485948
1277.134815,-9474.636058,0.000000,995.924147
1277.135136,-10140.821405,0.000000,1685.410096
1277.135456,-10066.800811,-1406.391290,2298.286494
1277.135777,-9178.553681,-1776.494261,1302.362347
1277.136098,-8660.409521,-666.185348,-229.828649
1277.136419,-8734.430116,1110.308913,536.266849
1277.136739,-9992.780217,666.185348,1455.581446
1277.137060,-9770.718434,0.000000,1302.362347
1277.137381,-9844.739029,1110.308913,229.828649
1277.137702,-10732.986159,1998.556043,1302.362347
1277.138022,-10732.986159,0.000000,2528.115143
1277.138343,-9992.780217,-1850.514855,2145.067394
1277.138664,-9770.718434,-2368.659014,76.609550
1277.138985,-9474.636058,-1258.350101,383.047749
1277.139305,-9696.697840,-296.082377,2298.286494
1277.139626,-9992.780217,-444.123565,2451.505594
1277.139947,-8290.306550,148.041188,2451.505594
1277.140267,-8882.471304,-888.247130,919.314598
1277.140588,-9178.553681,-1702.473667,1838.629195
1277.140909,-8808.450710,-3182.885551,1455.581446
1277.141230,-8586.388927,-2812.782580,0.000000
1277.141550,-9178.553681,-1258.350101,459.657299
1277.141871,-9326.594869,814.226536,1302.362347
1277.142192,-10436.903782,222.061783,1685.410096
1277.142513,-9400.615463,518.144159,689.485948
1277.142833,-9548.656652,1406.391290,689.485948
1277.143154,-10881.027347,1776.494261,1762.019645
1277.143475,-10658.965565,-222.061783,1149.143247
1277.143796,-9252.574275,-1110.308913,0.000000
1277.144116,-9030.512492,-1258.350101,1302.362347
1277.144437,-9548.656652,1554.432478,306.438199
1277.144758,-10066.800811,2146.597232,2451.505594
1277.145079,-9696.697840,148.041188,2374.896044
1277.145399,-8586.388927,0.000000,919.314598
1277.145720,-9696.697840,-962.267725,1915.238745
1277.146041,-9622.677246,-2072.576638,1378.971896
1277.146362,-9400.615463,-2516.700203,1378.971896
1277.146682,-8734.430116,-1776.494261,0.000000
1277.147003,-8660.409521,0.000000,766.095498
1277.147324,-9548.656652,962.267725,306.438199
1277.147645,-9548.656652,1480.411884,1455.581446
1277.147965,-10807.006753,962.267725,919.314598
1277.148286,-11177.109724,1850.514855,2681.334243
1277.148607,-11473.192101,0.000000,2298.286494
1277.148927,-10140.821405,-2442.679609,1072.533697
1277.149248,-8438.347739,-2590.720797,-536.266849
1277.149569,-9178.553681,-1184.329507,536.266849
1277.149890,-8882.471304,962.267725,995.924147
1277.150210,-9992.780217,-222.061783,2145.067394
1277.150531,-8734.430116,-1332.370696,1685.410096
1277.150852,-9104.533087,-1776.494261,689.485948
1277.151173,-9770.718434,-1480.411884,2451.505594
1277.151493,-9770.718434,-2738.761985,3600.648841
1277.151814,-9030.512492,-2738.761985,2221.676944
1277.152135,-9030.512492,-1258.350101,995.924147
1277.152456,-9622.677246,0.000000,1915.238745
1277.152776,-9474.636058,888.247130,2068.457845
1277.153097,-10214.842000,0.000000,1762.019645
1277.153418,-8956.491898,1184.329507,0.000000
1277.153739,-10807.006753,1406.391290,1302.362347
1277.154059,-10214.842000,0.000000,689.485948
1277.154380,-9178.553681,-1110.308913,153.219100
1277.154701,-9178.553681,-1332.370696,-1455.581446
1277.155021,-9104.533087,1036.288319,76.609550
1277.155342,-10140.821405,1554.432478,2451.505594
1277.155663,-10436.903782,0.000000,2987.772442
1277.155984,-9548.656652,-1184.329507,1532.190996
1277.156304,-9770.718434,-296.082377,2068.457845
1277.156625,-9178.553681,-2220.617826,2221.676944
1277.156946,-9474.636058,-2368.659014,2145.067394
1277.157267,-8364.327145,-3256.906145,76.609550
1277.157587,-8290.306550,-962.267725,-229.828649
1277.157908,-9104.533087,296.082377,306.438199
1277.158229,-9770.718434,1406.391290,689.485948
1277.158550,-10510.924376,1924.535449,612.876398
1277.158870,-10288.862594,2442.679609,459.657299
1277.159191,-10584.944971,2072.576638,1608.800546
1277.159512,-11177.109724,-962.267725,1838.629195
1277.159832,-9548.656652,-2516.700203,0.000000
1277.160153,-9400.615463,-1110.308913,-842.705048
1277.160474,-9474.636058,740.205942,229.828649
1277.160795,-9474.636058,2664.741391,2145.067394
1277.161115,-10140.821405,814.226536,2528.115143
1277.161436,-8364.327145,-148.041188,612.876398
1277.161757,-8216.285956,-888.247130,459.657299
1277.162078,-9844.739029,-2220.617826,1302.362347
1277.162398,-8512.368333,-3182.885551,1302.362347
1277.162719,-8142.265362,-2664.741391,383.047749
1277.163040,-9696.697840,-518.144159,1455.581446
1277.163360,-9474.636058,222.061783,1302.362347
1277.163681,-11621.233289,814.226536,1838.629195
1277.164002,-10658.965565,1258.350101,1838.629195
1277.164323,-11251.130318,2738.761985,2145.067394
1277.164643,-11177.109724,740.205942,3370.820191
1277.164964,-9696.697840,-1332.370696,1762.019645
1277.165285,-8068.244768,-2442.679609,-76.609550
1277.165606,-9104.533087,-1258.350101,-383.047749
1277.165926,-9400.615463,740.205942,1685.410096
1277.166247,-9474.636058,296.082377,1685.410096
1277.166568,-9474.636058,-666.185348,995.924147
1277.166889,-8364.327145,-666.185348,76.609550
1277.167209,-8956.491898,-962.267725,1378.971896
1277.167530,-9992.780217,-2738.761985,1991.848295
1277.167851,-7254.018232,-2294.638420,1378.971896
1277.168171,-9104.533087,-1406.391290,0.000000
1277.168492,-9918.759623,814.226536,1149.143247
1277.168813,-10214.842000,814.226536,1225.752797
1277.169134,-10732.986159,-592.164754,2757.943793
1277.169454,-9992.780217,1332.370696,383.047749
1277.169775,-10066.800811,1776.494261,229.828649
1277.170096,-11103.089130,296.082377,1149.143247
1277.170417,-9622.677246,-1480.411884,0.000000
1277.170737,-9104.533087,-1332.370696,-1302.362347
1277.171058,-9696.697840,0.000000,-766.095498
1277.171379,-9474.636058,962.267725,919.314598
1277.171699,-9992.780217,0.000000,1685.410096
1277.172020,-10140.821405,-888.247130,1685.410096
1277.172341,-9400.615463,-592.164754,1532.190996
1277.172662,-10066.800811,-1184.329507,2451.505594
1277.172982,-9844.739029,-2294.638420,1762.019645
1277.173303,-9252.574275,-1036.288319,-536.266849
1277.173624,-9474.636058,148.041188,536.266849
1277.173945,-9622.677246,666.185348,1225.752797
1277.174265,-9326.594869,0.000000,995.924147
1277.174586,-9400.615463,-296.082377,-383.047749
1277.174907,-10362.883188,666.185348,229.828649
1277.175228,-10362.883188,1258.350101,1532.190996
1277.175548,-10288.862594,-370.102971,1225.752797
1277.175869,-9178.553681,-1406.391290,229.828649
1277.176190,-8216.285956,-888.247130,-689.485948
1277.176510,-9770.718434,296.082377,1378.971896
1277.176831,-9992.780217,-148.041188,2528.115143
1277.177152,-9252.574275,-592.164754,2451.505594
1277.177473,-9770.718434,-1554.432478,1302.362347
1277.177793,-9400.615463,-1036.288319,2834.553343
1277.178114,-10066.800811,-2812.782580,3677.258390
1277.178435,-9178.553681,-4071.132681,2374.896044
1277.178756,-7624.121203,-1850.514855,536.266849
1277.179076,-8882.471304,-296.082377,0.000000
1277.179397,-9400.615463,296.082377,842.705048
1277.179718,-8660.409521,740.205942,459.657299
1277.180039,-9326.594869,74.020594,-76.609550
1277.180359,-9622.677246,1702.473667,842.705048
1277.180680,-10881.027347,222.061783,2298.286494
1277.181001,-10362.883188,-1406.391290,1302.362347
1277.181321,-9770.718434,-666.185348,459.657299
1277.181642,-10066.800811,1036.288319,1991.848295
