#time,accel_x,accel_y,accel_z
943.800588,-9400.615463,-444.123565,919.314598
943.800909,-9474.636058,-296.082377,1149.143247
943.801230,-9474.636058,-444.123565,919.314598
943.801551,-9400.615463,-518.144159,919.314598
943.801872,-9696.697840,-370.102971,1149.143247
943.802193,-9696.697840,-592.164754,1149.143247
943.802514,-9548.656652,-148.041188,1149.143247
943.802835,-9548.656652,0.000000,2145.067394
943.803156,-9474.636058,-518.144159,1072.533697
943.803477,-9622.677246,-222.061783,995.924147
943.803799,-9696.697840,-370.102971,842.705048
943.804120,-9548.656652,-148.041188,919.314598
943.804441,-9326.594869,-666.185348,1378.971896
943.804762,-9474.636058,-148.041188,1149.143247
943.805083,-9622.677246,0.000000,1225.752797
943.805404,-9622.677246,0.000000,995.924147
943.805725,-9252.574275,-962.267725,229.828649
943.806046,-9474.636058,-296.082377,689.485948
943.806367,-9696.697840,-888.247130,842.705048
943.806688,-9326.594869,-148.041188,612.876398
943.807009,-9770.718434,-370.102971,383.047749
943.807330,-9474.636058,-296.082377,995.924147
943.807651,-9696.697840,-296.082377,689.485948
943.807972,-9770.718434,-222.061783,1378.971896
943.808293,-9474.636058,-592.164754,1072.533697
943.808614,-9770.718434,-592.164754,1378.971896
943.808935,-9770.718434,-444.123565,1455.581446
943.809256,-9474.636058,-592.164754,766.095498
943.809577,-9474.636058,-370.102971,1608.800546
943.809898,-10362.883188,74.020594,1455.581446
943.810219,-9696.697840,-740.205942,766.095498
943.810540,-9326.594869,-1184.329507,766.095498
943.810861,-9474.636058,-1110.308913,229.828649
943.811182,-9474.636058,-740.205942,306.438199
943.811503,-9770.718434,-740.205942,153.219100
943.811824,-9770.718434,-740.205942,612.876398
943.812145,-9400.615463,-1184.329507,0.000000
943.812466,-9696.697840,-1258.350101,0.000000
943.812787,-9548.656652,-1184.329507,0.000000
943.813108,-9918.759623,-1110.308913,0.000000
943.813429,-9474.636058,-1480.411884,0.000000
943.813750,-9474.636058,-1628.453072,-536.266849
943.814071,-8734.430116,-2220.617826,-1149.143247
943.814392,-9474.636058,-2220.617826,-766.095498
943.814713,-9104.533087,-2812.782580,-1302.362347
943.815034,-9178.553681,-3034.844362,-1455.581446
943.815355,-9030.512492,-3478.967927,-1838.629195
943.815676,-9474.636058,-3552.988522,-2451.505594
943.815998,-9252.574275,-3478.967927,-2987.772442
943.816319,-9474.636058,-3627.009116,-2987.772442
943.816640,-9474.636058,-3552.988522,-3064.381992
943.816961,-9474.636058,-3701.029710,-3677.258390
943.817282,-9622.677246,-3627.009116,-3753.867940
943.817603,-9548.656652,-3478.967927,-4060.306139
943.817924,-9622.677246,-3478.967927,-3370.820191
943.818245,-8882.471304,-4367.215058,-3447.429741
943.818566,-9548.656652,-4293.194464,-3064.381992
943.818887,-9844.739029,-4663.297435,-2834.553343
943.819208,-9548.656652,-4663.297435,-2374.896044
943.819529,-9770.718434,-4663.297435,-1915.238745
943.819850,-9474.636058,-4145.153275,-2145.067394
943.820171,-9474.636058,-3849.070898,-2451.505594
943.820492,-9474.636058,-3627.009116,-2451.505594
943.820813,-9474.636058,-3478.967927,-2681.334243
943.821134,-9770.718434,-2960.823768,-2911.162892
943.821455,-9770.718434,-2812.782580,-2451.505594
943.821776,-9918.759623,-2442.679609,-1991.848295
943.822097,-9918.759623,-2516.700203,-1685.410096
943.822418,-9696.697840,-2886.803174,-689.485948
943.822739,-10362.883188,-3034.844362,-153.219100
943.823060,-10214.842000,-2960.823768,306.438199
943.823381,-10066.800811,-2960.823768,1378.971896
943.823702,-10140.821405,-3775.050304,1685.410096
943.824023,-9548.656652,-2738.761985,1455.581446
943.824344,-9474.636058,-2812.782580,612.876398
943.824665,-8808.450710,-2516.700203,0.000000
943.824986,-9030.512492,-2590.720797,-229.828649
943.825307,-8438.347739,-2368.659014,-612.876398
943.825628,-9178.553681,-2664.741391,-1302.362347
943.825949,-9326.594869,-2368.659014,-995.924147
943.826270,-9844.739029,-2590.720797,-612.876398
943.826591,-10658.965565,-2516.700203,-612.876398
943.826912,-10436.903782,-3330.926739,0.000000
943.827233,-10214.842000,-2960.823768,306.438199
943.827554,-9918.759623,-3182.885551,-306.438199
943.827875,-9400.615463,-2516.700203,0.000000
943.828197,-9252.574275,-2294.638420,536.266849
943.828518,-9104.533087,-1554.432478,766.095498
943.828839,-9252.574275,-1184.329507,1302.362347
943.829160,-9252.574275,-740.205942,1225.752797
943.829481,-9104.533087,-814.226536,689.485948
943.829802,-9252.574275,-666.185348,229.828649
943.830123,-9178.553681,-740.205942,-306.438199
943.830444,-8586.388927,-1406.391290,-2145.067394
943.830765,-8438.347739,-2072.576638,-3294.210641
943.831086,-9178.553681,-1776.494261,-3294.210641
943.831407,-9548.656652,-2220.617826,-3294.210641
943.831728,-10066.800811,-2590.720797,-3524.039291
943.832049,-10214.842000,-1850.514855,-4136.915689
943.832370,-10807.006753,-1702.473667,-3677.258390
943.832691,-10510.924376,-1036.288319,-2757.943793
943.833012,-10510.924376,-1184.329507,-1532.190996
943.833333,-10288.862594,-1258.350101,-1072.533697
943.833654,-9548.656652,-1110.308913,-612.876398
943.833975,-10214.842000,-1850.514855,0.000000
943.834296,-8882.471304,-1628.453072,-1762.019645
943.834617,-9178.553681,-814.226536,-2374.896044
943.834938,-8068.244768,-148.041188,-2528.115143
943.835259,-7920.203579,-222.061783,-2757.943793
943.835580,-9030.512492,-1258.350101,-2681.334243
943.835901,-9326.594869,-2294.638420,-3140.991542
943.836222,-9770.718434,-3034.844362,-3677.258390
943.836543,-11029.068536,-1480.411884,-689.485948
943.836864,-11843.295072,-2442.679609,612.876398
943.837185,-11103.089130,-1184.329507,1991.848295
943.837506,-12731.542202,-3404.947333,1915.238745
943.837827,-10140.821405,-3182.885551,919.314598
943.838148,-9400.615463,-3849.070898,-766.095498
943.838469,-9178.553681,-2664.741391,-459.657299
943.838790,-7179.997637,-2738.761985,-995.924147
943.839111,-7179.997637,-3404.947333,-2298.286494
943.839432,-6809.894666,-3701.029710,-3140.991542
943.839753,-6291.750507,-3849.070898,-4366.744339
943.840074,-8956.491898,-3108.864956,-1685.410096
943.840396,-9474.636058,-2738.761985,76.609550
943.840717,-10436.903782,-3108.864956,383.047749
943.841038,-11399.171507,-3775.050304,766.095498
943.841359,-10955.047942,-4367.215058,995.924147
943.841680,-10436.903782,-3923.091493,1378.971896
943.842001,-11399.171507,-4885.359217,0.000000
943.842322,-9622.677246,-4219.173869,-919.314598
943.842643,-8512.368333,-3182.885551,-2221.676944
943.842964,-8364.327145,-1036.288319,-1608.800546
943.843285,-9474.636058,-370.102971,306.438199
943.843606,-9548.656652,-2072.576638,76.609550
943.843927,-9474.636058,-3627.009116,-1302.362347
943.844248,-8142.265362,-3404.947333,-2604.724693
943.844569,-9178.553681,-3552.988522,-1532.190996
943.844890,-10140.821405,-2664.741391,0.000000
943.845211,-10881.027347,-2886.803174,-995.924147
943.845532,-9326.594869,-2886.803174,-3447.429741
943.845853,-10214.842000,-1850.514855,-3217.601092
943.846174,-9918.759623,-2220.617826,-2604.724693
943.846495,-11325.150913,-2886.803174,-1685.410096
943.846816,-10214.842000,-2368.659014,-2604.724693
943.847137,-9252.574275,-2664.741391,-3600.648841
943.847458,-9104.533087,-2590.720797,-3370.820191
943.847779,-9622.677246,-2368.659014,-1838.629195
943.848100,-9844.739029,-1332.370696,0.000000
943.848421,-9844.739029,-666.185348,229.828649
943.848742,-9918.759623,-814.226536,766.095498
943.849063,-10066.800811,-1924.535449,229.828649
943.849384,-9918.759623,-1554.432478,0.000000
943.849705,-9400.615463,-1850.514855,-229.828649
943.850026,-8364.327145,-2368.659014,-1532.190996
943.850347,-8216.285956,-2516.700203,-2451.505594
943.850668,-7254.018232,-1110.308913,-1838.629195
943.850989,-11547.212695,-4145.153275,-1072.533697
943.851310,-7994.224174,-444.123565,-1915.238745
943.851631,-11251.130318,-2072.576638,-1608.800546
943.851952,-9844.739029,296.082377,-1225.752797
943.852273,-9770.718434,74.020594,459.657299
943.852594,-11547.212695,-1184.329507,2681.334243
943.852916,-10288.862594,-1850.514855,3983.696590
943.853237,-9696.697840,-3034.844362,2068.457845
943.853558,-11251.130318,-1480.411884,3830.477490
943.853879,-8734.430116,-1998.556043,1915.238745
943.854200,-9030.512492,962.267725,919.314598
943.854521,-8734.430116,1184.329507,919.314598
943.854842,-6217.729913,148.041188,-1838.629195
943.855163,-7920.203579,-1406.391290,-1149.143247
943.855484,-9474.636058,-2590.720797,-995.924147
943.855805,-8808.450710,-3108.864956,-1915.238745
943.856126,-11029.068536,-1332.370696,0.000000
943.856446,-11473.192101,222.061783,612.876398
943.856767,-10362.883188,1554.432478,306.438199
943.857088,-11177.109724,1480.411884,1378.971896
943.857408,-11029.068536,592.164754,2528.115143
943.857729,-10214.842000,-1184.329507,1149.143247
943.858050,-9474.636058,-3330.926739,76.609550
943.858370,-8364.327145,-1850.514855,0.000000
943.858691,-9992.780217,-296.082377,-459.657299
943.859012,-8068.244768,1036.288319,1378.971896
943.859332,-8364.327145,1480.411884,842.705048
943.859653,-8512.368333,1258.350101,383.047749
943.859974,-10140.821405,74.020594,919.314598
943.860294,-9696.697840,-518.144159,842.705048
943.860615,-11251.130318,-1258.350101,766.095498
943.860936,-10807.006753,148.041188,689.485948
943.861256,-9474.636058,888.247130,766.095498
943.861577,-10066.800811,1036.288319,995.924147
943.861898,-10955.047942,-222.061783,1762.019645
943.862218,-9548.656652,-1332.370696,76.609550
943.862539,-9400.615463,-1628.453072,-383.047749
943.862860,-9548.656652,-370.102971,383.047749
943.863180,-8956.491898,-666.185348,1608.800546
943.863501,-8660.409521,-1702.473667,1378.971896
943.863822,-8512.368333,-1184.329507,689.485948
943.864142,-8660.409521,-1184.329507,-459.657299
943.864463,-8586.388927,-222.061783,-306.438199
943.864784,-9474.636058,74.020594,383.047749
943.865104,-9992.780217,-74.020594,459.657299
943.865425,-9548.656652,-518.144159,536.266849
943.865746,-9844.739029,-222.061783,1149.143247
943.866066,-10807.006753,-1628.453072,1455.581446
943.866387,-10807.006753,-3330.926739,1225.752797
943.866708,-10955.047942,-2220.617826,1532.190996
943.867028,-10436.903782,-1850.514855,842.705048
943.867349,-10436.903782,-444.123565,1762.019645
943.867670,-9474.636058,444.123565,1532.190996
943.867990,-8586.388927,74.020594,1991.848295
943.868311,-8586.388927,-1702.473667,-766.095498
943.868632,-7328.038826,0.000000,-1225.752797
943.868953,-9104.533087,148.041188,-689.485948
943.869273,-9178.553681,814.226536,1149.143247
943.869594,-10362.883188,370.102971,1991.848295
943.869915,-9622.677246,-148.041188,3907.087040
943.870235,-10362.883188,74.020594,2757.943793
943.870556,-11547.212695,-740.205942,2681.334243
943.870877,-10362.883188,0.000000,2911.162892
943.871197,-10140.821405,-962.267725,1072.533697
943.871518,-8586.388927,-1110.308913,76.609550
943.871839,-7994.224174,-1184.329507,-229.828649
943.872159,-7328.038826,-592.164754,306.438199
943.872480,-9474.636058,-1406.391290,76.609550
943.872801,-9030.512492,-370.102971,1378.971896
943.873121,-9992.780217,-814.226536,1915.238745
943.873442,-9992.780217,-518.144159,1991.848295
943.873763,-10732.986159,-518.144159,3524.039291
943.874083,-9030.512492,-370.102971,4519.963438
943.874404,-9622.677246,-666.185348,3064.381992
943.874725,-9104.533087,-740.205942,1302.362347
943.875045,-8364.327145,518.144159,229.828649
943.875366,-8734.430116,740.205942,1915.238745
943.875687,-8882.471304,1406.391290,229.828649
943.876007,-8956.491898,1702.473667,766.095498
943.876328,-9770.718434,1406.391290,1762.019645
943.876649,-10066.800811,-296.082377,1149.143247
943.876969,-10140.821405,-962.267725,612.876398
943.877290,-10140.821405,74.020594,1532.190996
943.877611,-9992.780217,592.164754,919.314598
943.877931,-9992.780217,2146.597232,1991.848295
943.878252,-9252.574275,1480.411884,3370.820191
943.878573,-9770.718434,74.020594,1685.410096
943.878893,-9474.636058,-1924.535449,306.438199
943.879214,-9696.697840,-2294.638420,76.609550
943.879535,-9326.594869,148.041188,-383.047749
943.879855,-10436.903782,740.205942,1072.533697
943.880176,-9548.656652,1702.473667,1608.800546
943.880497,-10066.800811,1110.308913,1302.362347
943.880817,-10362.883188,-814.226536,76.609550
943.881138,-9696.697840,-1184.329507,-153.219100
943.881459,-9992.780217,-1036.288319,-536.266849
943.881779,-9622.677246,-444.123565,0.000000
943.882100,-9178.553681,0.000000,306.438199
943.882421,-9696.697840,148.041188,1532.190996
943.882741,-9622.677246,-1332.370696,1225.752797
943.883062,-9104.533087,-1850.514855,0.000000
943.883383,-9474.636058,-1850.514855,-536.266849
943.883703,-9178.553681,666.185348,153.219100
943.884024,-9474.636058,518.144159,995.924147
943.884345,-8734.430116,666.185348,1532.190996
943.884665,-9252.574275,-1184.329507,1302.362347
943.884986,-9252.574275,-2146.597232,766.095498
943.885307,-9326.594869,-2738.761985,612.876398
943.885627,-9918.759623,-1628.453072,1149.143247
943.885948,-9918.759623,0.000000,1838.629195
943.886269,-9326.594869,444.123565,2911.162892
943.886589,-10066.800811,222.061783,4366.744339
943.886910,-10510.924376,-962.267725,3217.601092
943.887231,-10066.800811,-2368.659014,1838.629195
943.887551,-9178.553681,-1924.535449,1072.533697
943.887872,-8808.450710,-2294.638420,-383.047749
943.888193,-8586.388927,-1110.308913,-306.438199
943.888513,-8438.347739,-370.102971,-536.266849
943.888834,-8734.430116,-148.041188,76.609550
943.889155,-9326.594869,-1406.391290,0.000000
943.889475,-10066.800811,-1850.514855,0.000000
943.889796,-11473.192101,-1036.288319,1378.971896
943.890117,-11399.171507,-296.082377,1915.238745
943.890437,-11325.150913,74.020594,2221.676944
943.890758,-10436.903782,222.061783,3294.210641
943.891079,-10510.924376,-2072.576638,1685.410096
943.891399,-9548.656652,-2146.597232,0.000000
943.891720,-9400.615463,-1924.535449,-536.266849
943.892041,-8956.491898,-1258.350101,-536.266849
943.892361,-8956.491898,444.123565,-612.876398
943.892682,-9178.553681,1406.391290,306.438199
943.893003,-9400.615463,592.164754,1149.143247
943.893323,-9474.636058,-444.123565,612.876398
943.893644,-9992.780217,-666.185348,1302.362347
943.893965,-10362.883188,-666.185348,1378.971896
943.894285,-10955.047942,0.000000,1455.581446
943.894606,-9548.656652,814.226536,1378.971896
943.894927,-8586.388927,592.164754,1838.629195
943.895247,-8142.265362,-222.061783,-153.219100
943.895568,-7846.182985,-592.164754,-995.924147
943.895889,-8364.327145,-592.164754,-536.266849
943.896209,-8808.450710,-370.102971,229.828649
943.896530,-10066.800811,74.020594,2068.457845
943.896851,-9474.636058,444.123565,3677.258390
943.897171,-11251.130318,-1036.288319,4213.525239
943.897492,-10881.027347,-1184.329507,3830.477490
943.897813,-9844.739029,-888.247130,2451.505594
943.898133,-9696.697840,-222.061783,1762.019645
943.898454,-8956.491898,222.061783,766.095498
943.898775,-7846.182985,1406.391290,689.485948
943.899095,-8734.430116,1554.432478,1225.752797
943.899416,-9178.553681,74.020594,612.876398
943.899737,-9326.594869,0.000000,995.924147
943.900057,-10807.006753,-1036.288319,919.314598
943.900378,-9918.759623,1406.391290,1455.581446
943.900699,-10955.047942,1110.308913,1915.238745
943.901019,-9474.636058,74.020594,2451.505594
943.901340,-9548.656652,222.061783,2604.724693
943.901661,-9548.656652,0.000000,3064.381992
943.901981,-11399.171507,-2886.803174,-995.924147
943.902302,-6217.729913,1850.514855,766.095498
943.902623,-11325.150913,-370.102971,-306.438199
943.902943,-8734.430116,2812.782580,2834.553343
943.903264,-8734.430116,148.041188,1608.800546
943.903585,-11325.150913,-740.205942,3447.429741
943.903905,-8734.430116,-1480.411884,-1149.143247
943.904226,-10436.903782,-1702.473667,-383.047749
943.904547,-10732.986159,666.185348,1762.019645
943.904867,-8586.388927,518.144159,0.000000
943.905188,-9548.656652,1036.288319,995.924147
943.905509,-8808.450710,0.000000,1225.752797
943.905829,-8586.388927,-2072.576638,-1532.190996
943.906150,-11177.109724,-2072.576638,1532.190996
943.906471,-9252.574275,-1480.411884,2145.067394
943.906791,-8512.368333,-1480.411884,-153.219100
943.907112,-9474.636058,222.061783,919.314598
943.907433,-8290.306550,370.102971,1532.190996
943.907753,-8808.450710,-962.267725,919.314598
943.908074,-10362.883188,-2294.638420,612.876398
943.908395,-8290.306550,-1184.329507,-1225.752797
943.908715,-9474.636058,-888.247130,-1072.533697
943.909036,-9770.718434,666.185348,766.095498
943.909357,-10436.903782,2294.638420,2145.067394
943.909677,-10658.965565,592.164754,1762.019645
943.909998,-11695.253884,-1332.370696,1762.019645
943.910319,-9178.553681,-2516.700203,229.828649
943.910639,-11399.171507,-3108.864956,-459.657299
943.910960,-10066.800811,-1110.308913,229.828649
943.911281,-8068.244768,1554.432478,-229.828649
943.911601,-9030.512492,1406.391290,536.266849
943.911922,-8734.430116,962.267725,536.266849
943.912243,-9178.553681,-1258.350101,-153.219100
943.912563,-10214.842000,-2590.720797,1149.143247
943.912884,-9548.656652,-2294.638420,995.924147
943.913205,-9918.759623,-814.226536,1838.629195
943.913525,-9474.636058,0.000000,2911.162892
943.913846,-9474.636058,740.205942,2451.505594
943.914167,-9622.677246,0.000000,1302.362347
943.914487,-9548.656652,-888.247130,919.314598
943.914808,-9252.574275,-2146.597232,2145.067394
943.915129,-9104.533087,-1406.391290,229.828649
943.915449,-10066.800811,0.000000,1225.752797
943.915770,-8364.327145,2812.782580,3600.648841
943.916091,-10510.924376,592.164754,2451.505594
943.916411,-8586.388927,814.226536,2451.505594
943.916732,-8808.450710,-666.185348,1685.410096
943.917053,-9400.615463,-1406.391290,919.314598
943.917373,-9474.636058,-148.041188,2298.286494
943.917694,-9326.594869,962.267725,2911.162892
943.918015,-9178.553681,962.267725,2068.457845
943.918335,-9326.594869,0.000000,1608.800546
943.918656,-8882.471304,-592.164754,1149.143247
943.918977,-9548.656652,-148.041188,2068.457845
943.919297,-10436.903782,0.000000,1608.800546
943.919618,-9474.636058,1110.308913,2987.772442
943.919939,-10436.903782,888.247130,3294.210641
943.920259,-10066.800811,0.000000,2681.334243
943.920580,-10066.800811,-1998.556043,842.705048
943.920901,-8734.430116,-1480.411884,0.000000
943.921221,-9252.574275,-962.267725,-612.876398
943.921542,-8882.471304,222.061783,383.047749
943.921863,-8142.265362,444.123565,1225.752797
943.922183,-9844.739029,740.205942,1608.800546
943.922504,-9696.697840,-888.247130,766.095498
943.922825,-9770.718434,-2220.617826,383.047749
943.923145,-11177.109724,-2072.576638,1378.971896
943.923466,-10362.883188,-888.247130,459.657299
943.923787,-9992.780217,888.247130,1225.752797
943.924107,-9474.636058,1776.494261,1838.629195
943.924428,-9474.636058,0.000000,-306.438199
943.924749,-9178.553681,-370.102971,-1302.362347
943.925069,-9252.574275,0.000000,-919.314598
943.925390,-9252.574275,-148.041188,-919.314598
943.925711,-9770.718434,-148.041188,76.609550
943.926031,-9252.574275,370.102971,919.314598
943.926352,-9844.739029,148.041188,919.314598
943.926673,-10140.821405,-518.144159,1762.019645
943.926993,-10362.883188,-1924.535449,1225.752797
943.927314,-10140.821405,-1998.556043,1149.143247
943.927635,-9400.615463,-1110.308913,-536.266849
943.927955,-9178.553681,1184.329507,1608.800546
943.928276,-9548.656652,1184.329507,2834.553343
943.928597,-9474.636058,-592.164754,1762.019645
943.928917,-8808.450710,-1702.473667,459.657299
943.929238,-8586.388927,-2738.761985,-766.095498
943.929559,-9104.533087,-1924.535449,536.266849
943.929879,-9104.533087,-296.082377,1685.410096
943.930200,-9844.739029,888.247130,2298.286494
943.930521,-9622.677246,1036.288319,2451.505594
943.930841,-9622.677246,-666.185348,1225.752797
943.931162,-9474.636058,-1332.370696,1225.752797
943.931483,-10955.047942,-1258.350101,1302.362347
943.931803,-9918.759623,-888.247130,1838.629195
943.932124,-9622.677246,0.000000,2221.676944
943.932445,-9548.656652,1184.329507,2681.334243
943.932765,-9400.615463,518.144159,1838.629195
943.933086,-10288.862594,0.000000,1455.581446
943.933407,-9474.636058,518.144159,612.876398
943.933727,-9178.553681,296.082377,76.609550
943.934048,-9696.697840,74.020594,1455.581446
943.934369,-8586.388927,-592.164754,1149.143247
943.934689,-9474.636058,-962.267725,1225.752797
943.935010,-9770.718434,-2294.638420,689.485948
943.935331,-9104.533087,-1776.494261,612.876398
943.935651,-9696.697840,-962.267725,766.095498
943.935972,-10288.862594,74.020594,1149.143247
943.936293,-9992.780217,1776.494261,1991.848295
943.936613,-10436.903782,2220.617826,3064.381992
943.936934,-9770.718434,-148.041188,1762.019645
943.937255,-9178.553681,-1110.308913,-306.438199
943.937575,-9104.533087,-1184.329507,0.000000
943.937896,-9030.512492,-814.226536,229.828649
943.938217,-8660.409521,-370.102971,536.266849
943.938537,-9104.533087,222.061783,842.705048
943.938858,-9104.533087,74.020594,689.485948
943.939179,-9326.594869,-148.041188,306.438199
943.939499,-10214.842000,-1184.329507,1072.533697
943.939820,-9326.594869,-1406.391290,2374.896044
943.940141,-9474.636058,-222.061783,842.705048
943.940461,-9918.759623,0.000000,2221.676944
943.940782,-9474.636058,-148.041188,2834.553343
943.941103,-9770.718434,-1258.350101,2221.676944
943.941423,-8438.347739,-1258.350101,-1072.533697
943.941744,-8216.285956,0.000000,-2451.505594
943.942065,-8808.450710,888.247130,-1608.800546
943.942385,-8808.450710,1702.473667,153.219100
943.942706,-8586.388927,1776.494261,1455.581446
943.943027,-10732.986159,-444.123565,1838.629195
943.943347,-10214.842000,-962.267725,2068.457845
943.943668,-12287.418637,-1924.535449,2528.115143
943.943989,-11695.253884,-518.144159,1762.019645
943.944309,-10955.047942,0.000000,2451.505594
943.944630,-10510.924376,666.185348,2681.334243
943.944951,-9918.759623,888.247130,1991.848295
943.945271,-9622.677246,-888.247130,1302.362347
943.945592,-9844.739029,-1184.329507,536.266849
943.945913,-9844.739029,-814.226536,229.828649
943.946233,-9474.636058,-1258.350101,-612.876398
943.946554,-7994.224174,-370.102971,-612.876398
943.946875,-8290.306550,1258.350101,459.657299
943.947195,-9622.677246,-888.247130,919.314598
943.947516,-8956.491898,-1258.350101,689.485948
943.947837,-9918.759623,-1850.514855,1302.362347
943.948157,-9548.656652,-2516.700203,2451.505594
943.948478,-10658.965565,-1036.288319,1685.410096
943.948799,-10658.965565,666.185348,3983.696590
943.949119,-10436.903782,518.144159,3600.648841
943.949440,-9992.780217,-740.205942,3524.039291
943.949761,-8364.327145,-1998.556043,766.095498
943.950081,-7994.224174,-2738.761985,-1225.752797
943.950402,-8142.265362,-1554.432478,-459.657299
943.950723,-8142.265362,0.000000,919.314598
943.951044,-8438.347739,962.267725,919.314598
943.951364,-9548.656652,444.123565,919.314598
943.951685,-9696.697840,-74.020594,766.095498
943.952006,-10362.883188,-1110.308913,995.924147
943.952326,-9992.780217,-444.123565,1072.533697
943.952647,-9918.759623,1110.308913,1072.533697
943.952968,-10066.800811,2516.700203,1991.848295
943.953288,-10288.862594,2146.597232,2451.505594
943.953609,-9474.636058,1480.411884,-383.047749
943.953930,-9474.636058,-740.205942,-689.485948
943.954250,-7476.080014,-518.144159,-1532.190996
943.954571,-9252.574275,-1184.329507,-766.095498
943.954892,-9104.533087,592.164754,842.705048
943.955212,-9844.739029,444.123565,1991.848295
943.955533,-10214.842000,0.000000,2681.334243
943.955854,-10732.986159,-1554.432478,1762.019645
943.956174,-11029.068536,-2368.659014,2145.067394
943.956495,-10881.027347,-1554.432478,2757.943793
943.956816,-10510.924376,-592.164754,612.876398
943.957137,-8216.285956,2368.659014,1225.752797
943.957457,-9770.718434,888.247130,919.314598
943.957778,-8290.306550,518.144159,0.000000
943.958099,-8364.327145,0.000000,-306.438199
943.958420,-8808.450710,-1332.370696,0.000000
943.958740,-8956.491898,-222.061783,689.485948
943.959061,-10362.883188,-1036.288319,1915.238745
943.959382,-9030.512492,518.144159,3370.820191
943.959703,-9992.780217,518.144159,2451.505594
943.960023,-9104.533087,-518.144159,2451.505594
943.960344,-9622.677246,-592.164754,2145.067394
943.960665,-9770.718434,-222.061783,1072.533697
943.960985,-9770.718434,-370.102971,1532.190996
943.961306,-9178.553681,444.123565,2145.067394
943.961627,-9400.615463,444.123565,2757.943793
943.961948,-10140.821405,-1184.329507,1302.362347
943.962268,-8586.388927,-962.267725,612.876398
943.962589,-8882.471304,-1036.288319,76.609550
943.962910,-9178.553681,-296.082377,919.314598
943.963231,-9696.697840,666.185348,1762.019645
943.963551,-9252.574275,370.102971,1149.143247
943.963872,-9992.780217,-814.226536,1762.019645
943.964193,-8956.491898,-1850.514855,919.314598
943.964514,-9474.636058,-2664.741391,306.438199
943.964834,-10584.944971,-1110.308913,1149.143247
943.965155,-9844.739029,296.082377,1072.533697
943.965476,-10436.903782,666.185348,2757.943793
943.965797,-10362.883188,222.061783,3370.820191
943.966117,-10362.883188,-1480.411884,1378.971896
943.966438,-10288.862594,-1480.411884,-229.828649
943.966759,-8956.491898,-1554.432478,-689.485948
943.967080,-8438.347739,-74.020594,-1991.848295
943.967400,-8734.430116,740.205942,-1072.533697
943.967721,-7698.141797,666.185348,459.657299
943.968042,-9474.636058,-444.123565,-76.609550
943.968363,-9622.677246,-1776.494261,229.828649
943.968683,-9992.780217,-2960.823768,0.000000
943.969004,-10362.883188,-2294.638420,153.219100
943.969325,-10881.027347,-1110.308913,689.485948
943.969646,-10066.800811,740.205942,2374.896044
943.969966,-9918.759623,296.082377,2528.115143
943.970287,-8808.450710,-1110.308913,459.657299
943.970608,-8882.471304,-1258.350101,-612.876398
943.970929,-8808.450710,-1110.308913,-1072.533697
943.971249,-8808.450710,0.000000,-306.438199
943.971570,-9622.677246,1110.308913,1685.410096
943.971891,-10510.924376,1480.411884,919.314598
943.972211,-9844.739029,148.041188,1762.019645
943.972532,-9622.677246,-740.205942,1072.533697
943.972853,-9918.759623,-888.247130,1378.971896
943.973174,-10436.903782,-74.020594,1072.533697
943.973494,-9474.636058,222.061783,842.705048
943.973815,-8808.450710,888.247130,1685.410096
943.974136,-9252.574275,666.185348,1915.238745
943.974457,-9474.636058,222.061783,1608.800546
943.974777,-10214.842000,518.144159,1149.143247
943.975098,-9992.780217,74.020594,1149.143247
943.975419,-9400.615463,0.000000,1532.190996
943.975740,-9030.512492,-518.144159,1991.848295
943.976060,-10140.821405,-592.164754,3294.210641
943.976381,-10362.883188,-1184.329507,2068.457845
943.976702,-8956.491898,-962.267725,1838.629195
943.977023,-9918.759623,-444.123565,1225.752797
943.977343,-10436.903782,444.123565,1685.410096
943.977664,-9326.594869,962.267725,1455.581446
943.977985,-9474.636058,1924.535449,2374.896044
943.978306,-9622.677246,518.144159,2068.457845
943.978626,-9770.718434,-592.164754,1608.800546
943.978947,-9474.636058,-1110.308913,1302.362347
943.979268,-9696.697840,-962.267725,995.924147
943.979589,-9252.574275,0.000000,1225.752797
943.979909,-9474.636058,148.041188,1915.238745
943.980230,-8438.347739,518.144159,1455.581446
943.980551,-9992.780217,0.000000,1838.629195
943.980872,-9696.697840,-814.226536,1532.190996
943.981192,-9030.512492,-2072.576638,689.485948
943.981513,-9474.636058,-1110.308913,536.266849
943.981834,-9474.636058,0.000000,842.705048
943.982155,-9474.636058,1184.329507,2451.505594
943.982475,-10732.986159,222.061783,2451.505594
943.982796,-9696.697840,-222.061783,995.924147
943.983117,-9918.759623,-1258.350101,-1149.143247
943.983438,-9474.636058,-370.102971,-612.876398
943.983758,-9770.718434,0.000000,536.266849
943.984079,-8956.491898,222.061783,919.314598
943.984400,-8882.471304,296.082377,1532.190996
943.984720,-9770.718434,-1332.370696,-76.609550
943.985041,-9548.656652,-1110.308913,0.000000
943.985362,-10214.842000,-296.082377,536.266849
943.985683,-10658.965565,0.000000,1608.800546
943.986003,-9770.718434,518.144159,1225.752797
943.986324,-10214.842000,444.123565,1762.019645
943.986645,-9622.677246,-592.164754,842.705048
943.986966,-9252.574275,-1998.556043,-842.705048
943.987286,-8808.450710,-2146.597232,-2068.457845
943.987607,-7402.059420,-1628.453072,-2757.943793
943.987928,-8216.285956,74.020594,-2374.896044
943.988249,-9030.512492,1554.432478,153.219100
943.988569,-9622.677246,1258.350101,3064.381992
943.988890,-11251.130318,-444.123565,2757.943793
943.989211,-11251.130318,-1998.556043,3600.648841
943.989532,-11177.109724,-3034.844362,2987.772442
943.989852,-10955.047942,-2738.761985,1532.190996
943.990173,-9844.739029,-1480.411884,1302.362347
943.990494,-8882.471304,296.082377,2145.067394
943.990815,-9770.718434,0.000000,2145.067394
943.991135,-9178.553681,-888.247130,1378.971896
943.991456,-9474.636058,-2664.741391,306.438199
943.991777,-8808.450710,-1924.535449,-383.047749
943.992098,-10584.944971,-444.123565,1685.410096
943.992418,-9992.780217,0.000000,1915.238745
943.992739,-7179.997637,-592.164754,3677.258390
943.993060,-8586.388927,444.123565,1532.190996
943.993381,-9474.636058,-1110.308913,995.924147
943.993701,-9770.718434,-740.205942,919.314598
943.994022,-11399.171507,1406.391290,1072.533697
943.994343,-10288.862594,2220.617826,2451.505594
943.994664,-9770.718434,1998.556043,3983.696590
943.994984,-10288.862594,222.061783,3294.210641
943.995305,-9844.739029,-1036.288319,1225.752797
943.995626,-9400.615463,-2220.617826,536.266849
943.995946,-9178.553681,-666.185348,536.266849
943.996267,-9252.574275,74.020594,612.876398
943.996588,-9252.574275,370.102971,1302.362347
943.996909,-8586.388927,1480.411884,1532.190996
943.997229,-10140.821405,-296.082377,1455.581446
943.997550,-9400.615463,-1702.473667,459.657299
943.997871,-9548.656652,-1776.494261,612.876398
943.998192,-10214.842000,-962.267725,-383.047749
943.998512,-9178.553681,1480.411884,612.876398
943.998833,-9696.697840,1850.514855,1532.190996
943.999154,-8068.244768,1776.494261,1685.410096
943.999475,-9030.512492,-814.226536,0.000000
943.999795,-8068.244768,-666.185348,-1455.581446
944.000116,-8956.491898,-592.164754,-1225.752797
944.000437,-9178.553681,222.061783,-689.485948
944.000758,-8512.368333,1332.370696,1378.971896
944.001078,-9030.512492,888.247130,842.705048
944.001399,-9770.718434,-740.205942,1378.971896
944.001720,-10584.944971,-1332.370696,919.314598
944.002041,-10510.924376,-592.164754,2451.505594
944.002361,-10807.006753,0.000000,1072.533697
944.002682,-10584.944971,740.205942,1915.238745
944.003003,-10066.800811,1924.535449,2068.457845
944.003324,-9770.718434,740.205942,919.314598
944.003644,-9104.533087,-370.102971,-306.438199
944.003965,-8364.327145,-740.205942,-1915.238745
944.004286,-8586.388927,0.000000,-1149.143247
944.004607,-9326.594869,-74.020594,-689.485948
944.004927,-9104.533087,666.185348,1149.143247
944.005248,-9622.677246,-962.267725,1608.800546
944.005569,-10214.842000,-962.267725,2374.896044
944.005890,-11029.068536,-1850.514855,2221.676944
944.006210,-10510.924376,-2220.617826,1838.629195
944.006531,-9770.718434,-148.041188,1149.143247
944.006852,-9844.739029,296.082377,1149.143247
944.007172,-8956.491898,888.247130,1838.629195
944.007493,-9474.636058,0.000000,1455.581446
944.007814,-9326.594869,-1184.329507,1149.143247
944.008135,-9474.636058,-2146.597232,-842.705048
944.008455,-9178.553681,-1332.370696,459.657299
944.008776,-10066.800811,-1184.329507,1225.752797
944.009097,-8882.471304,222.061783,1685.410096
944.009418,-9992.780217,0.000000,2068.457845
944.009738,-9474.636058,-1258.350101,2221.676944
944.010059,-9696.697840,-2220.617826,1149.143247
944.010380,-9474.636058,-1850.514855,1302.362347
944.010701,-9992.780217,-1258.350101,1685.410096
944.011021,-9474.636058,296.082377,2068.457845
944.011342,-9844.739029,444.123565,3217.601092
944.011663,-9696.697840,-518.144159,3370.820191
944.011984,-9696.697840,-1480.411884,1838.629195
944.012304,-9548.656652,-1702.473667,919.314598
944.012625,-8956.491898,-1628.453072,-383.047749
944.012946,-8142.265362,0.000000,-1149.143247
944.013267,-8734.430116,740.205942,-229.828649
944.013587,-8586.388927,444.123565,229.828649
944.013908,-7920.203579,-370.102971,-612.876398
944.014229,-9548.656652,-1332.370696,0.000000
944.014550,-9918.759623,-1480.411884,612.876398
944.014870,-11029.068536,-962.267725,1378.971896
944.015191,-10214.842000,74.020594,1762.019645
944.015512,-10140.821405,0.000000,2834.553343
944.015833,-10436.903782,-296.082377,2145.067394
944.016153,-9474.636058,-370.102971,536.266849
944.016474,-8956.491898,148.041188,-1072.533697
944.016795,-9252.574275,592.164754,-919.314598
944.017116,-8808.450710,888.247130,0.000000
944.017436,-9030.512492,-222.061783,0.000000
944.017757,-9178.553681,-666.185348,0.000000
944.018078,-10066.800811,-1628.453072,766.095498
944.018398,-10140.821405,-1406.391290,1532.190996
944.018719,-10881.027347,0.000000,2145.067394
944.019040,-11029.068536,888.247130,2068.457845
944.019361,-9474.636058,2220.617826,1991.848295
944.019681,-10066.800811,2516.700203,2681.334243
944.020002,-10066.800811,814.226536,2451.505594
944.020323,-9474.636058,-962.267725,919.314598
944.020644,-8808.450710,-814.226536,0.000000
944.020964,-8438.347739,0.000000,76.609550
944.021285,-9030.512492,0.000000,689.485948
944.021606,-9326.594869,592.164754,2145.067394
944.021927,-9696.697840,0.000000,2145.067394
944.022247,-9844.739029,0.000000,919.314598
944.022568,-9770.718434,-1332.370696,1991.848295
944.022889,-10436.903782,-1110.308913,2451.505594
944.023210,-10140.821405,-740.205942,2221.676944
944.023530,-9030.512492,-444.123565,3294.210641
944.023851,-9104.533087,148.041188,3447.429741
944.024172,-9918.759623,-1554.432478,2221.676944
944.024493,-9844.739029,-1554.432478,1455.581446
944.024813,-9178.553681,-1998.556043,-229.828649
944.025134,-8808.450710,-740.205942,-153.219100
944.025455,-8882.471304,296.082377,536.266849
944.025776,-8808.450710,666.185348,1532.190996
944.026096,-10066.800811,0.000000,1915.238745
944.026417,-10140.821405,-1406.391290,1915.238745
944.026738,-9548.656652,-1554.432478,995.924147
944.027059,-10510.924376,-1924.535449,536.266849
944.027379,-10436.903782,-148.041188,766.095498
944.027700,-9918.759623,1554.432478,1225.752797
944.028021,-9400.615463,1332.370696,1991.848295
944.028342,-10066.800811,-296.082377,1302.362347
944.028662,-9770.718434,-1406.391290,-76.609550
944.028983,-9474.636058,-888.247130,-1225.752797
944.029304,-8808.450710,0.000000,-536.266849
944.029625,-9104.533087,592.164754,0.000000
944.029945,-9178.553681,74.020594,153.219100
944.030266,-9326.594869,148.041188,-153.219100
944.030587,-10362.883188,-1332.370696,0.000000
944.030907,-9548.656652,-1480.411884,383.047749
944.031228,-10510.924376,-1480.411884,995.924147
944.031549,-10214.842000,0.000000,1072.533697
944.031870,-10066.800811,370.102971,1608.800546
944.032190,-9474.636058,666.185348,2528.115143
944.032511,-10288.862594,-1406.391290,1455.581446
944.032832,-9474.636058,-2886.803174,153.219100
944.033153,-9030.512492,-2664.741391,-536.266849
944.033473,-8586.388927,-1628.453072,-1149.143247
944.033794,-8586.388927,-740.205942,0.000000
944.034115,-8068.244768,740.205942,306.438199
944.034436,-9104.533087,444.123565,-459.657299
944.034756,-8808.450710,0.000000,-306.438199
944.035077,-9992.780217,222.061783,459.657299
944.035398,-10510.924376,666.185348,1838.629195
944.035719,-11843.295072,0.000000,2911.162892
944.036039,-11177.109724,1184.329507,3907.087040
944.036360,-11547.212695,370.102971,4903.011187
944.036681,-10955.047942,518.144159,3753.867940
944.037002,-10732.986159,0.000000,2911.162892
944.037322,-9770.718434,-592.164754,1838.629195
944.037643,-9104.533087,296.082377,1072.533697
944.037964,-8142.265362,-444.123565,153.219100
944.038285,-6365.771101,1702.473667,-153.219100
944.038605,-8808.450710,1184.329507,-306.438199
944.038926,-7846.182985,1480.411884,1302.362347
944.039247,-8956.491898,-814.226536,1455.581446
944.039568,-9548.656652,-1776.494261,1225.752797
944.039888,-10140.821405,-1776.494261,2145.067394
944.040209,-10658.965565,-1184.329507,3294.210641
944.040530,-11399.171507,296.082377,5286.058936
944.040851,-10288.862594,-148.041188,3907.087040
944.041171,-9918.759623,0.000000,2145.067394
944.041492,-9104.533087,-1036.288319,1915.238745
944.041813,-8734.430116,-2146.597232,-1532.190996
944.042133,-5329.482782,1406.391290,0.000000
944.042454,-10214.842000,518.144159,-536.266849
944.042775,-7328.038826,1776.494261,1302.362347
944.043096,-9104.533087,-1924.535449,383.047749
944.043416,-11473.192101,-1184.329507,2374.896044
944.043737,-8808.450710,-1480.411884,0.000000
944.044058,-12509.480420,0.000000,2681.334243
944.044379,-9104.533087,1184.329507,2604.724693
944.044699,-10732.986159,1406.391290,2145.067394
944.045020,-10214.842000,592.164754,2374.896044
944.045341,-8586.388927,-1184.329507,-1149.143247
944.045662,-7994.224174,-740.205942,-2145.067394
944.045982,-10732.986159,0.000000,-153.219100
944.046303,-7994.224174,-296.082377,-536.266849
944.046624,-9474.636058,296.082377,0.000000
944.046945,-10214.842000,370.102971,-153.219100
944.047265,-8956.491898,-666.185348,-1378.971896
944.047586,-10362.883188,-2146.597232,0.000000
944.047907,-10732.986159,-1702.473667,0.000000
944.048228,-10288.862594,-1480.411884,153.219100
944.048548,-9474.636058,-814.226536,1149.143247
944.048869,-10214.842000,-148.041188,2757.943793
944.049190,-11473.192101,0.000000,2757.943793
944.049511,-10510.924376,-1258.350101,1149.143247
944.049831,-10510.924376,0.000000,1378.971896
944.050152,-9770.718434,0.000000,-229.828649
944.050473,-9918.759623,-814.226536,-919.314598
944.050794,-8660.409521,962.267725,459.657299
944.051114,-8142.265362,-222.061783,-383.047749
944.051435,-7920.203579,-1480.411884,153.219100
944.051756,-9178.553681,-1998.556043,612.876398
944.052077,-9992.780217,-1998.556043,306.438199
944.052397,-10955.047942,-1332.370696,1455.581446
944.052718,-9844.739029,592.164754,2987.772442
944.053039,-10362.883188,666.185348,4060.306139
944.053359,-10362.883188,-740.205942,2911.162892
944.053680,-8956.491898,-1924.535449,1608.800546
944.054001,-8512.368333,-2738.761985,-306.438199
944.054322,-7846.182985,-2886.803174,229.828649
944.054642,-8438.347739,-1628.453072,306.438199
944.054963,-7994.224174,370.102971,1302.362347
944.055284,-9326.594869,-1332.370696,1455.581446
944.055605,-8216.285956,-666.185348,2834.553343
944.055925,-9844.739029,-1184.329507,2145.067394
944.056246,-10584.944971,-1480.411884,2451.505594
944.056567,-10881.027347,296.082377,2298.286494
944.056887,-10658.965565,0.000000,3217.601092
944.057208,-9400.615463,1110.308913,3677.258390
944.057529,-10288.862594,0.000000,2604.724693
944.057849,-9622.677246,-222.061783,1149.143247
944.058170,-9104.533087,1036.288319,1302.362347
944.058491,-9474.636058,1628.453072,1225.752797
944.058811,-9474.636058,1480.411884,919.314598
944.059132,-8882.471304,1702.473667,76.609550
944.059453,-9400.615463,2220.617826,459.657299
944.059773,-9696.697840,1184.329507,919.314598
944.060094,-10066.800811,296.082377,1608.800546
944.060415,-9992.780217,-1036.288319,995.924147
944.060736,-10658.965565,-444.123565,1072.533697
944.061056,-11029.068536,-740.205942,2221.676944
944.061377,-10436.903782,148.041188,3753.867940
944.061698,-11399.171507,-74.020594,2451.505594
944.062018,-10140.821405,444.123565,1608.800546
944.062339,-9622.677246,-148.041188,76.609550
944.062660,-9104.533087,-222.061783,1762.019645
944.062980,-8586.388927,-666.185348,-1149.143247
944.063301,-8808.450710,-518.144159,-459.657299
944.063622,-8660.409521,-666.185348,0.000000
944.063942,-9252.574275,-888.247130,459.657299
944.064263,-10362.883188,-1480.411884,536.266849
944.064584,-9474.636058,-888.247130,153.219100
944.064904,-10140.821405,-296.082377,995.924147
944.065225,-9622.677246,592.164754,2451.505594
944.065546,-10140.821405,-370.102971,2987.772442
944.065866,-9770.718434,-2220.617826,1608.800546
944.066187,-8808.450710,-1924.535449,0.000000
944.066508,-8808.450710,-1184.329507,-383.047749
944.066828,-9030.512492,-370.102971,76.609550
944.067149,-8956.491898,296.082377,459.657299
944.067470,-8586.388927,1332.370696,459.657299
944.067791,-8734.430116,1036.288319,612.876398
944.068111,-10066.800811,-962.267725,995.924147
944.068432,-10362.883188,-1258.350101,1149.143247
944.068753,-9844.739029,-1110.308913,229.828649
944.069073,-9918.759623,-740.205942,536.266849
944.069394,-9326.594869,666.185348,1532.190996
944.069715,-10140.821405,666.185348,2451.505594
944.070035,-10658.965565,-888.247130,1149.143247
944.070356,-9474.636058,0.000000,153.219100
944.070677,-10436.903782,-592.164754,766.095498
944.070997,-9400.615463,-1406.391290,76.609550
944.071318,-9326.594869,-444.123565,1608.800546
944.071639,-9474.636058,-740.205942,1685.410096
944.071959,-8882.471304,-592.164754,1149.143247
944.072280,-10288.862594,-1702.473667,76.609550
944.072601,-9696.697840,-1628.453072,1378.971896
944.072921,-10140.821405,-1332.370696,459.657299
944.073242,-10732.986159,0.000000,1378.971896
944.073563,-9474.636058,444.123565,2145.067394
944.073884,-9844.739029,444.123565,1915.238745
944.074204,-10214.842000,-1628.453072,2145.067394
944.074525,-9696.697840,-2590.720797,0.000000
944.074846,-9030.512492,-1480.411884,229.828649
944.075166,-9252.574275,-592.164754,0.000000
944.075487,-8956.491898,1110.308913,1378.971896
944.075808,-9474.636058,814.226536,1915.238745
944.076128,-9696.697840,-148.041188,1608.800546
944.076449,-9030.512492,-962.267725,459.657299
944.076770,-9622.677246,-2368.659014,-459.657299
944.077090,-9474.636058,-1702.473667,459.657299
944.077411,-9474.636058,-518.144159,383.047749
944.077732,-9474.636058,1036.288319,1608.800546
944.078052,-9918.759623,888.247130,2374.896044
944.078373,-9548.656652,370.102971,612.876398
944.078694,-10066.800811,74.020594,76.609550
944.079014,-9918.759623,1110.308913,229.828649
944.079335,-9844.739029,2072.576638,1532.190996
944.079656,-9696.697840,1628.453072,1302.362347
944.079977,-9178.553681,666.185348,1072.533697
944.080297,-8586.388927,-1554.432478,0.000000
944.080618,-8290.306550,-2294.638420,-1762.019645
944.080939,-8956.491898,-888.247130,-1149.143247
944.081259,-8956.491898,296.082377,-842.705048
944.081580,-9030.512492,1332.370696,0.000000
944.081901,-9178.553681,1924.535449,2221.676944
944.082221,-10436.903782,370.102971,4366.744339
944.082542,-11917.315666,-1998.556043,3677.258390
944.082863,-10510.924376,-2368.659014,2987.772442
944.083183,-10214.842000,-2294.638420,1991.848295
944.083504,-9400.615463,-592.164754,2757.943793
944.083825,-8956.491898,740.205942,2451.505594
944.084145,-8660.409521,1036.288319,2298.286494
944.084466,-8734.430116,518.144159,689.485948
944.084787,-8364.327145,-962.267725,689.485948
944.085107,-9252.574275,-1554.432478,306.438199
944.085428,-10362.883188,-1036.288319,1302.362347
944.085749,-10288.862594,222.061783,2451.505594
944.086069,-10436.903782,888.247130,3907.087040
944.086390,-10807.006753,444.123565,4826.401637
944.086711,-11695.253884,-814.226536,3677.258390
944.087032,-9622.677246,-1036.288319,1762.019645
944.087352,-9326.594869,0.000000,-153.219100
944.087673,-8142.265362,888.247130,-1915.238745
944.087994,-7698.141797,888.247130,-919.314598
944.088314,-8142.265362,1036.288319,0.000000
944.088635,-9178.553681,148.041188,76.609550
944.088956,-9992.780217,-1184.329507,689.485948
944.089276,-10436.903782,-1702.473667,1455.581446
944.089597,-11251.130318,-1776.494261,1608.800546
944.089918,-10807.006753,-148.041188,1838.629195
944.090238,-10510.924376,740.205942,2451.505594
944.090559,-9104.533087,592.164754,2834.553343
944.090880,-9474.636058,-962.267725,229.828649
944.091200,-8882.471304,-2072.576638,-1378.971896
944.091521,-8142.265362,-1702.473667,-1915.238745
944.091842,-8290.306550,-814.226536,-2757.943793
944.092162,-9178.553681,592.164754,76.609550
944.092483,-9548.656652,518.144159,842.705048
944.092804,-9770.718434,-296.082377,1532.190996
944.093125,-10140.821405,-2886.803174,995.924147
944.093445,-9474.636058,-2368.659014,919.314598
944.093766,-10436.903782,-2220.617826,306.438199
944.094087,-8734.430116,-370.102971,229.828649
944.094407,-8512.368333,740.205942,842.705048
944.094728,-9178.553681,370.102971,995.924147
944.095049,-8808.450710,-666.185348,-153.219100
944.095369,-9474.636058,-1036.288319,0.000000
944.095690,-10510.924376,-1332.370696,766.095498
944.096011,-8734.430116,-1924.535449,2834.553343
944.096331,-10436.903782,-2146.597232,2528.115143
944.096652,-9178.553681,0.000000,2068.457845
944.096973,-11251.130318,-592.164754,1532.190996
944.097293,-8068.244768,0.000000,-76.609550
944.097614,-9474.636058,148.041188,459.657299
944.097935,-10362.883188,1036.288319,766.095498
944.098255,-7698.141797,1184.329507,-383.047749
944.098576,-11621.233289,962.267725,2528.115143
944.098897,-8808.450710,-370.102971,2757.943793
944.099218,-11251.130318,-1998.556043,1302.362347
944.099538,-10658.965565,-2220.617826,1991.848295
944.099859,-9252.574275,-1110.308913,306.438199
944.100180,-10066.800811,1332.370696,-306.438199
944.100500,-10066.800811,2072.576638,2068.457845
944.100821,-9030.512492,2072.576638,2145.067394
944.101142,-10362.883188,-444.123565,1838.629195
944.101462,-9474.636058,-2664.741391,612.876398
944.101783,-8956.491898,-2220.617826,536.266849
944.102104,-10288.862594,-1998.556043,1608.800546
944.102424,-9918.759623,296.082377,2451.505594
944.102745,-9622.677246,2590.720797,3983.696590
944.103066,-10732.986159,1554.432478,4060.306139
944.103386,-10066.800811,-666.185348,2145.067394
944.103707,-9622.677246,-1554.432478,1149.143247
944.104028,-8956.491898,-1036.288319,459.657299
944.104348,-9178.553681,370.102971,229.828649
944.104669,-8512.368333,1628.453072,1378.971896
944.104990,-8142.265362,888.247130,689.485948
944.105311,-8956.491898,148.041188,306.438199
944.105631,-8956.491898,-740.205942,-612.876398
944.105952,-9252.574275,-962.267725,842.705048
944.106273,-9844.739029,518.144159,1149.143247
944.106593,-9770.718434,592.164754,1685.410096
944.106914,-9696.697840,148.041188,2451.505594
944.107235,-9474.636058,-962.267725,2221.676944
944.107555,-9918.759623,-2516.700203,383.047749
944.107876,-9992.780217,-1776.494261,76.609550
944.108197,-9178.553681,-814.226536,76.609550
944.108517,-9548.656652,-222.061783,229.828649
944.108838,-9252.574275,518.144159,383.047749
944.109159,-9104.533087,148.041188,536.266849
944.109479,-9474.636058,-222.061783,306.438199
944.109800,-10214.842000,-1184.329507,306.438199
944.110121,-10436.903782,-1184.329507,229.828649
944.110441,-9992.780217,-296.082377,766.095498
944.110762,-10066.800811,-666.185348,459.657299
944.111083,-9474.636058,1258.350101,1225.752797
944.111403,-10214.842000,370.102971,1991.848295
944.111724,-9696.697840,-1480.411884,919.314598
944.112045,-9918.759623,-1406.391290,306.438199
944.112366,-10214.842000,-518.144159,0.000000
944.112686,-9400.615463,0.000000,76.609550
944.113007,-9252.574275,148.041188,153.219100
944.113328,-9326.594869,518.144159,1225.752797
944.113648,-9252.574275,0.000000,383.047749
944.113969,-9622.677246,-888.247130,689.485948
944.114290,-10658.965565,-1924.535449,766.095498
944.114610,-10362.883188,-1998.556043,1072.533697
944.114931,-9622.677246,-444.123565,1532.190996
944.115252,-9622.677246,1480.411884,3217.601092
944.115572,-9326.594869,1110.308913,3064.381992
944.115893,-9252.574275,-962.267725,1762.019645
944.116214,-8956.491898,-1628.453072,0.000000
944.116534,-8438.347739,-1036.288319,-229.828649
944.116855,-9622.677246,-740.205942,459.657299
944.117176,-9400.615463,518.144159,1762.019645
944.117496,-9252.574275,-296.082377,1838.629195
944.117817,-9622.677246,-1258.350101,1685.410096
944.118138,-9252.574275,-2368.659014,1072.533697
944.118459,-10214.842000,-2294.638420,612.876398
944.118779,-10510.924376,-1332.370696,1915.238745
944.119100,-9696.697840,296.082377,2145.067394
944.119421,-9474.636058,1184.329507,3370.820191
944.119741,-9770.718434,666.185348,2987.772442
944.120062,-9104.533087,-370.102971,1302.362347
944.120383,-9326.594869,222.061783,383.047749
944.120703,-9474.636058,888.247130,1149.143247
944.121024,-9622.677246,-666.185348,612.876398
944.121345,-9326.594869,0.000000,459.657299
944.121665,-9030.512492,-370.102971,536.266849
944.121986,-9178.553681,-148.041188,306.438199
944.122307,-10140.821405,74.020594,1302.362347
944.122627,-11103.089130,1184.329507,1072.533697
944.122948,-10658.965565,666.185348,766.095498
944.123269,-10584.944971,962.267725,1302.362347
944.123589,-9770.718434,1332.370696,2451.505594
944.123910,-10436.903782,0.000000,2068.457845
944.124231,-10288.862594,-1036.288319,1302.362347
944.124552,-8586.388927,-962.267725,-612.876398
944.124872,-8882.471304,0.000000,-689.485948
944.125193,-9548.656652,148.041188,153.219100
944.125514,-9696.697840,1258.350101,2145.067394
944.125834,-9992.780217,0.000000,1455.581446
944.126155,-9030.512492,-592.164754,536.266849
944.126476,-9696.697840,-1480.411884,76.609550
944.126796,-8956.491898,-2072.576638,766.095498
944.127117,-9844.739029,-1258.350101,0.000000
944.127438,-9030.512492,296.082377,459.657299
944.127758,-8364.327145,814.226536,-153.219100
944.128079,-9030.512492,740.205942,612.876398
944.128400,-10362.883188,0.000000,1455.581446
944.128720,-9844.739029,-666.185348,1455.581446
944.129041,-10732.986159,-2294.638420,1685.410096
944.129362,-8660.409521,-2516.700203,1378.971896
944.129682,-9918.759623,-2812.782580,1608.800546
944.130003,-10214.842000,-740.205942,2757.943793
944.130324,-9400.615463,0.000000,1991.848295
944.130644,-9844.739029,-74.020594,1685.410096
944.130965,-9030.512492,370.102971,0.000000
944.131286,-9252.574275,370.102971,-612.876398
944.131607,-9844.739029,666.185348,1149.143247
944.131927,-8882.471304,1628.453072,2221.676944
944.132248,-10732.986159,666.185348,2987.772442
944.132569,-10288.862594,-592.164754,1685.410096
944.132889,-10362.883188,-1406.391290,459.657299
944.133210,-9474.636058,-518.144159,995.924147
944.133531,-9696.697840,-740.205942,919.314598
944.133851,-9030.512492,666.185348,1072.533697
944.134172,-9696.697840,962.267725,1915.238745
944.134493,-9770.718434,-1036.288319,689.485948
944.134813,-9178.553681,-1554.432478,842.705048
944.135134,-10362.883188,-2294.638420,612.876398
944.135455,-10436.903782,-1036.288319,1532.190996
944.135775,-9178.553681,444.123565,2068.457845
944.136096,-10510.924376,370.102971,2681.334243
944.136417,-9918.759623,222.061783,3907.087040
944.136737,-9992.780217,-1406.391290,842.705048
944.137058,-9030.512492,-1628.453072,0.000000
944.137379,-8956.491898,0.000000,229.828649
944.137700,-9548.656652,-148.041188,689.485948
944.138020,-8512.368333,-518.144159,0.000000
944.138341,-8956.491898,-1480.411884,0.000000
944.138662,-8660.409521,-2220.617826,-1532.190996
944.138982,-9252.574275,-148.041188,-383.047749
944.139303,-11399.171507,0.000000,1302.362347
944.139624,-10658.965565,444.123565,1838.629195
944.139944,-10658.965565,1036.288319,2374.896044
944.140265,-9400.615463,814.226536,2221.676944
944.140586,-9918.759623,-962.267725,1149.143247
944.140906,-8438.347739,-1850.514855,0.000000
944.141227,-7105.977043,-1776.494261,-1991.848295
944.141548,-7920.203579,-370.102971,-2298.286494
944.141868,-7698.141797,1184.329507,-766.095498
944.142189,-9474.636058,1554.432478,1532.190996
944.142510,-11103.089130,2220.617826,3370.820191
944.142830,-12213.398043,-74.020594,3370.820191
944.143151,-11769.274478,-814.226536,3677.258390
944.143472,-11769.274478,-1184.329507,2911.162892
944.143793,-10436.903782,-666.185348,612.876398
944.144113,-8734.430116,888.247130,536.266849
944.144434,-7994.224174,1554.432478,1149.143247
944.144755,-8660.409521,740.205942,1838.629195
944.145075,-9252.574275,-888.247130,536.266849
944.145396,-9474.636058,-1480.411884,306.438199
944.145717,-10140.821405,-740.205942,1455.581446
944.146037,-10732.986159,-222.061783,2911.162892
944.146358,-10436.903782,1110.308913,3677.258390
944.146679,-10066.800811,-148.041188,3524.039291
944.146999,-9844.739029,-1776.494261,1838.629195
944.147320,-9104.533087,-2886.803174,766.095498
944.147641,-9252.574275,-3182.885551,-383.047749
944.147961,-9548.656652,-1110.308913,76.609550
944.148282,-9178.553681,1036.288319,919.314598
944.148603,-9252.574275,1110.308913,2911.162892
944.148923,-9844.739029,-444.123565,2681.334243
944.149244,-10436.903782,-3108.864956,1302.362347
944.149565,-9548.656652,-2886.803174,919.314598
944.149885,-9548.656652,-2368.659014,1072.533697
944.150206,-9104.533087,-814.226536,612.876398
944.150527,-9326.594869,1184.329507,1685.410096
944.150848,-8660.409521,444.123565,842.705048
944.151168,-8586.388927,-518.144159,-306.438199
944.151489,-8734.430116,-370.102971,-306.438199
944.151810,-10732.986159,-1110.308913,459.657299
944.152130,-10140.821405,-592.164754,842.705048
944.152451,-9992.780217,74.020594,1608.800546
944.152772,-9474.636058,740.205942,1915.238745
944.153092,-10288.862594,518.144159,1685.410096
944.153413,-9252.574275,-74.020594,2145.067394
944.153734,-9474.636058,-296.082377,-995.924147
944.154054,-9030.512492,74.020594,-1072.533697
944.154375,-9252.574275,-370.102971,-612.876398
944.154696,-8586.388927,370.102971,0.000000
944.155016,-9474.636058,0.000000,229.828649
944.155337,-9400.615463,-2072.576638,76.609550
944.155658,-9104.533087,-2072.576638,-306.438199
944.155978,-10436.903782,-1406.391290,536.266849
944.156299,-10807.006753,-592.164754,76.609550
944.156620,-10510.924376,1480.411884,1685.410096
944.156941,-9548.656652,1776.494261,2145.067394
944.157261,-9622.677246,370.102971,995.924147
944.157582,-9252.574275,-1702.473667,76.609550
944.157903,-9252.574275,-1332.370696,536.266849
944.158223,-9474.636058,-1702.473667,1149.143247
944.158544,-9918.759623,-1332.370696,1915.238745
944.158865,-9474.636058,296.082377,2451.505594
944.159186,-8882.471304,518.144159,1915.238745
944.159506,-9770.718434,148.041188,1149.143247
944.159827,-8438.347739,-444.123565,153.219100
944.160148,-8216.285956,-1036.288319,-689.485948
944.160469,-8808.450710,-148.041188,-229.828649
944.160789,-9622.677246,592.164754,1302.362347
944.161110,-9030.512492,1702.473667,3064.381992
944.161431,-10140.821405,0.000000,3370.820191
944.161752,-11029.068536,-1036.288319,2681.334243
944.162072,-9844.739029,-444.123565,2451.505594
944.162393,-10510.924376,-296.082377,2221.676944
944.162714,-9252.574275,1036.288319,1991.848295
944.163035,-9178.553681,1702.473667,2221.676944
944.163356,-9178.553681,444.123565,2145.067394
944.163676,-8364.327145,-962.267725,0.000000
944.163997,-8882.471304,-1406.391290,229.828649
944.164318,-9844.739029,-1406.391290,459.657299
944.164639,-10066.800811,-444.123565,1302.362347
944.164959,-10214.842000,814.226536,2068.457845
944.165280,-10362.883188,2072.576638,3677.258390
944.165601,-9918.759623,222.061783,2834.553343
944.165922,-10362.883188,-1110.308913,1608.800546
944.166242,-9548.656652,-1628.453072,995.924147
944.166563,-9548.656652,-1184.329507,306.438199
944.166884,-8956.491898,0.000000,612.876398
944.167205,-9326.594869,666.185348,1149.143247
944.167525,-8438.347739,1332.370696,1762.019645
944.167846,-9548.656652,-518.144159,689.485948
944.168167,-9770.718434,-666.185348,1072.533697
944.168488,-10288.862594,-1110.308913,1455.581446
944.168808,-10436.903782,-1184.329507,1149.143247
944.169129,-9992.780217,518.144159,1225.752797
944.169450,-9844.739029,296.082377,2451.505594
944.169771,-10584.944971,-1110.308913,1915.238745
944.170091,-9474.636058,-2516.700203,0.000000
944.170412,-8290.306550,-1998.556043,0.000000
944.170733,-9474.636058,-962.267725,-766.095498
944.171054,-9326.594869,222.061783,153.219100
944.171374,-9178.553681,666.185348,1225.752797
944.171695,-9992.780217,0.000000,1378.971896
944.172016,-9622.677246,-666.185348,995.924147
944.172337,-9992.780217,-1628.453072,1149.143247
944.172657,-10807.006753,-962.267725,1455.581446
944.172978,-10066.800811,74.020594,229.828649
944.173299,-9992.780217,1850.514855,536.266849
944.173620,-8808.450710,370.102971,383.047749
944.173940,-8364.327145,-962.267725,-919.314598
944.174261,-8734.430116,-1850.514855,-2068.457845
944.174582,-8734.430116,-740.205942,-1838.629195
944.174903,-9622.677246,888.247130,-153.219100
944.175224,-10807.006753,1036.288319,2068.457845
944.175544,-10436.903782,888.247130,3217.601092
944.175865,-10807.006753,-1184.329507,2987.772442
944.176186,-9844.739029,-2516.700203,2451.505594
944.176507,-10066.800811,-2886.803174,1072.533697
944.176827,-9474.636058,-1776.494261,459.657299
944.177148,-8882.471304,0.000000,612.876398
944.177469,-7772.162391,148.041188,2374.896044
944.177790,-8438.347739,1332.370696,995.924147
944.178110,-9252.574275,0.000000,1149.143247
944.178431,-9992.780217,-1554.432478,842.705048
944.178752,-8290.306550,-592.164754,1072.533697
944.179073,-10214.842000,-814.226536,2221.676944
944.179393,-9474.636058,518.144159,2298.286494
944.179714,-9770.718434,666.185348,3600.648841
944.180035,-9474.636058,-370.102971,2681.334243
944.180356,-8364.327145,-148.041188,1378.971896
944.180676,-9992.780217,-1480.411884,306.438199
944.180997,-9030.512492,666.185348,536.266849
944.181318,-9622.677246,666.185348,1149.143247
944.181639,-9696.697840,1850.514855,2451.505594
944.181959,-9474.636058,1332.370696,3217.601092
944.182280,-10436.903782,-1554.432478,2145.067394
944.182601,-9696.697840,-1998.556043,1532.190996
944.182922,-9474.636058,0.000000,1608.800546
944.183242,-10436.903782,1332.370696,2604.724693
944.183563,-9770.718434,2368.659014,2068.457845
944.183884,-9696.697840,3256.906145,2451.505594
944.184205,-9030.512492,74.020594,1149.143247
944.184525,-8808.450710,-1184.329507,0.000000
944.184846,-9770.718434,-2368.659014,76.609550
944.185167,-9548.656652,-1258.350101,-766.095498
944.185488,-10732.986159,740.205942,689.485948
944.185808,-9992.780217,2294.638420,2528.115143
944.186129,-11029.068536,2146.597232,3524.039291
944.186450,-11843.295072,-222.061783,2681.334243
944.186771,-9770.718434,-1110.308913,766.095498
944.187092,-9918.759623,-2146.597232,-536.266849
944.187412,-8660.409521,-444.123565,-1225.752797
944.187733,-8142.265362,-444.123565,-1072.533697
944.188054,-8290.306550,518.144159,-153.219100
944.188375,-7846.182985,296.082377,76.609550
944.188695,-10288.862594,-1406.391290,1149.143247
944.189016,-10881.027347,-1332.370696,2604.724693
944.189337,-11621.233289,-1702.473667,2145.067394
944.189658,-11843.295072,-296.082377,3140.991542
944.189978,-9622.677246,-740.205942,2451.505594
944.190299,-8512.368333,1036.288319,1915.238745
944.190620,-8956.491898,-1480.411884,766.095498
944.190941,-7476.080014,-2590.720797,-1532.190996
944.191261,-8364.327145,-2146.597232,-995.924147
944.191582,-8808.450710,-1850.514855,-689.485948
944.191903,-8956.491898,370.102971,689.485948
944.192224,-9844.739029,814.226536,2757.943793
944.192544,-10436.903782,74.020594,3140.991542
944.192865,-10140.821405,0.000000,1762.019645
944.193186,-9474.636058,-1110.308913,1762.019645
944.193507,-9992.780217,-2294.638420,1072.533697
944.193827,-9030.512492,-1258.350101,306.438199
944.194148,-8142.265362,-962.267725,-153.219100
944.194469,-8586.388927,1036.288319,1225.752797
944.194790,-9474.636058,-148.041188,1532.190996
944.195110,-9844.739029,-1628.453072,0.000000
944.195431,-9844.739029,-148.041188,766.095498
944.195752,-10732.986159,-814.226536,459.657299
944.196073,-10658.965565,0.000000,2298.286494
944.196393,-10288.862594,0.000000,2451.505594
944.196714,-9918.759623,-1628.453072,995.924147
944.197035,-9326.594869,-2072.576638,76.609550
944.197356,-9474.636058,-2072.576638,612.876398
944.197676,-9474.636058,-740.205942,306.438199
944.197997,-9696.697840,518.144159,1072.533697
944.198318,-9548.656652,1332.370696,2604.724693
944.198639,-9992.780217,814.226536,2528.115143
944.198960,-10732.986159,-888.247130,1685.410096
944.199280,-10066.800811,-1480.411884,842.705048
944.199601,-9696.697840,-740.205942,153.219100
944.199922,-9622.677246,370.102971,919.314598
944.200243,-9770.718434,740.205942,766.095498
944.200563,-8734.430116,1036.288319,1225.752797
944.200884,-9252.574275,-370.102971,689.485948
944.201205,-9252.574275,-1110.308913,0.000000
944.201526,-9696.697840,-1924.535449,612.876398
944.201846,-9474.636058,-1406.391290,459.657299
944.202167,-9326.594869,0.000000,536.266849
944.202488,-8882.471304,1406.391290,1378.971896
944.202809,-9326.594869,888.247130,2145.067394
944.203129,-9622.677246,0.000000,1915.238745
944.203450,-9770.718434,-1110.308913,0.000000
944.203771,-8438.347739,-370.102971,-306.438199
944.204092,-9474.636058,-444.123565,229.828649
944.204412,-9252.574275,222.061783,1762.019645
944.204733,-9992.780217,444.123565,3447.429741
944.205054,-9918.759623,-1406.391290,2528.115143
944.205375,-9400.615463,-1850.514855,1762.019645
944.205695,-9844.739029,-962.267725,1149.143247
944.206016,-10066.800811,0.000000,842.705048
944.206337,-9030.512492,1998.556043,612.876398
944.206658,-9326.594869,2294.638420,995.924147
944.206978,-8290.306550,1628.453072,1072.533697
944.207299,-9992.780217,-814.226536,536.266849
944.207620,-9548.656652,-1776.494261,1225.752797
944.207941,-9844.739029,-666.185348,1608.800546
944.208261,-11251.130318,-666.185348,2451.505594
944.208582,-9474.636058,1036.288319,2451.505594
944.208903,-10214.842000,1628.453072,3140.991542
944.209224,-10807.006753,518.144159,2604.724693
944.209544,-9474.636058,0.000000,459.657299
944.209865,-9770.718434,-370.102971,919.314598
944.210186,-9252.574275,-740.205942,229.828649
944.210507,-9474.636058,0.000000,229.828649
944.210828,-8956.491898,592.164754,1378.971896
944.211148,-9622.677246,-148.041188,1991.848295
944.211469,-10214.842000,-1480.411884,1455.581446
944.211790,-10288.862594,-1776.494261,153.219100
944.212111,-9622.677246,-370.102971,766.095498
944.212431,-11103.089130,-592.164754,1685.410096
944.212752,-9548.656652,-148.041188,2068.457845
944.213073,-9030.512492,-1110.308913,1302.362347
944.213394,-8586.388927,-2294.638420,0.000000
944.213714,-8660.409521,-2442.679609,-612.876398
944.214035,-9104.533087,-1480.411884,536.266849
944.214356,-10140.821405,-888.247130,536.266849
944.214677,-9548.656652,814.226536,689.485948
944.214997,-9548.656652,1776.494261,153.219100
944.215318,-9992.780217,1332.370696,1838.629195
944.215639,-10658.965565,-370.102971,1149.143247
944.215960,-9844.739029,-1036.288319,0.000000
944.216280,-9178.553681,-888.247130,-1072.533697
944.216601,-9326.594869,-1036.288319,-459.657299
944.216922,-8882.471304,-148.041188,76.609550
944.217243,-9474.636058,-148.041188,1072.533697
944.217563,-9178.553681,-296.082377,229.828649
944.217884,-9252.574275,-1332.370696,0.000000
944.218205,-9326.594869,-1036.288319,612.876398
944.218526,-10584.944971,-444.123565,1762.019645
944.218846,-10732.986159,-666.185348,2221.676944
944.219167,-8956.491898,0.000000,2145.067394
944.219488,-8882.471304,-444.123565,1991.848295
944.219809,-9326.594869,-2146.597232,0.000000
944.220129,-7328.038826,-1258.350101,-1149.143247
944.220450,-8882.471304,-1184.329507,-1685.410096
944.220771,-7624.121203,1628.453072,-1225.752797
944.221092,-9474.636058,1184.329507,153.219100
944.221412,-10140.821405,0.000000,2528.115143
944.221733,-10510.924376,-888.247130,2757.943793
944.222054,-12657.521608,-2294.638420,2451.505594
944.222375,-10362.883188,-1998.556043,2145.067394
944.222696,-10955.047942,-1998.556043,1455.581446
944.223016,-9992.780217,-222.061783,2068.457845
944.223337,-9474.636058,1406.391290,2528.115143
944.223658,-9326.594869,1998.556043,2451.505594
944.223979,-9104.533087,296.082377,1378.971896
944.224299,-9030.512492,-1332.370696,-306.438199
944.224620,-9326.594869,-888.247130,229.828649
944.224941,-9622.677246,-444.123565,1149.143247
944.225262,-9474.636058,666.185348,1991.848295
944.225582,-9400.615463,1628.453072,2298.286494
944.225903,-10658.965565,296.082377,2298.286494
944.226224,-9992.780217,-518.144159,1762.019645
944.226545,-10955.047942,-1258.350101,1915.238745
944.226865,-9992.780217,-222.061783,1378.971896
944.227186,-10214.842000,0.000000,612.876398
944.227507,-7920.203579,2664.741391,2221.676944
944.227828,-10658.965565,1332.370696,3294.210641
944.228148,-8438.347739,0.000000,1072.533697
944.228469,-9992.780217,-2294.638420,689.485948
944.228790,-8438.347739,-1702.473667,-306.438199
944.229111,-9696.697840,-370.102971,766.095498
944.229431,-10436.903782,1184.329507,2528.115143
944.229752,-9326.594869,1924.535449,2834.553343
944.230073,-9474.636058,814.226536,1532.190996
944.230394,-9400.615463,-740.205942,153.219100
944.230714,-9252.574275,-1406.391290,383.047749
944.231035,-10732.986159,-1628.453072,1378.971896
944.231356,-9400.615463,-962.267725,536.266849
944.231677,-9474.636058,1036.288319,1378.971896
944.231997,-9770.718434,740.205942,1455.581446
944.232318,-10140.821405,-370.102971,1149.143247
944.232639,-10214.842000,-888.247130,995.924147
944.232960,-9844.739029,-1110.308913,153.219100
944.233280,-8660.409521,-1554.432478,-306.438199
944.233601,-9178.553681,-1110.308913,229.828649
944.233922,-7476.080014,-1184.329507,0.000000
944.234243,-8586.388927,-1184.329507,0.000000
944.234564,-8808.450710,-1554.432478,-842.705048
944.234884,-9326.594869,-444.123565,229.828649
944.235205,-10732.986159,962.267725,2221.676944
944.235526,-11843.295072,518.144159,2681.334243
944.235847,-11547.212695,1998.556043,4903.011187
944.236167,-11843.295072,74.020594,3830.477490
944.236488,-10140.821405,-2294.638420,689.485948
944.236809,-9030.512492,-2072.576638,-842.705048
944.237130,-8142.265362,-1702.473667,-2068.457845
944.237450,-7550.100608,296.082377,-2451.505594
944.237771,-8734.430116,1628.453072,-995.924147
944.238092,-8586.388927,1480.411884,0.000000
944.238413,-10584.944971,-370.102971,919.314598
944.238733,-11177.109724,-2664.741391,1991.848295
944.239054,-10658.965565,-2368.659014,2451.505594
944.239375,-11473.192101,-2664.741391,2068.457845
944.239696,-9548.656652,-740.205942,1685.410096
944.240016,-9400.615463,518.144159,2145.067394
944.240337,-8956.491898,592.164754,1838.629195
944.240658,-9030.512492,-370.102971,842.705048
944.240979,-8512.368333,-1628.453072,-1225.752797
944.241299,-8512.368333,-666.185348,-995.924147
944.241620,-9992.780217,296.082377,153.219100
944.241941,-9992.780217,1036.288319,2068.457845
944.242262,-9918.759623,592.164754,2221.676944
944.242582,-9918.759623,-1036.288319,1685.410096
944.242903,-9474.636058,-2664.741391,1149.143247
944.243224,-9992.780217,-2294.638420,995.924147
944.243545,-10214.842000,-1332.370696,689.485948
944.243865,-9252.574275,370.102971,1378.971896
944.244186,-8734.430116,2146.597232,2068.457845
944.244507,-9104.533087,1776.494261,2298.286494
944.244828,-10214.842000,-740.205942,1838.629195
944.245149,-9696.697840,-1480.411884,1378.971896
944.245469,-9696.697840,-1480.411884,919.314598
944.245790,-9770.718434,-888.247130,0.000000
944.246111,-9474.636058,592.164754,1838.629195
944.246432,-9178.553681,1184.329507,2068.457845
944.246752,-8660.409521,296.082377,842.705048
944.247073,-8734.430116,-1406.391290,-229.828649
944.247394,-9400.615463,-888.247130,229.828649
944.247715,-11029.068536,-1776.494261,536.266849
944.248035,-9844.739029,222.061783,919.314598
944.248356,-9474.636058,2072.576638,2298.286494
944.248677,-10288.862594,1628.453072,3140.991542
944.248998,-10584.944971,370.102971,2374.896044
944.249318,-9696.697840,0.000000,1685.410096
944.249639,-9992.780217,-888.247130,1072.533697
944.249960,-9178.553681,0.000000,766.095498
944.250281,-8882.471304,-148.041188,1455.581446
944.250601,-8586.388927,444.123565,842.705048
944.250922,-9474.636058,370.102971,1532.190996
944.251243,-9104.533087,0.000000,1608.800546
944.251564,-10436.903782,-1036.288319,1225.752797
944.251884,-10436.903782,0.000000,1378.971896
944.252205,-10658.965565,0.000000,1149.143247
944.252526,-9622.677246,1258.350101,2451.505594
944.252847,-9696.697840,370.102971,2145.067394
944.253167,-9326.594869,-666.185348,383.047749
944.253488,-9178.553681,-1184.329507,-689.485948
944.253809,-8734.430116,-1184.329507,0.000000
944.254130,-9918.759623,-888.247130,153.219100
944.254450,-9474.636058,-296.082377,1302.362347
944.254771,-8956.491898,-740.205942,1149.143247
944.255092,-9548.656652,-296.082377,1149.143247
944.255413,-10066.800811,-1628.453072,2681.334243
944.255733,-9696.697840,-1184.329507,1302.362347
944.256054,-10214.842000,-740.205942,689.485948
944.256375,-10288.862594,-444.123565,689.485948
944.256696,-9696.697840,1036.288319,2068.457845
944.257017,-9770.718434,-148.041188,2145.067394
944.257337,-9400.615463,-1110.308913,689.485948
944.257658,-9474.636058,-814.226536,-689.485948
944.257978,-9326.594869,74.020594,-229.828649
944.258299,-9326.594869,962.267725,0.000000
944.258620,-9400.615463,888.247130,1149.143247
944.258940,-9030.512492,74.020594,1532.190996
944.259261,-9548.656652,-1406.391290,459.657299
944.259582,-9326.594869,-1850.514855,0.000000
944.259902,-9474.636058,-2368.659014,766.095498
944.260223,-9622.677246,-444.123565,919.314598
944.260544,-10066.800811,296.082377,1685.410096
944.260864,-9400.615463,1184.329507,2451.505594
944.261185,-9844.739029,-148.041188,1838.629195
944.261505,-9844.739029,-1184.329507,1608.800546
944.261826,-10066.800811,-1998.556043,153.219100
944.262147,-8364.327145,-444.123565,459.657299
944.262467,-9474.636058,-1406.391290,612.876398
944.262788,-7994.224174,1036.288319,689.485948
944.263109,-9474.636058,-222.061783,919.314598
944.263429,-9030.512492,-1110.308913,76.609550
944.263750,-8956.491898,-814.226536,-229.828649
944.264071,-10436.903782,-666.185348,536.266849
944.264391,-10584.944971,370.102971,1149.143247
944.264712,-10140.821405,0.000000,2068.457845
944.265033,-9844.739029,-74.020594,2681.334243
944.265353,-10140.821405,-740.205942,2451.505594
944.265674,-10066.800811,-2220.617826,1378.971896
944.265994,-9030.512492,-962.267725,612.876398
944.266315,-8290.306550,-518.144159,-995.924147
944.266636,-7328.038826,-666.185348,76.609550
944.266956,-7846.182985,666.185348,-459.657299
944.267277,-9178.553681,592.164754,459.657299
944.267598,-9770.718434,-740.205942,612.876398
944.267918,-10436.903782,-666.185348,1762.019645
944.268239,-11547.212695,-1184.329507,2374.896044
944.268560,-10955.047942,-444.123565,2145.067394
944.268880,-10658.965565,1776.494261,2911.162892
944.269201,-10732.986159,1776.494261,3524.039291
944.269522,-9474.636058,1924.535449,1991.848295
944.269842,-10066.800811,0.000000,1149.143247
944.270163,-8364.327145,-518.144159,-536.266849
944.270483,-8438.347739,444.123565,-306.438199
944.270804,-10288.862594,1332.370696,919.314598
944.271125,-9030.512492,1258.350101,1762.019645
944.271445,-9548.656652,666.185348,1915.238745
944.271766,-10066.800811,-1332.370696,1991.848295
944.272087,-10214.842000,-1628.453072,1608.800546
944.272407,-10955.047942,-1332.370696,1915.238745
944.272728,-10288.862594,592.164754,2145.067394
944.273049,-9844.739029,1110.308913,1455.581446
944.273369,-9030.512492,2072.576638,2451.505594
944.273690,-9548.656652,-444.123565,1302.362347
944.274011,-9326.594869,-1998.556043,229.828649
944.274331,-9104.533087,-2368.659014,-229.828649
944.274652,-9400.615463,-2368.659014,153.219100
944.274972,-9252.574275,-1406.391290,2221.676944
944.275293,-9474.636058,0.000000,2374.896044
944.275614,-9474.636058,148.041188,2451.505594
944.275934,-9474.636058,-1110.308913,766.095498
944.276255,-9474.636058,-1628.453072,612.876398
944.276576,-9844.739029,-1258.350101,536.266849
944.276896,-9474.636058,-888.247130,0.000000
944.277217,-9548.656652,-592.164754,459.657299
944.277538,-9030.512492,888.247130,1149.143247
944.277858,-10362.883188,-740.205942,919.314598
944.278179,-10658.965565,-1184.329507,766.095498
944.278499,-9770.718434,-1036.288319,612.876398
944.278820,-10807.006753,-1036.288319,612.876398
944.279141,-9548.656652,-222.061783,1149.143247
944.279461,-9474.636058,-296.082377,306.438199
944.279782,-7624.121203,1332.370696,-1225.752797
944.280103,-7994.224174,0.000000,-2451.505594
944.280423,-7105.977043,-296.082377,-1762.019645
944.280744,-8660.409521,-1628.453072,-1149.143247
944.281065,-9474.636058,-2960.823768,-536.266849
944.281385,-8734.430116,-1480.411884,612.876398
944.281706,-11325.150913,296.082377,3677.258390
944.282027,-12953.603985,1258.350101,5822.325785
944.282347,-12139.377449,740.205942,4979.620737
944.282668,-11399.171507,0.000000,3524.039291
944.282988,-8956.491898,-814.226536,306.438199
944.283309,-8216.285956,-1702.473667,-1915.238745
944.283630,-8216.285956,-666.185348,-383.047749
944.283950,-7105.977043,740.205942,-612.876398
944.284271,-7920.203579,-370.102971,-919.314598
944.284592,-9178.553681,-740.205942,-842.705048
944.284912,-10214.842000,518.144159,1072.533697
944.285233,-12287.418637,-444.123565,2681.334243
944.285554,-10807.006753,444.123565,3524.039291
944.285874,-10362.883188,-518.144159,3753.867940
944.286195,-9400.615463,-1628.453072,1991.848295
944.286516,-9474.636058,-518.144159,842.705048
944.286836,-8808.450710,0.000000,459.657299
944.287157,-8142.265362,518.144159,229.828649
944.287477,-7402.059420,0.000000,689.485948
944.287798,-9474.636058,0.000000,995.924147
944.288119,-9400.615463,-74.020594,1838.629195
944.288439,-11251.130318,-1850.514855,2451.505594
944.288760,-9474.636058,-1702.473667,1915.238745
944.289081,-10658.965565,-1702.473667,1455.581446
944.289401,-9844.739029,-666.185348,1302.362347
944.289722,-9252.574275,148.041188,1455.581446
944.290043,-9178.553681,888.247130,2451.505594
944.290363,-9474.636058,444.123565,689.485948
944.290684,-8956.491898,518.144159,459.657299
944.291005,-9548.656652,296.082377,153.219100
944.291325,-9770.718434,1406.391290,1302.362347
944.291646,-10955.047942,148.041188,1072.533697
944.291966,-9030.512492,444.123565,2451.505594
944.292287,-9992.780217,-1406.391290,2221.676944
944.292608,-9474.636058,-2146.597232,1072.533697
944.292928,-9326.594869,-1554.432478,306.438199
944.293249,-9696.697840,-666.185348,459.657299
944.293570,-9474.636058,296.082377,459.657299
944.293890,-9178.553681,1554.432478,1072.533697
944.294211,-9474.636058,740.205942,2298.286494
944.294532,-9474.636058,-444.123565,1072.533697
944.294852,-10362.883188,-1110.308913,1072.533697
944.295173,-10510.924376,-1480.411884,1072.533697
944.295494,-9030.512492,-740.205942,306.438199
944.295814,-10140.821405,-1110.308913,-383.047749
944.296135,-8734.430116,0.000000,919.314598
944.296455,-9178.553681,-296.082377,1378.971896
944.296776,-10066.800811,-2590.720797,842.705048
944.297097,-9104.533087,-1776.494261,612.876398
944.297417,-10214.842000,-888.247130,919.314598
944.297738,-10436.903782,-296.082377,2451.505594
944.298059,-10214.842000,0.000000,2528.115143
944.298379,-9844.739029,666.185348,3140.991542
944.298700,-10436.903782,-666.185348,1608.800546
944.299021,-9844.739029,-1110.308913,0.000000
944.299341,-8438.347739,74.020594,-1302.362347
944.299662,-9178.553681,-666.185348,-1838.629195
944.299982,-7920.203579,888.247130,-1378.971896
944.300303,-8364.327145,0.000000,-383.047749
944.300624,-9252.574275,-1036.288319,536.266849
944.300944,-10140.821405,-1924.535449,459.657299
944.301265,-10807.006753,-1480.411884,2068.457845
944.301586,-10584.944971,-1332.370696,1991.848295
944.301906,-9844.739029,-740.205942,995.924147
944.302227,-9844.739029,740.205942,1685.410096
944.302548,-8956.491898,962.267725,1915.238745
944.302868,-8956.491898,-370.102971,0.000000
944.303189,-9030.512492,-962.267725,-153.219100
944.303510,-8364.327145,-1480.411884,-995.924147
944.303830,-8882.471304,592.164754,-612.876398
944.304151,-11473.192101,-518.144159,1149.143247
944.304471,-9326.594869,444.123565,2068.457845
944.304792,-9918.759623,-296.082377,2068.457845
944.305113,-10510.924376,-3108.864956,612.876398
944.305433,-8882.471304,-592.164754,459.657299
944.305754,-11103.089130,-1258.350101,1915.238745
944.306075,-8290.306550,0.000000,-153.219100
944.306395,-9252.574275,1480.411884,1455.581446
944.306716,-9400.615463,740.205942,2374.896044
944.307037,-8882.471304,222.061783,1378.971896
944.307357,-10436.903782,-1554.432478,1762.019645
944.307678,-9104.533087,-1258.350101,1915.238745
944.307999,-9992.780217,-740.205942,1762.019645
944.308319,-10362.883188,-74.020594,2374.896044
944.308640,-9252.574275,444.123565,2451.505594
944.308960,-9178.553681,888.247130,2451.505594
944.309281,-9326.594869,-666.185348,1532.190996
944.309602,-9474.636058,-666.185348,689.485948
944.309922,-10140.821405,222.061783,0.000000
944.310243,-9844.739029,296.082377,536.266849
944.310564,-9770.718434,2516.700203,2145.067394
944.310884,-10658.965565,1036.288319,3524.039291
944.311205,-9992.780217,-962.267725,2068.457845
944.311526,-9918.759623,-814.226536,995.924147
944.311846,-10066.800811,-222.061783,1149.143247
944.312167,-9696.697840,1110.308913,1455.581446
944.312488,-10436.903782,1628.453072,2374.896044
944.312808,-9104.533087,1406.391290,1991.848295
944.313129,-8956.491898,0.000000,306.438199
944.313449,-9474.636058,-1184.329507,-306.438199
944.313770,-8882.471304,-1924.535449,-766.095498
944.314091,-10362.883188,-666.185348,-842.705048
944.314411,-9252.574275,666.185348,459.657299
944.314732,-9474.636058,1406.391290,1378.971896
944.315053,-10807.006753,1184.329507,3217.601092
944.315373,-11251.130318,-444.123565,3753.867940
944.315694,-10807.006753,-2368.659014,1762.019645
944.316015,-9844.739029,-3108.864956,612.876398
944.316335,-8586.388927,-1850.514855,-612.876398
944.316656,-9252.574275,-666.185348,0.000000
944.316976,-8364.327145,888.247130,1225.752797
944.317297,-9474.636058,-1110.308913,383.047749
944.317618,-8882.471304,-1998.556043,-153.219100
944.317938,-8956.491898,-1554.432478,-459.657299
944.318259,-10658.965565,-1480.411884,153.219100
944.318580,-10362.883188,-296.082377,1838.629195
944.318900,-9474.636058,-296.082377,1991.848295
944.319221,-8882.471304,444.123565,1838.629195
944.319542,-10584.944971,-962.267725,612.876398
944.319862,-10214.842000,-1110.308913,1149.143247
944.320183,-9178.553681,-444.123565,459.657299
944.320504,-9918.759623,-1036.288319,-536.266849
944.320824,-8142.265362,74.020594,-306.438199
944.321145,-8438.347739,370.102971,459.657299
944.321465,-9770.718434,740.205942,689.485948
944.321786,-10510.924376,-1036.288319,1532.190996
944.322107,-10140.821405,-1924.535449,1302.362347
944.322427,-10288.862594,-2072.576638,459.657299
944.322748,-10436.903782,-814.226536,689.485948
944.323069,-9918.759623,666.185348,2757.943793
944.323389,-9844.739029,148.041188,3370.820191
944.323710,-9696.697840,-1110.308913,1149.143247
944.324031,-9770.718434,-1628.453072,153.219100
944.324351,-9622.677246,-1036.288319,459.657299
944.324672,-10214.842000,-740.205942,1225.752797
944.324993,-10436.903782,0.000000,2604.724693
944.325313,-9474.636058,296.082377,1838.629195
944.325634,-8956.491898,-814.226536,0.000000
944.325954,-8438.347739,-1184.329507,-689.485948
944.326275,-7698.141797,148.041188,-919.314598
944.326596,-9252.574275,666.185348,153.219100
944.326916,-9030.512492,888.247130,153.219100
944.327237,-8438.347739,1258.350101,1838.629195
944.327558,-10066.800811,-222.061783,3140.991542
944.327878,-11103.089130,-1998.556043,2911.162892
944.328199,-11029.068536,-592.164754,3830.477490
944.328520,-11103.089130,296.082377,3217.601092
944.328840,-10066.800811,1184.329507,2451.505594
944.329161,-9474.636058,1258.350101,2451.505594
944.329482,-8438.347739,1332.370696,2221.676944
944.329802,-8512.368333,-1110.308913,-459.657299
944.330123,-7624.121203,-1258.350101,-1762.019645
944.330443,-7994.224174,-1184.329507,-842.705048
944.330764,-9104.533087,-1036.288319,-229.828649
944.331085,-9770.718434,296.082377,1455.581446
944.331405,-11177.109724,740.205942,3140.991542
944.331726,-10140.821405,1036.288319,2911.162892
944.332047,-11177.109724,-740.205942,1838.629195
944.332367,-10436.903782,-518.144159,1302.362347
944.332688,-9030.512492,-444.123565,0.000000
944.333009,-9178.553681,0.000000,-919.314598
944.333329,-7846.182985,0.000000,-536.266849
944.333650,-7698.141797,296.082377,-459.657299
944.333971,-9844.739029,-962.267725,842.705048
944.334291,-9770.718434,-1110.308913,919.314598
944.334612,-10881.027347,-1184.329507,1838.629195
944.334932,-11029.068536,-1258.350101,919.314598
944.335253,-10955.047942,0.000000,1455.581446
944.335574,-10362.883188,1776.494261,2681.334243
944.335894,-10066.800811,1184.329507,2987.772442
944.336215,-9918.759623,-444.123565,-689.485948
944.336536,-8660.409521,-1258.350101,-1225.752797
944.336856,-8438.347739,-888.247130,-1762.019645
944.337177,-8882.471304,444.123565,-306.438199
944.337498,-10288.862594,666.185348,1302.362347
944.337818,-9548.656652,1406.391290,2374.896044
944.338139,-10510.924376,-1184.329507,1455.581446
944.338459,-10288.862594,-2368.659014,1072.533697
944.338780,-10436.903782,-2664.741391,1608.800546
944.339101,-9770.718434,-2294.638420,1455.581446
944.339421,-9326.594869,-962.267725,995.924147
944.339742,-8216.285956,666.185348,1378.971896
944.340063,-9178.553681,-444.123565,919.314598
944.340383,-9474.636058,-2146.597232,2604.724693
944.340704,-9918.759623,-666.185348,153.219100
944.341025,-9474.636058,-296.082377,0.000000
944.341345,-9844.739029,518.144159,-306.438199
944.341666,-9548.656652,370.102971,842.705048
944.341987,-9252.574275,-222.061783,919.314598
944.342307,-9400.615463,-1554.432478,459.657299
944.342628,-9474.636058,-2590.720797,76.609550
944.342948,-9030.512492,-2812.782580,-306.438199
944.343269,-10584.944971,-1998.556043,0.000000
944.343590,-9918.759623,222.061783,1149.143247
944.343910,-9326.594869,888.247130,2451.505594
944.344231,-9252.574275,814.226536,2757.943793
944.344552,-10140.821405,-740.205942,2145.067394
944.344872,-10066.800811,-2146.597232,1608.800546
944.345193,-10066.800811,-1924.535449,1455.581446
944.345514,-8438.347739,370.102971,1685.410096
944.345834,-10584.944971,-518.144159,1149.143247
944.346155,-7846.182985,2590.720797,2221.676944
944.346476,-9696.697840,0.000000,995.924147
944.346796,-9326.594869,-1776.494261,153.219100
944.347117,-8290.306550,-1628.453072,-689.485948
944.347437,-10066.800811,-1480.411884,-612.876398
944.347758,-8882.471304,148.041188,-76.609550
944.348079,-9770.718434,814.226536,1608.800546
944.348399,-9696.697840,1628.453072,3140.991542
944.348720,-10066.800811,-148.041188,2451.505594
944.349041,-10807.006753,-592.164754,1608.800546
944.349361,-9844.739029,-740.205942,1915.238745
944.349682,-9918.759623,-740.205942,919.314598
944.350003,-9696.697840,222.061783,1991.848295
944.350323,-8734.430116,888.247130,1302.362347
944.350644,-8808.450710,296.082377,1302.362347
944.350965,-9252.574275,-518.144159,229.828649
944.351285,-9622.677246,-444.123565,306.438199
944.351606,-9474.636058,-1258.350101,459.657299
944.351926,-9696.697840,74.020594,1225.752797
944.352247,-9844.739029,814.226536,2451.505594
944.352568,-10288.862594,740.205942,3064.381992
944.352888,-10362.883188,518.144159,1991.848295
944.353209,-10214.842000,-222.061783,1072.533697
944.353530,-9992.780217,-370.102971,383.047749
944.353850,-9252.574275,0.000000,0.000000
944.354171,-9252.574275,888.247130,995.924147
944.354492,-8956.491898,1258.350101,2068.457845
944.354812,-9548.656652,518.144159,1838.629195
944.355133,-10510.924376,-888.247130,1072.533697
944.355454,-9696.697840,-296.082377,842.705048
944.355774,-11177.109724,-1110.308913,229.828649
944.356095,-9252.574275,-444.123565,1149.143247
944.356415,-9696.697840,1110.308913,2757.943793
944.356736,-10140.821405,222.061783,2681.334243
944.357056,-9474.636058,148.041188,689.485948
944.357377,-10140.821405,-1332.370696,459.657299
944.357698,-8438.347739,-296.082377,306.438199
944.358018,-9548.656652,-592.164754,-306.438199
944.358339,-9252.574275,148.041188,1608.800546
944.358659,-8438.347739,-518.144159,1838.629195
944.358980,-9622.677246,-1998.556043,153.219100
944.359301,-8808.450710,-1998.556043,-842.705048
944.359621,-9030.512492,-1628.453072,-1225.752797
944.359942,-9770.718434,-222.061783,-612.876398
944.360262,-8956.491898,370.102971,0.000000
944.360583,-9104.533087,1184.329507,1838.629195
944.360904,-10288.862594,-296.082377,3140.991542
944.361224,-11325.150913,-2368.659014,2374.896044
944.361545,-11029.068536,-2812.782580,2298.286494
944.361865,-10658.965565,-2442.679609,1532.190996
944.362186,-10362.883188,-888.247130,1378.971896
944.362507,-9030.512492,296.082377,1608.800546
944.362827,-9030.512492,444.123565,1072.533697
944.363148,-8586.388927,222.061783,-766.095498
944.363469,-8734.430116,-1110.308913,-1532.190996
944.363789,-9326.594869,-1258.350101,-459.657299
944.364110,-9918.759623,-2368.659014,76.609550
944.364430,-10214.842000,-1554.432478,919.314598
944.364751,-9844.739029,0.000000,2681.334243
944.365072,-10066.800811,74.020594,3983.696590
944.365392,-11621.233289,-1480.411884,3064.381992
944.365713,-10066.800811,-1036.288319,2451.505594
944.366033,-9992.780217,-814.226536,459.657299
944.366354,-9326.594869,888.247130,306.438199
944.366675,-8364.327145,2220.617826,229.828649
944.366995,-8586.388927,2146.597232,1762.019645
944.367316,-9030.512492,444.123565,229.828649
944.367636,-9030.512492,-1554.432478,0.000000
944.367957,-9030.512492,-2146.597232,229.828649
944.368278,-10362.883188,-296.082377,1915.238745
944.368598,-10955.047942,1332.370696,2451.505594
944.368919,-10362.883188,2590.720797,4213.525239
944.369240,-9918.759623,1184.329507,3524.039291
944.369560,-9400.615463,-962.267725,1149.143247
944.369881,-8808.450710,-1924.535449,-229.828649
944.370201,-8956.491898,-814.226536,0.000000
944.370522,-9696.697840,518.144159,766.095498
944.370843,-9474.636058,1406.391290,2374.896044
944.371163,-8068.244768,2072.576638,4673.182538
944.371484,-11029.068536,-962.267725,2374.896044
944.371804,-10140.821405,-2146.597232,1302.362347
944.372125,-8808.450710,-1924.535449,-76.609550
944.372446,-8882.471304,-2812.782580,-1838.629195
944.372766,-7476.080014,1480.411884,-689.485948
944.373087,-8364.327145,1924.535449,153.219100
944.373407,-9252.574275,1850.514855,2221.676944
944.373728,-9622.677246,-814.226536,689.485948
944.374049,-10881.027347,-1998.556043,3524.039291
944.374369,-11251.130318,-1776.494261,2451.505594
944.374690,-11103.089130,-814.226536,2911.162892
944.375011,-11695.253884,814.226536,4366.744339
944.375331,-9104.533087,1184.329507,4519.963438
944.375652,-8586.388927,-1554.432478,229.828649
944.375972,-7994.224174,-1480.411884,-1685.410096
944.376293,-7994.224174,-518.144159,-1149.143247
944.376614,-8882.471304,-592.164754,-459.657299
944.376934,-9252.574275,592.164754,229.828649
944.377255,-9474.636058,1110.308913,2528.115143
944.377575,-10584.944971,-296.082377,2757.943793
944.377896,-11843.295072,-962.267725,3524.039291
944.378217,-11621.233289,-814.226536,2451.505594
944.378537,-9918.759623,-1258.350101,1149.143247
944.378858,-9326.594869,-1036.288319,0.000000
944.379178,-8438.347739,370.102971,-306.438199
944.379499,-8364.327145,0.000000,-1762.019645
944.379820,-9474.636058,-1332.370696,-229.828649
944.380140,-8364.327145,-1702.473667,-612.876398
944.380461,-9770.718434,-3701.029710,-153.219100
944.380782,-10066.800811,-2664.741391,689.485948
944.381102,-10732.986159,-1480.411884,2298.286494
944.381423,-10807.006753,-370.102971,3217.601092
944.381743,-10732.986159,-370.102971,3064.381992
944.382064,-10214.842000,-1776.494261,1302.362347
944.382385,-9696.697840,-2072.576638,-459.657299
944.382705,-9326.594869,-222.061783,-459.657299
944.383026,-9548.656652,74.020594,-536.266849
944.383346,-8438.347739,148.041188,76.609550
944.383667,-8216.285956,444.123565,-1378.971896
944.383988,-9770.718434,-1036.288319,0.000000
944.384308,-10214.842000,-1184.329507,153.219100
944.384629,-9918.759623,-888.247130,612.876398
944.384949,-10140.821405,-370.102971,689.485948
944.385270,-9918.759623,148.041188,919.314598
944.385591,-9622.677246,1628.453072,2911.162892
944.385911,-10140.821405,222.061783,2604.724693
944.386232,-9770.718434,-1036.288319,1302.362347
944.386553,-7920.203579,-1036.288319,0.000000
944.386873,-9992.780217,-1628.453072,689.485948
944.387194,-9992.780217,-592.164754,459.657299
944.387514,-8734.430116,1480.411884,1915.238745
944.387835,-9104.533087,444.123565,1225.752797
944.388156,-8364.327145,518.144159,766.095498
944.388476,-10436.903782,-1332.370696,1149.143247
944.388797,-9400.615463,-1480.411884,229.828649
944.389117,-8956.491898,148.041188,689.485948
944.389438,-9548.656652,370.102971,1532.190996
944.389759,-8808.450710,1924.535449,1991.848295
944.390079,-10732.986159,666.185348,2298.286494
944.390400,-9844.739029,-592.164754,2221.676944
944.390721,-9474.636058,-740.205942,2298.286494
944.391041,-11029.068536,-1184.329507,2604.724693
944.391362,-10510.924376,0.000000,2298.286494
944.391682,-9622.677246,1776.494261,2834.553343
944.392003,-8660.409521,2146.597232,1991.848295
944.392324,-9252.574275,1406.391290,1302.362347
944.392644,-8808.450710,-148.041188,0.000000
944.392965,-8142.265362,-1184.329507,-1608.800546
944.393285,-8364.327145,-444.123565,-1915.238745
944.393606,-8364.327145,666.185348,-919.314598
944.393927,-9622.677246,2738.761985,2221.676944
944.394247,-10955.047942,1480.411884,3447.429741
944.394568,-10881.027347,740.205942,2451.505594
944.394888,-11843.295072,592.164754,3677.258390
944.395209,-11843.295072,-3034.844362,0.000000
944.395530,-7031.956449,0.000000,919.314598
944.395850,-11473.192101,296.082377,1378.971896
944.396171,-8142.265362,2146.597232,3524.039291
944.396492,-8586.388927,-666.185348,-306.438199
944.396812,-9696.697840,0.000000,1838.629195
944.397133,-8068.244768,-2368.659014,-1302.362347
944.397453,-11177.109724,-1110.308913,1455.581446
944.397774,-10732.986159,0.000000,2528.115143
944.398095,-8956.491898,1258.350101,1455.581446
944.398415,-11029.068536,370.102971,3370.820191
944.398736,-9844.739029,-1184.329507,1532.190996
944.399056,-9178.553681,-1480.411884,76.609550
944.399377,-10436.903782,-3108.864956,-306.438199
944.399698,-7698.141797,-1332.370696,-306.438199
944.400018,-8956.491898,-666.185348,153.219100
944.400339,-10584.944971,-518.144159,1608.800546
944.400659,-8734.430116,-518.144159,1225.752797
944.400980,-9992.780217,-1480.411884,1072.533697
944.401301,-10732.986159,-1554.432478,1455.581446
944.401621,-10955.047942,-518.144159,1838.629195
944.401942,-10881.027347,-1332.370696,1072.533697
944.402263,-8290.306550,-222.061783,1149.143247
944.402583,-9400.615463,-814.226536,1302.362347
944.402904,-8734.430116,-2664.741391,-153.219100
944.403224,-9252.574275,-1850.514855,-459.657299
944.403545,-9030.512492,-740.205942,-1072.533697
944.403866,-9400.615463,148.041188,-1072.533697
944.404186,-9474.636058,1998.556043,1455.581446
944.404507,-10066.800811,888.247130,1762.019645
944.404827,-10584.944971,-592.164754,2451.505594
944.405148,-9844.739029,-1850.514855,995.924147
944.405469,-9104.533087,-2886.803174,0.000000
944.405789,-10436.903782,-2368.659014,76.609550
944.406110,-9844.739029,-814.226536,1991.848295
944.406430,-8956.491898,-296.082377,2068.457845
944.406751,-9474.636058,-444.123565,1608.800546
944.407072,-9326.594869,-1702.473667,-153.219100
944.407392,-9030.512492,-444.123565,-689.485948
944.407713,-9770.718434,0.000000,-689.485948
944.408034,-8512.368333,74.020594,0.000000
944.408354,-8290.306550,814.226536,612.876398
944.408675,-9474.636058,740.205942,1225.752797
944.408995,-11103.089130,-222.061783,2451.505594
944.409316,-10955.047942,-1332.370696,2451.505594
944.409637,-10140.821405,-1850.514855,1378.971896
944.409957,-10288.862594,-962.267725,612.876398
944.410278,-9770.718434,962.267725,1608.800546
944.410598,-9474.636058,1406.391290,2911.162892
944.410919,-9326.594869,1036.288319,2298.286494
944.411240,-7920.203579,-740.205942,0.000000
944.411560,-9474.636058,-1258.350101,0.000000
944.411881,-9992.780217,0.000000,842.705048
944.412201,-9474.636058,0.000000,1072.533697
944.412522,-9400.615463,2368.659014,2987.772442
944.412843,-9918.759623,518.144159,2221.676944
944.413163,-9696.697840,-444.123565,1378.971896
944.413484,-10510.924376,-962.267725,1225.752797
944.413805,-9104.533087,-296.082377,1072.533697
944.414125,-10140.821405,0.000000,1378.971896
944.414446,-9252.574275,814.226536,919.314598
944.414766,-9030.512492,2220.617826,1608.800546
944.415087,-10066.800811,666.185348,2451.505594
944.415408,-9844.739029,-222.061783,1762.019645
944.415728,-9548.656652,-592.164754,1302.362347
944.416049,-9400.615463,-1406.391290,536.266849
944.416369,-9918.759623,-740.205942,766.095498
944.416690,-10140.821405,592.164754,3370.820191
944.417011,-10066.800811,-370.102971,2757.943793
944.417331,-9770.718434,0.000000,1762.019645
944.417652,-9844.739029,-148.041188,1149.143247
944.417972,-9622.677246,-814.226536,1149.143247
944.418293,-9844.739029,0.000000,1072.533697
944.418614,-9474.636058,444.123565,1149.143247
944.418934,-8512.368333,1258.350101,1685.410096
944.419255,-9178.553681,592.164754,0.000000
944.419576,-9474.636058,-1554.432478,0.000000
944.419896,-9030.512492,-444.123565,-229.828649
944.420217,-9992.780217,-740.205942,153.219100
944.420537,-9178.553681,296.082377,306.438199
944.420858,-9548.656652,740.205942,1915.238745
944.421179,-9030.512492,-962.267725,1915.238745
944.421499,-9622.677246,-1850.514855,1302.362347
944.421820,-9918.759623,-2146.597232,766.095498
944.422140,-9474.636058,-2072.576638,383.047749
944.422461,-9918.759623,-518.144159,689.485948
944.422782,-10066.800811,666.185348,1608.800546
944.423102,-9844.739029,1332.370696,2374.896044
944.423423,-11473.192101,740.205942,1762.019645
944.423743,-10214.842000,-1036.288319,766.095498
944.424064,-9696.697840,-1480.411884,-459.657299
944.424385,-9326.594869,-1184.329507,-689.485948
944.424705,-9474.636058,-148.041188,-536.266849
944.425026,-9030.512492,1258.350101,459.657299
944.425347,-9326.594869,-592.164754,612.876398
944.425667,-9326.594869,-2146.597232,-766.095498
944.425988,-9548.656652,-2072.576638,153.219100
944.426308,-10362.883188,-1850.514855,153.219100
944.426629,-10066.800811,-148.041188,1225.752797
944.426950,-9770.718434,0.000000,1685.410096
944.427270,-9326.594869,370.102971,2528.115143
944.427591,-9844.739029,-2220.617826,2221.676944
944.427911,-9622.677246,-2516.700203,459.657299
944.428232,-8882.471304,-1924.535449,383.047749
944.428553,-9326.594869,-1036.288319,76.609550
944.428873,-9030.512492,74.020594,766.095498
944.429194,-8808.450710,296.082377,1838.629195
944.429514,-8808.450710,74.020594,1149.143247
944.429835,-10140.821405,-1628.453072,689.485948
944.430156,-9178.553681,-1406.391290,1225.752797
944.430476,-9696.697840,-1776.494261,1149.143247
944.430797,-9992.780217,-370.102971,1378.971896
944.431118,-9548.656652,1332.370696,2451.505594
944.431438,-9030.512492,2220.617826,3524.039291
944.431759,-9844.739029,518.144159,4443.353888
944.432079,-9474.636058,-666.185348,1378.971896
944.432400,-9030.512492,-888.247130,0.000000
944.432721,-8956.491898,-370.102971,0.000000
944.433041,-9474.636058,592.164754,1532.190996
944.433362,-9104.533087,1036.288319,2068.457845
944.433682,-9622.677246,518.144159,1915.238745
944.434003,-9844.739029,-444.123565,1225.752797
944.434324,-10214.842000,-740.205942,1378.971896
944.434644,-10658.965565,-814.226536,1532.190996
944.434965,-10066.800811,74.020594,1302.362347
944.435285,-9992.780217,1776.494261,1991.848295
944.435606,-9474.636058,2220.617826,2528.115143
944.435927,-9918.759623,370.102971,3677.258390
944.436247,-9844.739029,-888.247130,842.705048
944.436568,-9474.636058,-666.185348,76.609550
944.436889,-9474.636058,-666.185348,-229.828649
944.437209,-9548.656652,296.082377,0.000000
944.437530,-8882.471304,1850.514855,1915.238745
944.437850,-9622.677246,740.205942,1302.362347
944.438171,-10584.944971,-370.102971,1225.752797
944.438492,-11177.109724,-1110.308913,1302.362347
944.438812,-10436.903782,-1924.535449,153.219100
944.439133,-10881.027347,-666.185348,995.924147
944.439453,-10732.986159,1776.494261,2911.162892
944.439774,-10881.027347,1406.391290,3524.039291
944.440095,-9104.533087,740.205942,2451.505594
944.440415,-8808.450710,-1702.473667,-842.705048
944.440736,-7328.038826,-1850.514855,-2221.676944
944.441056,-8660.409521,-2220.617826,-2145.067394
944.441377,-7994.224174,-740.205942,-459.657299
944.441698,-7328.038826,296.082377,0.000000
944.442018,-9178.553681,-814.226536,383.047749
944.442339,-9622.677246,-1332.370696,1685.410096
944.442660,-10807.006753,-2590.720797,2298.286494
944.442980,-10881.027347,-1924.535449,2374.896044
944.443301,-9844.739029,-1036.288319,2068.457845
944.443621,-9400.615463,518.144159,1608.800546
944.443942,-8956.491898,1110.308913,2374.896044
944.444263,-9252.574275,444.123565,1685.410096
944.444583,-7550.100608,0.000000,689.485948
944.444904,-9178.553681,-2220.617826,-842.705048
944.445224,-8438.347739,-1184.329507,-383.047749
944.445545,-9918.759623,-370.102971,995.924147
944.445866,-9548.656652,592.164754,1685.410096
944.446186,-9844.739029,518.144159,2145.067394
944.446507,-10955.047942,-888.247130,1608.800546
944.446827,-9622.677246,-888.247130,306.438199
944.447148,-11177.109724,-814.226536,-306.438199
944.447469,-10362.883188,-444.123565,766.095498
944.447789,-9844.739029,592.164754,2221.676944
944.448110,-9622.677246,962.267725,2145.067394
944.448431,-10140.821405,0.000000,1991.848295
944.448751,-10140.821405,-888.247130,995.924147
944.449072,-9622.677246,-888.247130,536.266849
944.449392,-10140.821405,-1110.308913,612.876398
944.449713,-9770.718434,-518.144159,1149.143247
944.450034,-9474.636058,148.041188,1685.410096
944.450354,-10066.800811,-740.205942,1378.971896
944.450675,-9326.594869,-1184.329507,153.219100
944.450995,-9474.636058,-888.247130,-229.828649
944.451316,-10362.883188,222.061783,229.828649
944.451637,-9992.780217,518.144159,76.609550
944.451957,-9474.636058,2442.679609,1991.848295
944.452278,-9548.656652,1480.411884,3907.087040
944.452598,-10140.821405,-740.205942,459.657299
944.452919,-9104.533087,-962.267725,1915.238745
944.453240,-9474.636058,-2368.659014,383.047749
944.453560,-7994.224174,962.267725,229.828649
944.453881,-9474.636058,1036.288319,1532.190996
944.454202,-8068.244768,1480.411884,459.657299
944.454522,-7772.162391,1184.329507,229.828649
944.454843,-9178.553681,-1184.329507,-689.485948
944.455163,-7624.121203,-888.247130,-1225.752797
944.455484,-9548.656652,-740.205942,-1838.629195
944.455805,-8882.471304,296.082377,229.828649
944.456125,-9548.656652,1702.473667,2298.286494
944.456446,-10510.924376,740.205942,3830.477490
944.456766,-9696.697840,-1332.370696,5132.839837
944.457087,-11325.150913,-2442.679609,2528.115143
944.457408,-10510.924376,-2368.659014,1378.971896
944.457728,-9400.615463,-1480.411884,536.266849
944.458049,-9252.574275,592.164754,612.876398
944.458369,-7846.182985,1406.391290,1072.533697
944.458690,-8586.388927,666.185348,919.314598
944.459011,-9030.512492,-1480.411884,0.000000
944.459331,-8586.388927,-1110.308913,-612.876398
944.459652,-11251.130318,-1036.288319,1378.971896
944.459973,-11473.192101,518.144159,2987.772442
944.460294,-11399.171507,1332.370696,4519.963438
944.460615,-10732.986159,666.185348,4903.011187
944.460935,-10436.903782,-888.247130,2451.505594
944.461256,-10214.842000,-1554.432478,766.095498
944.461577,-8512.368333,-1110.308913,-766.095498
944.461898,-9178.553681,-222.061783,-766.095498
944.462218,-8142.265362,814.226536,-1072.533697
944.462539,-7476.080014,1924.535449,306.438199
944.462860,-9770.718434,148.041188,1072.533697
944.463181,-9770.718434,-1406.391290,1838.629195
944.463501,-10658.965565,-2516.700203,2451.505594
944.463822,-10807.006753,-3330.926739,2145.067394
944.464143,-10584.944971,-1480.411884,1838.629195
944.464464,-9992.780217,1184.329507,3294.210641
944.464784,-9474.636058,1110.308913,3600.648841
944.465105,-9400.615463,-592.164754,1302.362347
944.465426,-8216.285956,-1184.329507,-766.095498
944.465747,-7994.224174,-1776.494261,-1685.410096
944.466067,-8660.409521,-1184.329507,-1302.362347
944.466388,-9104.533087,-148.041188,-153.219100
944.466709,-7994.224174,74.020594,1225.752797
944.467030,-8956.491898,0.000000,0.000000
944.467350,-9252.574275,-1036.288319,-229.828649
944.467671,-9918.759623,-2368.659014,306.438199
944.467992,-10288.862594,-2368.659014,306.438199
944.468313,-10584.944971,-1850.514855,612.876398
944.468633,-9622.677246,1850.514855,3064.381992
944.468954,-11399.171507,1184.329507,4519.963438
944.469275,-10955.047942,-1110.308913,3370.820191
944.469596,-9696.697840,-1628.453072,1838.629195
944.469916,-9178.553681,-1406.391290,-153.219100
944.470237,-9252.574275,-888.247130,-995.924147
944.470558,-8586.388927,518.144159,-766.095498
944.470879,-8142.265362,1776.494261,612.876398
944.471199,-7994.224174,0.000000,-842.705048
944.471520,-9474.636058,-1702.473667,0.000000
944.471841,-10214.842000,-2516.700203,76.609550
944.472162,-10510.924376,-1628.453072,306.438199
944.472483,-11621.233289,518.144159,1762.019645
944.472803,-10362.883188,2590.720797,3677.258390
944.473124,-9770.718434,2812.782580,3983.696590
944.473445,-10955.047942,370.102971,2528.115143
944.473766,-9474.636058,-592.164754,306.438199
944.474086,-9104.533087,-1850.514855,-153.219100
944.474407,-8290.306550,-1628.453072,-459.657299
944.474728,-8438.347739,370.102971,766.095498
944.475049,-8808.450710,1702.473667,2451.505594
944.475369,-9178.553681,962.267725,2221.676944
944.475690,-9992.780217,-296.082377,1991.848295
944.476011,-10214.842000,-666.185348,1991.848295
944.476332,-10732.986159,-962.267725,1455.581446
944.476652,-10510.924376,0.000000,1991.848295
944.476973,-9474.636058,1628.453072,2451.505594
944.477294,-9400.615463,1480.411884,2757.943793
944.477615,-9548.656652,-222.061783,1378.971896
944.477935,-10140.821405,-222.061783,536.266849
944.478256,-9474.636058,-666.185348,229.828649
944.478577,-9104.533087,-888.247130,306.438199
944.478898,-9844.739029,740.205942,1838.629195
944.479218,-10140.821405,1332.370696,3677.258390
944.479539,-9252.574275,-444.123565,1685.410096
944.479860,-9844.739029,-814.226536,2298.286494
944.480181,-9548.656652,-1480.411884,2221.676944
944.480501,-10584.944971,-1702.473667,1378.971896
944.480822,-9622.677246,-740.205942,766.095498
944.481143,-8808.450710,296.082377,766.095498
944.481464,-9474.636058,518.144159,842.705048
944.481784,-9992.780217,-222.061783,459.657299
944.482105,-9400.615463,0.000000,842.705048
944.482426,-9696.697840,-518.144159,-459.657299
944.482747,-9696.697840,-444.123565,76.609550
944.483067,-9918.759623,-148.041188,536.266849
944.483388,-9252.574275,592.164754,2145.067394
944.483709,-10584.944971,-1258.350101,1149.143247
944.484030,-8882.471304,-1110.308913,459.657299
944.484351,-9178.553681,-1332.370696,-383.047749
944.484671,-10288.862594,-1184.329507,-153.219100
944.484992,-9622.677246,-222.061783,536.266849
944.485313,-10288.862594,-592.164754,1608.800546
944.485634,-9474.636058,296.082377,2911.162892
944.485954,-11325.150913,-2146.597232,1685.410096
944.486275,-9178.553681,-2368.659014,766.095498
944.486596,-9474.636058,-1480.411884,0.000000
944.486917,-8660.409521,-2220.617826,-2604.724693
944.487237,-7254.018232,1258.350101,-1762.019645
944.487558,-7994.224174,1924.535449,306.438199
944.487879,-8734.430116,666.185348,-536.266849
944.488200,-9844.739029,-1480.411884,-995.924147
944.488520,-10214.842000,-1998.556043,76.609550
944.488841,-10214.842000,-1332.370696,536.266849
944.489162,-11695.253884,-888.247130,1991.848295
944.489483,-10955.047942,1184.329507,4366.744339
944.489803,-10288.862594,-370.102971,3370.820191
944.490124,-9548.656652,-2294.638420,1149.143247
944.490445,-8660.409521,-1998.556043,0.000000
944.490766,-8068.244768,-1628.453072,-383.047749
944.491086,-8216.285956,222.061783,229.828649
944.491407,-9178.553681,444.123565,1532.190996
944.491728,-8586.388927,888.247130,1838.629195
944.492049,-10214.842000,-1036.288319,2451.505594
944.492369,-10510.924376,-2812.782580,1608.800546
944.492690,-9992.780217,-1406.391290,1991.848295
944.493011,-11325.150913,-2072.576638,2451.505594
944.493332,-9030.512492,0.000000,1225.752797
944.493652,-8438.347739,2664.741391,2757.943793
944.493973,-9992.780217,518.144159,2374.896044
944.494294,-8142.265362,370.102971,1685.410096
944.494615,-10288.862594,-1332.370696,153.219100
944.494936,-8216.285956,148.041188,153.219100
944.495256,-9770.718434,444.123565,766.095498
944.495577,-10214.842000,1184.329507,3294.210641
944.495898,-9252.574275,1110.308913,4136.915689
944.496219,-10732.986159,-814.226536,2681.334243
944.496539,-9474.636058,-1480.411884,1608.800546
944.496860,-9770.718434,-1998.556043,612.876398
944.497181,-9474.636058,-592.164754,306.438199
944.497502,-8956.491898,962.267725,612.876398
944.497822,-8734.430116,1850.514855,995.924147
944.498143,-8956.491898,1332.370696,919.314598
944.498464,-10140.821405,0.000000,612.876398
944.498785,-9992.780217,-1184.329507,995.924147
944.499105,-9770.718434,-444.123565,689.485948
944.499426,-10510.924376,148.041188,766.095498
944.499747,-9696.697840,1406.391290,1302.362347
944.500068,-9030.512492,2664.741391,2451.505594
944.500388,-9770.718434,0.000000,1455.581446
944.500709,-9030.512492,-962.267725,0.000000
944.501030,-10066.800811,-518.144159,-536.266849
944.501351,-9548.656652,888.247130,-689.485948
944.501671,-9992.780217,1258.350101,1455.581446
944.501992,-9622.677246,1628.453072,2374.896044
944.502313,-9992.780217,296.082377,2374.896044
944.502634,-9992.780217,-1480.411884,612.876398
944.502954,-10436.903782,-1258.350101,612.876398
944.503275,-10436.903782,-1110.308913,0.000000
944.503596,-9770.718434,-296.082377,0.000000
944.503917,-8808.450710,1628.453072,919.314598
944.504237,-8512.368333,1258.350101,2451.505594
944.504558,-9252.574275,-518.144159,919.314598
944.504879,-9992.780217,-1702.473667,995.924147
944.505200,-9622.677246,-2590.720797,842.705048
944.505520,-10362.883188,-1110.308913,995.924147
944.505841,-10658.965565,0.000000,3140.991542
944.506162,-10066.800811,1036.288319,3524.039291
944.506483,-10066.800811,592.164754,4136.915689
944.506804,-9992.780217,-1406.391290,2298.286494
944.507124,-8808.450710,-2368.659014,0.000000
944.507445,-8660.409521,-2812.782580,-1225.752797
944.507766,-8586.388927,-1554.432478,-1455.581446
944.508087,-7698.141797,888.247130,-459.657299
944.508407,-8438.347739,1110.308913,459.657299
944.508728,-9030.512492,0.000000,612.876398
944.509049,-10214.842000,-1998.556043,842.705048
944.509370,-10362.883188,-2294.638420,1685.410096
944.509690,-11547.212695,-1702.473667,1991.848295
944.510011,-11103.089130,-592.164754,2451.505594
944.510332,-9844.739029,740.205942,2528.115143
944.510653,-9178.553681,0.000000,1455.581446
944.510973,-8734.430116,-1776.494261,76.609550
944.511294,-7994.224174,-2442.679609,-459.657299
944.511615,-7994.224174,-1998.556043,-2451.505594
944.511936,-8512.368333,-740.205942,-1378.971896
944.512256,-9474.636058,1480.411884,612.876398
944.512577,-10214.842000,1702.473667,2757.943793
944.512898,-10732.986159,-296.082377,2145.067394
944.513219,-10955.047942,-1036.288319,2298.286494
944.513539,-10807.006753,-1850.514855,2068.457845
944.513860,-11547.212695,-2220.617826,1149.143247
944.514181,-9844.739029,-962.267725,919.314598
944.514502,-8734.430116,592.164754,842.705048
944.514822,-8438.347739,888.247130,229.828649
944.515143,-8734.430116,370.102971,-229.828649
944.515464,-9400.615463,0.000000,-612.876398
944.515785,-9326.594869,-518.144159,0.000000
944.516105,-9992.780217,-888.247130,842.705048
944.516426,-9400.615463,74.020594,2681.334243
944.516747,-10436.903782,-370.102971,2834.553343
944.517068,-10658.965565,-592.164754,3447.429741
944.517388,-10214.842000,-814.226536,1838.629195
944.517709,-8956.491898,-370.102971,919.314598
944.518030,-9918.759623,-592.164754,-229.828649
944.518351,-9252.574275,1258.350101,612.876398
944.518672,-8956.491898,518.144159,1455.581446
944.518992,-8660.409521,148.041188,1378.971896
944.519313,-9696.697840,-518.144159,612.876398
944.519634,-9474.636058,222.061783,995.924147
944.519955,-9696.697840,1332.370696,2374.896044
944.520275,-11547.212695,-1480.411884,2068.457845
944.520596,-7920.203579,1036.288319,1762.019645
944.520917,-10658.965565,444.123565,536.266849
944.521238,-10214.842000,74.020594,2528.115143
944.521558,-8364.327145,-1258.350101,689.485948
944.521879,-9844.739029,222.061783,1762.019645
944.522200,-9104.533087,148.041188,383.047749
944.522521,-8586.388927,814.226536,-229.828649
944.522841,-11177.109724,2516.700203,4136.915689
944.523162,-8734.430116,-296.082377,1378.971896
944.523483,-9844.739029,0.000000,459.657299
944.523804,-9474.636058,296.082377,76.609550
944.524124,-7846.182985,222.061783,-536.266849
944.524445,-10510.924376,-222.061783,459.657299
944.524766,-9918.759623,370.102971,2221.676944
944.525087,-8216.285956,518.144159,919.314598
944.525407,-11621.233289,-1924.535449,1302.362347
944.525728,-9992.780217,-962.267725,2145.067394
944.526049,-10510.924376,-1110.308913,1685.410096
944.526370,-10658.965565,-962.267725,1225.752797
944.526690,-9474.636058,518.144159,919.314598
944.527011,-9178.553681,444.123565,1455.581446
944.527332,-9326.594869,-666.185348,459.657299
944.527653,-9622.677246,-1850.514855,-612.876398
944.527973,-7402.059420,-740.205942,-1991.848295
944.528294,-9548.656652,-1850.514855,-1149.143247
944.528615,-9326.594869,148.041188,153.219100
944.528936,-9474.636058,814.226536,536.266849
944.529257,-10362.883188,0.000000,2221.676944
944.529577,-10066.800811,0.000000,1685.410096
944.529898,-10436.903782,-1332.370696,1302.362347
944.530219,-10362.883188,-1850.514855,459.657299
944.530540,-8882.471304,-1258.350101,-306.438199
944.530860,-9474.636058,-888.247130,-383.047749
944.531181,-8586.388927,74.020594,919.314598
944.531502,-9326.594869,74.020594,1685.410096
944.531823,-10288.862594,-2664.741391,842.705048
944.532143,-9030.512492,-1702.473667,1225.752797
944.532464,-9770.718434,-1702.473667,536.266849
944.532785,-10140.821405,-1258.350101,459.657299
944.533106,-10066.800811,1110.308913,2145.067394
944.533426,-8734.430116,2220.617826,1915.238745
944.533747,-10214.842000,-1406.391290,536.266849
944.534068,-8142.265362,-592.164754,919.314598
944.534389,-9178.553681,-2072.576638,76.609550
944.534709,-8808.450710,-1258.350101,0.000000
944.535030,-9622.677246,0.000000,1838.629195
944.535351,-9326.594869,1406.391290,2834.553343
944.535672,-10066.800811,740.205942,2911.162892
944.535992,-10584.944971,-1480.411884,1915.238745
944.536313,-9770.718434,-1110.308913,1685.410096
944.536634,-10658.965565,-1776.494261,995.924147
944.536955,-9252.574275,-518.144159,1072.533697
944.537275,-8956.491898,74.020594,1838.629195
944.537596,-7624.121203,-148.041188,3907.087040
944.537917,-9178.553681,-962.267725,1149.143247
944.538238,-9400.615463,-962.267725,919.314598
944.538558,-10214.842000,-814.226536,1378.971896
944.538879,-10066.800811,222.061783,2757.943793
944.539200,-9622.677246,1406.391290,2757.943793
944.539521,-9548.656652,888.247130,3217.601092
944.539841,-9770.718434,444.123565,2604.724693
944.540162,-9548.656652,-1554.432478,1072.533697
944.540483,-9252.574275,-370.102971,536.266849
944.540804,-9178.553681,0.000000,459.657299
944.541125,-9326.594869,888.247130,612.876398
944.541445,-9474.636058,2812.782580,2604.724693
944.541766,-9992.780217,2368.659014,3217.601092
944.542087,-10362.883188,370.102971,2834.553343
944.542408,-10362.883188,-962.267725,2451.505594
944.542728,-9844.739029,-444.123565,2528.115143
944.543049,-10807.006753,148.041188,4290.134789
944.543370,-9696.697840,1332.370696,3294.210641
944.543691,-8512.368333,2368.659014,2757.943793
944.544011,-9252.574275,1628.453072,2221.676944
944.544332,-9474.636058,666.185348,1225.752797
944.544653,-9474.636058,-296.082377,306.438199
944.544974,-8660.409521,74.020594,0.000000
944.545294,-9474.636058,888.247130,-306.438199
944.545615,-9474.636058,1702.473667,1149.143247
944.545936,-10066.800811,2664.741391,2451.505594
944.546257,-10732.986159,1924.535449,2451.505594
944.546577,-10362.883188,962.267725,2451.505594
944.546898,-10362.883188,74.020594,2145.067394
944.547219,-10288.862594,1036.288319,3064.381992
944.547540,-10288.862594,1776.494261,3370.820191
944.547860,-8956.491898,1776.494261,3677.258390
944.548181,-8068.244768,2072.576638,3294.210641
944.548502,-9030.512492,666.185348,2681.334243
944.548823,-8734.430116,-222.061783,3064.381992
944.549143,-9178.553681,-518.144159,2911.162892
944.549464,-9622.677246,296.082377,2528.115143
944.549785,-9844.739029,1332.370696,2374.896044
944.550106,-9104.533087,1776.494261,1532.190996
944.550426,-9030.512492,1924.535449,2145.067394
944.550747,-10066.800811,1776.494261,2604.724693
944.551068,-10732.986159,1036.288319,2681.334243
944.551389,-9770.718434,1184.329507,3217.601092
944.551709,-10881.027347,814.226536,3294.210641
944.552030,-10362.883188,1406.391290,4136.915689
944.552351,-9622.677246,1332.370696,3294.210641
944.552672,-9104.533087,1406.391290,3447.429741
944.552993,-8364.327145,1480.411884,4366.744339
944.553313,-9622.677246,1184.329507,4826.401637
944.553634,-9918.759623,592.164754,4903.011187
944.553955,-9400.615463,444.123565,3140.991542
944.554276,-9474.636058,1776.494261,3447.429741
944.554596,-9252.574275,2960.823768,3140.991542
944.554917,-9030.512492,2516.700203,2681.334243
944.555238,-9918.759623,1850.514855,2221.676944
944.555559,-9326.594869,2368.659014,1915.238745
944.555879,-9992.780217,2442.679609,2987.772442
944.556200,-11251.130318,2294.638420,4903.011187
944.556521,-10881.027347,1480.411884,4290.134789
944.556842,-9548.656652,2442.679609,3524.039291
944.557162,-9326.594869,2368.659014,3370.820191
944.557483,-9030.512492,1924.535449,3447.429741
944.557804,-9252.574275,518.144159,3140.991542
944.558125,-8882.471304,666.185348,3140.991542
944.558445,-8512.368333,1036.288319,3600.648841
944.558766,-9400.615463,1998.556043,4443.353888
944.559087,-9844.739029,1998.556043,4903.011187
944.559407,-10140.821405,2516.700203,4136.915689
944.559728,-9770.718434,2812.782580,2834.553343
944.560049,-9252.574275,2368.659014,2528.115143
944.560369,-8956.491898,2368.659014,1838.629195
944.560690,-9474.636058,1332.370696,1532.190996
944.561011,-9252.574275,1258.350101,1149.143247
944.561331,-8734.430116,1184.329507,153.219100
944.561652,-9030.512492,2220.617826,1685.410096
944.561973,-9844.739029,2664.741391,3983.696590
944.562293,-10510.924376,2368.659014,5209.449386
944.562614,-10510.924376,1480.411884,5209.449386
944.562935,-10436.903782,1850.514855,5209.449386
944.563255,-10214.842000,1480.411884,5209.449386
944.563576,-9548.656652,1332.370696,5439.278036
944.563897,-9474.636058,814.226536,4596.572988
944.564217,-8512.368333,814.226536,2145.067394
944.564538,-8808.450710,1036.288319,1532.190996
944.564859,-8882.471304,2146.597232,1991.848295
944.565179,-9844.739029,2664.741391,3370.820191
944.565500,-10140.821405,2960.823768,5132.839837
944.565821,-10955.047942,2442.679609,4903.011187
944.566141,-10362.883188,1628.453072,4749.792088
944.566462,-10584.944971,1480.411884,4596.572988
944.566783,-10140.821405,1554.432478,4060.306139
944.567103,-9548.656652,1776.494261,3140.991542
944.567424,-9030.512492,2516.700203,2834.553343
944.567745,-8734.430116,2368.659014,1685.410096
944.568065,-8882.471304,1924.535449,1685.410096
944.568386,-9622.677246,1110.308913,2145.067394
944.568707,-9696.697840,1406.391290,2911.162892
944.569027,-9474.636058,1850.514855,3677.258390
944.569348,-9918.759623,1406.391290,3753.867940
944.569669,-10066.800811,1480.411884,4826.401637
944.569989,-10732.986159,592.164754,5439.278036
944.570310,-10436.903782,962.267725,4749.792088
944.570631,-9770.718434,1554.432478,3447.429741
944.570951,-9252.574275,2072.576638,2451.505594
944.571272,-9030.512492,2294.638420,1915.238745
944.571593,-8882.471304,2368.659014,1532.190996
944.571913,-8956.491898,1480.411884,1532.190996
944.572234,-8808.450710,518.144159,1149.143247
944.572555,-8586.388927,0.000000,1532.190996
944.572875,-9770.718434,222.061783,2451.505594
944.573196,-9918.759623,1406.391290,3447.429741
944.573517,-10066.800811,1998.556043,4290.134789
944.573837,-9992.780217,1628.453072,4596.572988
944.574158,-9770.718434,1628.453072,4136.915689
944.574479,-9992.780217,1184.329507,4290.134789
944.574799,-9918.759623,1036.288319,4903.011187
944.575120,-9992.780217,1628.453072,4673.182538
944.575441,-9474.636058,1998.556043,4060.306139
944.575761,-9326.594869,2368.659014,3600.648841
944.576082,-8956.491898,2664.741391,2987.772442
944.576403,-9252.574275,2442.679609,2374.896044
944.576723,-9252.574275,2664.741391,1685.410096
944.577044,-8660.409521,1406.391290,689.485948
944.577365,-9326.594869,814.226536,536.266849
944.577685,-9548.656652,814.226536,1378.971896
944.578006,-10066.800811,1258.350101,5209.449386
944.578327,-10510.924376,1480.411884,2911.162892
944.578647,-10362.883188,1480.411884,3600.648841
944.578968,-10881.027347,1406.391290,4060.306139
944.579289,-10510.924376,1406.391290,4596.572988
944.579609,-9844.739029,1554.432478,4673.182538
944.579930,-9548.656652,1924.535449,4749.792088
944.580251,-8882.471304,1776.494261,4060.306139
944.580571,-8660.409521,1628.453072,3524.039291
944.580892,-9030.512492,1776.494261,3064.381992
944.581213,-8882.471304,1702.473667,3447.429741
944.581533,-9326.594869,1850.514855,3370.820191
944.581854,-9548.656652,2072.576638,3983.696590
944.582175,-10066.800811,1480.411884,4136.915689
944.582495,-10288.862594,2368.659014,4749.792088
944.582816,-10436.903782,2368.659014,4290.134789
944.583137,-10140.821405,2368.659014,4290.134789
944.583457,-9696.697840,2294.638420,3677.258390
944.583778,-9770.718434,2072.576638,3753.867940
944.584099,-9474.636058,1998.556043,3983.696590
944.584419,-9400.615463,1998.556043,4060.306139
944.584740,-9400.615463,1776.494261,3907.087040
944.585061,-9252.574275,1850.514855,4826.401637
944.585381,-9400.615463,1480.411884,3600.648841
944.585702,-9474.636058,1258.350101,3370.820191
944.586023,-9474.636058,1406.391290,3140.991542
944.586343,-9474.636058,888.247130,1915.238745
944.586664,-9474.636058,1480.411884,1991.848295
944.586985,-9548.656652,1924.535449,2068.457845
944.587305,-9770.718434,1850.514855,1608.800546
944.587626,-9548.656652,2072.576638,1378.971896
944.587947,-9770.718434,2072.576638,1532.190996
944.588267,-9622.677246,1480.411884,1991.848295
944.588588,-9622.677246,1406.391290,2145.067394
944.588909,-9770.718434,1332.370696,2298.286494
944.589229,-9992.780217,1110.308913,2451.505594
944.589550,-9548.656652,1258.350101,2681.334243
944.589871,-9400.615463,740.205942,2834.553343
944.590191,-9400.615463,222.061783,2221.676944
944.590512,-9104.533087,-444.123565,2145.067394
944.590833,-9178.553681,-222.061783,1072.533697
944.591153,-8956.491898,0.000000,1302.362347
944.591474,-9770.718434,370.102971,1455.581446
944.591795,-10066.800811,814.226536,2221.676944
944.592115,-9992.780217,666.185348,2068.457845
944.592436,-10510.924376,888.247130,1762.019645
944.592757,-10288.862594,592.164754,1532.190996
944.593077,-10140.821405,1036.288319,1762.019645
944.593398,-9622.677246,1110.308913,1455.581446
944.593719,-9030.512492,1480.411884,612.876398
944.594039,-9178.553681,1480.411884,1149.143247
944.594360,-9400.615463,1036.288319,1302.362347
944.594681,-9326.594869,666.185348,0.000000
944.595001,-9918.759623,740.205942,2221.676944
944.595322,-9844.739029,740.205942,2757.943793
944.595643,-9992.780217,444.123565,2757.943793
944.595963,-10066.800811,592.164754,3447.429741
944.596284,-9992.780217,962.267725,3294.210641
944.596605,-9844.739029,1184.329507,3370.820191
944.596925,-9844.739029,1406.391290,3294.210641
944.597246,-9696.697840,1628.453072,3447.429741
944.597567,-9844.739029,1850.514855,4136.915689
944.597887,-9918.759623,2072.576638,4290.134789
944.598208,-9844.739029,1998.556043,4519.963438
944.598529,-9770.718434,2072.576638,5209.449386
944.598849,-9252.574275,1184.329507,5898.935335
944.599170,-9696.697840,1998.556043,5898.935335
944.599491,-9548.656652,1628.453072,6511.811733
944.599811,-9400.615463,1776.494261,6128.763984
944.600132,-9104.533087,1776.494261,3983.696590
944.600453,-9252.574275,1998.556043,6128.763984
944.600773,-9178.553681,2072.576638,6052.154434
944.601094,-9252.574275,2072.576638,5975.544884
944.601415,-9326.594869,2368.659014,5898.935335
944.601735,-9474.636058,2368.659014,6128.763984
944.602056,-9696.697840,2886.803174,6281.983084
944.602377,-9622.677246,3330.926739,6358.592633
944.602697,-9918.759623,3701.029710,6281.983084
944.603018,-9918.759623,3849.070898,6894.859482
944.603339,-9474.636058,3108.864956,5362.668486
944.603659,-9548.656652,3256.906145,4903.011187
944.603980,-9326.594869,3404.947333,4596.572988
944.604301,-9474.636058,3478.967927,3370.820191
944.604621,-9104.533087,3256.906145,4060.306139
944.604942,-9474.636058,2664.741391,3140.991542
