#time,accel_x,accel_y,accel_z
1135.184349,-9992.780217,-2072.576638,1685.410096
1135.184670,-9326.594869,-1332.370696,612.876398
1135.184992,-9548.656652,-740.205942,842.705048
1135.185313,-9770.718434,0.000000,1762.019645
1135.185634,-9844.739029,-296.082377,1455.581446
1135.185955,-10066.800811,-814.226536,1302.362347
1135.186276,-10066.800811,-1110.308913,1149.143247
1135.186597,-9696.697840,-1332.370696,919.314598
1135.186918,-9992.780217,-370.102971,1608.800546
1135.187239,-9474.636058,-444.123565,1302.362347
1135.187560,-9474.636058,0.000000,919.314598
1135.187882,-9178.553681,-592.164754,995.924147
1135.188203,-8660.409521,-740.205942,459.657299
1135.188524,-9474.636058,0.000000,1072.533697
1135.188845,-9696.697840,0.000000,1685.410096
1135.189166,-9252.574275,74.020594,1915.238745
1135.189487,-9992.780217,-592.164754,612.876398
1135.189808,-9770.718434,-1332.370696,2068.457845
1135.190129,-9104.533087,-1184.329507,1838.629195
1135.190450,-9696.697840,-1480.411884,1838.629195
1135.190772,-9474.636058,-888.247130,1915.238745
1135.191093,-9474.636058,-296.082377,1608.800546
1135.191414,-9548.656652,-666.185348,1455.581446
1135.191735,-9474.636058,0.000000,1302.362347
1135.192056,-9548.656652,0.000000,1455.581446
1135.192377,-9696.697840,-444.123565,2068.457845
1135.192698,-9326.594869,-222.061783,2145.067394
1135.193019,-9548.656652,-518.144159,2145.067394
1135.193341,-9622.677246,-444.123565,3064.381992
1135.193662,-10140.821405,-1776.494261,3600.648841
1135.193983,-9474.636058,-1406.391290,4290.134789
1135.194304,-9844.739029,-1776.494261,4443.353888
1135.194625,-9178.553681,-1480.411884,4290.134789
1135.194946,-9474.636058,-2146.597232,4443.353888
1135.195267,-9400.615463,-2368.659014,4903.011187
1135.195588,-9178.553681,-2442.679609,4596.572988
1135.195909,-9474.636058,-2442.679609,4060.306139
1135.196231,-9400.615463,-2442.679609,3830.477490
1135.196552,-9326.594869,-2294.638420,3907.087040
1135.196873,-9474.636058,-2368.659014,3677.258390
1135.197194,-9252.574275,-1628.453072,3524.039291
1135.197515,-9696.697840,-1850.514855,3370.820191
1135.197836,-9918.759623,-1628.453072,4673.182538
1135.198157,-9548.656652,-2072.576638,3140.991542
1135.198478,-9770.718434,-1924.535449,2834.553343
1135.198799,-9844.739029,-1998.556043,2604.724693
1135.199121,-9622.677246,-2146.597232,2374.896044
1135.199442,-9622.677246,-2220.617826,1991.848295
1135.199763,-9548.656652,-2590.720797,1378.971896
1135.200084,-9474.636058,-2590.720797,1302.362347
1135.200405,-9622.677246,-3034.844362,459.657299
1135.200726,-9252.574275,-2516.700203,153.219100
1135.201047,-9622.677246,-2368.659014,-229.828649
1135.201368,-9622.677246,-1554.432478,-536.266849
1135.201690,-9844.739029,-1184.329507,0.000000
1135.202011,-9474.636058,222.061783,0.000000
1135.202332,-9844.739029,-1332.370696,-612.876398
1135.202653,-9696.697840,-1480.411884,-306.438199
1135.202974,-9622.677246,-1554.432478,-153.219100
1135.203295,-9770.718434,-1702.473667,76.609550
1135.203616,-9474.636058,-1850.514855,76.609550
1135.203937,-9474.636058,-2072.576638,0.000000
1135.204258,-9178.553681,-2516.700203,0.000000
1135.204580,-8882.471304,-2368.659014,0.000000
1135.204901,-9622.677246,-2146.597232,0.000000
1135.205222,-9104.533087,-1924.535449,459.657299
1135.205543,-9400.615463,-1480.411884,153.219100
1135.205864,-9474.636058,-1184.329507,76.609550
1135.206185,-9474.636058,-888.247130,306.438199
1135.206506,-9252.574275,518.144159,766.095498
1135.206827,-9918.759623,222.061783,459.657299
1135.207148,-9548.656652,666.185348,536.266849
1135.207469,-9844.739029,888.247130,229.828649
1135.207790,-9844.739029,1184.329507,842.705048
1135.208111,-9622.677246,888.247130,689.485948
1135.208432,-10584.944971,1332.370696,536.266849
1135.208753,-9770.718434,444.123565,1302.362347
1135.209074,-9844.739029,148.041188,1378.971896
1135.209395,-9622.677246,518.144159,2451.505594
1135.209716,-9918.759623,-222.061783,2604.724693
1135.210036,-9548.656652,-370.102971,2681.334243
1135.210357,-9622.677246,-370.102971,2604.724693
1135.210678,-9548.656652,148.041188,3370.820191
1135.210999,-9474.636058,0.000000,2298.286494
1135.211320,-9696.697840,518.144159,2221.676944
1135.211641,-9696.697840,888.247130,2068.457845
1135.211962,-9696.697840,1036.288319,1685.410096
1135.212283,-9548.656652,1554.432478,1762.019645
1135.212604,-10066.800811,1554.432478,1378.971896
1135.212925,-10066.800811,1628.453072,1685.410096
1135.213246,-10066.800811,1776.494261,1302.362347
1135.213566,-10214.842000,1480.411884,2068.457845
1135.213887,-9992.780217,1036.288319,766.095498
1135.214208,-9696.697840,1258.350101,842.705048
1135.214529,-9696.697840,1184.329507,919.314598
1135.214850,-9474.636058,962.267725,2374.896044
1135.215171,-9548.656652,592.164754,995.924147
1135.215492,-9474.636058,592.164754,842.705048
1135.215813,-9178.553681,592.164754,689.485948
1135.216134,-9252.574275,666.185348,1072.533697
1135.216455,-9104.533087,148.041188,766.095498
1135.216776,-9252.574275,296.082377,536.266849
1135.217096,-9548.656652,444.123565,536.266849
1135.217417,-9548.656652,74.020594,842.705048
1135.217738,-9474.636058,-296.082377,459.657299
1135.218059,-9548.656652,0.000000,612.876398
1135.218380,-9400.615463,-444.123565,766.095498
1135.218701,-9474.636058,-370.102971,919.314598
1135.219022,-9474.636058,-962.267725,459.657299
1135.219343,-9178.553681,-740.205942,306.438199
1135.219664,-9252.574275,-740.205942,459.657299
1135.219985,-9252.574275,-518.144159,76.609550
1135.220306,-9474.636058,-296.082377,153.219100
1135.220626,-9474.636058,-370.102971,-459.657299
1135.220947,-9474.636058,0.000000,383.047749
1135.221268,-9770.718434,-296.082377,612.876398
1135.221589,-9992.780217,-666.185348,766.095498
1135.221910,-9622.677246,-1480.411884,842.705048
1135.222231,-9918.759623,-962.267725,1225.752797
1135.222552,-10214.842000,-1184.329507,1991.848295
1135.222873,-10066.800811,-1554.432478,2068.457845
1135.223194,-9918.759623,-1332.370696,1685.410096
1135.223515,-9696.697840,-1554.432478,1915.238745
1135.223836,-9696.697840,-1998.556043,1838.629195
1135.224157,-9474.636058,-1702.473667,1532.190996
1135.224477,-9474.636058,-1628.453072,1685.410096
1135.224798,-9622.677246,-888.247130,1378.971896
1135.225119,-9400.615463,-814.226536,1302.362347
1135.225440,-9400.615463,-740.205942,842.705048
1135.225761,-9548.656652,-444.123565,536.266849
1135.226082,-10214.842000,222.061783,612.876398
1135.226403,-9918.759623,0.000000,612.876398
1135.226724,-9918.759623,0.000000,306.438199
1135.227045,-10066.800811,148.041188,536.266849
1135.227366,-9770.718434,0.000000,766.095498
1135.227687,-9992.780217,-148.041188,689.485948
1135.228007,-9844.739029,-518.144159,919.314598
1135.228328,-9548.656652,-666.185348,1302.362347
1135.228649,-9474.636058,-962.267725,1378.971896
1135.228970,-9326.594869,-962.267725,1302.362347
1135.229291,-9178.553681,-1258.350101,1532.190996
1135.229612,-9104.533087,-1184.329507,1378.971896
1135.229933,-8882.471304,-962.267725,1302.362347
1135.230254,-8882.471304,-814.226536,766.095498
1135.230575,-9178.553681,-518.144159,1225.752797
1135.230896,-9400.615463,-148.041188,1302.362347
1135.231217,-9474.636058,0.000000,1532.190996
1135.231537,-9548.656652,222.061783,1302.362347
1135.231858,-9622.677246,296.082377,1149.143247
1135.232179,-9918.759623,222.061783,1378.971896
1135.232500,-9770.718434,222.061783,1302.362347
1135.232821,-9622.677246,444.123565,1149.143247
1135.233142,-9622.677246,518.144159,1378.971896
1135.233463,-9696.697840,444.123565,1072.533697
1135.233784,-9622.677246,0.000000,995.924147
1135.234105,-9696.697840,0.000000,1532.190996
1135.234426,-9474.636058,-370.102971,1455.581446
1135.234747,-9696.697840,-444.123565,1532.190996
1135.235067,-9770.718434,-592.164754,1225.752797
1135.235388,-9844.739029,-666.185348,1225.752797
1135.235709,-9696.697840,-592.164754,1225.752797
1135.236030,-9696.697840,-296.082377,1072.533697
1135.236351,-9622.677246,-222.061783,766.095498
1135.236672,-9770.718434,0.000000,842.705048
1135.236993,-9696.697840,148.041188,536.266849
1135.237314,-9548.656652,222.061783,766.095498
1135.237635,-9696.697840,148.041188,536.266849
1135.237956,-9622.677246,370.102971,306.438199
1135.238277,-9548.656652,0.000000,383.047749
1135.238597,-9548.656652,0.000000,0.000000
1135.238918,-9918.759623,0.000000,383.047749
1135.239239,-9696.697840,222.061783,76.609550
1135.239560,-9770.718434,296.082377,306.438199
1135.239881,-9178.553681,370.102971,612.876398
1135.240202,-9844.739029,296.082377,536.266849
1135.240523,-9844.739029,148.041188,689.485948
1135.240844,-9474.636058,0.000000,383.047749
1135.241165,-9252.574275,0.000000,612.876398
1135.241486,-9326.594869,-296.082377,842.705048
1135.241807,-9696.697840,0.000000,1378.971896
1135.242127,-9474.636058,-148.041188,1532.190996
1135.242448,-9474.636058,-296.082377,1225.752797
1135.242769,-9474.636058,-518.144159,1532.190996
1135.243090,-9400.615463,-1036.288319,1378.971896
1135.243411,-9400.615463,-1258.350101,1762.019645
1135.243732,-9400.615463,-1406.391290,1838.629195
1135.244053,-8364.327145,-2294.638420,2911.162892
1135.244374,-9326.594869,-1702.473667,1608.800546
1135.244695,-9252.574275,-1480.411884,1455.581446
1135.245016,-9622.677246,-1258.350101,2145.067394
1135.245337,-9474.636058,-962.267725,1455.581446
1135.245657,-9622.677246,-592.164754,1685.410096
1135.245978,-9548.656652,-444.123565,1072.533697
1135.246299,-9696.697840,-74.020594,766.095498
1135.246620,-9770.718434,-148.041188,1149.143247
1135.246941,-9918.759623,-222.061783,1608.800546
1135.247262,-10066.800811,-222.061783,919.314598
1135.247583,-9844.739029,-592.164754,1302.362347
1135.247904,-9918.759623,-666.185348,1532.190996
1135.248225,-10066.800811,-296.082377,2834.553343
1135.248546,-9770.718434,-1184.329507,1685.410096
1135.248867,-9622.677246,-1258.350101,1762.019645
1135.249188,-9474.636058,-1702.473667,1762.019645
1135.249508,-9474.636058,-1702.473667,1685.410096
1135.249829,-9326.594869,-1702.473667,1149.143247
1135.250150,-9474.636058,-1184.329507,1302.362347
1135.250471,-9548.656652,-814.226536,995.924147
1135.250792,-9696.697840,-518.144159,459.657299
1135.251113,-9770.718434,0.000000,1072.533697
1135.251434,-9844.739029,0.000000,76.609550
1135.251755,-9918.759623,296.082377,76.609550
1135.252076,-9696.697840,592.164754,-229.828649
1135.252397,-9844.739029,518.144159,0.000000
1135.252718,-10066.800811,888.247130,153.219100
1135.253038,-10066.800811,666.185348,0.000000
1135.253359,-9918.759623,222.061783,306.438199
1135.253680,-9918.759623,148.041188,306.438199
1135.254001,-9474.636058,0.000000,766.095498
1135.254322,-9474.636058,-518.144159,459.657299
1135.254643,-9474.636058,-518.144159,919.314598
1135.254964,-9252.574275,-740.205942,842.705048
1135.255285,-9030.512492,-962.267725,1225.752797
1135.255606,-9178.553681,-962.267725,1149.143247
1135.255927,-9252.574275,-666.185348,1378.971896
1135.256248,-9326.594869,-296.082377,1378.971896
1135.256568,-9030.512492,-888.247130,229.828649
1135.256889,-9400.615463,-222.061783,1608.800546
1135.257210,-9474.636058,-148.041188,1378.971896
1135.257531,-9474.636058,0.000000,1838.629195
1135.257852,-9696.697840,0.000000,1532.190996
1135.258173,-9622.677246,0.000000,1378.971896
1135.258494,-9252.574275,222.061783,1149.143247
1135.258815,-9622.677246,0.000000,1378.971896
1135.259136,-9622.677246,444.123565,1455.581446
1135.259457,-9622.677246,0.000000,1685.410096
1135.259778,-9918.759623,0.000000,1455.581446
1135.260098,-9770.718434,-296.082377,1838.629195
1135.260419,-9770.718434,-518.144159,1685.410096
1135.260740,-9474.636058,296.082377,2298.286494
1135.261061,-9770.718434,-518.144159,2221.676944
1135.261382,-9770.718434,-592.164754,1915.238745
1135.261703,-9696.697840,-370.102971,1838.629195
1135.262024,-9622.677246,-444.123565,459.657299
1135.262345,-9770.718434,-444.123565,1225.752797
1135.262666,-9770.718434,-518.144159,1149.143247
1135.262987,-9696.697840,-222.061783,1072.533697
1135.263308,-9622.677246,0.000000,995.924147
1135.263628,-10140.821405,148.041188,612.876398
1135.263949,-9696.697840,-222.061783,766.095498
1135.264270,-9918.759623,0.000000,459.657299
1135.264591,-9696.697840,0.000000,459.657299
1135.264912,-8956.491898,-222.061783,153.219100
1135.265233,-9622.677246,222.061783,0.000000
1135.265554,-9548.656652,222.061783,0.000000
1135.265875,-9770.718434,74.020594,0.000000
1135.266196,-9770.718434,148.041188,-919.314598
1135.266517,-9696.697840,0.000000,0.000000
1135.266838,-9548.656652,-148.041188,306.438199
1135.267158,-9474.636058,0.000000,383.047749
1135.267479,-9622.677246,-518.144159,612.876398
1135.267800,-9400.615463,-444.123565,306.438199
1135.268121,-9326.594869,-666.185348,536.266849
1135.268442,-9252.574275,-740.205942,459.657299
1135.268763,-9252.574275,-1036.288319,919.314598
1135.269084,-8660.409521,-1258.350101,1149.143247
1135.269405,-9326.594869,-888.247130,1072.533697
1135.269726,-9252.574275,-962.267725,1378.971896
1135.270047,-9474.636058,-888.247130,1455.581446
1135.270368,-9474.636058,-148.041188,2528.115143
1135.270688,-9400.615463,-740.205942,1149.143247
1135.271009,-9622.677246,-814.226536,1378.971896
1135.271330,-9400.615463,-592.164754,1149.143247
1135.271651,-9696.697840,-222.061783,1302.362347
1135.271972,-9696.697840,296.082377,1762.019645
1135.272293,-9622.677246,0.000000,1608.800546
1135.272614,-9918.759623,0.000000,1455.581446
1135.272935,-9622.677246,-296.082377,1608.800546
1135.273256,-9844.739029,-1036.288319,2145.067394
1135.273577,-9918.759623,-518.144159,2068.457845
1135.273898,-9992.780217,-592.164754,2221.676944
1135.274219,-9696.697840,-888.247130,2451.505594
1135.274539,-9622.677246,-1258.350101,2528.115143
1135.274860,-9326.594869,-1036.288319,2298.286494
1135.275181,-9474.636058,-1258.350101,2068.457845
1135.275502,-9474.636058,-1110.308913,1915.238745
1135.275823,-9326.594869,-592.164754,1532.190996
1135.276144,-9474.636058,-740.205942,1685.410096
1135.276465,-9696.697840,0.000000,1225.752797
1135.276786,-9844.739029,0.000000,842.705048
1135.277107,-9844.739029,444.123565,842.705048
1135.277428,-9770.718434,592.164754,383.047749
1135.277749,-9326.594869,888.247130,459.657299
1135.278069,-9918.759623,962.267725,0.000000
1135.278390,-9770.718434,962.267725,0.000000
1135.278711,-9844.739029,888.247130,0.000000
1135.279032,-9770.718434,222.061783,153.219100
1135.279353,-9474.636058,0.000000,76.609550
1135.279674,-9622.677246,0.000000,383.047749
1135.279995,-9474.636058,-296.082377,459.657299
1135.280316,-9400.615463,-370.102971,689.485948
1135.280637,-9400.615463,-592.164754,995.924147
1135.280958,-9326.594869,-592.164754,919.314598
1135.281279,-9326.594869,-592.164754,1225.752797
1135.281599,-9326.594869,-666.185348,842.705048
1135.281920,-9622.677246,1036.288319,2374.896044
1135.282241,-9474.636058,-296.082377,1302.362347
1135.282562,-9178.553681,-148.041188,1302.362347
1135.282883,-9326.594869,-148.041188,1302.362347
1135.283204,-9400.615463,-74.020594,2911.162892
1135.283525,-9622.677246,-222.061783,1302.362347
1135.283846,-9548.656652,-296.082377,1225.752797
1135.284167,-9622.677246,-518.144159,1455.581446
1135.284488,-9548.656652,-370.102971,1149.143247
1135.284809,-9622.677246,-370.102971,1149.143247
1135.285129,-9400.615463,-296.082377,1685.410096
1135.285450,-9622.677246,-592.164754,1532.190996
1135.285771,-9622.677246,-518.144159,1838.629195
1135.286092,-9474.636058,-222.061783,1072.533697
1135.286413,-9622.677246,-370.102971,1838.629195
1135.286734,-9474.636058,-592.164754,1838.629195
1135.287055,-9770.718434,-740.205942,2374.896044
1135.287376,-9474.636058,-74.020594,1225.752797
1135.287697,-9548.656652,-592.164754,1762.019645
1135.288018,-9696.697840,-740.205942,1608.800546
1135.288339,-9696.697840,-592.164754,1685.410096
1135.288659,-9622.677246,-888.247130,995.924147
1135.288980,-9696.697840,-814.226536,842.705048
1135.289301,-9696.697840,-666.185348,689.485948
1135.289622,-9770.718434,-518.144159,689.485948
1135.289943,-9696.697840,-518.144159,612.876398
1135.290264,-9992.780217,-370.102971,76.609550
1135.290585,-9622.677246,0.000000,306.438199
1135.290906,-9770.718434,0.000000,459.657299
1135.291227,-9622.677246,0.000000,153.219100
1135.291548,-9696.697840,-666.185348,-1302.362347
1135.291869,-9770.718434,-74.020594,76.609550
1135.292189,-9696.697840,0.000000,536.266849
1135.292510,-9770.718434,0.000000,459.657299
1135.292831,-9770.718434,-296.082377,842.705048
1135.293152,-9474.636058,-814.226536,536.266849
1135.293473,-9548.656652,-222.061783,536.266849
1135.293794,-9400.615463,-592.164754,842.705048
1135.294115,-9474.636058,-592.164754,1072.533697
1135.294436,-9548.656652,-962.267725,919.314598
1135.294757,-9104.533087,-740.205942,842.705048
1135.295078,-9400.615463,-666.185348,1762.019645
1135.295399,-9104.533087,-592.164754,1225.752797
1135.295719,-8142.265362,-1036.288319,2221.676944
1135.296040,-9326.594869,-444.123565,1072.533697
1135.296361,-9622.677246,-296.082377,1378.971896
1135.296682,-9548.656652,-370.102971,1378.971896
1135.297003,-9474.636058,-222.061783,1072.533697
1135.297324,-9548.656652,222.061783,842.705048
1135.297645,-9770.718434,296.082377,1072.533697
1135.297966,-9844.739029,296.082377,995.924147
1135.298287,-9696.697840,222.061783,1072.533697
1135.298608,-9474.636058,-370.102971,919.314598
1135.298929,-9844.739029,0.000000,1455.581446
1135.299250,-10066.800811,-296.082377,1378.971896
1135.299570,-9844.739029,-444.123565,2068.457845
1135.299891,-9918.759623,-814.226536,2451.505594
1135.300212,-9696.697840,-666.185348,2221.676944
1135.300533,-9474.636058,-1110.308913,1991.848295
1135.300854,-9696.697840,-1110.308913,1532.190996
1135.301175,-9400.615463,-888.247130,1455.581446
1135.301496,-9474.636058,-740.205942,1455.581446
1135.301817,-9474.636058,-370.102971,919.314598
1135.302138,-9548.656652,-444.123565,842.705048
1135.302459,-9770.718434,74.020594,766.095498
1135.302780,-10140.821405,74.020594,919.314598
1135.303100,-9918.759623,666.185348,612.876398
1135.303421,-9992.780217,518.144159,229.828649
1135.303742,-10140.821405,962.267725,76.609550
1135.304063,-10214.842000,1184.329507,995.924147
1135.304384,-9918.759623,592.164754,-459.657299
1135.304705,-9622.677246,370.102971,0.000000
1135.305026,-9548.656652,296.082377,-229.828649
1135.305347,-9474.636058,222.061783,306.438199
1135.305668,-9474.636058,0.000000,76.609550
1135.305989,-9474.636058,-222.061783,536.266849
1135.306310,-9252.574275,-444.123565,689.485948
1135.306630,-9474.636058,-518.144159,995.924147
1135.306951,-9622.677246,-74.020594,1072.533697
1135.307272,-9474.636058,-888.247130,1149.143247
1135.307593,-9104.533087,-740.205942,1225.752797
1135.307914,-9326.594869,-740.205942,1225.752797
1135.308235,-9918.759623,0.000000,459.657299
1135.308556,-9548.656652,-1036.288319,1302.362347
1135.308877,-9400.615463,-592.164754,1685.410096
1135.309198,-9548.656652,-666.185348,1225.752797
1135.309519,-9474.636058,-814.226536,1455.581446
1135.309839,-9622.677246,-962.267725,1225.752797
1135.310160,-9548.656652,-518.144159,1608.800546
1135.310481,-9770.718434,-592.164754,1608.800546
1135.310802,-9696.697840,-518.144159,1685.410096
1135.311123,-9548.656652,-1258.350101,1838.629195
1135.311444,-9770.718434,-592.164754,1608.800546
1135.311765,-9844.739029,-740.205942,1685.410096
1135.312086,-9770.718434,-592.164754,1915.238745
1135.312407,-9474.636058,-1924.535449,2987.772442
1135.312728,-9622.677246,-592.164754,1915.238745
1135.313049,-9622.677246,-666.185348,1838.629195
1135.313369,-9548.656652,-814.226536,1608.800546
1135.313690,-9622.677246,-962.267725,1302.362347
1135.314011,-9622.677246,-740.205942,1149.143247
1135.314332,-9548.656652,-444.123565,766.095498
1135.314653,-9622.677246,-296.082377,689.485948
1135.314974,-9844.739029,-518.144159,766.095498
1135.315295,-9400.615463,-444.123565,1302.362347
1135.315616,-9770.718434,-296.082377,0.000000
1135.315937,-9918.759623,0.000000,229.828649
1135.316258,-9770.718434,0.000000,153.219100
1135.316578,-9770.718434,1258.350101,689.485948
1135.316899,-9992.780217,444.123565,76.609550
1135.317220,-9770.718434,296.082377,0.000000
1135.317541,-9696.697840,222.061783,76.609550
1135.317862,-9770.718434,0.000000,229.828649
1135.318183,-9696.697840,74.020594,229.828649
1135.318504,-9474.636058,-148.041188,229.828649
1135.318825,-9622.677246,0.000000,689.485948
1135.319146,-9474.636058,-222.061783,689.485948
1135.319467,-9548.656652,-370.102971,612.876398
1135.319788,-9326.594869,-592.164754,919.314598
1135.320108,-9474.636058,-888.247130,1072.533697
1135.320429,-9326.594869,-888.247130,1302.362347
1135.320750,-9178.553681,296.082377,3217.601092
1135.321071,-9252.574275,-814.226536,2068.457845
1135.321392,-9178.553681,-814.226536,1838.629195
1135.321713,-9326.594869,-666.185348,1532.190996
1135.322034,-9326.594869,-592.164754,1762.019645
1135.322355,-9252.574275,-592.164754,1378.971896
1135.322676,-9474.636058,-296.082377,1608.800546
1135.322997,-9400.615463,0.000000,1302.362347
1135.323318,-9622.677246,148.041188,1685.410096
1135.323638,-10066.800811,222.061783,1455.581446
1135.323959,-9918.759623,222.061783,1838.629195
1135.324280,-10140.821405,0.000000,1991.848295
1135.324601,-9992.780217,-222.061783,1685.410096
1135.324922,-9696.697840,-518.144159,2068.457845
1135.325243,-9918.759623,-296.082377,2374.896044
1135.325564,-9844.739029,-592.164754,2145.067394
1135.325885,-9696.697840,-814.226536,2298.286494
1135.326206,-9622.677246,-962.267725,2451.505594
1135.326527,-9474.636058,-1184.329507,1991.848295
1135.326847,-9400.615463,-1036.288319,1762.019645
1135.327168,-9474.636058,-814.226536,1838.629195
1135.327489,-9474.636058,-592.164754,1302.362347
1135.327810,-9400.615463,-296.082377,1378.971896
1135.328131,-9548.656652,-148.041188,919.314598
1135.328452,-9622.677246,148.041188,842.705048
1135.328773,-9918.759623,0.000000,229.828649
1135.329094,-9474.636058,1036.288319,-766.095498
1135.329415,-9696.697840,592.164754,0.000000
1135.329736,-9770.718434,962.267725,0.000000
1135.330057,-9770.718434,592.164754,0.000000
1135.330377,-9770.718434,666.185348,153.219100
1135.330698,-9400.615463,0.000000,-383.047749
1135.331019,-9696.697840,0.000000,0.000000
1135.331340,-9474.636058,0.000000,153.219100
1135.331661,-9474.636058,-148.041188,229.828649
1135.331982,-9400.615463,-592.164754,229.828649
1135.332303,-9474.636058,-740.205942,842.705048
1135.332624,-9400.615463,-814.226536,612.876398
1135.332945,-9474.636058,-740.205942,919.314598
1135.333266,-8882.471304,-814.226536,919.314598
1135.333586,-9474.636058,-962.267725,1455.581446
1135.333907,-9400.615463,-666.185348,1225.752797
1135.334228,-9326.594869,-1184.329507,919.314598
1135.334549,-9400.615463,-1258.350101,1378.971896
1135.334870,-9326.594869,-1036.288319,1378.971896
1135.335191,-9622.677246,-814.226536,1225.752797
1135.335512,-9400.615463,-740.205942,919.314598
1135.335833,-9474.636058,-592.164754,919.314598
1135.336154,-9770.718434,0.000000,1225.752797
1135.336475,-9696.697840,0.000000,1532.190996
1135.336796,-9770.718434,-444.123565,1762.019645
1135.337116,-9918.759623,-444.123565,1685.410096
1135.337437,-9178.553681,0.000000,1838.629195
1135.337758,-9844.739029,-592.164754,2068.457845
1135.338079,-9844.739029,-740.205942,1838.629195
1135.338400,-9622.677246,-666.185348,1685.410096
1135.338721,-9622.677246,-740.205942,1915.238745
1135.339042,-9548.656652,-814.226536,1915.238745
1135.339363,-9474.636058,-888.247130,1608.800546
1135.339684,-9622.677246,-740.205942,1378.971896
1135.340005,-9474.636058,-518.144159,1302.362347
1135.340325,-9770.718434,-518.144159,1378.971896
1135.340646,-9622.677246,-222.061783,919.314598
1135.340967,-9622.677246,-148.041188,919.314598
1135.341288,-9918.759623,0.000000,689.485948
1135.341609,-9548.656652,74.020594,0.000000
1135.341930,-9696.697840,148.041188,76.609550
1135.342251,-9918.759623,740.205942,76.609550
1135.342572,-9992.780217,814.226536,153.219100
1135.342893,-9992.780217,1258.350101,383.047749
1135.343214,-9992.780217,148.041188,383.047749
1135.343535,-9918.759623,0.000000,76.609550
1135.343855,-9474.636058,0.000000,612.876398
1135.344176,-9474.636058,-222.061783,689.485948
1135.344497,-9400.615463,-222.061783,995.924147
1135.344818,-9178.553681,-370.102971,842.705048
1135.345139,-9474.636058,-518.144159,842.705048
1135.345460,-9178.553681,-666.185348,1302.362347
1135.345781,-9252.574275,-888.247130,306.438199
1135.346102,-9252.574275,-740.205942,1302.362347
1135.346423,-9326.594869,-518.144159,1225.752797
1135.346744,-9326.594869,-518.144159,1532.190996
1135.347064,-9326.594869,-370.102971,2451.505594
1135.347385,-9252.574275,-666.185348,995.924147
1135.347706,-9622.677246,-444.123565,1225.752797
1135.348027,-9400.615463,-444.123565,1225.752797
1135.348348,-9326.594869,-148.041188,995.924147
1135.348669,-9474.636058,0.000000,1072.533697
1135.348990,-9622.677246,222.061783,1225.752797
1135.349311,-9622.677246,370.102971,1302.362347
1135.349632,-9696.697840,148.041188,1532.190996
1135.349953,-10288.862594,-148.041188,1455.581446
1135.350274,-9918.759623,0.000000,1225.752797
1135.350594,-9844.739029,0.000000,1532.190996
1135.350915,-9844.739029,-370.102971,1455.581446
1135.351236,-9918.759623,-222.061783,2451.505594
1135.351557,-9548.656652,-740.205942,1915.238745
1135.351878,-9474.636058,-1036.288319,1685.410096
1135.352199,-9474.636058,-1258.350101,1991.848295
1135.352520,-9622.677246,-1036.288319,1915.238745
1135.352841,-9474.636058,-740.205942,1685.410096
1135.353162,-9400.615463,-740.205942,1532.190996
1135.353483,-9622.677246,-962.267725,1302.362347
1135.353803,-9770.718434,-296.082377,1149.143247
1135.354124,-9992.780217,0.000000,842.705048
1135.354445,-9770.718434,74.020594,229.828649
1135.354766,-9844.739029,222.061783,0.000000
1135.355087,-9622.677246,370.102971,-459.657299
1135.355408,-9844.739029,518.144159,-306.438199
1135.355729,-9696.697840,370.102971,-383.047749
1135.356050,-9918.759623,222.061783,0.000000
1135.356371,-9844.739029,148.041188,0.000000
1135.356692,-9770.718434,-370.102971,-153.219100
1135.357013,-9548.656652,-592.164754,76.609550
1135.357333,-9770.718434,-444.123565,383.047749
1135.357654,-9400.615463,-592.164754,919.314598
1135.357975,-9326.594869,-592.164754,995.924147
1135.358296,-9326.594869,-1036.288319,536.266849
1135.358617,-9178.553681,-962.267725,1072.533697
1135.358938,-9326.594869,-666.185348,1302.362347
1135.359259,-9326.594869,-518.144159,1378.971896
1135.359580,-9252.574275,-740.205942,1149.143247
1135.359901,-9400.615463,-592.164754,1455.581446
1135.360222,-9400.615463,-296.082377,1532.190996
1135.360542,-9474.636058,-222.061783,1532.190996
1135.360863,-9770.718434,-296.082377,1685.410096
1135.361184,-9400.615463,-370.102971,1991.848295
1135.361505,-9622.677246,-740.205942,1302.362347
1135.361826,-9844.739029,-148.041188,1378.971896
1135.362147,-9548.656652,-370.102971,1608.800546
1135.362468,-9918.759623,296.082377,2068.457845
1135.362789,-9770.718434,-592.164754,1838.629195
1135.363110,-9770.718434,-814.226536,1685.410096
1135.363431,-9696.697840,-962.267725,1838.629195
1135.363752,-9548.656652,-814.226536,3064.381992
1135.364072,-9770.718434,-592.164754,1915.238745
1135.364393,-9770.718434,-518.144159,1838.629195
1135.364714,-9844.739029,-666.185348,1455.581446
1135.365035,-9548.656652,-666.185348,1378.971896
1135.365356,-9844.739029,-370.102971,1149.143247
1135.365677,-9770.718434,-444.123565,1225.752797
1135.365998,-9770.718434,-518.144159,1149.143247
1135.366319,-9770.718434,-444.123565,842.705048
1135.366640,-8808.450710,148.041188,306.438199
1135.366961,-9770.718434,-148.041188,612.876398
1135.367281,-9696.697840,0.000000,459.657299
1135.367602,-9696.697840,0.000000,76.609550
1135.367923,-9548.656652,74.020594,-229.828649
1135.368244,-9548.656652,370.102971,-459.657299
1135.368565,-9548.656652,740.205942,-229.828649
1135.368886,-9622.677246,592.164754,306.438199
1135.369207,-9918.759623,148.041188,229.828649
1135.369528,-9474.636058,0.000000,76.609550
1135.369849,-9548.656652,0.000000,229.828649
1135.370170,-9622.677246,0.000000,612.876398
1135.370491,-9622.677246,-296.082377,689.485948
1135.370811,-8882.471304,-370.102971,689.485948
1135.371132,-9400.615463,-148.041188,995.924147
1135.371453,-9400.615463,-444.123565,919.314598
1135.371774,-9400.615463,-962.267725,1072.533697
1135.372095,-9178.553681,-444.123565,1072.533697
1135.372416,-9252.574275,-814.226536,1378.971896
1135.372737,-9400.615463,-666.185348,1608.800546
1135.373058,-9252.574275,-444.123565,1532.190996
1135.373379,-9474.636058,-666.185348,1685.410096
1135.373700,-9326.594869,-592.164754,1302.362347
1135.374021,-9622.677246,-148.041188,1378.971896
1135.374341,-9770.718434,0.000000,995.924147
1135.374662,-9770.718434,0.000000,1225.752797
1135.374983,-9252.574275,0.000000,1072.533697
1135.375304,-9474.636058,148.041188,1072.533697
1135.375625,-9622.677246,0.000000,1532.190996
1135.375946,-9844.739029,0.000000,1455.581446
1135.376267,-9770.718434,222.061783,842.705048
1135.376588,-9696.697840,-666.185348,2068.457845
1135.376909,-9622.677246,-814.226536,2068.457845
1135.377230,-9474.636058,-962.267725,1915.238745
1135.377550,-9474.636058,-1184.329507,2221.676944
1135.377871,-9622.677246,-962.267725,2145.067394
1135.378192,-9474.636058,-1480.411884,1991.848295
1135.378513,-9326.594869,-1332.370696,1991.848295
1135.378834,-9474.636058,-814.226536,1378.971896
1135.379155,-9770.718434,-148.041188,2298.286494
1135.379476,-9548.656652,-370.102971,1225.752797
1135.379797,-9918.759623,-222.061783,612.876398
1135.380118,-9548.656652,222.061783,229.828649
1135.380439,-9622.677246,296.082377,-536.266849
1135.380760,-9770.718434,296.082377,0.000000
1135.381080,-9918.759623,444.123565,0.000000
1135.381401,-9844.739029,370.102971,0.000000
1135.381722,-9622.677246,222.061783,0.000000
1135.382043,-9400.615463,74.020594,0.000000
1135.382364,-9622.677246,0.000000,306.438199
1135.382685,-9696.697840,-148.041188,612.876398
1135.383006,-9548.656652,0.000000,536.266849
1135.383327,-9992.780217,148.041188,919.314598
1135.383648,-9400.615463,-592.164754,1072.533697
1135.383969,-9474.636058,-1036.288319,995.924147
1135.384289,-9178.553681,-1184.329507,1072.533697
1135.384610,-9178.553681,-1258.350101,459.657299
1135.384931,-9400.615463,-740.205942,1378.971896
1135.385252,-9326.594869,-740.205942,1302.362347
1135.385573,-9400.615463,-592.164754,1225.752797
1135.385894,-9474.636058,-444.123565,1225.752797
1135.386215,-9474.636058,0.000000,1838.629195
1135.386536,-9548.656652,-592.164754,1455.581446
1135.386857,-9548.656652,-666.185348,1838.629195
1135.387178,-9474.636058,-666.185348,1685.410096
1135.387499,-10510.924376,0.000000,1378.971896
1135.387819,-9548.656652,-666.185348,1455.581446
1135.388140,-9326.594869,-444.123565,1532.190996
1135.388461,-9696.697840,-296.082377,1378.971896
1135.388782,-9696.697840,1036.288319,1991.848295
1135.389103,-9696.697840,-222.061783,1532.190996
1135.389424,-9992.780217,-296.082377,1685.410096
1135.389745,-9918.759623,-444.123565,1608.800546
1135.390066,-9918.759623,-518.144159,2145.067394
1135.390387,-9770.718434,-666.185348,1762.019645
1135.390708,-9622.677246,-740.205942,1685.410096
1135.391028,-9770.718434,-518.144159,1225.752797
1135.391349,-9548.656652,-518.144159,1225.752797
1135.391670,-10066.800811,0.000000,1608.800546
1135.391991,-9400.615463,-296.082377,766.095498
1135.392312,-9474.636058,-148.041188,459.657299
1135.392633,-9696.697840,0.000000,306.438199
1135.392954,-9918.759623,148.041188,689.485948
1135.393275,-9918.759623,222.061783,229.828649
1135.393596,-9770.718434,296.082377,0.000000
1135.393917,-9622.677246,444.123565,0.000000
1135.394238,-9918.759623,592.164754,0.000000
1135.394558,-9770.718434,518.144159,153.219100
1135.394879,-9622.677246,370.102971,153.219100
1135.395200,-9622.677246,222.061783,76.609550
1135.395521,-9548.656652,0.000000,383.047749
1135.395842,-9844.739029,0.000000,1149.143247
1135.396163,-9622.677246,-296.082377,459.657299
1135.396484,-9622.677246,-444.123565,689.485948
1135.396805,-9400.615463,-666.185348,842.705048
1135.397126,-9326.594869,-296.082377,-153.219100
1135.397447,-9474.636058,-518.144159,1072.533697
1135.397767,-9474.636058,-518.144159,1455.581446
1135.398088,-9474.636058,-370.102971,1455.581446
1135.398409,-9252.574275,-518.144159,1225.752797
1135.398730,-9400.615463,-666.185348,1072.533697
1135.399051,-9104.533087,-296.082377,1302.362347
1135.399372,-9474.636058,-222.061783,1149.143247
1135.399693,-9622.677246,0.000000,1378.971896
1135.400014,-9622.677246,370.102971,1455.581446
1135.400335,-9770.718434,148.041188,1072.533697
1135.400656,-9770.718434,296.082377,1225.752797
1135.400977,-9548.656652,0.000000,1302.362347
1135.401297,-10066.800811,1036.288319,2374.896044
1135.401618,-9844.739029,0.000000,1532.190996
1135.401939,-9696.697840,-74.020594,1838.629195
1135.402260,-9844.739029,-222.061783,2298.286494
1135.402581,-9622.677246,-518.144159,2298.286494
1135.402902,-9622.677246,-740.205942,1991.848295
1135.403223,-9474.636058,-962.267725,2145.067394
1135.403544,-9474.636058,-962.267725,2221.676944
1135.403865,-9474.636058,-888.247130,1685.410096
1135.404186,-9474.636058,-592.164754,1532.190996
1135.404506,-9548.656652,-814.226536,1608.800546
1135.404827,-9474.636058,-666.185348,1149.143247
1135.405148,-9622.677246,-666.185348,995.924147
1135.405469,-10066.800811,-296.082377,1455.581446
1135.405790,-10066.800811,-370.102971,842.705048
1135.406111,-9770.718434,0.000000,612.876398
1135.406431,-9770.718434,0.000000,306.438199
1135.406752,-9844.739029,148.041188,153.219100
1135.407073,-9844.739029,148.041188,0.000000
1135.407393,-9474.636058,222.061783,0.000000
1135.407714,-9622.677246,296.082377,0.000000
1135.408035,-9622.677246,0.000000,0.000000
1135.408355,-9548.656652,-74.020594,0.000000
1135.408676,-9622.677246,-518.144159,229.828649
1135.408997,-9548.656652,-444.123565,1072.533697
1135.409318,-9548.656652,-666.185348,919.314598
1135.409638,-9622.677246,-592.164754,2068.457845
1135.409959,-9474.636058,-666.185348,1225.752797
1135.410280,-9474.636058,-814.226536,1378.971896
1135.410600,-9326.594869,-518.144159,1455.581446
1135.410921,-9474.636058,-592.164754,1225.752797
1135.411242,-9030.512492,-666.185348,1532.190996
1135.411562,-9474.636058,-444.123565,1378.971896
1135.411883,-9252.574275,-592.164754,1378.971896
1135.412204,-9400.615463,-814.226536,1378.971896
1135.412524,-9844.739029,-370.102971,1455.581446
1135.412845,-9474.636058,-814.226536,1378.971896
1135.413166,-9548.656652,-518.144159,1302.362347
1135.413486,-9696.697840,-296.082377,1302.362347
1135.413807,-9844.739029,-444.123565,2451.505594
1135.414128,-9918.759623,-370.102971,1991.848295
1135.414448,-9622.677246,-592.164754,1838.629195
1135.414769,-9696.697840,-666.185348,1685.410096
1135.415090,-9770.718434,-592.164754,1838.629195
1135.415410,-9844.739029,-814.226536,2451.505594
1135.415731,-9770.718434,-1036.288319,1762.019645
1135.416052,-9548.656652,-962.267725,1532.190996
1135.416372,-9474.636058,-740.205942,1378.971896
1135.416693,-9326.594869,0.000000,1685.410096
1135.417014,-9770.718434,-296.082377,1302.362347
1135.417334,-9548.656652,0.000000,842.705048
1135.417655,-9622.677246,0.000000,766.095498
1135.417976,-9622.677246,0.000000,1455.581446
1135.418296,-9622.677246,0.000000,766.095498
1135.418617,-9770.718434,74.020594,459.657299
1135.418938,-9844.739029,74.020594,459.657299
1135.419258,-9622.677246,222.061783,0.000000
1135.419579,-9770.718434,370.102971,153.219100
1135.419900,-9844.739029,592.164754,229.828649
1135.420220,-9548.656652,444.123565,76.609550
1135.420541,-9622.677246,370.102971,306.438199
1135.420862,-9622.677246,444.123565,153.219100
1135.421182,-9622.677246,74.020594,306.438199
1135.421503,-9696.697840,0.000000,612.876398
1135.421824,-9474.636058,-148.041188,995.924147
1135.422144,-9696.697840,-666.185348,306.438199
1135.422465,-9400.615463,-222.061783,842.705048
1135.422786,-9474.636058,-518.144159,1225.752797
1135.423106,-9474.636058,-592.164754,1072.533697
1135.423427,-9548.656652,-444.123565,1302.362347
1135.423748,-9474.636058,-740.205942,1532.190996
1135.424069,-9474.636058,-1036.288319,995.924147
1135.424389,-9252.574275,-1036.288319,1378.971896
1135.424710,-9400.615463,-962.267725,1685.410096
1135.425031,-9400.615463,-888.247130,1455.581446
1135.425351,-9548.656652,-592.164754,1302.362347
1135.425672,-9400.615463,-518.144159,1225.752797
1135.425993,-9696.697840,-370.102971,1225.752797
1135.426313,-9770.718434,74.020594,0.000000
1135.426634,-9918.759623,74.020594,1072.533697
1135.426955,-9844.739029,0.000000,1378.971896
1135.427275,-9770.718434,0.000000,1838.629195
1135.427596,-9992.780217,-296.082377,1915.238745
1135.427917,-9770.718434,-666.185348,1762.019645
1135.428237,-9474.636058,-962.267725,1685.410096
1135.428558,-9770.718434,-814.226536,2145.067394
1135.428879,-9548.656652,-962.267725,1762.019645
1135.429199,-9400.615463,-962.267725,2374.896044
1135.429520,-9548.656652,-962.267725,1838.629195
1135.429841,-9400.615463,-962.267725,1608.800546
1135.430161,-9622.677246,-962.267725,1608.800546
1135.430482,-9104.533087,444.123565,2374.896044
1135.430803,-9696.697840,-444.123565,1225.752797
1135.431123,-9844.739029,0.000000,919.314598
1135.431444,-9696.697840,74.020594,536.266849
1135.431765,-10066.800811,148.041188,459.657299
1135.432085,-9918.759623,666.185348,536.266849
1135.432406,-9844.739029,888.247130,0.000000
1135.432727,-9918.759623,444.123565,-306.438199
1135.433047,-9696.697840,518.144159,-536.266849
1135.433368,-9252.574275,0.000000,-766.095498
1135.433689,-9622.677246,148.041188,0.000000
1135.434009,-9770.718434,0.000000,306.438199
1135.434330,-9474.636058,-222.061783,459.657299
1135.434651,-9474.636058,0.000000,306.438199
1135.434971,-9474.636058,-222.061783,1072.533697
1135.435292,-9400.615463,-740.205942,842.705048
1135.435613,-9400.615463,-962.267725,919.314598
1135.435933,-9178.553681,-962.267725,995.924147
1135.436254,-9178.553681,-740.205942,1072.533697
1135.436575,-9326.594869,-740.205942,1225.752797
1135.436895,-9326.594869,-666.185348,1302.362347
1135.437216,-9326.594869,-666.185348,1455.581446
1135.437537,-9400.615463,-592.164754,2068.457845
1135.437857,-9474.636058,-296.082377,1455.581446
1135.438178,-9696.697840,-222.061783,1685.410096
1135.438499,-9622.677246,-370.102971,1378.971896
1135.438820,-8808.450710,148.041188,1302.362347
1135.439140,-9474.636058,-370.102971,1072.533697
1135.439461,-9622.677246,0.000000,1072.533697
1135.439782,-9770.718434,0.000000,1302.362347
1135.440102,-9992.780217,-74.020594,1455.581446
1135.440423,-9696.697840,-148.041188,1455.581446
1135.440744,-9696.697840,-444.123565,1838.629195
1135.441064,-9622.677246,-518.144159,1608.800546
1135.441385,-9992.780217,-740.205942,1915.238745
1135.441706,-9844.739029,-592.164754,1685.410096
1135.442026,-9770.718434,-888.247130,1532.190996
1135.442347,-9622.677246,-666.185348,1378.971896
1135.442668,-9622.677246,-518.144159,1149.143247
1135.442988,-8660.409521,0.000000,1149.143247
1135.443309,-9548.656652,-74.020594,842.705048
1135.443630,-9548.656652,0.000000,612.876398
1135.443950,-9918.759623,222.061783,536.266849
1135.444271,-9844.739029,222.061783,153.219100
1135.444592,-9770.718434,222.061783,383.047749
1135.444912,-9918.759623,444.123565,153.219100
1135.445233,-9844.739029,296.082377,76.609550
1135.445554,-9844.739029,296.082377,0.000000
1135.445874,-9622.677246,370.102971,0.000000
1135.446195,-9696.697840,222.061783,229.828649
1135.446516,-9770.718434,0.000000,459.657299
1135.446836,-9622.677246,-370.102971,76.609550
1135.447157,-9474.636058,0.000000,1302.362347
1135.447478,-9400.615463,-592.164754,919.314598
1135.447798,-9548.656652,-592.164754,1149.143247
1135.448119,-9400.615463,-592.164754,1072.533697
1135.448440,-9252.574275,-518.144159,612.876398
1135.448760,-9474.636058,-740.205942,995.924147
1135.449081,-9252.574275,-444.123565,1378.971896
1135.449402,-9252.574275,-666.185348,1455.581446
1135.449722,-9252.574275,-740.205942,1455.581446
1135.450043,-9474.636058,-370.102971,1149.143247
1135.450364,-9474.636058,-740.205942,1532.190996
1135.450684,-9474.636058,-370.102971,1455.581446
1135.451005,-9844.739029,-296.082377,1762.019645
1135.451326,-8734.430116,-296.082377,1991.848295
1135.451646,-9474.636058,-148.041188,1455.581446
1135.451967,-9548.656652,0.000000,1302.362347
1135.452288,-9696.697840,0.000000,1072.533697
1135.452608,-9770.718434,-148.041188,1762.019645
1135.452929,-9770.718434,-74.020594,1608.800546
1135.453250,-9844.739029,0.000000,1455.581446
1135.453571,-9770.718434,-148.041188,1762.019645
1135.453891,-9992.780217,-592.164754,1685.410096
1135.454212,-9992.780217,-666.185348,1685.410096
1135.454533,-9622.677246,-1036.288319,1915.238745
1135.454853,-9474.636058,-1258.350101,1915.238745
1135.455174,-9474.636058,-1184.329507,1838.629195
1135.455495,-9548.656652,-1332.370696,1991.848295
1135.455815,-9400.615463,-1110.308913,1762.019645
1135.456136,-9474.636058,-888.247130,1302.362347
1135.456457,-9548.656652,-814.226536,689.485948
1135.456777,-9622.677246,-222.061783,1225.752797
1135.457098,-9622.677246,0.000000,383.047749
1135.457419,-9696.697840,74.020594,153.219100
1135.457739,-9770.718434,444.123565,0.000000
1135.458060,-9844.739029,296.082377,-153.219100
1135.458381,-9696.697840,740.205942,-306.438199
1135.458701,-9844.739029,148.041188,0.000000
1135.459022,-9918.759623,296.082377,0.000000
1135.459343,-9770.718434,0.000000,0.000000
1135.459663,-8882.471304,74.020594,-383.047749
1135.459984,-9622.677246,0.000000,306.438199
1135.460305,-9326.594869,-518.144159,766.095498
1135.460625,-9474.636058,-888.247130,995.924147
1135.460946,-9178.553681,-518.144159,2834.553343
1135.461267,-9030.512492,-1110.308913,919.314598
1135.461587,-9104.533087,-1110.308913,1149.143247
1135.461908,-9178.553681,-666.185348,1455.581446
1135.462229,-9104.533087,-666.185348,1685.410096
1135.462549,-9104.533087,-370.102971,1991.848295
1135.462870,-9622.677246,-296.082377,1532.190996
1135.463191,-9400.615463,-444.123565,2145.067394
1135.463511,-9770.718434,-592.164754,1685.410096
1135.463832,-9844.739029,-296.082377,2757.943793
1135.464153,-9548.656652,-296.082377,1838.629195
1135.464473,-9474.636058,-148.041188,1532.190996
1135.464794,-9474.636058,-296.082377,1302.362347
1135.465115,-9992.780217,0.000000,1915.238745
1135.465435,-9770.718434,-222.061783,1991.848295
1135.465756,-9770.718434,-222.061783,2068.457845
1135.466077,-9844.739029,-444.123565,1991.848295
1135.466397,-9918.759623,-666.185348,2145.067394
1135.466718,-9918.759623,-888.247130,2068.457845
1135.467039,-9696.697840,-962.267725,2374.896044
1135.467359,-9770.718434,-888.247130,1991.848295
1135.467680,-9770.718434,-814.226536,2068.457845
1135.468001,-9548.656652,-814.226536,1072.533697
1135.468322,-9548.656652,-444.123565,1532.190996
1135.468642,-9622.677246,-296.082377,1225.752797
1135.468963,-9474.636058,-296.082377,766.095498
1135.469284,-9918.759623,-370.102971,1072.533697
1135.469604,-9696.697840,-148.041188,995.924147
1135.469925,-9548.656652,-74.020594,306.438199
1135.470246,-9844.739029,74.020594,459.657299
1135.470566,-9918.759623,222.061783,383.047749
1135.470887,-9918.759623,222.061783,536.266849
1135.471208,-9770.718434,518.144159,0.000000
1135.471528,-9844.739029,740.205942,-229.828649
1135.471849,-9622.677246,444.123565,229.828649
1135.472170,-9178.553681,0.000000,459.657299
1135.472490,-9474.636058,0.000000,0.000000
1135.472811,-9400.615463,-148.041188,0.000000
1135.473132,-9474.636058,0.000000,0.000000
1135.473452,-9992.780217,370.102971,995.924147
1135.473773,-9400.615463,-592.164754,536.266849
1135.474094,-9400.615463,-666.185348,766.095498
1135.474414,-9326.594869,-962.267725,689.485948
1135.474735,-9326.594869,-814.226536,1149.143247
1135.475056,-9474.636058,-962.267725,1378.971896
1135.475376,-9178.553681,-962.267725,1378.971896
1135.475697,-9326.594869,-814.226536,1225.752797
1135.476018,-9400.615463,-592.164754,1225.752797
1135.476338,-9548.656652,-148.041188,1225.752797
1135.476659,-9548.656652,-444.123565,1149.143247
1135.476980,-9474.636058,0.000000,1072.533697
1135.477300,-9548.656652,0.000000,1378.971896
1135.477621,-9474.636058,-222.061783,995.924147
1135.477942,-9696.697840,148.041188,1149.143247
1135.478262,-9696.697840,0.000000,1302.362347
1135.478583,-10066.800811,0.000000,1455.581446
1135.478904,-9992.780217,-74.020594,2068.457845
1135.479224,-9918.759623,-370.102971,1838.629195
1135.479545,-9844.739029,-444.123565,2068.457845
1135.479866,-9844.739029,-666.185348,2145.067394
1135.480186,-9622.677246,-666.185348,2221.676944
1135.480507,-9474.636058,-1110.308913,1915.238745
1135.480828,-9400.615463,-1110.308913,2145.067394
1135.481148,-9474.636058,-1110.308913,1838.629195
1135.481469,-9622.677246,-888.247130,1762.019645
1135.481790,-8882.471304,-740.205942,2757.943793
1135.482110,-9548.656652,-592.164754,1302.362347
1135.482431,-9622.677246,-222.061783,1302.362347
1135.482752,-9696.697840,-148.041188,842.705048
1135.483073,-9770.718434,0.000000,229.828649
1135.483393,-10066.800811,148.041188,459.657299
1135.483714,-9992.780217,370.102971,383.047749
1135.484035,-10066.800811,592.164754,-229.828649
1135.484355,-9622.677246,518.144159,0.000000
1135.484676,-9474.636058,370.102971,0.000000
1135.484997,-9696.697840,222.061783,0.000000
1135.485317,-9548.656652,0.000000,-153.219100
1135.485638,-9474.636058,-296.082377,536.266849
1135.485959,-9178.553681,518.144159,1225.752797
1135.486279,-9474.636058,-444.123565,536.266849
1135.486600,-9252.574275,-666.185348,1072.533697
1135.486921,-9178.553681,-888.247130,1072.533697
1135.487241,-9252.574275,-592.164754,2298.286494
1135.487562,-9252.574275,-666.185348,1532.190996
1135.487883,-9474.636058,-592.164754,1838.629195
1135.488203,-9326.594869,-888.247130,1378.971896
1135.488524,-9178.553681,-666.185348,1225.752797
1135.488845,-9030.512492,-814.226536,1149.143247
1135.489165,-9252.574275,-444.123565,1685.410096
1135.489486,-9622.677246,-592.164754,1149.143247
1135.489807,-9548.656652,-370.102971,1302.362347
1135.490127,-9326.594869,-370.102971,1608.800546
1135.490448,-9844.739029,-148.041188,1149.143247
1135.490769,-9622.677246,-148.041188,1149.143247
1135.491089,-9918.759623,0.000000,1225.752797
1135.491410,-9770.718434,592.164754,2221.676944
1135.491731,-9918.759623,-592.164754,1762.019645
1135.492051,-9918.759623,-740.205942,1991.848295
1135.492372,-9844.739029,-518.144159,1915.238745
1135.492693,-9770.718434,-518.144159,1915.238745
1135.493013,-9770.718434,-592.164754,1915.238745
1135.493334,-9622.677246,-814.226536,1455.581446
1135.493655,-9696.697840,-740.205942,1378.971896
1135.493975,-9622.677246,-592.164754,1302.362347
1135.494296,-9622.677246,-592.164754,766.095498
1135.494617,-9548.656652,-296.082377,1225.752797
1135.494937,-9696.697840,0.000000,842.705048
1135.495258,-9696.697840,-296.082377,919.314598
1135.495579,-9696.697840,74.020594,1532.190996
1135.495899,-9918.759623,0.000000,612.876398
1135.496220,-9918.759623,222.061783,536.266849
1135.496541,-9622.677246,148.041188,153.219100
1135.496861,-9622.677246,296.082377,536.266849
1135.497182,-9252.574275,74.020594,229.828649
1135.497503,-9622.677246,296.082377,0.000000
1135.497823,-9474.636058,0.000000,383.047749
1135.498144,-9474.636058,-518.144159,0.000000
1135.498465,-8660.409521,-592.164754,153.219100
1135.498786,-9252.574275,-518.144159,536.266849
1135.499106,-9474.636058,-592.164754,919.314598
1135.499427,-9474.636058,-592.164754,1225.752797
1135.499748,-9252.574275,-296.082377,1149.143247
1135.500068,-9474.636058,-444.123565,995.924147
1135.500389,-9474.636058,-666.185348,1302.362347
1135.500710,-9326.594869,-888.247130,1685.410096
1135.501030,-9474.636058,-814.226536,1149.143247
1135.501351,-9400.615463,-444.123565,1838.629195
1135.501672,-9252.574275,-888.247130,1225.752797
1135.501992,-9252.574275,-1036.288319,1378.971896
1135.502313,-9474.636058,-814.226536,1225.752797
1135.502634,-9696.697840,-814.226536,995.924147
1135.502954,-9622.677246,-370.102971,1149.143247
1135.503275,-9622.677246,-222.061783,1072.533697
1135.503596,-9622.677246,0.000000,919.314598
1135.503916,-9918.759623,222.061783,842.705048
1135.504237,-9696.697840,74.020594,1149.143247
1135.504558,-10066.800811,-222.061783,1302.362347
1135.504878,-9844.739029,0.000000,1685.410096
1135.505199,-9918.759623,-518.144159,1685.410096
1135.505514,-9844.739029,-814.226536,2068.457845
1135.505835,-9844.739029,-740.205942,1608.800546
1135.506156,-9770.718434,-888.247130,1991.848295
1135.506477,-9474.636058,-1332.370696,1838.629195
1135.506797,-9548.656652,-1332.370696,1455.581446
1135.507118,-9474.636058,-1036.288319,1608.800546
1135.507439,-9474.636058,-814.226536,1455.581446
1135.507760,-9474.636058,-444.123565,919.314598
1135.508081,-9622.677246,0.000000,842.705048
1135.508402,-9696.697840,0.000000,842.705048
1135.508723,-9844.739029,296.082377,536.266849
1135.509043,-9770.718434,444.123565,306.438199
1135.509364,-9992.780217,592.164754,0.000000
1135.509685,-9770.718434,518.144159,0.000000
1135.510006,-9992.780217,518.144159,76.609550
1135.510327,-9770.718434,296.082377,229.828649
1135.510648,-9696.697840,296.082377,76.609550
1135.510968,-9844.739029,-444.123565,459.657299
1135.511289,-9474.636058,-296.082377,536.266849
1135.511610,-9770.718434,-740.205942,689.485948
1135.511931,-9400.615463,-740.205942,919.314598
1135.512252,-9326.594869,-814.226536,1378.971896
1135.512573,-9178.553681,-962.267725,1455.581446
1135.512894,-9178.553681,-1184.329507,1149.143247
1135.513214,-9326.594869,-962.267725,1762.019645
1135.513535,-9178.553681,-592.164754,1455.581446
1135.513856,-9474.636058,-518.144159,1915.238745
1135.514177,-9474.636058,-518.144159,1762.019645
1135.514498,-9326.594869,-444.123565,1378.971896
1135.514819,-9474.636058,-296.082377,1455.581446
1135.515139,-9844.739029,-814.226536,1455.581446
1135.515460,-9548.656652,-444.123565,1532.190996
1135.515781,-9474.636058,-444.123565,1532.190996
1135.516102,-9548.656652,-222.061783,1532.190996
1135.516423,-9992.780217,0.000000,1762.019645
1135.516744,-9770.718434,-74.020594,1685.410096
1135.517065,-9770.718434,-370.102971,1532.190996
1135.517385,-9696.697840,-296.082377,1455.581446
1135.517706,-9918.759623,-148.041188,1838.629195
1135.518027,-10066.800811,0.000000,1838.629195
1135.518348,-9844.739029,-296.082377,1838.629195
1135.518669,-9696.697840,-592.164754,1685.410096
1135.518990,-9696.697840,-592.164754,1685.410096
1135.519310,-9548.656652,-888.247130,459.657299
1135.519631,-9548.656652,-666.185348,1302.362347
1135.519952,-9622.677246,-740.205942,995.924147
1135.520273,-9474.636058,-518.144159,1225.752797
1135.520594,-9696.697840,-666.185348,153.219100
1135.520915,-9696.697840,-370.102971,842.705048
1135.521236,-9474.636058,-444.123565,612.876398
1135.521556,-9696.697840,-370.102971,0.000000
1135.521877,-9622.677246,0.000000,229.828649
1135.522198,-9622.677246,148.041188,0.000000
1135.522519,-9696.697840,222.061783,0.000000
1135.522840,-9770.718434,518.144159,306.438199
1135.523161,-9474.636058,296.082377,0.000000
1135.523481,-9548.656652,-222.061783,0.000000
1135.523802,-9696.697840,222.061783,229.828649
1135.524123,-9548.656652,-148.041188,612.876398
1135.524444,-9474.636058,-148.041188,383.047749
1135.524765,-9474.636058,-370.102971,766.095498
1135.525086,-9400.615463,-444.123565,612.876398
1135.525407,-9400.615463,-518.144159,995.924147
1135.525727,-9326.594869,-740.205942,1149.143247
1135.526048,-9326.594869,-592.164754,1225.752797
1135.526369,-9104.533087,-296.082377,1838.629195
1135.526690,-9474.636058,-518.144159,1532.190996
1135.527011,-9474.636058,-666.185348,1455.581446
1135.527332,-9474.636058,-592.164754,1838.629195
1135.527652,-9474.636058,-444.123565,1455.581446
1135.527973,-9696.697840,-370.102971,1225.752797
1135.528294,-9548.656652,-370.102971,1072.533697
1135.528615,-9548.656652,0.000000,1149.143247
1135.528936,-9622.677246,0.000000,1072.533697
1135.529257,-9696.697840,-296.082377,995.924147
1135.529578,-9696.697840,0.000000,1149.143247
1135.529898,-9770.718434,148.041188,919.314598
1135.530219,-9918.759623,0.000000,1149.143247
1135.530540,-9770.718434,-370.102971,1378.971896
1135.530861,-9548.656652,-370.102971,1455.581446
1135.531182,-10066.800811,-592.164754,2068.457845
1135.531503,-9770.718434,-814.226536,2298.286494
1135.531823,-9548.656652,-962.267725,2451.505594
1135.532144,-9326.594869,-1702.473667,1608.800546
1135.532465,-9474.636058,-1110.308913,1838.629195
1135.532786,-9400.615463,-1110.308913,1915.238745
1135.533107,-9400.615463,-888.247130,1685.410096
1135.533428,-9178.553681,-740.205942,766.095498
1135.533749,-9474.636058,-444.123565,1072.533697
1135.534069,-9474.636058,0.000000,689.485948
1135.534390,-9770.718434,148.041188,536.266849
1135.534711,-9696.697840,222.061783,153.219100
1135.535032,-9696.697840,518.144159,536.266849
1135.535353,-9770.718434,666.185348,229.828649
1135.535674,-9696.697840,740.205942,76.609550
1135.535994,-9548.656652,666.185348,76.609550
1135.536315,-9252.574275,0.000000,-383.047749
1135.536636,-9474.636058,74.020594,0.000000
1135.536957,-9622.677246,-518.144159,229.828649
1135.537278,-9474.636058,-370.102971,76.609550
1135.537599,-9622.677246,0.000000,2068.457845
1135.537919,-9474.636058,-592.164754,1072.533697
1135.538240,-9178.553681,-888.247130,1072.533697
1135.538561,-9474.636058,-962.267725,1149.143247
1135.538882,-9326.594869,-888.247130,1378.971896
1135.539203,-9548.656652,-888.247130,1225.752797
1135.539524,-9474.636058,-740.205942,1762.019645
1135.539845,-9474.636058,-518.144159,1455.581446
1135.540165,-9474.636058,-444.123565,1685.410096
1135.540486,-9030.512492,-666.185348,1225.752797
1135.540807,-9696.697840,-666.185348,1915.238745
1135.541128,-9770.718434,-666.185348,1302.362347
1135.541449,-9474.636058,-592.164754,1455.581446
1135.541770,-8882.471304,0.000000,1762.019645
1135.542090,-9474.636058,0.000000,1455.581446
1135.542411,-9622.677246,0.000000,1455.581446
1135.542732,-9770.718434,-518.144159,1302.362347
1135.543053,-9622.677246,-814.226536,1149.143247
1135.543374,-10214.842000,-518.144159,1532.190996
1135.543695,-9918.759623,-592.164754,1915.238745
1135.544016,-9622.677246,-518.144159,1532.190996
1135.544336,-9622.677246,-666.185348,1608.800546
1135.544657,-9844.739029,-592.164754,1072.533697
1135.544978,-9844.739029,-666.185348,1532.190996
1135.545299,-9770.718434,-518.144159,1378.971896
1135.545620,-9474.636058,-370.102971,1378.971896
1135.545941,-9696.697840,-592.164754,306.438199
1135.546261,-9474.636058,0.000000,689.485948
1135.546582,-9622.677246,0.000000,383.047749
1135.546903,-9474.636058,0.000000,306.438199
1135.547224,-9548.656652,0.000000,306.438199
1135.547545,-9622.677246,0.000000,306.438199
1135.547866,-9696.697840,296.082377,459.657299
1135.548187,-9918.759623,222.061783,383.047749
1135.548507,-9622.677246,296.082377,842.705048
1135.548828,-9474.636058,296.082377,612.876398
1135.549149,-9770.718434,0.000000,995.924147
1135.549470,-9548.656652,74.020594,919.314598
1135.549791,-9548.656652,-222.061783,1378.971896
1135.550112,-9400.615463,-740.205942,1225.752797
1135.550432,-9474.636058,-444.123565,1302.362347
1135.550753,-9474.636058,-296.082377,1302.362347
1135.551074,-9252.574275,-592.164754,1302.362347
1135.551395,-9326.594869,-1036.288319,1685.410096
1135.551716,-9400.615463,-888.247130,1762.019645
1135.552037,-9474.636058,-888.247130,1608.800546
1135.552358,-9548.656652,-888.247130,1991.848295
1135.552678,-9474.636058,-592.164754,1915.238745
1135.552999,-9030.512492,-1702.473667,919.314598
1135.553320,-9252.574275,-666.185348,1685.410096
1135.553641,-9548.656652,-592.164754,1302.362347
1135.553962,-9474.636058,-518.144159,1302.362347
1135.554283,-9548.656652,0.000000,919.314598
1135.554603,-9696.697840,0.000000,995.924147
1135.554924,-9770.718434,222.061783,766.095498
1135.555245,-9622.677246,148.041188,459.657299
1135.555566,-10066.800811,-148.041188,612.876398
1135.555887,-10436.903782,444.123565,689.485948
1135.556208,-9992.780217,-518.144159,1149.143247
1135.556529,-9918.759623,-370.102971,1225.752797
1135.556849,-9918.759623,-962.267725,1072.533697
1135.557170,-9252.574275,-888.247130,2221.676944
1135.557491,-9770.718434,-888.247130,1225.752797
1135.557812,-9548.656652,-1110.308913,1225.752797
1135.558133,-9474.636058,-1258.350101,1149.143247
1135.558454,-9400.615463,-1036.288319,995.924147
1135.558774,-9474.636058,-888.247130,689.485948
1135.559095,-9400.615463,-740.205942,306.438199
1135.559416,-9548.656652,-518.144159,76.609550
1135.559737,-9474.636058,-296.082377,0.000000
1135.560058,-9548.656652,0.000000,-229.828649
1135.560379,-9770.718434,148.041188,0.000000
1135.560700,-9844.739029,222.061783,-229.828649
1135.561020,-9918.759623,666.185348,0.000000
1135.561341,-9400.615463,888.247130,-842.705048
1135.561662,-9548.656652,888.247130,0.000000
1135.561983,-9548.656652,444.123565,0.000000
1135.562304,-9548.656652,370.102971,153.219100
1135.562625,-9474.636058,0.000000,306.438199
1135.562945,-9622.677246,0.000000,459.657299
1135.563266,-9474.636058,-148.041188,1072.533697
1135.563587,-9474.636058,-222.061783,1302.362347
1135.563908,-9474.636058,-592.164754,1532.190996
1135.564229,-9474.636058,-592.164754,1915.238745
1135.564550,-9252.574275,-592.164754,1915.238745
1135.564871,-9474.636058,-666.185348,1991.848295
1135.565191,-9400.615463,-592.164754,2068.457845
1135.565512,-9400.615463,-1406.391290,0.000000
1135.565833,-9400.615463,-740.205942,2221.676944
1135.566154,-9400.615463,-592.164754,1991.848295
1135.566475,-9474.636058,-666.185348,2145.067394
1135.566796,-9474.636058,-592.164754,2298.286494
1135.567116,-9622.677246,-444.123565,1991.848295
1135.567437,-9622.677246,-518.144159,2068.457845
1135.567758,-9474.636058,-222.061783,1915.238745
1135.568079,-9548.656652,-444.123565,2145.067394
1135.568400,-9400.615463,-444.123565,919.314598
1135.568721,-9844.739029,-444.123565,1838.629195
1135.569042,-9918.759623,-444.123565,1915.238745
1135.569362,-9622.677246,-518.144159,2145.067394
1135.569683,-9474.636058,-518.144159,1991.848295
1135.570004,-9770.718434,-740.205942,1838.629195
1135.570325,-9548.656652,-814.226536,1685.410096
1135.570646,-9548.656652,-666.185348,1532.190996
1135.570967,-9474.636058,-740.205942,995.924147
1135.571287,-9030.512492,-592.164754,383.047749
1135.571608,-9474.636058,-296.082377,919.314598
1135.571929,-9622.677246,0.000000,536.266849
1135.572250,-9400.615463,-148.041188,0.000000
1135.572571,-9622.677246,0.000000,0.000000
1135.572892,-9696.697840,0.000000,0.000000
1135.573213,-9844.739029,0.000000,-383.047749
1135.573533,-9844.739029,0.000000,-612.876398
1135.573854,-9770.718434,592.164754,612.876398
1135.574175,-9696.697840,518.144159,-383.047749
1135.574496,-9844.739029,296.082377,-459.657299
1135.574817,-9548.656652,370.102971,-229.828649
1135.575138,-9696.697840,0.000000,0.000000
1135.575458,-9770.718434,-148.041188,76.609550
1135.575779,-9622.677246,-518.144159,306.438199
1135.576100,-9622.677246,-814.226536,842.705048
1135.576421,-9474.636058,-888.247130,919.314598
1135.576742,-9474.636058,-666.185348,2374.896044
1135.577063,-9474.636058,-592.164754,1149.143247
1135.577384,-9252.574275,-740.205942,1532.190996
1135.577704,-9400.615463,-518.144159,1608.800546
1135.578025,-9474.636058,296.082377,1608.800546
1135.578346,-9474.636058,-370.102971,1838.629195
1135.578667,-9326.594869,-370.102971,1915.238745
1135.578988,-9474.636058,-444.123565,1608.800546
1135.579309,-9474.636058,-296.082377,1762.019645
1135.579629,-9474.636058,-222.061783,2068.457845
1135.579950,-9622.677246,0.000000,1608.800546
1135.580271,-9548.656652,74.020594,1838.629195
1135.580592,-9474.636058,74.020594,1532.190996
1135.580913,-9770.718434,-148.041188,1608.800546
1135.581234,-9770.718434,-296.082377,1685.410096
1135.581555,-9770.718434,-370.102971,1915.238745
1135.581875,-9696.697840,-444.123565,1991.848295
1135.582196,-9622.677246,-370.102971,1149.143247
1135.582517,-9548.656652,-666.185348,2145.067394
1135.582838,-9622.677246,-666.185348,2298.286494
1135.583159,-9696.697840,-814.226536,2145.067394
1135.583480,-9400.615463,-962.267725,1915.238745
1135.583800,-9474.636058,-1110.308913,1608.800546
1135.584121,-9622.677246,-962.267725,1302.362347
1135.584442,-9474.636058,-1036.288319,1225.752797
1135.584763,-9400.615463,-1036.288319,1149.143247
1135.585084,-9178.553681,-740.205942,919.314598
1135.585405,-9474.636058,-222.061783,459.657299
1135.585726,-9770.718434,-74.020594,383.047749
1135.586046,-9696.697840,0.000000,306.438199
1135.586367,-9474.636058,370.102971,-1149.143247
1135.586688,-9770.718434,370.102971,-459.657299
1135.587009,-9844.739029,518.144159,-229.828649
1135.587330,-9770.718434,666.185348,-459.657299
1135.587651,-9918.759623,518.144159,-689.485948
1135.587971,-9918.759623,444.123565,-536.266849
1135.588292,-9622.677246,74.020594,-153.219100
1135.588613,-9696.697840,74.020594,229.828649
1135.588934,-9918.759623,0.000000,612.876398
1135.589255,-9548.656652,0.000000,1838.629195
1135.589576,-9474.636058,-518.144159,1149.143247
1135.589896,-9326.594869,-592.164754,1072.533697
1135.590217,-9326.594869,-888.247130,1225.752797
1135.590538,-9178.553681,74.020594,76.609550
1135.590859,-9178.553681,-666.185348,1225.752797
1135.591180,-9326.594869,-296.082377,1302.362347
1135.591501,-9400.615463,-740.205942,1532.190996
1135.591822,-9474.636058,-592.164754,1685.410096
1135.592142,-9622.677246,-444.123565,1685.410096
1135.592463,-9622.677246,-592.164754,1762.019645
1135.592784,-9770.718434,-148.041188,1838.629195
1135.593105,-9548.656652,-518.144159,1838.629195
1135.593426,-9474.636058,0.000000,2451.505594
1135.593747,-9696.697840,-222.061783,2221.676944
1135.594067,-9622.677246,-296.082377,1838.629195
1135.594388,-9622.677246,-444.123565,2298.286494
1135.594709,-9770.718434,-888.247130,1378.971896
1135.595030,-9548.656652,-1110.308913,2145.067394
1135.595351,-9474.636058,-1036.288319,1762.019645
1135.595672,-9770.718434,-888.247130,2374.896044
1135.595993,-9474.636058,-888.247130,1915.238745
1135.596313,-9548.656652,-1036.288319,2221.676944
1135.596634,-9474.636058,-888.247130,1685.410096
1135.596955,-9622.677246,-444.123565,1302.362347
1135.597276,-9622.677246,-148.041188,1302.362347
1135.597597,-9474.636058,222.061783,919.314598
1135.597918,-9918.759623,222.061783,689.485948
1135.598238,-9548.656652,0.000000,229.828649
1135.598559,-9622.677246,148.041188,306.438199
1135.598880,-9696.697840,0.000000,0.000000
1135.599201,-9474.636058,296.082377,-612.876398
1135.599522,-9918.759623,74.020594,-383.047749
1135.599843,-9474.636058,666.185348,-229.828649
1135.600164,-9992.780217,518.144159,-229.828649
1135.600484,-9992.780217,296.082377,-229.828649
1135.600805,-9548.656652,-222.061783,76.609550
1135.601126,-9622.677246,-222.061783,153.219100
1135.601447,-9622.677246,-222.061783,536.266849
1135.601768,-9326.594869,-592.164754,1685.410096
1135.602089,-9548.656652,-592.164754,1149.143247
1135.602409,-9400.615463,-518.144159,612.876398
1135.602730,-9178.553681,-962.267725,689.485948
1135.603051,-9178.553681,-1110.308913,-536.266849
1135.603372,-9178.553681,-1110.308913,689.485948
1135.603693,-9030.512492,-962.267725,842.705048
1135.604014,-9400.615463,-888.247130,919.314598
1135.604335,-9400.615463,-740.205942,1378.971896
1135.604655,-9474.636058,-518.144159,3294.210641
1135.604976,-9770.718434,-666.185348,1608.800546
1135.605297,-9770.718434,-518.144159,1225.752797
1135.605618,-9548.656652,-148.041188,1378.971896
1135.605939,-9696.697840,0.000000,1378.971896
1135.606260,-9696.697840,74.020594,1685.410096
1135.606580,-9622.677246,74.020594,1302.362347
1135.606901,-9622.677246,0.000000,1455.581446
1135.607222,-9622.677246,0.000000,1532.190996
1135.607543,-9474.636058,-518.144159,1838.629195
1135.607864,-9548.656652,-444.123565,1991.848295
1135.608185,-9918.759623,-740.205942,2068.457845
1135.608505,-9770.718434,-592.164754,2221.676944
1135.608826,-9770.718434,-962.267725,2451.505594
1135.609147,-9770.718434,-962.267725,2374.896044
1135.609468,-9696.697840,-962.267725,2298.286494
1135.609789,-9992.780217,-592.164754,2298.286494
1135.610109,-9622.677246,-740.205942,1915.238745
1135.610430,-9474.636058,-1036.288319,2068.457845
1135.610751,-9548.656652,-444.123565,1378.971896
1135.611072,-9474.636058,-222.061783,766.095498
1135.611392,-9622.677246,74.020594,536.266849
1135.611713,-9696.697840,0.000000,689.485948
1135.612034,-9770.718434,0.000000,0.000000
1135.612355,-9918.759623,74.020594,229.828649
1135.612676,-10066.800811,444.123565,153.219100
1135.612996,-9844.739029,518.144159,306.438199
1135.613317,-9178.553681,814.226536,1302.362347
1135.613638,-9918.759623,148.041188,0.000000
1135.613959,-9770.718434,0.000000,0.000000
1135.614279,-9474.636058,0.000000,536.266849
1135.614600,-9326.594869,-222.061783,383.047749
1135.614921,-9474.636058,-518.144159,383.047749
1135.615242,-9178.553681,-740.205942,766.095498
1135.615563,-9178.553681,-740.205942,919.314598
1135.615883,-9400.615463,-962.267725,842.705048
1135.616204,-8734.430116,-1110.308913,1455.581446
1135.616525,-9252.574275,-518.144159,1455.581446
1135.616846,-9474.636058,-592.164754,1149.143247
1135.617166,-9474.636058,-296.082377,1072.533697
1135.617487,-9326.594869,-518.144159,2451.505594
1135.617808,-9548.656652,-370.102971,1149.143247
1135.618129,-9770.718434,-296.082377,1455.581446
1135.618450,-9770.718434,-370.102971,1149.143247
1135.618770,-9474.636058,-74.020594,919.314598
1135.619091,-9548.656652,-222.061783,612.876398
1135.619412,-9622.677246,0.000000,1149.143247
1135.619733,-9622.677246,-370.102971,1302.362347
1135.620053,-9770.718434,-518.144159,1532.190996
1135.620374,-9178.553681,-814.226536,612.876398
1135.620695,-9622.677246,-888.247130,1532.190996
1135.621016,-9770.718434,-814.226536,1762.019645
1135.621337,-9696.697840,-1110.308913,1838.629195
1135.621657,-9030.512492,-296.082377,2451.505594
1135.621978,-9474.636058,-814.226536,1685.410096
1135.622299,-9770.718434,-592.164754,1225.752797
1135.622620,-9548.656652,-518.144159,1378.971896
1135.622941,-9548.656652,-296.082377,1149.143247
1135.623261,-9622.677246,0.000000,995.924147
1135.623582,-9474.636058,-296.082377,919.314598
1135.623903,-9474.636058,0.000000,842.705048
1135.624224,-9474.636058,74.020594,766.095498
1135.624544,-9918.759623,296.082377,536.266849
1135.624865,-9992.780217,0.000000,766.095498
1135.625186,-9844.739029,0.000000,536.266849
1135.625507,-10066.800811,0.000000,766.095498
1135.625828,-9696.697840,74.020594,153.219100
1135.626148,-9918.759623,0.000000,689.485948
1135.626469,-9622.677246,-222.061783,536.266849
1135.626790,-9474.636058,0.000000,689.485948
1135.627111,-9548.656652,-296.082377,995.924147
1135.627431,-9474.636058,0.000000,995.924147
1135.627752,-9622.677246,-148.041188,1072.533697
1135.628073,-9474.636058,-370.102971,1072.533697
1135.628394,-9252.574275,-296.082377,1149.143247
1135.628715,-9622.677246,-222.061783,1685.410096
1135.629035,-9252.574275,-518.144159,1685.410096
1135.629356,-9400.615463,-814.226536,1455.581446
1135.629677,-9400.615463,-666.185348,1225.752797
1135.629998,-9548.656652,-1036.288319,1532.190996
1135.630318,-9474.636058,-888.247130,1608.800546
1135.630639,-9622.677246,-740.205942,1838.629195
1135.630960,-9474.636058,-888.247130,1149.143247
1135.631281,-9474.636058,-518.144159,1378.971896
1135.631602,-9474.636058,-148.041188,689.485948
1135.631922,-9548.656652,74.020594,1072.533697
1135.632243,-9696.697840,0.000000,1072.533697
1135.632564,-9844.739029,222.061783,766.095498
1135.632885,-9326.594869,0.000000,612.876398
1135.633205,-9770.718434,0.000000,842.705048
1135.633526,-9918.759623,0.000000,1455.581446
1135.633847,-9770.718434,-444.123565,1685.410096
1135.634168,-9622.677246,-296.082377,995.924147
1135.634489,-9696.697840,-740.205942,1991.848295
1135.634809,-9770.718434,-1110.308913,1915.238745
1135.635130,-9622.677246,-962.267725,1532.190996
1135.635451,-9474.636058,-814.226536,1378.971896
1135.635772,-9252.574275,-962.267725,1149.143247
1135.636092,-9400.615463,-518.144159,919.314598
1135.636413,-9474.636058,-518.144159,766.095498
1135.636734,-9622.677246,-222.061783,612.876398
1135.637055,-9622.677246,-148.041188,536.266849
1135.637376,-9770.718434,222.061783,229.828649
1135.637696,-9844.739029,666.185348,0.000000
1135.638017,-10066.800811,962.267725,0.000000
1135.638338,-9770.718434,592.164754,229.828649
1135.638659,-9992.780217,518.144159,76.609550
1135.638980,-9992.780217,0.000000,-153.219100
1135.639300,-9548.656652,-148.041188,0.000000
1135.639621,-9622.677246,-370.102971,153.219100
1135.639942,-9548.656652,-518.144159,842.705048
1135.640263,-9252.574275,-592.164754,842.705048
1135.640583,-9400.615463,-740.205942,1149.143247
1135.640904,-9252.574275,-962.267725,1149.143247
1135.641225,-9474.636058,-666.185348,995.924147
1135.641546,-9178.553681,-518.144159,1302.362347
1135.641867,-9030.512492,-444.123565,1149.143247
1135.642187,-9252.574275,-370.102971,1378.971896
1135.642508,-8586.388927,-74.020594,2757.943793
1135.642829,-9252.574275,-370.102971,1378.971896
1135.643150,-9474.636058,-444.123565,1608.800546
1135.643470,-9474.636058,-592.164754,1532.190996
1135.643791,-9844.739029,-444.123565,1838.629195
1135.644112,-9548.656652,-296.082377,1838.629195
1135.644433,-9548.656652,-370.102971,1762.019645
1135.644754,-9622.677246,-370.102971,1532.190996
1135.645074,-9622.677246,-666.185348,1455.581446
1135.645395,-9474.636058,-222.061783,1915.238745
1135.645716,-9474.636058,-592.164754,1608.800546
1135.646037,-9696.697840,-518.144159,1455.581446
1135.646357,-9696.697840,-444.123565,1685.410096
1135.646678,-9696.697840,222.061783,2374.896044
1135.646999,-9622.677246,-888.247130,1532.190996
1135.647320,-9548.656652,-962.267725,1685.410096
1135.647641,-9844.739029,-740.205942,1455.581446
1135.647961,-9844.739029,-888.247130,1532.190996
1135.648282,-9696.697840,-962.267725,1685.410096
1135.648603,-9844.739029,-740.205942,995.924147
1135.648924,-9474.636058,-592.164754,842.705048
1135.649244,-9696.697840,-666.185348,689.485948
1135.649565,-9178.553681,-444.123565,995.924147
1135.649886,-9474.636058,-296.082377,0.000000
1135.650207,-9474.636058,-148.041188,153.219100
1135.650528,-9696.697840,-148.041188,0.000000
1135.650848,-10066.800811,666.185348,-536.266849
1135.651169,-9474.636058,222.061783,-229.828649
1135.651490,-9844.739029,222.061783,0.000000
1135.651811,-9770.718434,222.061783,76.609550
1135.652131,-9696.697840,370.102971,153.219100
1135.652452,-9770.718434,0.000000,153.219100
1135.652773,-9770.718434,-296.082377,689.485948
1135.653094,-9696.697840,-222.061783,689.485948
1135.653415,-9696.697840,-296.082377,919.314598
1135.653735,-10214.842000,0.000000,919.314598
1135.654056,-9326.594869,-370.102971,995.924147
1135.654377,-9400.615463,-592.164754,1302.362347
1135.654698,-9326.594869,-666.185348,1455.581446
1135.655019,-9104.533087,-222.061783,2298.286494
1135.655339,-9326.594869,-814.226536,1762.019645
1135.655660,-9400.615463,-666.185348,1838.629195
1135.655981,-9474.636058,-592.164754,1991.848295
1135.656302,-9474.636058,-592.164754,1532.190996
1135.656622,-9696.697840,-370.102971,1762.019645
1135.656943,-9548.656652,-370.102971,1302.362347
1135.657264,-9622.677246,370.102971,1225.752797
1135.657585,-9770.718434,74.020594,1532.190996
1135.657906,-9326.594869,148.041188,1225.752797
1135.658226,-9844.739029,296.082377,1225.752797
1135.658547,-9622.677246,0.000000,1072.533697
1135.658868,-9696.697840,0.000000,1455.581446
1135.659189,-9474.636058,-1480.411884,2757.943793
1135.659509,-9696.697840,-222.061783,1838.629195
1135.659830,-9474.636058,-296.082377,2145.067394
1135.660151,-9548.656652,-962.267725,1915.238745
1135.660472,-9178.553681,-666.185348,1915.238745
1135.660793,-9474.636058,-962.267725,2298.286494
1135.661113,-9548.656652,-814.226536,2145.067394
1135.661434,-9474.636058,-666.185348,1378.971896
1135.661755,-9696.697840,-592.164754,1455.581446
1135.662076,-9474.636058,-592.164754,612.876398
1135.662396,-9548.656652,0.000000,612.876398
1135.662717,-9622.677246,370.102971,536.266849
1135.663038,-9548.656652,148.041188,0.000000
1135.663359,-10140.821405,962.267725,-919.314598
1135.663680,-9696.697840,296.082377,-306.438199
1135.664000,-9918.759623,666.185348,0.000000
1135.664321,-9770.718434,518.144159,-383.047749
1135.664642,-9622.677246,370.102971,-383.047749
1135.664963,-9696.697840,74.020594,-306.438199
1135.665283,-9844.739029,0.000000,-229.828649
1135.665604,-9770.718434,148.041188,383.047749
1135.665925,-9474.636058,0.000000,383.047749
1135.666246,-9844.739029,296.082377,842.705048
1135.666567,-9474.636058,-222.061783,1149.143247
1135.666887,-9326.594869,-444.123565,766.095498
1135.667208,-9252.574275,-518.144159,1225.752797
1135.667529,-9252.574275,-962.267725,459.657299
1135.667850,-9326.594869,-370.102971,1378.971896
1135.668171,-9548.656652,-148.041188,1608.800546
1135.668491,-9474.636058,0.000000,1378.971896
1135.668812,-9548.656652,-148.041188,1608.800546
1135.669133,-9474.636058,0.000000,1455.581446
1135.669454,-9918.759623,-740.205942,1532.190996
1135.669774,-9622.677246,-740.205942,1915.238745
1135.670095,-9474.636058,-518.144159,1685.410096
1135.670416,-9474.636058,-740.205942,2604.724693
1135.670737,-9030.512492,-444.123565,1455.581446
1135.671058,-9474.636058,-518.144159,1991.848295
1135.671378,-9844.739029,-592.164754,2221.676944
1135.671699,-9474.636058,-814.226536,1991.848295
1135.672020,-9918.759623,-962.267725,2145.067394
1135.672341,-9474.636058,-1036.288319,2145.067394
1135.672661,-9696.697840,-888.247130,2221.676944
1135.672982,-9696.697840,-1036.288319,2221.676944
1135.673303,-9548.656652,-962.267725,1608.800546
1135.673624,-9474.636058,-1110.308913,1838.629195
1135.673945,-9548.656652,-1110.308913,1455.581446
1135.674265,-9474.636058,-740.205942,1455.581446
1135.674586,-9770.718434,-296.082377,1225.752797
1135.674907,-9474.636058,-370.102971,766.095498
1135.675228,-9548.656652,-370.102971,689.485948
1135.675548,-9548.656652,-444.123565,153.219100
1135.675869,-9622.677246,0.000000,0.000000
1135.676190,-9844.739029,0.000000,153.219100
1135.676511,-9844.739029,74.020594,-306.438199
1135.676832,-9918.759623,370.102971,0.000000
1135.677152,-9844.739029,370.102971,-153.219100
1135.677473,-9918.759623,370.102971,306.438199
1135.677794,-9770.718434,222.061783,0.000000
1135.678115,-9622.677246,0.000000,0.000000
1135.678435,-9622.677246,0.000000,153.219100
1135.678756,-9696.697840,370.102971,919.314598
1135.679077,-9548.656652,-222.061783,766.095498
1135.679398,-9474.636058,-222.061783,612.876398
1135.679719,-9400.615463,-296.082377,842.705048
1135.680039,-9474.636058,-370.102971,2528.115143
1135.680360,-9548.656652,-370.102971,1072.533697
1135.680681,-9474.636058,-814.226536,1685.410096
1135.681002,-9326.594869,-888.247130,1072.533697
1135.681322,-9474.636058,-888.247130,1302.362347
1135.681643,-9474.636058,-962.267725,1762.019645
1135.681964,-9474.636058,-814.226536,1762.019645
1135.682285,-9548.656652,-888.247130,1838.629195
1135.682606,-9474.636058,-518.144159,1455.581446
1135.682926,-9400.615463,-518.144159,1608.800546
1135.683247,-9696.697840,0.000000,1302.362347
1135.683568,-9474.636058,296.082377,1302.362347
1135.683889,-9696.697840,296.082377,1378.971896
1135.684210,-9770.718434,148.041188,2987.772442
1135.684530,-9918.759623,-222.061783,1532.190996
1135.684851,-9770.718434,-592.164754,1838.629195
1135.685172,-9770.718434,-592.164754,1915.238745
1135.685493,-9696.697840,-518.144159,2374.896044
1135.685813,-9918.759623,-740.205942,2451.505594
1135.686134,-9622.677246,-962.267725,2374.896044
1135.686455,-9252.574275,-1258.350101,2374.896044
1135.686776,-9474.636058,-1184.329507,1838.629195
1135.687097,-9622.677246,-814.226536,2681.334243
1135.687417,-9474.636058,-666.185348,1532.190996
1135.687738,-9400.615463,-296.082377,1532.190996
1135.688059,-9474.636058,0.000000,1225.752797
1135.688380,-9548.656652,148.041188,842.705048
1135.688700,-9992.780217,814.226536,689.485948
1135.689021,-9696.697840,518.144159,383.047749
1135.689342,-9770.718434,444.123565,0.000000
1135.689663,-9918.759623,1036.288319,-229.828649
1135.689984,-9696.697840,666.185348,229.828649
1135.690304,-9844.739029,740.205942,0.000000
1135.690625,-9844.739029,296.082377,229.828649
1135.690946,-9622.677246,0.000000,153.219100
1135.691267,-9622.677246,0.000000,-229.828649
1135.691587,-9474.636058,-518.144159,229.828649
1135.691908,-9474.636058,-592.164754,536.266849
1135.692229,-9326.594869,-740.205942,919.314598
1135.692550,-9474.636058,-666.185348,766.095498
1135.692871,-9474.636058,-962.267725,919.314598
1135.693191,-9326.594869,-814.226536,612.876398
1135.693512,-9474.636058,-592.164754,1149.143247
1135.693833,-9252.574275,-666.185348,1149.143247
1135.694154,-9474.636058,-370.102971,1302.362347
1135.694474,-9622.677246,-296.082377,1225.752797
1135.694795,-9474.636058,-296.082377,1378.971896
1135.695116,-9474.636058,-592.164754,1225.752797
1135.695437,-9474.636058,-370.102971,1072.533697
1135.695758,-9474.636058,-666.185348,1225.752797
1135.696078,-9548.656652,-592.164754,1225.752797
1135.696399,-9474.636058,-444.123565,1532.190996
1135.696720,-9474.636058,-592.164754,1378.971896
1135.697041,-9696.697840,-592.164754,1915.238745
1135.697361,-9696.697840,-592.164754,1838.629195
1135.697682,-9770.718434,-814.226536,1838.629195
1135.698003,-9770.718434,-740.205942,2221.676944
1135.698324,-9844.739029,-962.267725,2451.505594
1135.698645,-9696.697840,-888.247130,2068.457845
1135.698965,-9474.636058,-740.205942,1608.800546
1135.699286,-9474.636058,-592.164754,1532.190996
1135.699607,-9770.718434,74.020594,1608.800546
1135.699928,-9770.718434,-222.061783,1455.581446
1135.700249,-9622.677246,-370.102971,1225.752797
1135.700569,-9622.677246,-148.041188,1455.581446
1135.700890,-9918.759623,0.000000,995.924147
1135.701211,-9622.677246,-148.041188,766.095498
1135.701532,-9696.697840,0.000000,536.266849
1135.701852,-9622.677246,0.000000,306.438199
1135.702173,-9696.697840,296.082377,0.000000
1135.702494,-9770.718434,222.061783,383.047749
1135.702815,-9918.759623,370.102971,76.609550
1135.703136,-9844.739029,444.123565,76.609550
1135.703456,-9992.780217,222.061783,229.828649
1135.703777,-9252.574275,0.000000,153.219100
1135.704098,-9770.718434,0.000000,689.485948
1135.704419,-9548.656652,-370.102971,766.095498
1135.704739,-9622.677246,-444.123565,919.314598
1135.705060,-9326.594869,-1554.432478,-842.705048
1135.705381,-9326.594869,-814.226536,689.485948
1135.705702,-9252.574275,-888.247130,995.924147
1135.706023,-9400.615463,-888.247130,1149.143247
1135.706343,-9178.553681,-962.267725,1378.971896
1135.706664,-8882.471304,-1036.288319,1915.238745
1135.706985,-9030.512492,-1110.308913,1072.533697
1135.707306,-9326.594869,-1036.288319,1225.752797
1135.707626,-9400.615463,-740.205942,1225.752797
1135.707947,-9474.636058,0.000000,1455.581446
1135.708268,-9474.636058,-370.102971,919.314598
1135.708588,-9474.636058,0.000000,1149.143247
1135.708909,-9622.677246,0.000000,1072.533697
1135.709230,-9696.697840,148.041188,1302.362347
1135.709550,-9548.656652,0.000000,995.924147
1135.709871,-9992.780217,74.020594,1149.143247
1135.710192,-9770.718434,74.020594,1608.800546
1135.710512,-10362.883188,-148.041188,1685.410096
1135.710833,-9696.697840,-222.061783,1302.362347
1135.711154,-9992.780217,-518.144159,1838.629195
1135.711474,-9770.718434,-740.205942,1915.238745
1135.711795,-9622.677246,-666.185348,1915.238745
1135.712116,-9474.636058,0.000000,2911.162892
1135.712436,-9622.677246,-814.226536,1838.629195
1135.712757,-9548.656652,-666.185348,1838.629195
1135.713078,-9474.636058,-740.205942,1532.190996
1135.713398,-9622.677246,-592.164754,1378.971896
1135.713719,-9696.697840,-370.102971,1072.533697
1135.714040,-9696.697840,0.000000,689.485948
1135.714360,-9770.718434,148.041188,0.000000
1135.714681,-9696.697840,148.041188,306.438199
1135.715002,-9918.759623,740.205942,153.219100
1135.715322,-9992.780217,370.102971,0.000000
1135.715643,-10066.800811,444.123565,-153.219100
1135.715964,-9918.759623,370.102971,0.000000
1135.716284,-9400.615463,-1258.350101,1685.410096
1135.716605,-9696.697840,0.000000,766.095498
1135.716926,-9622.677246,0.000000,459.657299
1135.717246,-9548.656652,-518.144159,919.314598
1135.717567,-9474.636058,-592.164754,995.924147
1135.717888,-9326.594869,-444.123565,766.095498
1135.718208,-9252.574275,-740.205942,919.314598
1135.718529,-9474.636058,-740.205942,1149.143247
1135.718849,-9474.636058,-740.205942,1225.752797
1135.719170,-9474.636058,-518.144159,1532.190996
1135.719491,-9548.656652,-148.041188,1455.581446
1135.719811,-9178.553681,-370.102971,1608.800546
1135.720132,-9400.615463,-592.164754,1762.019645
1135.720453,-9548.656652,-518.144159,1532.190996
1135.720773,-9474.636058,-370.102971,1378.971896
1135.721094,-9474.636058,-370.102971,2145.067394
1135.721415,-9474.636058,-370.102971,1915.238745
1135.721735,-9400.615463,-296.082377,1455.581446
1135.722056,-9326.594869,-148.041188,1225.752797
1135.722377,-9622.677246,-148.041188,1532.190996
1135.722697,-9770.718434,-296.082377,1532.190996
1135.723018,-9622.677246,-370.102971,1149.143247
1135.723339,-9400.615463,0.000000,1225.752797
1135.723659,-9844.739029,-296.082377,1685.410096
1135.723980,-9770.718434,-444.123565,1915.238745
1135.724301,-9770.718434,-592.164754,1838.629195
1135.724621,-9844.739029,-666.185348,1762.019645
1135.724942,-9474.636058,-1184.329507,1302.362347
1135.725263,-9770.718434,-962.267725,1225.752797
1135.725583,-9622.677246,-592.164754,842.705048
1135.725904,-9548.656652,-518.144159,766.095498
1135.726225,-9548.656652,-518.144159,383.047749
1135.726545,-9548.656652,-296.082377,306.438199
1135.726866,-9696.697840,0.000000,0.000000
1135.727187,-9696.697840,0.000000,383.047749
1135.727507,-10214.842000,74.020594,995.924147
1135.727828,-9548.656652,74.020594,0.000000
1135.728149,-9622.677246,148.041188,0.000000
1135.728469,-9770.718434,296.082377,76.609550
1135.728790,-9770.718434,-296.082377,229.828649
1135.729111,-9770.718434,222.061783,306.438199
1135.729431,-9770.718434,0.000000,229.828649
1135.729752,-9474.636058,-296.082377,383.047749
1135.730073,-9474.636058,-296.082377,612.876398
1135.730393,-9474.636058,-296.082377,1149.143247
1135.730714,-9474.636058,-370.102971,1149.143247
1135.731035,-9400.615463,-888.247130,1302.362347
1135.731355,-9326.594869,-740.205942,1225.752797
1135.731676,-8956.491898,-740.205942,1685.410096
1135.731997,-9400.615463,-814.226536,1838.629195
1135.732317,-9474.636058,-888.247130,1455.581446
1135.732638,-9474.636058,-518.144159,1532.190996
1135.732959,-9400.615463,-370.102971,1072.533697
1135.733279,-9400.615463,-666.185348,1915.238745
1135.733600,-9622.677246,-592.164754,1685.410096
1135.733921,-9474.636058,-370.102971,1378.971896
1135.734241,-9622.677246,0.000000,1378.971896
1135.734562,-9770.718434,148.041188,1455.581446
1135.734883,-9770.718434,0.000000,1762.019645
1135.735203,-9696.697840,0.000000,1532.190996
1135.735524,-9918.759623,0.000000,1532.190996
1135.735845,-10066.800811,0.000000,1608.800546
1135.736165,-9844.739029,-296.082377,1915.238745
1135.736486,-9992.780217,-518.144159,1991.848295
1135.736807,-9844.739029,-666.185348,2068.457845
1135.737127,-9992.780217,-666.185348,1608.800546
1135.737448,-9696.697840,-962.267725,1838.629195
1135.737769,-9696.697840,-1036.288319,1838.629195
1135.738089,-9548.656652,-962.267725,1608.800546
1135.738410,-9474.636058,-1184.329507,1532.190996
1135.738731,-9548.656652,-814.226536,1072.533697
1135.739051,-9326.594869,-370.102971,766.095498
1135.739372,-9548.656652,-296.082377,536.266849
1135.739693,-9548.656652,0.000000,153.219100
1135.740013,-9770.718434,296.082377,153.219100
1135.740334,-9992.780217,592.164754,-383.047749
1135.740655,-9696.697840,888.247130,-536.266849
1135.740975,-9918.759623,888.247130,-306.438199
1135.741296,-10362.883188,1406.391290,-919.314598
1135.741616,-9992.780217,666.185348,-306.438199
1135.741937,-9770.718434,148.041188,-689.485948
1135.742258,-9696.697840,0.000000,-383.047749
1135.742578,-9696.697840,0.000000,-153.219100
1135.742899,-9622.677246,-296.082377,306.438199
1135.743220,-9178.553681,-666.185348,459.657299
1135.743540,-9326.594869,-888.247130,536.266849
1135.743861,-9326.594869,-962.267725,766.095498
1135.744182,-9548.656652,-518.144159,1225.752797
1135.744502,-9474.636058,-666.185348,1455.581446
1135.744823,-9326.594869,-592.164754,1838.629195
1135.745144,-9326.594869,-370.102971,1838.629195
1135.745464,-8882.471304,-444.123565,2451.505594
1135.745785,-9252.574275,-222.061783,1762.019645
1135.746106,-9400.615463,-444.123565,1762.019645
1135.746426,-9548.656652,-74.020594,2068.457845
1135.746747,-9474.636058,-370.102971,1991.848295
1135.747068,-9474.636058,-370.102971,2298.286494
1135.747388,-9622.677246,-592.164754,2451.505594
1135.747709,-9918.759623,-444.123565,2374.896044
1135.748030,-9770.718434,-444.123565,2451.505594
1135.748350,-9844.739029,-148.041188,2145.067394
1135.748671,-9770.718434,-296.082377,2068.457845
1135.748992,-9844.739029,-444.123565,2451.505594
1135.749312,-9918.759623,-370.102971,2451.505594
1135.749633,-10214.842000,148.041188,2298.286494
1135.749954,-9770.718434,-518.144159,2068.457845
1135.750274,-9696.697840,-666.185348,2221.676944
1135.750595,-9696.697840,-740.205942,1762.019645
1135.750916,-9844.739029,-888.247130,1685.410096
1135.751236,-9474.636058,-518.144159,1225.752797
1135.751557,-9548.656652,-592.164754,1072.533697
1135.751878,-9474.636058,-740.205942,995.924147
1135.752198,-9696.697840,-370.102971,766.095498
1135.752519,-9474.636058,-370.102971,919.314598
1135.752840,-9696.697840,-148.041188,306.438199
1135.753160,-9474.636058,-296.082377,-153.219100
1135.753481,-9696.697840,296.082377,-306.438199
1135.753802,-9474.636058,148.041188,229.828649
1135.754122,-9770.718434,444.123565,0.000000
1135.754443,-9548.656652,148.041188,-536.266849
1135.754764,-9548.656652,444.123565,-842.705048
1135.755084,-9622.677246,370.102971,-689.485948
1135.755405,-9474.636058,296.082377,-383.047749
1135.755726,-9622.677246,0.000000,-229.828649
1135.756046,-9548.656652,-444.123565,0.000000
1135.756367,-9400.615463,-370.102971,76.609550
1135.756688,-9918.759623,-814.226536,306.438199
1135.757008,-9474.636058,-888.247130,995.924147
1135.757329,-9474.636058,-1110.308913,766.095498
1135.757650,-9178.553681,-740.205942,1149.143247
1135.757970,-8956.491898,-666.185348,1838.629195
1135.758291,-9030.512492,-666.185348,1302.362347
1135.758612,-9104.533087,-592.164754,919.314598
1135.758932,-9400.615463,-666.185348,766.095498
1135.759253,-9252.574275,0.000000,1072.533697
1135.759574,-9474.636058,0.000000,1455.581446
1135.759894,-9474.636058,0.000000,1378.971896
1135.760215,-9844.739029,0.000000,1685.410096
1135.760536,-9844.739029,0.000000,1608.800546
1135.760856,-9992.780217,0.000000,2298.286494
1135.761177,-9918.759623,-148.041188,1991.848295
1135.761498,-10066.800811,0.000000,1838.629195
1135.761818,-9992.780217,-296.082377,2068.457845
1135.762139,-9474.636058,0.000000,3524.039291
1135.762460,-9770.718434,-740.205942,2451.505594
1135.762780,-9548.656652,-888.247130,2298.286494
1135.763101,-9770.718434,-740.205942,2298.286494
1135.763421,-9400.615463,-888.247130,2374.896044
1135.763742,-9400.615463,-1036.288319,2221.676944
1135.764063,-9622.677246,-888.247130,2374.896044
1135.764383,-9622.677246,-592.164754,1991.848295
1135.764704,-9548.656652,-666.185348,1915.238745
1135.765025,-9622.677246,-296.082377,1608.800546
1135.765345,-9918.759623,-444.123565,1378.971896
1135.765666,-9844.739029,-222.061783,919.314598
1135.765987,-9770.718434,0.000000,766.095498
1135.766307,-9770.718434,74.020594,1072.533697
1135.766628,-9474.636058,0.000000,0.000000
1135.766949,-9622.677246,0.000000,0.000000
1135.767269,-9622.677246,0.000000,-153.219100
1135.767590,-9770.718434,74.020594,0.000000
1135.767911,-9548.656652,-222.061783,-153.219100
1135.768231,-9474.636058,0.000000,-153.219100
1135.768552,-9696.697840,-444.123565,76.609550
1135.768873,-9474.636058,-592.164754,229.828649
1135.769193,-9030.512492,-370.102971,306.438199
1135.769514,-9326.594869,-592.164754,766.095498
1135.769835,-9474.636058,-740.205942,919.314598
1135.770155,-9474.636058,-814.226536,995.924147
1135.770476,-9844.739029,444.123565,689.485948
1135.770797,-9474.636058,-222.061783,1532.190996
1135.771117,-9474.636058,0.000000,1532.190996
1135.771438,-9474.636058,0.000000,1608.800546
1135.771759,-9548.656652,-148.041188,1455.581446
1135.772079,-9548.656652,-296.082377,1455.581446
1135.772400,-9622.677246,-296.082377,1455.581446
1135.772721,-9548.656652,-370.102971,1302.362347
1135.773041,-9548.656652,-370.102971,1149.143247
1135.773362,-9474.636058,-296.082377,1915.238745
1135.773683,-9622.677246,0.000000,995.924147
1135.774003,-9844.739029,0.000000,1608.800546
1135.774324,-10066.800811,-148.041188,1915.238745
1135.774645,-9992.780217,-518.144159,1762.019645
1135.774965,-9992.780217,-444.123565,2068.457845
1135.775286,-9992.780217,-518.144159,2221.676944
1135.775607,-9918.759623,-592.164754,2374.896044
1135.775927,-9696.697840,-1036.288319,2221.676944
1135.776248,-9548.656652,-1406.391290,2298.286494
1135.776569,-9474.636058,-370.102971,1685.410096
1135.776889,-9548.656652,-592.164754,1378.971896
1135.777210,-9474.636058,-592.164754,1608.800546
1135.777531,-9326.594869,-592.164754,1225.752797
1135.777851,-9252.574275,-296.082377,1225.752797
1135.778172,-9474.636058,0.000000,766.095498
1135.778493,-9548.656652,0.000000,536.266849
1135.778813,-9844.739029,0.000000,689.485948
1135.779134,-9696.697840,222.061783,1225.752797
1135.779455,-9992.780217,370.102971,1072.533697
1135.779775,-9548.656652,148.041188,536.266849
1135.780096,-9474.636058,74.020594,383.047749
1135.780417,-9622.677246,296.082377,612.876398
1135.780737,-9770.718434,518.144159,-306.438199
1135.781058,-9474.636058,0.000000,229.828649
1135.781379,-9326.594869,-222.061783,0.000000
1135.781699,-9474.636058,-296.082377,459.657299
1135.782020,-9770.718434,-518.144159,689.485948
1135.782341,-9474.636058,-370.102971,842.705048
1135.782661,-9474.636058,-444.123565,919.314598
1135.782982,-9474.636058,-370.102971,1149.143247
1135.783303,-9474.636058,-444.123565,842.705048
1135.783623,-9474.636058,-296.082377,919.314598
1135.783944,-9474.636058,-370.102971,1149.143247
1135.784265,-9326.594869,-592.164754,995.924147
1135.784585,-9252.574275,-666.185348,842.705048
1135.784906,-9252.574275,-592.164754,1302.362347
1135.785227,-9474.636058,-296.082377,1149.143247
1135.785547,-9548.656652,-222.061783,995.924147
1135.785868,-9770.718434,-296.082377,842.705048
1135.786188,-10214.842000,370.102971,1762.019645
1135.786509,-9992.780217,0.000000,919.314598
1135.786830,-9844.739029,0.000000,1149.143247
1135.787150,-10140.821405,-296.082377,1532.190996
1135.787471,-9918.759623,-370.102971,1378.971896
1135.787792,-9992.780217,-222.061783,1608.800546
1135.788112,-9770.718434,-518.144159,1685.410096
1135.788433,-9622.677246,-814.226536,2068.457845
1135.788754,-9474.636058,-1184.329507,1991.848295
1135.789074,-9548.656652,-1406.391290,1608.800546
1135.789395,-9400.615463,-1480.411884,2068.457845
1135.789716,-9548.656652,-1258.350101,1991.848295
1135.790036,-9252.574275,-1258.350101,1685.410096
1135.790357,-8660.409521,-370.102971,2681.334243
1135.790678,-9400.615463,-962.267725,1532.190996
1135.790998,-9474.636058,-592.164754,1302.362347
1135.791319,-9844.739029,0.000000,1302.362347
1135.791640,-9696.697840,0.000000,612.876398
1135.791960,-9474.636058,74.020594,229.828649
1135.792281,-9696.697840,592.164754,76.609550
1135.792602,-9770.718434,666.185348,0.000000
1135.792922,-9770.718434,888.247130,-153.219100
1135.793243,-9844.739029,518.144159,-536.266849
1135.793564,-9844.739029,296.082377,76.609550
1135.793884,-9918.759623,296.082377,229.828649
1135.794205,-9770.718434,0.000000,536.266849
1135.794526,-9474.636058,-444.123565,1608.800546
1135.794846,-9622.677246,-370.102971,919.314598
1135.795167,-9474.636058,-814.226536,1225.752797
1135.795488,-9400.615463,-814.226536,1225.752797
1135.795808,-9474.636058,-1036.288319,1378.971896
1135.796129,-9622.677246,-962.267725,1378.971896
1135.796450,-9400.615463,-1036.288319,1455.581446
1135.796770,-9622.677246,-740.205942,1225.752797
1135.797091,-9326.594869,-592.164754,1378.971896
1135.797412,-9474.636058,-592.164754,689.485948
1135.797732,-9548.656652,-296.082377,1072.533697
1135.798053,-9770.718434,-518.144159,1149.143247
1135.798374,-9548.656652,-592.164754,1072.533697
1135.798694,-10584.944971,518.144159,2451.505594
1135.799015,-9474.636058,-222.061783,1225.752797
1135.799336,-9548.656652,-148.041188,1378.971896
1135.799656,-9770.718434,-296.082377,1378.971896
1135.799977,-9696.697840,-370.102971,1608.800546
1135.800298,-9622.677246,-592.164754,1838.629195
1135.800618,-9770.718434,-666.185348,1915.238745
1135.800939,-9696.697840,-592.164754,1608.800546
1135.801260,-9548.656652,-888.247130,1685.410096
1135.801580,-9622.677246,-666.185348,2145.067394
1135.801901,-9326.594869,-666.185348,1685.410096
1135.802222,-9474.636058,-666.185348,1532.190996
1135.802542,-9400.615463,-444.123565,1532.190996
1135.802863,-10140.821405,296.082377,1149.143247
1135.803184,-9696.697840,-296.082377,1378.971896
1135.803504,-9622.677246,-296.082377,1302.362347
1135.803825,-9548.656652,-148.041188,842.705048
1135.804146,-9622.677246,0.000000,689.485948
1135.804466,-9622.677246,0.000000,766.095498
1135.804787,-9474.636058,0.000000,306.438199
1135.805108,-9622.677246,74.020594,76.609550
1135.805428,-9622.677246,148.041188,0.000000
1135.805749,-9400.615463,148.041188,0.000000
1135.806070,-9696.697840,-222.061783,0.000000
1135.806390,-9548.656652,74.020594,153.219100
1135.806711,-9918.759623,0.000000,536.266849
1135.807032,-9696.697840,962.267725,229.828649
1135.807352,-9696.697840,-148.041188,766.095498
1135.807673,-9770.718434,-296.082377,842.705048
1135.807994,-9622.677246,-592.164754,766.095498
1135.808314,-9622.677246,-518.144159,1225.752797
1135.808635,-9400.615463,-888.247130,919.314598
1135.808955,-9400.615463,-1110.308913,1149.143247
1135.809276,-9474.636058,-1332.370696,1532.190996
1135.809597,-9326.594869,-1406.391290,1378.971896
1135.809917,-9474.636058,-1628.453072,1378.971896
1135.810238,-9178.553681,-1332.370696,1455.581446
1135.810559,-9474.636058,-1184.329507,1378.971896
1135.810880,-9622.677246,-444.123565,1378.971896
1135.811200,-10510.924376,370.102971,2604.724693
1135.811521,-9474.636058,0.000000,1225.752797
1135.811842,-9844.739029,296.082377,1302.362347
1135.812162,-9622.677246,222.061783,1072.533697
1135.812483,-9918.759623,296.082377,1455.581446
1135.812804,-9992.780217,74.020594,766.095498
1135.813124,-9696.697840,148.041188,1302.362347
1135.813445,-9992.780217,148.041188,1608.800546
1135.813766,-9844.739029,-148.041188,1532.190996
1135.814086,-9474.636058,518.144159,766.095498
1135.814407,-9622.677246,-592.164754,1455.581446
1135.814728,-9622.677246,-888.247130,2221.676944
1135.815048,-9548.656652,-814.226536,2068.457845
1135.815369,-9474.636058,-740.205942,1915.238745
1135.815690,-9400.615463,-814.226536,1838.629195
1135.816010,-9474.636058,-518.144159,1608.800546
1135.816331,-9622.677246,-592.164754,1455.581446
1135.816652,-9548.656652,-444.123565,1072.533697
1135.816972,-9622.677246,0.000000,1532.190996
1135.817293,-9770.718434,74.020594,536.266849
1135.817614,-9696.697840,444.123565,306.438199
1135.817934,-9696.697840,296.082377,0.000000
1135.818255,-9770.718434,518.144159,0.000000
1135.818576,-10066.800811,888.247130,0.000000
1135.818896,-10066.800811,814.226536,153.219100
1135.819217,-9844.739029,148.041188,0.000000
1135.819538,-9770.718434,222.061783,459.657299
1135.819858,-10066.800811,-148.041188,306.438199
1135.820179,-9474.636058,0.000000,1225.752797
1135.820500,-9474.636058,-148.041188,1072.533697
1135.820821,-9178.553681,-962.267725,842.705048
1135.821141,-9104.533087,0.000000,306.438199
1135.821462,-9474.636058,-666.185348,919.314598
1135.821783,-9252.574275,-740.205942,1225.752797
1135.822103,-9400.615463,-666.185348,1302.362347
1135.822424,-9326.594869,-518.144159,1072.533697
1135.822745,-9474.636058,-370.102971,1455.581446
1135.823065,-9474.636058,-518.144159,1608.800546
1135.823386,-9326.594869,-518.144159,1685.410096
1135.823707,-9622.677246,-666.185348,1455.581446
1135.824027,-9770.718434,-444.123565,1608.800546
1135.824348,-9622.677246,-518.144159,1225.752797
1135.824669,-9548.656652,-666.185348,1302.362347
1135.824989,-9474.636058,-296.082377,1225.752797
1135.825310,-9104.533087,-1110.308913,1762.019645
1135.825631,-9770.718434,-592.164754,1608.800546
1135.825951,-9770.718434,-666.185348,1225.752797
1135.826272,-9622.677246,-740.205942,1378.971896
1135.826593,-9770.718434,-814.226536,1378.971896
1135.826913,-9770.718434,-888.247130,1532.190996
1135.827234,-9474.636058,-1110.308913,1608.800546
1135.827555,-9474.636058,-888.247130,1302.362347
1135.827875,-9548.656652,-1110.308913,1072.533697
1135.828196,-9622.677246,-1036.288319,766.095498
1135.828517,-9548.656652,-444.123565,1149.143247
1135.828837,-9696.697840,-370.102971,1149.143247
1135.829158,-9770.718434,-296.082377,1072.533697
1135.829479,-8956.491898,370.102971,1991.848295
1135.829799,-9844.739029,0.000000,383.047749
1135.830120,-9770.718434,-296.082377,306.438199
1135.830441,-9844.739029,0.000000,0.000000
1135.830761,-9622.677246,148.041188,536.266849
1135.831082,-9918.759623,296.082377,76.609550
1135.831403,-9770.718434,666.185348,229.828649
1135.831724,-9844.739029,444.123565,766.095498
1135.832044,-9918.759623,518.144159,612.876398
1135.832365,-9474.636058,222.061783,842.705048
1135.832686,-9770.718434,148.041188,995.924147
1135.833006,-9622.677246,0.000000,919.314598
1135.833327,-9474.636058,-296.082377,1225.752797
1135.833648,-9326.594869,-370.102971,2451.505594
1135.833968,-9178.553681,-444.123565,1532.190996
1135.834289,-9474.636058,-666.185348,1685.410096
1135.834610,-9326.594869,-518.144159,1608.800546
1135.834930,-9474.636058,-518.144159,1685.410096
1135.835251,-9326.594869,-592.164754,1915.238745
1135.835572,-9252.574275,-592.164754,1685.410096
1135.835892,-9474.636058,-666.185348,1915.238745
1135.836213,-9178.553681,-814.226536,1532.190996
1135.836534,-9326.594869,-444.123565,1685.410096
1135.836854,-9474.636058,-222.061783,1991.848295
1135.837175,-9400.615463,-296.082377,1225.752797
1135.837496,-9474.636058,74.020594,1072.533697
1135.837816,-9326.594869,0.000000,306.438199
1135.838137,-9474.636058,296.082377,995.924147
1135.838458,-9696.697840,0.000000,1762.019645
1135.838778,-9770.718434,-296.082377,1149.143247
1135.839099,-9770.718434,0.000000,1532.190996
1135.839420,-10214.842000,-148.041188,1915.238745
1135.839740,-9770.718434,-370.102971,1685.410096
1135.840061,-9622.677246,-518.144159,1838.629195
1135.840382,-9548.656652,-888.247130,1532.190996
1135.840702,-9844.739029,-444.123565,1302.362347
1135.841023,-9696.697840,-1110.308913,1378.971896
1135.841344,-9474.636058,-1036.288319,1149.143247
1135.841665,-9400.615463,-888.247130,995.924147
1135.841985,-9474.636058,0.000000,153.219100
1135.842306,-9474.636058,-592.164754,76.609550
1135.842627,-9548.656652,0.000000,76.609550
1135.842947,-9844.739029,0.000000,-306.438199
1135.843268,-9992.780217,222.061783,-383.047749
1135.843589,-9770.718434,444.123565,-689.485948
1135.843909,-10214.842000,666.185348,-612.876398
1135.844230,-9918.759623,518.144159,-612.876398
1135.844551,-10066.800811,518.144159,-229.828649
1135.844871,-10140.821405,222.061783,689.485948
1135.845192,-9770.718434,-148.041188,0.000000
1135.845513,-9548.656652,-370.102971,229.828649
1135.845833,-9474.636058,-592.164754,766.095498
1135.846154,-9844.739029,-370.102971,1608.800546
1135.846475,-9326.594869,-888.247130,1072.533697
1135.846795,-9326.594869,-1110.308913,1149.143247
1135.847116,-9104.533087,-1110.308913,1302.362347
1135.847437,-9252.574275,-962.267725,1378.971896
1135.847757,-9326.594869,-888.247130,1762.019645
1135.848078,-9400.615463,-592.164754,2068.457845
1135.848399,-9474.636058,-518.144159,2068.457845
1135.848719,-9548.656652,-444.123565,1838.629195
1135.849040,-9178.553681,-592.164754,2374.896044
1135.849361,-9622.677246,-518.144159,1991.848295
1135.849681,-9622.677246,-518.144159,2068.457845
1135.850002,-9474.636058,-518.144159,1685.410096
1135.850323,-9474.636058,222.061783,3524.039291
1135.850643,-9326.594869,-296.082377,1685.410096
1135.850964,-9696.697840,-148.041188,2145.067394
1135.851285,-9548.656652,-296.082377,2145.067394
1135.851606,-9696.697840,-518.144159,2145.067394
1135.851926,-9770.718434,-962.267725,1762.019645
1135.852247,-9548.656652,-814.226536,2374.896044
1135.852568,-9844.739029,-666.185348,1838.629195
1135.852888,-9770.718434,-444.123565,2145.067394
1135.853209,-9178.553681,-1258.350101,1378.971896
1135.853530,-9770.718434,-592.164754,1455.581446
1135.853850,-9474.636058,-666.185348,995.924147
1135.854171,-9622.677246,-370.102971,995.924147
1135.854492,-9548.656652,148.041188,766.095498
1135.854812,-9622.677246,-444.123565,536.266849
1135.855133,-9474.636058,-148.041188,612.876398
1135.855454,-9548.656652,0.000000,459.657299
1135.855774,-9770.718434,0.000000,153.219100
1135.856095,-9844.739029,222.061783,153.219100
1135.856416,-9770.718434,370.102971,0.000000
1135.856736,-9622.677246,296.082377,-459.657299
1135.857057,-9622.677246,370.102971,-229.828649
1135.857378,-9474.636058,222.061783,229.828649
1135.857698,-9622.677246,370.102971,0.000000
1135.858019,-9548.656652,148.041188,-459.657299
1135.858340,-9548.656652,74.020594,0.000000
1135.858660,-9770.718434,0.000000,-995.924147
1135.858981,-9622.677246,0.000000,689.485948
1135.859302,-9622.677246,-222.061783,842.705048
1135.859622,-9474.636058,-296.082377,612.876398
1135.859943,-9474.636058,-740.205942,1072.533697
1135.860264,-9178.553681,-814.226536,995.924147
1135.860584,-9400.615463,-518.144159,1149.143247
1135.860905,-9400.615463,-888.247130,1378.971896
1135.861226,-9252.574275,-814.226536,1455.581446
1135.861547,-9178.553681,-1110.308913,1072.533697
1135.861867,-9326.594869,-518.144159,1455.581446
1135.862188,-9474.636058,-222.061783,1685.410096
1135.862509,-9474.636058,-222.061783,1532.190996
1135.862829,-9474.636058,0.000000,995.924147
1135.863150,-9548.656652,296.082377,995.924147
1135.863471,-9992.780217,592.164754,1991.848295
1135.863791,-9622.677246,444.123565,1915.238745
1135.864112,-9770.718434,222.061783,1838.629195
1135.864433,-9474.636058,0.000000,2374.896044
1135.864753,-9992.780217,-444.123565,2451.505594
1135.865074,-9474.636058,-518.144159,2145.067394
1135.865395,-9918.759623,-962.267725,2145.067394
1135.865715,-9252.574275,-1406.391290,2374.896044
1135.866036,-9252.574275,-1480.411884,1762.019645
1135.866357,-9474.636058,-1332.370696,2298.286494
1135.866677,-9474.636058,-962.267725,1991.848295
1135.866998,-9474.636058,-1036.288319,1915.238745
1135.867319,-9548.656652,-740.205942,1608.800546
1135.867639,-9622.677246,-740.205942,1225.752797
1135.867960,-9622.677246,-518.144159,919.314598
1135.868281,-9548.656652,0.000000,995.924147
1135.868601,-9844.739029,0.000000,689.485948
1135.868922,-10066.800811,222.061783,459.657299
1135.869243,-9696.697840,222.061783,76.609550
1135.869563,-9918.759623,222.061783,-153.219100
1135.869884,-9918.759623,0.000000,0.000000
1135.870205,-9696.697840,444.123565,-153.219100
1135.870525,-9548.656652,222.061783,-229.828649
1135.870846,-9696.697840,0.000000,-306.438199
1135.871167,-9548.656652,-592.164754,-229.828649
1135.871488,-9474.636058,-148.041188,0.000000
1135.871808,-9400.615463,-518.144159,306.438199
1135.872129,-9548.656652,-592.164754,689.485948
1135.872450,-9326.594869,-518.144159,536.266849
1135.872770,-9104.533087,-592.164754,1072.533697
1135.873091,-9400.615463,-518.144159,689.485948
1135.873412,-9474.636058,-444.123565,1149.143247
1135.873732,-9474.636058,-740.205942,1455.581446
1135.874053,-9474.636058,-740.205942,536.266849
1135.874374,-9400.615463,-592.164754,1302.362347
1135.874694,-9474.636058,-518.144159,1225.752797
1135.875015,-9696.697840,-518.144159,1608.800546
1135.875336,-9474.636058,-666.185348,1532.190996
1135.875656,-9252.574275,-370.102971,1149.143247
1135.875977,-9696.697840,-296.082377,1149.143247
1135.876298,-9548.656652,-296.082377,1762.019645
1135.876618,-9918.759623,-222.061783,1685.410096
1135.876939,-9770.718434,-222.061783,2068.457845
1135.877260,-9548.656652,-518.144159,1991.848295
1135.877580,-9696.697840,-814.226536,2068.457845
1135.877901,-9770.718434,-888.247130,2221.676944
1135.878222,-9622.677246,-740.205942,2451.505594
1135.878542,-9770.718434,-592.164754,2451.505594
1135.878863,-9474.636058,-666.185348,2221.676944
1135.879184,-9474.636058,-962.267725,1838.629195
1135.879504,-9696.697840,-666.185348,1762.019645
1135.879825,-9622.677246,-888.247130,995.924147
1135.880146,-9474.636058,-592.164754,1302.362347
1135.880466,-9548.656652,-444.123565,1378.971896
1135.880787,-9548.656652,0.000000,919.314598
1135.881108,-9548.656652,-222.061783,766.095498
1135.881429,-9918.759623,74.020594,842.705048
1135.881749,-9622.677246,296.082377,766.095498
1135.882070,-9622.677246,222.061783,306.438199
1135.882391,-9548.656652,444.123565,153.219100
1135.882711,-9548.656652,222.061783,0.000000
1135.883032,-9770.718434,518.144159,-229.828649
1135.883353,-9474.636058,222.061783,0.000000
1135.883673,-9548.656652,-222.061783,-229.828649
1135.883994,-9770.718434,-370.102971,-612.876398
1135.884315,-9918.759623,0.000000,536.266849
1135.884635,-9770.718434,0.000000,766.095498
1135.884956,-9474.636058,-444.123565,919.314598
1135.885277,-9252.574275,-296.082377,2374.896044
1135.885597,-9622.677246,-592.164754,1149.143247
1135.885918,-9400.615463,-740.205942,919.314598
1135.886239,-9400.615463,-666.185348,842.705048
1135.886559,-9326.594869,-666.185348,1072.533697
1135.886880,-9474.636058,-814.226536,842.705048
1135.887201,-9326.594869,-592.164754,919.314598
1135.887521,-9474.636058,-370.102971,919.314598
1135.887842,-9474.636058,-518.144159,919.314598
1135.888163,-9548.656652,-592.164754,306.438199
1135.888483,-9622.677246,0.000000,995.924147
1135.888804,-9918.759623,0.000000,1149.143247
1135.889125,-9844.739029,0.000000,1302.362347
1135.889445,-10658.965565,888.247130,2451.505594
1135.889766,-9844.739029,0.000000,1302.362347
1135.890087,-9696.697840,74.020594,1532.190996
1135.890407,-9770.718434,370.102971,1991.848295
1135.890728,-9622.677246,-222.061783,1685.410096
1135.891049,-9696.697840,-370.102971,2451.505594
1135.891370,-9474.636058,-740.205942,2298.286494
1135.891690,-9474.636058,-888.247130,2221.676944
1135.892011,-9696.697840,-962.267725,2451.505594
1135.892332,-9474.636058,-888.247130,2911.162892
1135.892652,-9622.677246,-1110.308913,2145.067394
1135.892973,-9622.677246,-740.205942,2145.067394
1135.893294,-9622.677246,-592.164754,1838.629195
1135.893614,-9474.636058,-740.205942,1225.752797
1135.893935,-9622.677246,-148.041188,1149.143247
1135.894256,-9696.697840,0.000000,1072.533697
1135.894576,-9770.718434,74.020594,612.876398
1135.894897,-9770.718434,0.000000,229.828649
1135.895218,-9622.677246,592.164754,0.000000
1135.895538,-10066.800811,592.164754,229.828649
1135.895859,-9918.759623,296.082377,306.438199
1135.896180,-9770.718434,222.061783,306.438199
1135.896500,-8956.491898,296.082377,-153.219100
1135.896821,-9548.656652,-370.102971,0.000000
1135.897142,-9474.636058,-740.205942,306.438199
1135.897462,-9400.615463,-592.164754,459.657299
1135.897783,-9326.594869,-444.123565,1532.190996
1135.898104,-9252.574275,-888.247130,842.705048
1135.898424,-8956.491898,-888.247130,1072.533697
1135.898745,-9326.594869,-1184.329507,919.314598
1135.899066,-9326.594869,-962.267725,1455.581446
1135.899386,-9474.636058,-888.247130,1072.533697
1135.899707,-9326.594869,-666.185348,1149.143247
1135.900028,-9474.636058,-518.144159,1225.752797
1135.900348,-9696.697840,-666.185348,1149.143247
1135.900669,-9030.512492,-518.144159,1302.362347
1135.900990,-9622.677246,-370.102971,1149.143247
1135.901311,-9622.677246,-222.061783,919.314598
1135.901631,-9696.697840,-296.082377,1302.362347
1135.901952,-9696.697840,-222.061783,919.314598
1135.902273,-9770.718434,0.000000,919.314598
1135.902593,-9770.718434,-222.061783,1149.143247
1135.902914,-9474.636058,-666.185348,1302.362347
1135.903235,-9844.739029,-444.123565,1378.971896
1135.903555,-9770.718434,-370.102971,1532.190996
1135.903876,-9770.718434,-592.164754,1302.362347
1135.904197,-9696.697840,-518.144159,1762.019645
1135.904517,-9622.677246,-666.185348,1302.362347
1135.904838,-8882.471304,-370.102971,919.314598
1135.905159,-9770.718434,-888.247130,1455.581446
1135.905479,-9622.677246,-666.185348,995.924147
1135.905800,-9548.656652,-740.205942,1378.971896
1135.906121,-9696.697840,-296.082377,1225.752797
1135.906441,-9400.615463,-444.123565,995.924147
1135.906762,-9696.697840,0.000000,1072.533697
1135.907083,-9622.677246,0.000000,995.924147
1135.907403,-9696.697840,148.041188,689.485948
1135.907724,-9696.697840,222.061783,536.266849
1135.908045,-9770.718434,222.061783,306.438199
1135.908365,-9622.677246,444.123565,536.266849
1135.908686,-9696.697840,518.144159,229.828649
1135.909007,-9622.677246,592.164754,2068.457845
1135.909327,-9918.759623,148.041188,766.095498
1135.909648,-9770.718434,0.000000,842.705048
1135.909969,-9622.677246,-148.041188,1378.971896
1135.910290,-9548.656652,-222.061783,1225.752797
1135.910611,-9548.656652,-592.164754,1378.971896
1135.910931,-9252.574275,-444.123565,1378.971896
1135.911252,-9178.553681,-296.082377,1915.238745
1135.911573,-9400.615463,-518.144159,1532.190996
1135.911894,-8882.471304,-518.144159,1991.848295
1135.912215,-9326.594869,-518.144159,1149.143247
1135.912535,-9474.636058,-370.102971,1302.362347
1135.912856,-9400.615463,-296.082377,1378.971896
1135.913177,-9474.636058,-370.102971,536.266849
1135.913498,-9548.656652,0.000000,1302.362347
1135.913819,-9474.636058,-370.102971,1072.533697
1135.914139,-9696.697840,-148.041188,1378.971896
1135.914460,-9992.780217,-148.041188,1302.362347
1135.914781,-9844.739029,222.061783,1302.362347
1135.915102,-9992.780217,148.041188,766.095498
1135.915423,-9844.739029,148.041188,1378.971896
1135.915743,-9770.718434,-222.061783,1532.190996
1135.916064,-9622.677246,-296.082377,1225.752797
1135.916385,-9696.697840,-592.164754,1302.362347
1135.916706,-9622.677246,-1110.308913,1455.581446
1135.917027,-9474.636058,-1110.308913,1685.410096
1135.917347,-9400.615463,-1258.350101,2451.505594
1135.917668,-9548.656652,-1406.391290,1455.581446
1135.917989,-9474.636058,-1258.350101,1532.190996
1135.918310,-9474.636058,-1406.391290,1532.190996
1135.918631,-9474.636058,-1332.370696,995.924147
1135.918951,-9548.656652,-888.247130,1072.533697
1135.919272,-9474.636058,-814.226536,689.485948
1135.919593,-9474.636058,-444.123565,459.657299
1135.919914,-9622.677246,-222.061783,229.828649
1135.920235,-9696.697840,592.164754,1072.533697
1135.920555,-9770.718434,74.020594,0.000000
1135.920876,-9770.718434,222.061783,-153.219100
1135.921197,-9770.718434,222.061783,0.000000
1135.921518,-9770.718434,370.102971,0.000000
1135.921839,-9622.677246,222.061783,153.219100
1135.922159,-9844.739029,148.041188,0.000000
1135.922480,-9992.780217,0.000000,612.876398
1135.922801,-9622.677246,0.000000,612.876398
1135.923122,-9474.636058,-444.123565,1608.800546
1135.923443,-9622.677246,0.000000,1149.143247
1135.923763,-9548.656652,-370.102971,1455.581446
1135.924084,-9622.677246,-444.123565,1302.362347
1135.924405,-8586.388927,-1258.350101,612.876398
1135.924726,-9400.615463,-814.226536,1532.190996
1135.925047,-9548.656652,-592.164754,1455.581446
1135.925367,-9474.636058,-592.164754,1532.190996
1135.925688,-9474.636058,-518.144159,1762.019645
1135.926009,-9622.677246,-148.041188,1685.410096
1135.926330,-9770.718434,-148.041188,1838.629195
1135.926651,-9622.677246,-148.041188,2068.457845
1135.926971,-9474.636058,-296.082377,1532.190996
1135.927292,-9992.780217,0.000000,1915.238745
1135.927613,-9770.718434,-296.082377,1685.410096
1135.927934,-9474.636058,-222.061783,1532.190996
1135.928255,-9770.718434,-296.082377,1608.800546
1135.928575,-9474.636058,0.000000,1915.238745
1135.928896,-9548.656652,-296.082377,1685.410096
1135.929217,-9622.677246,-222.061783,1915.238745
1135.929538,-9696.697840,-222.061783,1685.410096
1135.929859,-9474.636058,-222.061783,1685.410096
1135.930179,-9474.636058,-592.164754,1838.629195
1135.930500,-9474.636058,-962.267725,1762.019645
1135.930821,-9400.615463,-666.185348,995.924147
1135.931142,-9474.636058,-666.185348,1302.362347
1135.931463,-9474.636058,0.000000,1302.362347
1135.931783,-9474.636058,0.000000,995.924147
1135.932104,-9474.636058,0.000000,689.485948
1135.932425,-9770.718434,74.020594,459.657299
1135.932746,-9992.780217,592.164754,-229.828649
1135.933067,-9696.697840,222.061783,0.000000
1135.933387,-9622.677246,222.061783,0.000000
1135.933708,-9770.718434,444.123565,76.609550
1135.934029,-9548.656652,592.164754,0.000000
1135.934350,-9770.718434,1036.288319,0.000000
1135.934671,-9770.718434,592.164754,0.000000
1135.934991,-9770.718434,296.082377,459.657299
1135.935312,-9918.759623,148.041188,306.438199
1135.935633,-9696.697840,-296.082377,459.657299
1135.935954,-9548.656652,-296.082377,919.314598
1135.936275,-9548.656652,-296.082377,842.705048
1135.936595,-9548.656652,-592.164754,919.314598
1135.936916,-9474.636058,-814.226536,612.876398
1135.937237,-9474.636058,-592.164754,1225.752797
1135.937558,-9474.636058,-666.185348,1225.752797
1135.937879,-9400.615463,-814.226536,1378.971896
1135.938199,-9252.574275,-666.185348,1302.362347
1135.938520,-9474.636058,-888.247130,1302.362347
1135.938841,-9474.636058,-814.226536,1302.362347
1135.939162,-9474.636058,-888.247130,1685.410096
1135.939483,-9548.656652,-814.226536,1455.581446
1135.939803,-9918.759623,0.000000,2298.286494
1135.940124,-9622.677246,-518.144159,1532.190996
1135.940445,-9548.656652,-296.082377,1378.971896
1135.940766,-9474.636058,-296.082377,1378.971896
1135.941087,-10288.862594,370.102971,536.266849
1135.941407,-9770.718434,-518.144159,1378.971896
1135.941728,-9622.677246,-592.164754,1762.019645
1135.942049,-9622.677246,-814.226536,1915.238745
1135.942370,-9400.615463,-666.185348,1838.629195
1135.942691,-9770.718434,-962.267725,1915.238745
1135.943011,-9548.656652,-814.226536,2145.067394
1135.943332,-9474.636058,-740.205942,1991.848295
1135.943653,-9252.574275,-1036.288319,2068.457845
1135.943974,-9030.512492,-962.267725,2145.067394
1135.944295,-9400.615463,-962.267725,1608.800546
1135.944615,-9474.636058,-888.247130,1378.971896
1135.944936,-9622.677246,-518.144159,1149.143247
1135.945257,-9622.677246,-518.144159,612.876398
1135.945578,-9918.759623,-148.041188,689.485948
1135.945899,-9992.780217,-148.041188,306.438199
1135.946219,-9918.759623,370.102971,76.609550
1135.946540,-9844.739029,296.082377,153.219100
1135.946861,-9992.780217,444.123565,0.000000
1135.947182,-9918.759623,518.144159,-306.438199
1135.947503,-9770.718434,0.000000,-306.438199
1135.947823,-9844.739029,0.000000,-306.438199
1135.948144,-9992.780217,74.020594,76.609550
1135.948465,-9474.636058,-444.123565,229.828649
1135.948786,-9548.656652,-518.144159,689.485948
1135.949107,-9696.697840,-666.185348,842.705048
1135.949427,-9252.574275,-1776.494261,766.095498
1135.949748,-9400.615463,-814.226536,1149.143247
1135.950069,-9474.636058,-962.267725,1302.362347
1135.950390,-9400.615463,-740.205942,1378.971896
1135.950711,-9474.636058,-666.185348,1302.362347
1135.951031,-9252.574275,-370.102971,1532.190996
1135.951352,-9474.636058,-444.123565,1455.581446
1135.951673,-9474.636058,-444.123565,1608.800546
1135.951994,-9252.574275,-592.164754,1378.971896
1135.952315,-9548.656652,-592.164754,842.705048
1135.952635,-9474.636058,-296.082377,1225.752797
1135.952956,-9622.677246,-370.102971,1378.971896
1135.953277,-9770.718434,-222.061783,1455.581446
1135.953598,-9548.656652,-296.082377,1225.752797
1135.953919,-9844.739029,148.041188,1608.800546
1135.954239,-9770.718434,0.000000,1455.581446
1135.954560,-9770.718434,-148.041188,1762.019645
1135.954881,-9918.759623,0.000000,2145.067394
1135.955202,-9474.636058,-296.082377,1838.629195
1135.955523,-9696.697840,-370.102971,1608.800546
1135.955843,-9696.697840,-296.082377,1838.629195
1135.956164,-9622.677246,-444.123565,1915.238745
1135.956485,-9326.594869,-518.144159,1685.410096
1135.956806,-9474.636058,-222.061783,1072.533697
1135.957127,-9622.677246,-296.082377,1149.143247
1135.957447,-9548.656652,0.000000,919.314598
1135.957768,-9844.739029,0.000000,1149.143247
1135.958089,-9622.677246,0.000000,536.266849
1135.958410,-9696.697840,0.000000,459.657299
1135.958731,-10066.800811,74.020594,459.657299
1135.959051,-9696.697840,74.020594,0.000000
1135.959372,-9918.759623,518.144159,383.047749
1135.959693,-9696.697840,296.082377,0.000000
1135.960014,-9548.656652,148.041188,0.000000
1135.960335,-9548.656652,518.144159,306.438199
1135.960655,-9918.759623,74.020594,0.000000
1135.960976,-9622.677246,74.020594,383.047749
1135.961297,-9400.615463,-296.082377,306.438199
1135.961618,-9474.636058,-370.102971,306.438199
1135.961939,-9696.697840,-592.164754,1072.533697
1135.962259,-9474.636058,-888.247130,1072.533697
1135.962580,-9474.636058,-592.164754,1378.971896
1135.962901,-9400.615463,-592.164754,1149.143247
1135.963222,-9400.615463,-592.164754,1302.362347
1135.963543,-9474.636058,-444.123565,1378.971896
1135.963863,-9400.615463,-296.082377,1302.362347
1135.964184,-9326.594869,-296.082377,1072.533697
1135.964505,-9474.636058,-370.102971,1378.971896
1135.964826,-8512.368333,0.000000,536.266849
1135.965147,-9696.697840,-592.164754,1608.800546
1135.965467,-9400.615463,-148.041188,1225.752797
1135.965788,-9770.718434,0.000000,1072.533697
1135.966109,-9622.677246,222.061783,1608.800546
1135.966430,-9770.718434,74.020594,1532.190996
1135.966751,-9992.780217,0.000000,1302.362347
1135.967071,-10066.800811,0.000000,1302.362347
1135.967392,-9770.718434,-296.082377,1302.362347
1135.967713,-9622.677246,-444.123565,1455.581446
1135.968034,-9844.739029,-444.123565,1532.190996
1135.968355,-9918.759623,-592.164754,1762.019645
1135.968675,-9696.697840,-666.185348,2221.676944
1135.968996,-9992.780217,-1036.288319,2068.457845
1135.969317,-9548.656652,-1406.391290,2145.067394
1135.969638,-9474.636058,-1406.391290,2068.457845
1135.969959,-9400.615463,-1332.370696,2068.457845
1135.970279,-9474.636058,-888.247130,1225.752797
1135.970600,-9400.615463,-1110.308913,1762.019645
1135.970921,-9474.636058,-962.267725,1225.752797
1135.971242,-9622.677246,-518.144159,842.705048
1135.971563,-9622.677246,74.020594,536.266849
1135.971883,-9474.636058,-222.061783,0.000000
1135.972204,-9622.677246,518.144159,0.000000
1135.972525,-9844.739029,444.123565,0.000000
1135.972846,-9770.718434,740.205942,0.000000
1135.973167,-10066.800811,592.164754,306.438199
1135.973487,-9770.718434,296.082377,76.609550
1135.973808,-9622.677246,74.020594,0.000000
1135.974129,-9770.718434,0.000000,229.828649
1135.974450,-9622.677246,-222.061783,229.828649
1135.974771,-9178.553681,-370.102971,842.705048
1135.975091,-9474.636058,-518.144159,919.314598
1135.975412,-9474.636058,-592.164754,919.314598
1135.975733,-9474.636058,-518.144159,995.924147
1135.976054,-9178.553681,-1110.308913,1225.752797
1135.976375,-9400.615463,-814.226536,1608.800546
1135.976695,-9474.636058,-740.205942,1455.581446
1135.977016,-9474.636058,-444.123565,1302.362347
1135.977337,-8660.409521,-740.205942,995.924147
1135.977658,-9474.636058,-370.102971,1378.971896
1135.977979,-9548.656652,-296.082377,1378.971896
1135.978299,-9548.656652,-148.041188,1762.019645
1135.978620,-9696.697840,0.000000,2604.724693
1135.978941,-9622.677246,0.000000,1225.752797
1135.979262,-9770.718434,-148.041188,1455.581446
1135.979583,-9770.718434,-296.082377,1762.019645
1135.979903,-9696.697840,-222.061783,2068.457845
1135.980224,-9326.594869,-592.164754,1838.629195
1135.980545,-9696.697840,-370.102971,1838.629195
1135.980866,-9844.739029,-592.164754,1762.019645
1135.981187,-9622.677246,-444.123565,1915.238745
1135.981507,-9918.759623,-444.123565,919.314598
1135.981828,-9474.636058,-814.226536,1532.190996
1135.982149,-9474.636058,-814.226536,995.924147
1135.982470,-9622.677246,-592.164754,1149.143247
1135.982791,-9474.636058,-444.123565,1149.143247
1135.983111,-9474.636058,-222.061783,1149.143247
1135.983432,-9770.718434,-444.123565,766.095498
1135.983753,-9770.718434,0.000000,842.705048
1135.984074,-9622.677246,-222.061783,766.095498
1135.984395,-10066.800811,-222.061783,76.609550
1135.984715,-9622.677246,0.000000,306.438199
1135.985036,-9548.656652,0.000000,0.000000
1135.985357,-9474.636058,0.000000,76.609550
1135.985678,-9252.574275,0.000000,153.219100
1135.985999,-9548.656652,444.123565,0.000000
