#time,accel_x,accel_y,accel_z
933.642463,-9548.656652,-592.164754,842.705048
933.642784,-9326.594869,74.020594,2911.162892
933.643105,-9622.677246,-74.020594,1225.752797
933.643427,-9696.697840,-444.123565,842.705048
933.643748,-9400.615463,-296.082377,842.705048
933.644069,-9770.718434,-296.082377,1072.533697
933.644390,-9474.636058,0.000000,1302.362347
933.644711,-9770.718434,-370.102971,919.314598
933.645032,-9474.636058,-444.123565,612.876398
933.645353,-9548.656652,-740.205942,689.485948
933.645674,-9178.553681,-592.164754,383.047749
933.645995,-9770.718434,-666.185348,766.095498
933.646316,-9548.656652,-148.041188,1072.533697
933.646637,-9770.718434,-222.061783,919.314598
933.646958,-9696.697840,-222.061783,306.438199
933.647280,-9474.636058,-740.205942,1072.533697
933.647601,-10066.800811,-444.123565,1532.190996
933.647922,-9474.636058,-444.123565,1302.362347
933.648243,-9622.677246,-666.185348,1072.533697
933.648564,-9770.718434,222.061783,1455.581446
933.648885,-9918.759623,-444.123565,1149.143247
933.649206,-9474.636058,-592.164754,919.314598
933.649527,-9474.636058,-1184.329507,306.438199
933.649848,-9770.718434,0.000000,-689.485948
933.650169,-9622.677246,-962.267725,459.657299
933.650490,-9918.759623,-740.205942,689.485948
933.650812,-9474.636058,-962.267725,76.609550
933.651133,-9400.615463,-1110.308913,0.000000
933.651454,-9770.718434,-666.185348,0.000000
933.651775,-9770.718434,-740.205942,0.000000
933.652096,-9992.780217,-1258.350101,0.000000
933.652417,-9622.677246,-1406.391290,-459.657299
933.652738,-9400.615463,-1184.329507,-306.438199
933.653059,-9252.574275,-1776.494261,-766.095498
933.653380,-9474.636058,-2146.597232,-766.095498
933.653701,-9178.553681,-2368.659014,-459.657299
933.654022,-8142.265362,-3552.988522,-229.828649
933.654343,-9178.553681,-3034.844362,-2145.067394
933.654665,-9104.533087,-3478.967927,-2528.115143
933.654986,-9326.594869,-3330.926739,-2298.286494
933.655307,-9622.677246,-3330.926739,-2834.553343
933.655628,-9622.677246,-3256.906145,-3294.210641
933.655949,-9548.656652,-3478.967927,-4136.915689
933.656270,-9474.636058,-3627.009116,-3983.696590
933.656591,-9696.697840,-3627.009116,-3524.039291
933.656912,-9770.718434,-3701.029710,-2987.772442
933.657233,-9474.636058,-4293.194464,-3447.429741
933.657554,-9696.697840,-4589.276840,-3217.601092
933.657875,-9474.636058,-4811.338623,-2834.553343
933.658196,-9474.636058,-4515.256246,-2757.943793
933.658518,-9474.636058,-4367.215058,-2374.896044
933.658839,-9548.656652,-4219.173869,-2451.505594
933.659160,-9474.636058,-3849.070898,-2604.724693
933.659481,-9622.677246,-3478.967927,-2834.553343
933.659802,-9474.636058,-3404.947333,-2451.505594
933.660123,-9696.697840,-3034.844362,-2681.334243
933.660444,-9770.718434,-2664.741391,-2604.724693
933.660765,-10066.800811,-2368.659014,-2451.505594
933.661086,-10214.842000,-2220.617826,-1915.238745
933.661407,-10436.903782,-2442.679609,-919.314598
933.661728,-10436.903782,-2220.617826,229.828649
933.662050,-10436.903782,-2590.720797,995.924147
933.662371,-10584.944971,-2146.597232,2298.286494
933.662692,-10066.800811,-3330.926739,1532.190996
933.663013,-9474.636058,-3404.947333,1455.581446
933.663334,-9178.553681,-3108.864956,766.095498
933.663655,-8882.471304,-2812.782580,76.609550
933.663976,-8808.450710,-2960.823768,-612.876398
933.664297,-8734.430116,-2886.803174,-919.314598
933.664618,-9104.533087,-2590.720797,-1149.143247
933.664939,-9474.636058,-2516.700203,-766.095498
933.665260,-9474.636058,-2886.803174,-306.438199
933.665581,-10214.842000,-2960.823768,0.000000
933.665903,-10288.862594,-3034.844362,0.000000
933.666224,-10436.903782,-2886.803174,-153.219100
933.666545,-9918.759623,-2590.720797,229.828649
933.666866,-9622.677246,-2516.700203,459.657299
933.667187,-9326.594869,-2072.576638,306.438199
933.667508,-9178.553681,-1776.494261,1072.533697
933.667829,-9178.553681,-1406.391290,1149.143247
933.668150,-9252.574275,-962.267725,995.924147
933.668471,-9104.533087,-1036.288319,995.924147
933.668792,-9030.512492,-814.226536,229.828649
933.669113,-8956.491898,-1480.411884,-766.095498
933.669435,-7476.080014,-740.205942,-1608.800546
933.669756,-8364.327145,-1776.494261,-3064.381992
933.670077,-9474.636058,-1924.535449,-3217.601092
933.670398,-9622.677246,-1998.556043,-3447.429741
933.670719,-10288.862594,-2294.638420,-4060.306139
933.671040,-10510.924376,-2368.659014,-4060.306139
933.671361,-10140.821405,-2072.576638,-3983.696590
933.671682,-10510.924376,-1036.288319,-2374.896044
933.672003,-10807.006753,-888.247130,-1072.533697
933.672324,-10362.883188,-1110.308913,153.219100
933.672645,-10658.965565,-1110.308913,0.000000
933.672966,-9770.718434,-1406.391290,-919.314598
933.673288,-9474.636058,-666.185348,-1532.190996
933.673609,-9252.574275,0.000000,-2374.896044
933.673930,-7994.224174,-148.041188,-2757.943793
933.674251,-7698.141797,-814.226536,-3447.429741
933.674572,-8734.430116,-1480.411884,-3753.867940
933.674893,-9178.553681,-2294.638420,-3294.210641
933.675214,-9992.780217,-2738.761985,-2681.334243
933.675535,-10955.047942,-2220.617826,-995.924147
933.675856,-11547.212695,-1776.494261,76.609550
933.676177,-11325.150913,-2220.617826,995.924147
933.676498,-11547.212695,-3256.906145,229.828649
933.676819,-9992.780217,-3627.009116,-459.657299
933.677141,-8956.491898,-3701.029710,-1378.971896
933.677462,-8068.244768,-3108.864956,-1302.362347
933.677783,-7846.182985,-3034.844362,-1532.190996
933.678104,-7698.141797,-3330.926739,-2221.676944
933.678425,-7920.203579,-3923.091493,-2374.896044
933.678746,-7772.162391,-3404.947333,-1915.238745
933.679067,-9326.594869,-3108.864956,0.000000
933.679388,-10362.883188,-3034.844362,1762.019645
933.679709,-11177.109724,-3627.009116,2221.676944
933.680030,-10658.965565,-3923.091493,536.266849
933.680351,-10066.800811,-3701.029710,76.609550
933.680673,-10066.800811,-2886.803174,536.266849
933.680994,-10288.862594,-3330.926739,0.000000
933.681315,-8882.471304,-3182.885551,-1685.410096
933.681636,-7994.224174,-1924.535449,-2451.505594
933.681957,-8586.388927,-1702.473667,-1608.800546
933.682278,-9474.636058,-2368.659014,612.876398
933.682599,-9992.780217,-2664.741391,1072.533697
933.682920,-9474.636058,-3330.926739,-842.705048
933.683241,-8586.388927,-2738.761985,-1225.752797
933.683562,-9696.697840,-2590.720797,-229.828649
933.683883,-10214.842000,-3701.029710,0.000000
933.684204,-9992.780217,-4515.256246,-1838.629195
933.684526,-9252.574275,-3849.070898,-3677.258390
933.684847,-9400.615463,-2738.761985,-3294.210641
933.685168,-10732.986159,-1924.535449,-2221.676944
933.685489,-11547.212695,-1998.556043,-1762.019645
933.685810,-10140.821405,-2294.638420,-2451.505594
933.686131,-9474.636058,-1776.494261,-3294.210641
933.686452,-9548.656652,-2738.761985,-2374.896044
933.686773,-10436.903782,-2960.823768,-689.485948
933.687094,-9474.636058,-444.123565,766.095498
933.687415,-10288.862594,-74.020594,2068.457845
933.687736,-8956.491898,-444.123565,766.095498
933.688057,-9770.718434,-1702.473667,229.828649
933.688379,-9400.615463,-1184.329507,-383.047749
933.688700,-8956.491898,-814.226536,-383.047749
933.689021,-8290.306550,-740.205942,-306.438199
933.689342,-8660.409521,-1480.411884,-2221.676944
933.689663,-8956.491898,0.000000,-2911.162892
933.689984,-10288.862594,0.000000,-536.266849
933.690305,-9918.759623,-1406.391290,0.000000
933.690626,-10510.924376,-1554.432478,-306.438199
933.690947,-10881.027347,-1110.308913,-995.924147
933.691268,-9770.718434,-296.082377,229.828649
933.691589,-9992.780217,-148.041188,919.314598
933.691911,-9104.533087,0.000000,2451.505594
933.692232,-9622.677246,-888.247130,1532.190996
933.692553,-8586.388927,-1036.288319,459.657299
933.692874,-8290.306550,-1184.329507,0.000000
933.693195,-8068.244768,1036.288319,-766.095498
933.693516,-8956.491898,888.247130,459.657299
933.693837,-8512.368333,0.000000,1455.581446
933.694158,-8586.388927,-1850.514855,459.657299
933.694479,-10362.883188,-1850.514855,76.609550
933.694800,-10658.965565,-2146.597232,1762.019645
933.695121,-11177.109724,-2072.576638,3217.601092
933.695442,-10362.883188,-592.164754,2451.505594
933.695764,-10732.986159,0.000000,1838.629195
933.696085,-9548.656652,-296.082377,153.219100
933.696406,-8142.265362,962.267725,1838.629195
933.696727,-11325.150913,444.123565,2451.505594
933.697048,-9918.759623,888.247130,2681.334243
933.697369,-8438.347739,666.185348,1532.190996
933.697690,-10436.903782,666.185348,2528.115143
933.698011,-8068.244768,962.267725,1225.752797
933.698332,-10807.006753,-148.041188,2681.334243
933.698653,-7846.182985,-666.185348,2528.115143
933.698974,-9844.739029,-1776.494261,76.609550
933.699295,-10584.944971,-888.247130,2145.067394
933.699616,-10214.842000,-888.247130,1225.752797
933.699937,-9992.780217,814.226536,0.000000
933.700258,-11843.295072,1702.473667,536.266849
933.700580,-8364.327145,1702.473667,-689.485948
933.700901,-9104.533087,740.205942,-153.219100
933.701222,-10658.965565,0.000000,919.314598
933.701543,-9918.759623,-666.185348,0.000000
933.701864,-9770.718434,-518.144159,689.485948
933.702185,-9770.718434,-592.164754,383.047749
933.702506,-8438.347739,518.144159,919.314598
933.702827,-9252.574275,-1184.329507,306.438199
933.703148,-8068.244768,-1702.473667,306.438199
933.703469,-9030.512492,-1702.473667,-459.657299
933.703790,-8882.471304,-2960.823768,-229.828649
933.704111,-9252.574275,-1924.535449,-306.438199
933.704432,-10140.821405,-1110.308913,76.609550
933.704753,-10436.903782,-740.205942,919.314598
933.705074,-9474.636058,0.000000,995.924147
933.705395,-8808.450710,222.061783,1532.190996
933.705716,-10807.006753,-2220.617826,1302.362347
933.706038,-8882.471304,-1702.473667,612.876398
933.706359,-9474.636058,-1776.494261,0.000000
933.706680,-9178.553681,370.102971,383.047749
933.707001,-7994.224174,814.226536,1378.971896
933.707322,-8586.388927,-370.102971,1685.410096
933.707643,-9030.512492,-222.061783,1455.581446
933.707964,-9400.615463,-740.205942,842.705048
933.708285,-10732.986159,-1850.514855,1762.019645
933.708606,-9770.718434,-1776.494261,1532.190996
933.708927,-11029.068536,-962.267725,1685.410096
933.709248,-10510.924376,-296.082377,1455.581446
933.709569,-9400.615463,592.164754,1608.800546
933.709890,-10510.924376,2072.576638,2221.676944
933.710211,-11103.089130,148.041188,1838.629195
933.710532,-9696.697840,-148.041188,1378.971896
933.710853,-9918.759623,0.000000,919.314598
933.711175,-9474.636058,0.000000,1915.238745
933.711496,-8734.430116,888.247130,536.266849
933.711817,-8216.285956,-740.205942,919.314598
933.712138,-7994.224174,-518.144159,842.705048
933.712459,-9992.780217,-1554.432478,995.924147
933.712780,-9622.677246,-1554.432478,1762.019645
933.713101,-10955.047942,-1110.308913,2604.724693
933.713422,-11251.130318,222.061783,2681.334243
933.713743,-11399.171507,1184.329507,2681.334243
933.714064,-9844.739029,1924.535449,3677.258390
933.714385,-9770.718434,962.267725,2451.505594
933.714706,-9548.656652,-1036.288319,842.705048
933.715027,-8290.306550,-1702.473667,0.000000
933.715348,-8364.327145,-814.226536,-1072.533697
933.715669,-9326.594869,1554.432478,0.000000
933.715990,-8364.327145,1998.556043,1072.533697
933.716311,-8660.409521,740.205942,1455.581446
933.716633,-8808.450710,0.000000,2221.676944
933.716954,-9844.739029,-1480.411884,1762.019645
933.717275,-9992.780217,-1776.494261,2145.067394
933.717596,-10066.800811,-814.226536,1455.581446
933.717917,-9326.594869,296.082377,536.266849
933.718238,-8882.471304,1406.391290,0.000000
933.718559,-8438.347739,2294.638420,383.047749
933.718880,-9474.636058,1998.556043,612.876398
933.719201,-9844.739029,444.123565,842.705048
933.719522,-9178.553681,-518.144159,229.828649
933.719843,-10732.986159,-2146.597232,229.828649
933.720164,-9770.718434,-1258.350101,229.828649
933.720485,-9770.718434,-1554.432478,536.266849
933.720806,-9178.553681,-740.205942,1072.533697
933.721127,-10807.006753,0.000000,1455.581446
933.721448,-10881.027347,222.061783,919.314598
933.721769,-9992.780217,0.000000,459.657299
933.722091,-10214.842000,592.164754,842.705048
933.722412,-9918.759623,0.000000,0.000000
933.722733,-9326.594869,-296.082377,383.047749
933.723054,-9326.594869,-296.082377,1378.971896
933.723375,-9992.780217,-740.205942,2068.457845
933.723696,-10436.903782,-1850.514855,1685.410096
933.724017,-9844.739029,-1554.432478,1072.533697
933.724338,-10510.924376,-592.164754,306.438199
933.724659,-9696.697840,666.185348,306.438199
933.724980,-9326.594869,74.020594,995.924147
933.725301,-9030.512492,-592.164754,1685.410096
933.725622,-9474.636058,-1850.514855,1149.143247
933.725943,-9474.636058,-2442.679609,1302.362347
933.726264,-9474.636058,-1850.514855,1149.143247
933.726585,-9918.759623,-518.144159,2221.676944
933.726906,-8808.450710,592.164754,1302.362347
933.727228,-8882.471304,740.205942,1225.752797
933.727549,-9178.553681,222.061783,2068.457845
933.727870,-9770.718434,-1332.370696,1762.019645
933.728191,-9326.594869,-2886.803174,842.705048
933.728512,-9252.574275,-3404.947333,1302.362347
933.728833,-10510.924376,-1924.535449,1149.143247
933.729154,-9844.739029,-1110.308913,1685.410096
933.729475,-8808.450710,-740.205942,1225.752797
933.729796,-9326.594869,-518.144159,842.705048
933.730117,-9104.533087,-962.267725,0.000000
933.730438,-9696.697840,-1036.288319,0.000000
933.730759,-9918.759623,-518.144159,0.000000
933.731080,-10214.842000,-296.082377,-229.828649
933.731401,-9474.636058,518.144159,-459.657299
933.731722,-9622.677246,1036.288319,689.485948
933.732043,-10955.047942,814.226536,2451.505594
933.732364,-11843.295072,0.000000,2834.553343
933.732686,-10140.821405,-666.185348,1685.410096
933.733007,-9992.780217,-1036.288319,459.657299
933.733328,-9548.656652,-592.164754,-536.266849
933.733649,-8068.244768,0.000000,-1455.581446
933.733970,-8216.285956,370.102971,-1991.848295
933.734291,-7920.203579,740.205942,-1302.362347
933.734612,-9104.533087,-740.205942,-536.266849
933.734933,-9770.718434,-592.164754,995.924147
933.735254,-11325.150913,-888.247130,1532.190996
933.735575,-11547.212695,740.205942,2757.943793
933.735896,-9844.739029,1628.453072,3217.601092
933.736217,-10214.842000,962.267725,3447.429741
933.736538,-9252.574275,370.102971,2451.505594
933.736859,-8956.491898,-740.205942,1991.848295
933.737180,-8142.265362,-1702.473667,306.438199
933.737501,-8216.285956,-370.102971,0.000000
933.737823,-7846.182985,-518.144159,1302.362347
933.738144,-8586.388927,888.247130,1991.848295
933.738465,-8808.450710,148.041188,2145.067394
933.738786,-9622.677246,0.000000,3140.991542
933.739107,-10584.944971,-1480.411884,2604.724693
933.739428,-9992.780217,-1628.453072,2374.896044
933.739749,-10732.986159,-888.247130,2528.115143
933.740070,-9770.718434,0.000000,1685.410096
933.740391,-8512.368333,1184.329507,1302.362347
933.740712,-8586.388927,2516.700203,3447.429741
933.741033,-9844.739029,296.082377,1991.848295
933.741354,-9400.615463,-962.267725,1225.752797
933.741675,-9918.759623,-1554.432478,919.314598
933.741996,-9844.739029,0.000000,1302.362347
933.742317,-10584.944971,-296.082377,2145.067394
933.742638,-9400.615463,148.041188,1915.238745
933.742959,-9474.636058,0.000000,1762.019645
933.743281,-9622.677246,0.000000,459.657299
933.743602,-10510.924376,0.000000,1225.752797
933.743923,-9770.718434,-814.226536,995.924147
933.744244,-10732.986159,0.000000,536.266849
933.744565,-9992.780217,518.144159,306.438199
933.744886,-9474.636058,1036.288319,689.485948
933.745207,-8956.491898,148.041188,229.828649
933.745528,-10362.883188,74.020594,1302.362347
933.745849,-9918.759623,-1258.350101,383.047749
933.746170,-9548.656652,-1110.308913,-306.438199
933.746491,-9918.759623,296.082377,0.000000
933.746812,-9326.594869,296.082377,-229.828649
933.747133,-9252.574275,-518.144159,383.047749
933.747454,-8734.430116,-592.164754,766.095498
933.747775,-9474.636058,-1776.494261,0.000000
933.748096,-9622.677246,-2368.659014,536.266849
933.748417,-9696.697840,-2146.597232,0.000000
933.748739,-9992.780217,-370.102971,229.828649
933.749060,-9622.677246,148.041188,0.000000
933.749381,-8882.471304,1406.391290,306.438199
933.749702,-8142.265362,1406.391290,1915.238745
933.750023,-9844.739029,-1998.556043,306.438199
933.750344,-7994.224174,-2442.679609,383.047749
933.750665,-8660.409521,-2738.761985,612.876398
933.750986,-9400.615463,-1258.350101,0.000000
933.751307,-9622.677246,-370.102971,1225.752797
933.751628,-8808.450710,-444.123565,1072.533697
933.751949,-8660.409521,-222.061783,766.095498
933.752270,-10288.862594,-1332.370696,995.924147
933.752591,-10140.821405,-1036.288319,2145.067394
933.752912,-11325.150913,-1258.350101,2911.162892
933.753233,-11325.150913,-1110.308913,5286.058936
933.753554,-9918.759623,-962.267725,2451.505594
933.753876,-9030.512492,0.000000,1762.019645
933.754197,-8956.491898,1332.370696,1838.629195
933.754518,-10214.842000,0.000000,2068.457845
933.754839,-8586.388927,-370.102971,689.485948
933.755160,-9252.574275,-1110.308913,-689.485948
933.755481,-9326.594869,222.061783,-1302.362347
933.755802,-8882.471304,1480.411884,76.609550
933.756123,-9844.739029,148.041188,1838.629195
933.756444,-9844.739029,-296.082377,2528.115143
933.756765,-10584.944971,-2220.617826,1762.019645
933.757086,-10436.903782,-1998.556043,2528.115143
933.757407,-11399.171507,-1332.370696,2757.943793
933.757728,-10881.027347,1110.308913,2528.115143
933.758049,-10066.800811,2294.638420,2221.676944
933.758370,-8290.306550,2442.679609,1991.848295
933.758691,-9104.533087,888.247130,1302.362347
933.759012,-9474.636058,-814.226536,1302.362347
933.759334,-9474.636058,-1998.556043,536.266849
933.759655,-9030.512492,-888.247130,-383.047749
933.759976,-9992.780217,1036.288319,612.876398
933.760297,-9178.553681,1702.473667,612.876398
933.760618,-8956.491898,1110.308913,1532.190996
933.760939,-9548.656652,74.020594,1072.533697
933.761260,-9696.697840,-1258.350101,0.000000
933.761581,-9622.677246,-1776.494261,-459.657299
933.761902,-9622.677246,-1480.411884,0.000000
933.762223,-8882.471304,-444.123565,-383.047749
933.762544,-8290.306550,518.144159,536.266849
933.762865,-8290.306550,1184.329507,1532.190996
933.763186,-10584.944971,0.000000,2757.943793
933.763507,-10288.862594,-1776.494261,2298.286494
933.763828,-9992.780217,-2886.803174,1149.143247
933.764149,-9622.677246,-1036.288319,229.828649
933.764470,-9104.533087,222.061783,766.095498
933.764792,-8808.450710,222.061783,1072.533697
933.765113,-8142.265362,444.123565,842.705048
933.765434,-9622.677246,-148.041188,0.000000
933.765755,-9474.636058,666.185348,0.000000
933.766076,-10288.862594,-444.123565,919.314598
933.766397,-11547.212695,-296.082377,1225.752797
933.766718,-9770.718434,74.020594,459.657299
933.767039,-8882.471304,888.247130,842.705048
933.767360,-9474.636058,1184.329507,2451.505594
933.767681,-10436.903782,444.123565,2681.334243
933.768002,-10066.800811,-518.144159,2221.676944
933.768323,-9696.697840,-962.267725,612.876398
933.768644,-9992.780217,74.020594,-1302.362347
933.768965,-9844.739029,0.000000,766.095498
933.769286,-9474.636058,-370.102971,766.095498
933.769607,-8660.409521,-1110.308913,383.047749
933.769929,-10066.800811,-1998.556043,612.876398
933.770250,-10140.821405,-2072.576638,612.876398
933.770571,-10807.006753,-1702.473667,1072.533697
933.770892,-10955.047942,-518.144159,1302.362347
933.771213,-9918.759623,0.000000,766.095498
933.771534,-8290.306550,-296.082377,1455.581446
933.771855,-8882.471304,-740.205942,2145.067394
933.772176,-9252.574275,-1850.514855,2068.457845
933.772497,-9252.574275,-2294.638420,1149.143247
933.772818,-8660.409521,-1110.308913,1762.019645
933.773139,-9474.636058,222.061783,1072.533697
933.773460,-9474.636058,1332.370696,1762.019645
933.773781,-9252.574275,0.000000,1608.800546
933.774102,-8068.244768,-1036.288319,306.438199
933.774423,-9030.512492,-2516.700203,0.000000
933.774744,-9474.636058,-2664.741391,153.219100
933.775065,-9548.656652,-592.164754,766.095498
933.775387,-10362.883188,444.123565,995.924147
933.775708,-8660.409521,2146.597232,1685.410096
933.776029,-8586.388927,1480.411884,2068.457845
933.776350,-10288.862594,444.123565,2681.334243
933.776671,-10436.903782,-814.226536,1838.629195
933.776992,-10584.944971,-1332.370696,1915.238745
933.777313,-9918.759623,-814.226536,1838.629195
933.777634,-10362.883188,222.061783,1608.800546
933.777955,-10436.903782,1110.308913,2451.505594
933.778276,-8660.409521,814.226536,1685.410096
933.778597,-9178.553681,-370.102971,-766.095498
933.778918,-9474.636058,-592.164754,-536.266849
933.779239,-9548.656652,-740.205942,-1072.533697
933.779560,-9844.739029,74.020594,-766.095498
933.779881,-10066.800811,1110.308913,0.000000
933.780202,-9030.512492,740.205942,1302.362347
933.780524,-10510.924376,222.061783,2451.505594
933.780845,-11251.130318,74.020594,3677.258390
933.781166,-11621.233289,-1406.391290,2757.943793
933.781487,-9770.718434,-1036.288319,1072.533697
933.781808,-7920.203579,148.041188,-995.924147
933.782129,-8068.244768,1850.514855,-1302.362347
933.782450,-7624.121203,814.226536,-842.705048
933.782771,-6883.915261,0.000000,0.000000
933.783092,-8142.265362,-740.205942,0.000000
933.783413,-10066.800811,-2072.576638,919.314598
933.783734,-10584.944971,-2368.659014,1762.019645
933.784055,-11695.253884,0.000000,3600.648841
933.784376,-11695.253884,1184.329507,2911.162892
933.784697,-9696.697840,1480.411884,2987.772442
933.785018,-9326.594869,592.164754,3217.601092
933.785339,-9696.697840,-1480.411884,1991.848295
933.785660,-9030.512492,-2368.659014,995.924147
933.785982,-8364.327145,-2368.659014,229.828649
933.786303,-8216.285956,-962.267725,-306.438199
933.786624,-9178.553681,1554.432478,383.047749
933.786945,-9474.636058,1480.411884,1991.848295
933.787266,-9326.594869,1554.432478,2528.115143
933.787587,-10732.986159,-518.144159,2374.896044
933.787908,-10510.924376,-2590.720797,995.924147
933.788229,-9844.739029,-962.267725,1838.629195
933.788550,-12583.501014,-2368.659014,1915.238745
933.788871,-8882.471304,370.102971,612.876398
933.789192,-9104.533087,1036.288319,0.000000
933.789513,-10066.800811,1850.514855,383.047749
933.789834,-9326.594869,666.185348,919.314598
933.790155,-10955.047942,-1776.494261,919.314598
933.790476,-10436.903782,-1258.350101,2145.067394
933.790797,-8808.450710,-2294.638420,-1149.143247
933.791118,-10362.883188,-740.205942,1225.752797
933.791440,-7476.080014,-1332.370696,842.705048
933.791761,-8882.471304,-592.164754,0.000000
933.792082,-9770.718434,-1406.391290,1072.533697
933.792403,-7179.997637,-148.041188,-1225.752797
933.792724,-10732.986159,-1332.370696,-153.219100
933.793045,-11843.295072,148.041188,1608.800546
933.793366,-9474.636058,296.082377,1378.971896
933.793687,-9474.636058,-444.123565,1915.238745
933.794008,-9474.636058,-740.205942,2145.067394
933.794329,-9770.718434,-1850.514855,842.705048
933.794650,-9622.677246,-2442.679609,0.000000
933.794971,-9252.574275,-888.247130,-459.657299
933.795292,-8808.450710,1258.350101,-1149.143247
933.795613,-8364.327145,1184.329507,229.828649
933.795934,-8438.347739,592.164754,919.314598
933.796255,-8586.388927,148.041188,536.266849
933.796576,-9918.759623,-1998.556043,229.828649
933.796897,-10214.842000,-962.267725,1685.410096
933.797218,-10658.965565,-666.185348,995.924147
933.797539,-11325.150913,370.102971,1072.533697
933.797860,-9104.533087,1184.329507,842.705048
933.798181,-8734.430116,666.185348,229.828649
933.798502,-9844.739029,666.185348,1455.581446
933.798823,-10288.862594,-592.164754,995.924147
933.799144,-9992.780217,-1258.350101,995.924147
933.799465,-10066.800811,-1258.350101,612.876398
933.799786,-9622.677246,370.102971,995.924147
933.800107,-9178.553681,-222.061783,1532.190996
933.800428,-9326.594869,296.082377,2374.896044
933.800748,-10140.821405,-148.041188,2298.286494
933.801069,-10140.821405,-592.164754,1378.971896
933.801390,-10807.006753,-296.082377,1915.238745
933.801711,-10288.862594,740.205942,2604.724693
933.802032,-10807.006753,0.000000,2145.067394
933.802353,-9252.574275,1406.391290,995.924147
933.802674,-9548.656652,962.267725,1991.848295
933.802995,-9474.636058,370.102971,1608.800546
933.803316,-9770.718434,-296.082377,1762.019645
933.803637,-8882.471304,-888.247130,995.924147
933.803958,-9770.718434,-518.144159,536.266849
933.804279,-8956.491898,814.226536,766.095498
933.804600,-9104.533087,444.123565,2145.067394
933.804921,-8438.347739,-740.205942,1838.629195
933.805242,-9178.553681,-1110.308913,1378.971896
933.805562,-9548.656652,-1924.535449,1608.800546
933.805883,-9844.739029,-2812.782580,1455.581446
933.806204,-9770.718434,-888.247130,1225.752797
933.806525,-9178.553681,518.144159,1685.410096
933.806846,-8882.471304,148.041188,1455.581446
933.807167,-9252.574275,-148.041188,2374.896044
933.807488,-9474.636058,-1850.514855,1378.971896
933.807809,-9474.636058,-2516.700203,0.000000
933.808130,-9326.594869,-1332.370696,0.000000
933.808451,-10362.883188,0.000000,612.876398
933.808772,-9918.759623,592.164754,1302.362347
933.809093,-8438.347739,296.082377,1378.971896
933.809414,-8438.347739,-740.205942,0.000000
933.809735,-9474.636058,-740.205942,-153.219100
933.810055,-9918.759623,-1776.494261,-612.876398
933.810376,-9548.656652,-444.123565,-229.828649
933.810697,-9622.677246,222.061783,-1225.752797
933.811018,-8660.409521,1332.370696,-1302.362347
933.811339,-9400.615463,1776.494261,-459.657299
933.811660,-9918.759623,1924.535449,1608.800546
933.811981,-12065.356855,-370.102971,2221.676944
933.812302,-10436.903782,-1924.535449,2145.067394
933.812623,-11103.089130,-2664.741391,919.314598
933.812944,-10955.047942,-1184.329507,1378.971896
933.813265,-9770.718434,-444.123565,1685.410096
933.813586,-8660.409521,518.144159,1378.971896
933.813907,-9178.553681,444.123565,1225.752797
933.814228,-8660.409521,0.000000,0.000000
933.814549,-9326.594869,-592.164754,0.000000
933.814869,-9252.574275,-962.267725,612.876398
933.815190,-9548.656652,0.000000,536.266849
933.815511,-9474.636058,0.000000,1149.143247
933.815832,-8586.388927,-296.082377,2221.676944
933.816153,-9992.780217,-1628.453072,2451.505594
933.816474,-11029.068536,-1850.514855,2528.115143
933.816795,-9770.718434,-2590.720797,1838.629195
933.817116,-9548.656652,-1110.308913,1225.752797
933.817437,-9548.656652,592.164754,1378.971896
933.817758,-8956.491898,296.082377,995.924147
933.818079,-8438.347739,-148.041188,1225.752797
933.818400,-8438.347739,-1184.329507,612.876398
933.818721,-9548.656652,-1628.453072,766.095498
933.819042,-9622.677246,-1702.473667,2298.286494
933.819362,-10658.965565,-1036.288319,1685.410096
933.819683,-10140.821405,1332.370696,1915.238745
933.820004,-8956.491898,2072.576638,1608.800546
933.820325,-9400.615463,1850.514855,2451.505594
933.820646,-9548.656652,814.226536,2145.067394
933.820967,-9992.780217,-1480.411884,1225.752797
933.821288,-9252.574275,-1850.514855,0.000000
933.821609,-9474.636058,0.000000,76.609550
933.821930,-10584.944971,1480.411884,842.705048
933.822251,-9918.759623,2294.638420,2298.286494
933.822572,-9622.677246,1702.473667,2374.896044
933.822893,-10140.821405,0.000000,1378.971896
933.823214,-10288.862594,-1110.308913,-536.266849
933.823535,-10140.821405,-1258.350101,842.705048
933.823856,-10288.862594,-518.144159,919.314598
933.824176,-9252.574275,518.144159,459.657299
933.824497,-8586.388927,1332.370696,689.485948
933.824818,-9030.512492,1036.288319,919.314598
933.825139,-9918.759623,592.164754,1225.752797
933.825460,-9992.780217,-814.226536,842.705048
933.825781,-9696.697840,-1258.350101,76.609550
933.826102,-9622.677246,222.061783,306.438199
933.826423,-9474.636058,0.000000,1072.533697
933.826744,-9474.636058,0.000000,2221.676944
933.827065,-9030.512492,-148.041188,1762.019645
933.827386,-9918.759623,-888.247130,1149.143247
933.827707,-10140.821405,-962.267725,1378.971896
933.828028,-10214.842000,148.041188,1455.581446
933.828349,-10955.047942,370.102971,1762.019645
933.828669,-8734.430116,740.205942,383.047749
933.828990,-8068.244768,518.144159,76.609550
933.829311,-9252.574275,-888.247130,919.314598
933.829632,-8956.491898,-1850.514855,459.657299
933.829953,-9622.677246,-2664.741391,0.000000
933.830274,-8808.450710,-1110.308913,1072.533697
933.830595,-9770.718434,814.226536,459.657299
933.830916,-10584.944971,1036.288319,1685.410096
933.831237,-9548.656652,666.185348,1991.848295
933.831558,-8734.430116,-370.102971,2681.334243
933.831879,-10214.842000,-1036.288319,536.266849
933.832200,-10066.800811,-1110.308913,842.705048
933.832521,-9992.780217,-296.082377,919.314598
933.832842,-9992.780217,444.123565,689.485948
933.833163,-9400.615463,592.164754,842.705048
933.833483,-8808.450710,-296.082377,995.924147
933.833804,-9992.780217,-1110.308913,1378.971896
933.834125,-10584.944971,-2146.597232,1072.533697
933.834446,-9474.636058,-2220.617826,766.095498
933.834767,-9918.759623,-1110.308913,1149.143247
933.835088,-10584.944971,-518.144159,1608.800546
933.835409,-10066.800811,-740.205942,2145.067394
933.835730,-9104.533087,-740.205942,2374.896044
933.836051,-9104.533087,-1184.329507,689.485948
933.836372,-9844.739029,-1332.370696,0.000000
933.836693,-8290.306550,-592.164754,76.609550
933.837014,-9918.759623,-1036.288319,0.000000
933.837335,-9030.512492,-370.102971,153.219100
933.837656,-8734.430116,-1184.329507,-76.609550
933.837976,-8956.491898,-1332.370696,1302.362347
933.838297,-10140.821405,-592.164754,1991.848295
933.838618,-12065.356855,-962.267725,2681.334243
933.838939,-9844.739029,-1332.370696,1838.629195
933.839260,-9474.636058,-148.041188,1225.752797
933.839581,-9696.697840,148.041188,1532.190996
933.839902,-8586.388927,0.000000,1149.143247
933.840223,-8438.347739,0.000000,1072.533697
933.840544,-8734.430116,0.000000,919.314598
933.840865,-9548.656652,-1036.288319,459.657299
933.841186,-9918.759623,-666.185348,1225.752797
933.841507,-10955.047942,-148.041188,1532.190996
933.841828,-10214.842000,518.144159,1762.019645
933.842149,-9326.594869,370.102971,1608.800546
933.842470,-9178.553681,370.102971,2068.457845
933.842790,-10066.800811,-518.144159,536.266849
933.843111,-9770.718434,-1332.370696,842.705048
933.843432,-9252.574275,-740.205942,306.438199
933.843753,-9326.594869,-370.102971,-229.828649
933.844074,-9474.636058,888.247130,459.657299
933.844395,-9474.636058,444.123565,1378.971896
933.844716,-9400.615463,666.185348,1838.629195
933.845037,-10658.965565,-148.041188,1532.190996
933.845358,-10510.924376,-518.144159,1685.410096
933.845679,-10288.862594,518.144159,1225.752797
933.846000,-11029.068536,444.123565,1302.362347
933.846321,-9326.594869,1184.329507,1378.971896
933.846642,-8586.388927,666.185348,612.876398
933.846963,-8512.368333,444.123565,1225.752797
933.847284,-9844.739029,-518.144159,1072.533697
933.847604,-9770.718434,-1036.288319,536.266849
933.847925,-9844.739029,-444.123565,766.095498
933.848246,-10140.821405,-148.041188,612.876398
933.848567,-9548.656652,592.164754,1072.533697
933.848888,-9326.594869,0.000000,1532.190996
933.849209,-9030.512492,148.041188,1991.848295
933.849530,-10436.903782,-444.123565,1532.190996
933.849851,-9696.697840,-1554.432478,1838.629195
933.850172,-9770.718434,-1258.350101,1455.581446
933.850493,-9622.677246,-370.102971,842.705048
933.850814,-9178.553681,74.020594,766.095498
933.851135,-8290.306550,148.041188,1532.190996
933.851456,-9030.512492,-666.185348,1762.019645
933.851777,-9474.636058,-1406.391290,1072.533697
933.852097,-9474.636058,-1776.494261,842.705048
933.852418,-10436.903782,-1702.473667,153.219100
933.852739,-10214.842000,0.000000,536.266849
933.853060,-9548.656652,444.123565,1378.971896
933.853381,-8660.409521,-740.205942,919.314598
933.853702,-8808.450710,0.000000,766.095498
933.854023,-10288.862594,-1332.370696,689.485948
933.854344,-9918.759623,-1406.391290,1225.752797
933.854665,-9918.759623,-296.082377,1225.752797
933.854986,-10288.862594,518.144159,995.924147
933.855307,-9622.677246,1184.329507,536.266849
933.855628,-9178.553681,1702.473667,1685.410096
933.855949,-9770.718434,1184.329507,1915.238745
933.856270,-9844.739029,-962.267725,995.924147
933.856591,-9326.594869,-1554.432478,1378.971896
933.856911,-10362.883188,-1776.494261,459.657299
933.857232,-10140.821405,-666.185348,995.924147
933.857553,-9622.677246,-888.247130,995.924147
933.857874,-8882.471304,-518.144159,842.705048
933.858195,-9622.677246,-296.082377,-306.438199
933.858516,-9696.697840,0.000000,76.609550
933.858837,-9992.780217,-592.164754,919.314598
933.859158,-10066.800811,-814.226536,0.000000
933.859479,-9474.636058,-1036.288319,-766.095498
933.859800,-8660.409521,-1554.432478,-459.657299
933.860121,-8142.265362,-740.205942,842.705048
933.860442,-9252.574275,-666.185348,1378.971896
933.860763,-9548.656652,-1258.350101,1378.971896
933.861084,-9400.615463,-1554.432478,1149.143247
933.861404,-10214.842000,-1480.411884,1225.752797
933.861725,-10140.821405,-222.061783,1608.800546
933.862046,-10658.965565,-1184.329507,2374.896044
933.862367,-9030.512492,-1184.329507,2145.067394
933.862688,-9474.636058,-2072.576638,612.876398
933.863009,-9400.615463,-1628.453072,306.438199
933.863330,-9400.615463,-1258.350101,536.266849
933.863651,-9400.615463,-74.020594,689.485948
933.863972,-9770.718434,1702.473667,229.828649
933.864293,-8290.306550,2368.659014,842.705048
933.864614,-10066.800811,2220.617826,2987.772442
933.864935,-10658.965565,740.205942,4136.915689
933.865256,-10807.006753,-1480.411884,2681.334243
933.865577,-9770.718434,-2294.638420,1225.752797
933.865898,-9400.615463,-148.041188,842.705048
933.866218,-10140.821405,1850.514855,1455.581446
933.866539,-9252.574275,2220.617826,1915.238745
933.866860,-8290.306550,1628.453072,842.705048
933.867181,-9104.533087,74.020594,0.000000
933.867502,-9992.780217,-1628.453072,-229.828649
933.867823,-9326.594869,-666.185348,1532.190996
933.868144,-11547.212695,-666.185348,2374.896044
933.868465,-10214.842000,592.164754,2374.896044
933.868786,-9474.636058,962.267725,2987.772442
933.869107,-9992.780217,962.267725,2834.553343
933.869428,-10732.986159,-666.185348,2681.334243
933.869749,-9770.718434,-1110.308913,1149.143247
933.870070,-9252.574275,-814.226536,-306.438199
933.870391,-8734.430116,518.144159,-1072.533697
933.870711,-7994.224174,1184.329507,0.000000
933.871032,-8290.306550,74.020594,1149.143247
933.871353,-9178.553681,-592.164754,689.485948
933.871674,-9548.656652,-444.123565,459.657299
933.871995,-10955.047942,-1850.514855,1608.800546
933.872316,-10955.047942,-1036.288319,1991.848295
933.872637,-11177.109724,74.020594,1915.238745
933.872958,-9474.636058,666.185348,1455.581446
933.873279,-7920.203579,1406.391290,1608.800546
933.873600,-9844.739029,-148.041188,1072.533697
933.873921,-9474.636058,-1554.432478,995.924147
933.874242,-9400.615463,-2368.659014,-306.438199
933.874563,-8734.430116,-370.102971,-459.657299
933.874884,-9252.574275,814.226536,-306.438199
933.875205,-9400.615463,2146.597232,536.266849
933.875525,-9178.553681,518.144159,842.705048
933.875846,-8438.347739,-518.144159,0.000000
933.876167,-10214.842000,-1850.514855,-153.219100
933.876488,-11029.068536,-1924.535449,383.047749
933.876809,-11325.150913,-592.164754,1685.410096
933.877130,-11251.130318,74.020594,1225.752797
933.877451,-9770.718434,814.226536,1532.190996
933.877772,-9622.677246,888.247130,2681.334243
933.878093,-10658.965565,0.000000,2757.943793
933.878414,-10510.924376,-2294.638420,1378.971896
933.878735,-9400.615463,-2442.679609,0.000000
933.879056,-8734.430116,-1776.494261,-1302.362347
933.879377,-8512.368333,-296.082377,-1838.629195
933.879698,-8290.306550,0.000000,-536.266849
933.880018,-8438.347739,-814.226536,0.000000
933.880339,-8660.409521,-1554.432478,536.266849
933.880660,-10362.883188,-2738.761985,-153.219100
933.880981,-10510.924376,-2886.803174,1532.190996
933.881302,-10881.027347,-1110.308913,1302.362347
933.881623,-10732.986159,518.144159,2221.676944
933.881944,-8438.347739,2072.576638,1838.629195
933.882265,-7624.121203,1998.556043,2298.286494
933.882586,-9770.718434,-740.205942,1455.581446
933.882907,-8660.409521,-2072.576638,1149.143247
933.883228,-8956.491898,-2442.679609,689.485948
933.883549,-9474.636058,-1110.308913,766.095498
933.883870,-9622.677246,1036.288319,2298.286494
933.884191,-10140.821405,962.267725,2757.943793
933.884512,-8512.368333,444.123565,2604.724693
933.884832,-10807.006753,74.020594,2681.334243
933.885153,-9474.636058,-2738.761985,536.266849
933.885474,-9400.615463,-1702.473667,0.000000
933.885795,-10658.965565,1480.411884,-306.438199
933.886116,-8586.388927,2590.720797,0.000000
933.886437,-8068.244768,2590.720797,1072.533697
933.886758,-9400.615463,2220.617826,2911.162892
933.887079,-10584.944971,-1554.432478,1532.190996
933.887400,-10881.027347,-2738.761985,2221.676944
933.887721,-10140.821405,-2442.679609,2374.896044
933.888042,-10881.027347,-222.061783,1532.190996
933.888363,-9252.574275,1406.391290,2221.676944
933.888684,-8660.409521,1406.391290,1915.238745
933.889005,-7105.977043,148.041188,229.828649
933.889325,-9252.574275,-1406.391290,-153.219100
933.889646,-9918.759623,-1258.350101,459.657299
933.889967,-10436.903782,-1110.308913,689.485948
933.890288,-11177.109724,1406.391290,1378.971896
933.890609,-9474.636058,3256.906145,3600.648841
933.890930,-11547.212695,-888.247130,1302.362347
933.891251,-6513.812290,1924.535449,2681.334243
933.891572,-11843.295072,-1702.473667,459.657299
933.891893,-9030.512492,222.061783,1762.019645
933.892214,-8216.285956,-814.226536,-459.657299
933.892535,-9770.718434,3034.844362,1915.238745
933.892856,-8068.244768,962.267725,-766.095498
933.893177,-8438.347739,1110.308913,1532.190996
933.893498,-9696.697840,1110.308913,2451.505594
933.893819,-9326.594869,-1480.411884,153.219100
933.894139,-11177.109724,-1258.350101,1991.848295
933.894460,-10066.800811,-1554.432478,2528.115143
933.894781,-9474.636058,-1480.411884,76.609550
933.895102,-10288.862594,-740.205942,995.924147
933.895423,-8364.327145,148.041188,995.924147
933.895744,-8438.347739,-592.164754,459.657299
933.896065,-9844.739029,-962.267725,612.876398
933.896385,-8512.368333,-1924.535449,-383.047749
933.896706,-9030.512492,-1110.308913,-153.219100
933.897027,-9400.615463,-1036.288319,-229.828649
933.897347,-9548.656652,1554.432478,1532.190996
933.897668,-8808.450710,-370.102971,306.438199
933.897989,-9548.656652,-296.082377,1072.533697
933.898309,-10807.006753,-518.144159,1532.190996
933.898630,-10214.842000,-2294.638420,-689.485948
933.898951,-10732.986159,-1850.514855,842.705048
933.899271,-10436.903782,-296.082377,0.000000
933.899592,-9770.718434,592.164754,153.219100
933.899913,-9770.718434,1850.514855,2681.334243
933.900233,-9474.636058,666.185348,2451.505594
933.900554,-10658.965565,-962.267725,1225.752797
933.900875,-10066.800811,-666.185348,612.876398
933.901195,-10214.842000,666.185348,689.485948
933.901516,-10881.027347,1850.514855,1762.019645
933.901836,-9400.615463,296.082377,1378.971896
933.902157,-8438.347739,-962.267725,689.485948
933.902478,-9770.718434,-2368.659014,0.000000
933.902798,-9844.739029,-3478.967927,842.705048
933.903119,-9918.759623,-3108.864956,842.705048
933.903440,-11029.068536,-1628.453072,1302.362347
933.903760,-10584.944971,444.123565,1225.752797
933.904081,-9252.574275,814.226536,1608.800546
933.904402,-9252.574275,-370.102971,2451.505594
933.904722,-9992.780217,-2220.617826,2145.067394
933.905043,-9622.677246,-3108.864956,995.924147
933.905364,-9770.718434,-2886.803174,1225.752797
933.905684,-9104.533087,-1036.288319,1532.190996
933.906005,-9474.636058,0.000000,2145.067394
933.906326,-8586.388927,-444.123565,2451.505594
933.906646,-7994.224174,-370.102971,1685.410096
933.906967,-9400.615463,-1776.494261,766.095498
933.907288,-9400.615463,-2590.720797,919.314598
933.907608,-8734.430116,-2368.659014,229.828649
933.907929,-9696.697840,-888.247130,-229.828649
933.908250,-8808.450710,444.123565,-689.485948
933.908570,-7846.182985,1998.556043,919.314598
933.908891,-8808.450710,2886.803174,2528.115143
933.909211,-10732.986159,444.123565,2145.067394
933.909532,-10214.842000,-148.041188,2604.724693
933.909853,-10510.924376,-2220.617826,995.924147
933.910173,-9474.636058,148.041188,459.657299
933.910494,-8956.491898,1628.453072,612.876398
933.910815,-8364.327145,1850.514855,536.266849
933.911135,-7920.203579,1924.535449,-153.219100
933.911456,-9178.553681,814.226536,-766.095498
933.911777,-9104.533087,-148.041188,-842.705048
933.912097,-11177.109724,0.000000,766.095498
933.912418,-12065.356855,370.102971,1838.629195
933.912739,-11029.068536,1628.453072,2145.067394
933.913059,-11325.150913,1406.391290,3370.820191
933.913380,-10362.883188,740.205942,3217.601092
933.913701,-10807.006753,-518.144159,2528.115143
933.914021,-10436.903782,-1332.370696,1838.629195
933.914342,-9104.533087,-222.061783,-306.438199
933.914663,-9770.718434,1036.288319,0.000000
933.914983,-8734.430116,1850.514855,306.438199
933.915304,-8142.265362,1480.411884,1225.752797
933.915625,-8956.491898,444.123565,2068.457845
933.915945,-9992.780217,-888.247130,1915.238745
933.916266,-10436.903782,-2072.576638,1915.238745
933.916586,-10955.047942,-1776.494261,2451.505594
933.916907,-11103.089130,-444.123565,1455.581446
933.917228,-9252.574275,814.226536,1225.752797
933.917548,-9252.574275,1702.473667,2374.896044
933.917869,-9474.636058,740.205942,1762.019645
933.918190,-9030.512492,-888.247130,1991.848295
933.918510,-9400.615463,-2368.659014,459.657299
933.918831,-9104.533087,-2442.679609,306.438199
933.919152,-9030.512492,-962.267725,536.266849
933.919472,-9474.636058,-740.205942,1608.800546
933.919793,-7772.162391,-296.082377,1149.143247
933.920114,-8882.471304,-518.144159,1302.362347
933.920434,-9696.697840,-1110.308913,1149.143247
933.920755,-9622.677246,-1850.514855,1378.971896
933.921076,-10584.944971,-2072.576638,-459.657299
933.921396,-9696.697840,-962.267725,-306.438199
933.921717,-9400.615463,222.061783,306.438199
933.922038,-9326.594869,1406.391290,1685.410096
933.922358,-10510.924376,814.226536,995.924147
933.922679,-10140.821405,-444.123565,919.314598
933.923000,-10066.800811,-1776.494261,153.219100
933.923320,-10584.944971,-1036.288319,229.828649
933.923641,-9992.780217,-592.164754,919.314598
933.923961,-9474.636058,-1406.391290,1149.143247
933.924282,-8142.265362,-740.205942,612.876398
933.924603,-9030.512492,-1776.494261,0.000000
933.924923,-9622.677246,-1554.432478,0.000000
933.925244,-9696.697840,-1998.556043,536.266849
933.925565,-10214.842000,-592.164754,229.828649
933.925885,-10510.924376,-296.082377,459.657299
933.926206,-9178.553681,444.123565,919.314598
933.926527,-9770.718434,296.082377,2911.162892
933.926847,-9992.780217,-148.041188,1225.752797
933.927168,-9252.574275,-2072.576638,229.828649
933.927489,-8660.409521,-1924.535449,-383.047749
933.927809,-9696.697840,-1850.514855,0.000000
933.928130,-9400.615463,-518.144159,689.485948
933.928451,-9252.574275,74.020594,1455.581446
933.928771,-9400.615463,444.123565,2374.896044
933.929092,-10436.903782,148.041188,1991.848295
933.929413,-10436.903782,-1036.288319,3294.210641
933.929733,-10436.903782,-1110.308913,2068.457845
933.930054,-9918.759623,-222.061783,383.047749
933.930375,-9252.574275,1036.288319,229.828649
933.930695,-8438.347739,1480.411884,842.705048
933.931016,-8290.306550,1480.411884,1302.362347
933.931336,-9844.739029,0.000000,766.095498
933.931657,-9474.636058,-1406.391290,766.095498
933.931978,-9770.718434,-1184.329507,766.095498
933.932298,-10288.862594,222.061783,1685.410096
933.932619,-10362.883188,1184.329507,2374.896044
933.932940,-9474.636058,962.267725,2374.896044
933.933260,-9104.533087,296.082377,1378.971896
933.933581,-9844.739029,-888.247130,229.828649
933.933902,-9474.636058,-1554.432478,689.485948
933.934222,-10214.842000,-1480.411884,766.095498
933.934543,-9548.656652,0.000000,612.876398
933.934864,-9548.656652,296.082377,536.266849
933.935184,-9030.512492,1628.453072,2145.067394
933.935505,-10214.842000,1110.308913,3140.991542
933.935826,-11177.109724,-148.041188,2681.334243
933.936146,-10140.821405,-740.205942,1762.019645
933.936467,-9844.739029,-370.102971,919.314598
933.936788,-10362.883188,1110.308913,919.314598
933.937108,-9474.636058,1406.391290,1378.971896
933.937429,-8808.450710,-518.144159,1225.752797
933.937750,-8438.347739,666.185348,76.609550
933.938070,-10288.862594,0.000000,1455.581446
933.938391,-10732.986159,-222.061783,1685.410096
933.938711,-11103.089130,1702.473667,2451.505594
933.939032,-10732.986159,1332.370696,2834.553343
933.939353,-9178.553681,1628.453072,842.705048
933.939673,-8882.471304,444.123565,1455.581446
933.939994,-9474.636058,-1702.473667,842.705048
933.940315,-8068.244768,-2368.659014,-153.219100
933.940635,-9696.697840,-2960.823768,-229.828649
933.940956,-8808.450710,-592.164754,536.266849
933.941277,-9992.780217,444.123565,995.924147
933.941597,-9400.615463,2368.659014,2528.115143
933.941918,-10214.842000,444.123565,2681.334243
933.942239,-10732.986159,-1332.370696,2298.286494
933.942559,-9844.739029,-2294.638420,1302.362347
933.942880,-9474.636058,-4219.173869,689.485948
933.943201,-8882.471304,-1702.473667,383.047749
933.943521,-9548.656652,-1332.370696,0.000000
933.943842,-7550.100608,0.000000,-536.266849
933.944163,-8808.450710,962.267725,766.095498
933.944483,-10214.842000,148.041188,1378.971896
933.944804,-10066.800811,222.061783,459.657299
933.945125,-11177.109724,-2072.576638,383.047749
933.945445,-9548.656652,-814.226536,919.314598
933.945766,-9844.739029,-666.185348,995.924147
933.946086,-9548.656652,-1332.370696,1532.190996
933.946407,-7920.203579,-962.267725,383.047749
933.946728,-9400.615463,-888.247130,0.000000
933.947048,-9326.594869,-666.185348,153.219100
933.947369,-9918.759623,0.000000,612.876398
933.947690,-10288.862594,0.000000,1225.752797
933.948010,-9844.739029,-222.061783,306.438199
933.948331,-9474.636058,-296.082377,1149.143247
933.948652,-10214.842000,-1554.432478,2145.067394
933.948972,-10436.903782,-2516.700203,1838.629195
933.949293,-9770.718434,-2812.782580,919.314598
933.949614,-9622.677246,-1702.473667,-459.657299
933.949934,-9474.636058,518.144159,-459.657299
933.950255,-9696.697840,1480.411884,229.828649
933.950576,-9474.636058,962.267725,1991.848295
933.950896,-9696.697840,-592.164754,1302.362347
933.951217,-9918.759623,-2294.638420,919.314598
933.951538,-9844.739029,-3034.844362,842.705048
933.951858,-10214.842000,-2516.700203,1762.019645
933.952179,-10066.800811,-1332.370696,1455.581446
933.952500,-8882.471304,0.000000,1149.143247
933.952820,-8068.244768,1850.514855,1532.190996
933.953141,-9474.636058,814.226536,1915.238745
933.953461,-9918.759623,-444.123565,1455.581446
933.953782,-9474.636058,-1406.391290,1225.752797
933.954103,-9548.656652,-2294.638420,0.000000
933.954423,-8734.430116,-444.123565,-229.828649
933.954744,-9622.677246,148.041188,1455.581446
933.955065,-8660.409521,1258.350101,1915.238745
933.955385,-9918.759623,1110.308913,2374.896044
933.955706,-9622.677246,814.226536,1838.629195
933.956027,-9400.615463,444.123565,1378.971896
933.956347,-10584.944971,148.041188,1225.752797
933.956668,-9770.718434,518.144159,919.314598
933.956989,-8290.306550,296.082377,766.095498
933.957309,-8068.244768,1184.329507,459.657299
933.957630,-9030.512492,592.164754,1378.971896
933.957951,-10436.903782,-296.082377,2068.457845
933.958271,-10362.883188,-518.144159,1838.629195
933.958592,-10955.047942,444.123565,3140.991542
933.958913,-11103.089130,222.061783,2604.724693
933.959233,-10658.965565,666.185348,3064.381992
933.959554,-9918.759623,1702.473667,2604.724693
933.959875,-9474.636058,814.226536,766.095498
933.960195,-9030.512492,740.205942,153.219100
933.960516,-8956.491898,-740.205942,-842.705048
933.960836,-8512.368333,-740.205942,-2068.457845
933.961157,-8956.491898,-296.082377,-1991.848295
933.961478,-8808.450710,1480.411884,-612.876398
933.961798,-9918.759623,1036.288319,2681.334243
933.962119,-11769.274478,74.020594,3524.039291
933.962440,-11399.171507,-1776.494261,3294.210641
933.962760,-11103.089130,-2738.761985,995.924147
933.963081,-10510.924376,-222.061783,2374.896044
933.963402,-10436.903782,518.144159,1838.629195
933.963722,-8734.430116,1258.350101,1302.362347
933.964043,-7698.141797,592.164754,-306.438199
933.964364,-7402.059420,-222.061783,-1149.143247
933.964684,-8734.430116,-1924.535449,-1455.581446
933.965005,-9474.636058,-1110.308913,536.266849
933.965326,-11177.109724,-444.123565,1378.971896
933.965646,-9622.677246,0.000000,459.657299
933.965967,-9178.553681,1184.329507,1685.410096
933.966288,-9992.780217,888.247130,2451.505594
933.966608,-10362.883188,-592.164754,2374.896044
933.966929,-9104.533087,-2368.659014,2757.943793
933.967250,-9104.533087,-3108.864956,0.000000
933.967570,-8068.244768,-2294.638420,-1072.533697
933.967891,-9400.615463,-814.226536,0.000000
933.968211,-8734.430116,0.000000,1072.533697
933.968532,-8586.388927,296.082377,1072.533697
933.968853,-9622.677246,-740.205942,612.876398
933.969173,-10288.862594,-2220.617826,766.095498
933.969494,-10362.883188,-2146.597232,919.314598
933.969815,-10955.047942,-2072.576638,2604.724693
933.970135,-9770.718434,-814.226536,1302.362347
933.970456,-8956.491898,148.041188,1225.752797
933.970777,-8956.491898,74.020594,766.095498
933.971097,-9622.677246,148.041188,2221.676944
933.971418,-9844.739029,-1554.432478,919.314598
933.971739,-9474.636058,-1776.494261,459.657299
933.972059,-10140.821405,-888.247130,0.000000
933.972380,-9548.656652,-296.082377,612.876398
933.972701,-9400.615463,-740.205942,2298.286494
933.973021,-9178.553681,-888.247130,1532.190996
933.973342,-10066.800811,-1480.411884,919.314598
933.973663,-10362.883188,-1702.473667,1762.019645
933.973983,-10584.944971,-1036.288319,0.000000
933.974304,-11029.068536,0.000000,1378.971896
933.974625,-10214.842000,888.247130,1608.800546
933.974945,-8660.409521,1850.514855,1838.629195
933.975266,-9770.718434,1480.411884,1685.410096
933.975586,-9918.759623,0.000000,2298.286494
933.975907,-9696.697840,-1554.432478,766.095498
933.976228,-9474.636058,-1258.350101,229.828649
933.976548,-9474.636058,-962.267725,-306.438199
933.976869,-8438.347739,444.123565,76.609550
933.977190,-8512.368333,1110.308913,536.266849
933.977510,-8734.430116,814.226536,1762.019645
933.977831,-10362.883188,-1110.308913,1149.143247
933.978152,-10362.883188,-1332.370696,2451.505594
933.978472,-11399.171507,-2072.576638,2604.724693
933.978793,-11473.192101,-518.144159,2681.334243
933.979114,-10436.903782,296.082377,2298.286494
933.979434,-8734.430116,2516.700203,3217.601092
933.979755,-9104.533087,962.267725,536.266849
933.980076,-8586.388927,-370.102971,-536.266849
933.980396,-8068.244768,-148.041188,-1378.971896
933.980717,-9178.553681,370.102971,-1378.971896
933.981038,-9104.533087,2442.679609,383.047749
933.981358,-9770.718434,1258.350101,919.314598
933.981679,-8956.491898,1332.370696,1378.971896
933.982000,-10214.842000,0.000000,1762.019645
933.982320,-11251.130318,-962.267725,1072.533697
933.982641,-10658.965565,-814.226536,1838.629195
933.982961,-10288.862594,74.020594,1685.410096
933.983282,-9844.739029,444.123565,689.485948
933.983603,-8290.306550,888.247130,383.047749
933.983923,-9030.512492,1110.308913,1915.238745
933.984244,-9474.636058,0.000000,1072.533697
933.984565,-9696.697840,0.000000,919.314598
933.984885,-9770.718434,0.000000,1685.410096
933.985206,-10584.944971,-370.102971,1532.190996
933.985527,-9326.594869,1258.350101,1685.410096
933.985847,-9104.533087,-666.185348,1532.190996
933.986168,-7550.100608,-370.102971,153.219100
933.986489,-10214.842000,-1110.308913,-459.657299
933.986809,-9992.780217,-1110.308913,229.828649
933.987130,-9992.780217,-518.144159,1225.752797
933.987451,-10881.027347,222.061783,1455.581446
933.987771,-10436.903782,1406.391290,1838.629195
933.988092,-10140.821405,74.020594,2451.505594
933.988413,-9474.636058,-740.205942,2681.334243
933.988733,-9622.677246,-1850.514855,1072.533697
933.989054,-8882.471304,-2886.803174,-229.828649
933.989374,-7624.121203,-1924.535449,-919.314598
933.989695,-8142.265362,0.000000,-842.705048
933.990016,-9030.512492,518.144159,229.828649
933.990336,-8438.347739,740.205942,1072.533697
933.990657,-9844.739029,0.000000,1838.629195
933.990978,-11399.171507,-1924.535449,1762.019645
933.991298,-10732.986159,-1850.514855,1915.238745
933.991619,-10732.986159,-2146.597232,2145.067394
933.991940,-9844.739029,-1406.391290,1072.533697
933.992260,-9326.594869,-740.205942,995.924147
933.992581,-8586.388927,-296.082377,995.924147
933.992902,-9030.512492,296.082377,1455.581446
933.993222,-9992.780217,-592.164754,1072.533697
933.993543,-9548.656652,-740.205942,1072.533697
933.993864,-9918.759623,-814.226536,689.485948
933.994184,-9770.718434,-814.226536,459.657299
933.994505,-9474.636058,-888.247130,1302.362347
933.994826,-8734.430116,-1110.308913,1915.238745
933.995146,-9548.656652,-740.205942,1302.362347
933.995467,-10436.903782,-1036.288319,306.438199
933.995788,-9918.759623,-1554.432478,689.485948
933.996108,-9548.656652,-2220.617826,-536.266849
933.996429,-9474.636058,0.000000,-919.314598
933.996749,-9104.533087,2368.659014,1455.581446
933.997070,-10584.944971,74.020594,612.876398
933.997391,-6513.812290,1110.308913,2068.457845
933.997711,-11399.171507,-1480.411884,919.314598
933.998032,-9104.533087,-1850.514855,1991.848295
933.998353,-8660.409521,-2368.659014,-153.219100
933.998673,-11029.068536,370.102971,2451.505594
933.998994,-7772.162391,-444.123565,-766.095498
933.999315,-8216.285956,1406.391290,1072.533697
933.999635,-9770.718434,1258.350101,2298.286494
933.999956,-9326.594869,296.082377,612.876398
934.000276,-10584.944971,-1036.288319,1532.190996
934.000597,-9918.759623,-1110.308913,1225.752797
934.000918,-9326.594869,0.000000,-536.266849
934.001238,-11029.068536,962.267725,2145.067394
934.001559,-8438.347739,2368.659014,3447.429741
934.001879,-10214.842000,740.205942,3064.381992
934.002200,-9400.615463,-888.247130,2757.943793
934.002520,-8882.471304,-592.164754,842.705048
934.002841,-9992.780217,814.226536,1302.362347
934.003162,-10436.903782,1110.308913,1378.971896
934.003482,-8660.409521,2516.700203,1532.190996
934.003803,-8734.430116,592.164754,1149.143247
934.004123,-9474.636058,-222.061783,689.485948
934.004444,-10955.047942,-888.247130,2298.286494
934.004765,-10955.047942,-2368.659014,1915.238745
934.005085,-11103.089130,-1110.308913,1302.362347
934.005406,-9474.636058,518.144159,689.485948
934.005726,-9696.697840,74.020594,689.485948
934.006047,-9326.594869,1406.391290,2604.724693
934.006368,-10066.800811,518.144159,2298.286494
934.006688,-9992.780217,-1924.535449,1149.143247
934.007009,-9696.697840,-592.164754,1685.410096
934.007329,-10362.883188,0.000000,2068.457845
934.007650,-10955.047942,1776.494261,2298.286494
934.007971,-8956.491898,444.123565,1915.238745
934.008291,-7772.162391,0.000000,459.657299
934.008612,-9030.512492,-740.205942,-1149.143247
934.008932,-9474.636058,-1332.370696,-306.438199
934.009253,-9178.553681,-962.267725,0.000000
934.009574,-9918.759623,-444.123565,0.000000
934.009894,-8882.471304,592.164754,-612.876398
934.010215,-8882.471304,592.164754,306.438199
934.010535,-9770.718434,0.000000,612.876398
934.010856,-9770.718434,-1702.473667,1455.581446
934.011177,-9548.656652,-2664.741391,0.000000
934.011497,-9030.512492,-1480.411884,-306.438199
934.011818,-8882.471304,444.123565,-612.876398
934.012138,-9474.636058,1776.494261,689.485948
934.012459,-8956.491898,592.164754,1762.019645
934.012779,-9030.512492,-1258.350101,919.314598
934.013100,-9622.677246,-3404.947333,0.000000
934.013421,-10140.821405,-4367.215058,306.438199
934.013741,-10807.006753,-2960.823768,1302.362347
934.014062,-11103.089130,-1258.350101,995.924147
934.014382,-9474.636058,888.247130,383.047749
934.014703,-8734.430116,3256.906145,766.095498
934.015024,-10362.883188,592.164754,1225.752797
934.015344,-9696.697840,-444.123565,536.266849
934.015665,-10658.965565,-2590.720797,229.828649
934.015985,-9030.512492,-1258.350101,306.438199
934.016306,-10066.800811,-1628.453072,383.047749
934.016627,-9252.574275,74.020594,1838.629195
934.016947,-9474.636058,-592.164754,1762.019645
934.017268,-9400.615463,148.041188,1149.143247
934.017588,-10066.800811,-518.144159,689.485948
934.017909,-10362.883188,-1036.288319,1072.533697
934.018230,-11029.068536,-740.205942,842.705048
934.018550,-10288.862594,0.000000,229.828649
934.018871,-8882.471304,0.000000,229.828649
934.019191,-8216.285956,1036.288319,1455.581446
934.019512,-10214.842000,148.041188,2298.286494
934.019833,-10288.862594,-888.247130,1991.848295
934.020153,-9400.615463,-1258.350101,1302.362347
934.020474,-9696.697840,-370.102971,842.705048
934.020794,-9178.553681,814.226536,919.314598
934.021115,-8660.409521,1480.411884,2298.286494
934.021436,-8364.327145,888.247130,2451.505594
934.021756,-9104.533087,-148.041188,919.314598
934.022077,-9400.615463,-1258.350101,1838.629195
934.022397,-9474.636058,-2220.617826,1685.410096
934.022718,-10436.903782,-1110.308913,2068.457845
934.023038,-10214.842000,-592.164754,1455.581446
934.023359,-9326.594869,1332.370696,2068.457845
934.023680,-8808.450710,1628.453072,2374.896044
934.024000,-10140.821405,222.061783,2374.896044
934.024321,-9770.718434,-888.247130,1225.752797
934.024641,-9474.636058,-740.205942,383.047749
934.024962,-9474.636058,0.000000,0.000000
934.025283,-8512.368333,1702.473667,689.485948
934.025603,-8364.327145,592.164754,766.095498
934.025924,-8290.306550,666.185348,229.828649
934.026244,-9474.636058,-74.020594,383.047749
934.026565,-10436.903782,-666.185348,1302.362347
934.026886,-10732.986159,-962.267725,2068.457845
934.027206,-10732.986159,-296.082377,2681.334243
934.027527,-11251.130318,148.041188,2451.505594
934.027847,-10140.821405,-666.185348,1225.752797
934.028168,-9400.615463,962.267725,2298.286494
934.028489,-10732.986159,-2960.823768,766.095498
934.028809,-8660.409521,-814.226536,0.000000
934.029130,-9992.780217,-666.185348,-1608.800546
934.029450,-7476.080014,2368.659014,-1225.752797
934.029771,-9622.677246,1628.453072,-229.828649
934.030092,-7476.080014,1776.494261,1838.629195
934.030412,-9696.697840,-444.123565,1532.190996
934.030733,-10807.006753,-1776.494261,995.924147
934.031053,-11103.089130,-2294.638420,2221.676944
934.031374,-10584.944971,-888.247130,4136.915689
934.031695,-10066.800811,296.082377,1378.971896
934.032015,-9400.615463,1332.370696,459.657299
934.032336,-8586.388927,1628.453072,995.924147
934.032656,-8512.368333,740.205942,536.266849
934.032977,-10140.821405,-1628.453072,306.438199
934.033297,-9474.636058,-2072.576638,689.485948
934.033618,-9622.677246,-2072.576638,0.000000
934.033939,-10066.800811,0.000000,1302.362347
934.034259,-9770.718434,0.000000,2145.067394
934.034580,-9030.512492,-222.061783,2145.067394
934.034900,-9104.533087,-592.164754,1532.190996
934.035221,-9992.780217,-2368.659014,459.657299
934.035542,-9030.512492,-1776.494261,1149.143247
934.035862,-9474.636058,-1332.370696,229.828649
934.036183,-9400.615463,-1480.411884,-306.438199
934.036503,-8512.368333,-962.267725,-306.438199
934.036824,-8068.244768,-1258.350101,229.828649
934.037145,-9622.677246,-1258.350101,1532.190996
934.037465,-9992.780217,-1628.453072,1991.848295
934.037786,-10881.027347,-3034.844362,1532.190996
934.038106,-10288.862594,-1258.350101,1378.971896
934.038427,-11029.068536,74.020594,995.924147
934.038748,-9474.636058,1332.370696,2068.457845
934.039068,-9030.512492,0.000000,1838.629195
934.039389,-9104.533087,-222.061783,919.314598
934.039709,-10140.821405,-1332.370696,919.314598
934.040030,-9622.677246,-1702.473667,1072.533697
934.040351,-9548.656652,-370.102971,1149.143247
934.040671,-10584.944971,592.164754,919.314598
934.040992,-10214.842000,2072.576638,1072.533697
934.041312,-9178.553681,962.267725,2068.457845
934.041633,-9770.718434,0.000000,2145.067394
934.041954,-9992.780217,-1850.514855,766.095498
934.042274,-9622.677246,-2590.720797,306.438199
934.042595,-9918.759623,-518.144159,919.314598
934.042915,-10362.883188,1332.370696,1762.019645
934.043236,-9918.759623,2072.576638,3064.381992
934.043557,-10066.800811,1184.329507,2834.553343
934.043877,-9548.656652,74.020594,995.924147
934.044198,-10214.842000,-1554.432478,842.705048
934.044518,-9400.615463,-962.267725,0.000000
934.044839,-8808.450710,0.000000,-766.095498
934.045159,-7994.224174,962.267725,0.000000
934.045480,-7254.018232,2072.576638,-383.047749
934.045801,-8660.409521,1628.453072,1455.581446
934.046121,-11029.068536,0.000000,3140.991542
934.046442,-10510.924376,-2590.720797,1608.800546
934.046762,-10658.965565,-2146.597232,2068.457845
934.047083,-10214.842000,-1480.411884,1225.752797
934.047404,-9770.718434,740.205942,2221.676944
934.047724,-8808.450710,1702.473667,2145.067394
934.048045,-8290.306550,1480.411884,995.924147
934.048365,-8808.450710,0.000000,76.609550
934.048686,-9696.697840,-1850.514855,0.000000
934.049007,-9474.636058,-1480.411884,766.095498
934.049327,-10658.965565,-1998.556043,1455.581446
934.049648,-9844.739029,74.020594,1072.533697
934.049968,-9252.574275,296.082377,1762.019645
934.050289,-9400.615463,370.102971,1762.019645
934.050610,-10140.821405,-666.185348,1378.971896
934.050930,-10066.800811,-1036.288319,1455.581446
934.051251,-10510.924376,-296.082377,229.828649
934.051571,-9474.636058,2368.659014,76.609550
934.051892,-9696.697840,1776.494261,1455.581446
934.052213,-8438.347739,1850.514855,1915.238745
934.052533,-9770.718434,-962.267725,1991.848295
934.052854,-9548.656652,-2072.576638,459.657299
934.053174,-9992.780217,-2072.576638,1225.752797
934.053495,-11029.068536,-592.164754,1378.971896
934.053816,-10658.965565,518.144159,2298.286494
934.054136,-9252.574275,740.205942,383.047749
934.054457,-8512.368333,888.247130,689.485948
934.054777,-8734.430116,296.082377,689.485948
934.055098,-10584.944971,-1850.514855,766.095498
934.055418,-9622.677246,-2442.679609,919.314598
934.055739,-9400.615463,-2368.659014,0.000000
934.056060,-9548.656652,-888.247130,0.000000
934.056380,-9622.677246,-222.061783,842.705048
934.056701,-9474.636058,296.082377,1608.800546
934.057021,-9548.656652,0.000000,1302.362347
934.057342,-10436.903782,-1924.535449,919.314598
934.057663,-9474.636058,-2072.576638,1072.533697
934.057983,-9992.780217,-2220.617826,536.266849
934.058304,-9622.677246,-370.102971,229.828649
934.058624,-9178.553681,296.082377,919.314598
934.058945,-8512.368333,1036.288319,1302.362347
934.059266,-9474.636058,0.000000,1302.362347
934.059586,-10510.924376,-1406.391290,1225.752797
934.059907,-10140.821405,-1998.556043,536.266849
934.060227,-9844.739029,-1480.411884,-459.657299
934.060548,-9474.636058,148.041188,-536.266849
934.060869,-8660.409521,0.000000,-383.047749
934.061189,-7624.121203,370.102971,-612.876398
934.061510,-8808.450710,0.000000,-842.705048
934.061830,-8956.491898,-888.247130,-229.828649
934.062151,-10807.006753,-1406.391290,1991.848295
934.062472,-11325.150913,-1184.329507,2681.334243
934.062792,-11621.233289,-1776.494261,2451.505594
934.063113,-9548.656652,-592.164754,3294.210641
934.063433,-9474.636058,0.000000,2145.067394
934.063754,-9844.739029,0.000000,2298.286494
934.064075,-10066.800811,-370.102971,1762.019645
934.064395,-8882.471304,-1110.308913,1455.581446
934.064716,-9696.697840,-148.041188,766.095498
934.065036,-9622.677246,74.020594,842.705048
934.065357,-8808.450710,518.144159,1762.019645
934.065677,-9030.512492,-148.041188,1608.800546
934.065998,-8956.491898,0.000000,766.095498
934.066319,-10362.883188,-962.267725,1149.143247
934.066639,-9918.759623,-518.144159,1455.581446
934.066960,-10214.842000,222.061783,1149.143247
934.067280,-10436.903782,1258.350101,1838.629195
934.067601,-9622.677246,518.144159,1685.410096
934.067922,-9104.533087,592.164754,2145.067394
934.068242,-10140.821405,-518.144159,1762.019645
934.068563,-9696.697840,-592.164754,1915.238745
934.068883,-9844.739029,-370.102971,1149.143247
934.069204,-10214.842000,1110.308913,1225.752797
934.069525,-10066.800811,1184.329507,1378.971896
934.069845,-9400.615463,814.226536,1991.848295
934.070166,-9252.574275,296.082377,2757.943793
934.070486,-9992.780217,-962.267725,1302.362347
934.070807,-9992.780217,-1554.432478,1455.581446
934.071128,-9400.615463,-592.164754,1455.581446
934.071448,-9770.718434,-814.226536,995.924147
934.071769,-8438.347739,1110.308913,0.000000
934.072089,-8808.450710,1480.411884,1072.533697
934.072410,-9252.574275,814.226536,1838.629195
934.072731,-9622.677246,-888.247130,1915.238745
934.073051,-9918.759623,-3627.009116,229.828649
934.073372,-9030.512492,-1480.411884,0.000000
934.073692,-9992.780217,-1036.288319,0.000000
934.074013,-9178.553681,296.082377,919.314598
934.074334,-7846.182985,1406.391290,2068.457845
934.074654,-9548.656652,-814.226536,153.219100
934.074975,-8216.285956,296.082377,229.828649
934.075295,-10510.924376,-888.247130,459.657299
934.075616,-9918.759623,-814.226536,1302.362347
934.075936,-10066.800811,592.164754,306.438199
934.076257,-8660.409521,1480.411884,689.485948
934.076578,-7846.182985,1406.391290,919.314598
934.076898,-9844.739029,-148.041188,1149.143247
934.077219,-9252.574275,-888.247130,919.314598
934.077539,-10510.924376,-1332.370696,536.266849
934.077860,-9622.677246,-592.164754,0.000000
934.078181,-10436.903782,592.164754,1838.629195
934.078501,-10955.047942,148.041188,2298.286494
934.078822,-9696.697840,370.102971,2145.067394
934.079142,-10362.883188,0.000000,1455.581446
934.079463,-11029.068536,-1110.308913,1302.362347
934.079784,-9548.656652,-1924.535449,306.438199
934.080104,-9918.759623,-1332.370696,-229.828649
934.080425,-9252.574275,74.020594,-459.657299
934.080745,-8586.388927,74.020594,-459.657299
934.081066,-8882.471304,222.061783,919.314598
934.081387,-8586.388927,-148.041188,2298.286494
934.081707,-10436.903782,-2368.659014,1225.752797
934.082028,-10510.924376,-2738.761985,1455.581446
934.082348,-9622.677246,-1776.494261,689.485948
934.082669,-9918.759623,-740.205942,1991.848295
934.082990,-9104.533087,148.041188,1685.410096
934.083310,-8734.430116,296.082377,1302.362347
934.083631,-9030.512492,-666.185348,995.924147
934.083951,-9252.574275,-1702.473667,995.924147
934.084272,-9696.697840,-1850.514855,1225.752797
934.084593,-10436.903782,-1332.370696,1302.362347
934.084913,-9992.780217,0.000000,1072.533697
934.085234,-8364.327145,296.082377,1762.019645
934.085554,-9178.553681,0.000000,2068.457845
934.085875,-9474.636058,-370.102971,2145.067394
934.086196,-9548.656652,-1554.432478,1838.629195
934.086516,-9252.574275,-1184.329507,612.876398
934.086837,-9252.574275,74.020594,1149.143247
934.087157,-9474.636058,296.082377,1072.533697
934.087478,-8364.327145,0.000000,1225.752797
934.087798,-8364.327145,0.000000,689.485948
934.088119,-9548.656652,-962.267725,766.095498
934.088440,-10066.800811,-1036.288319,766.095498
934.088760,-10362.883188,-518.144159,1608.800546
934.089081,-10955.047942,-222.061783,1915.238745
934.089401,-9918.759623,666.185348,2068.457845
934.089722,-9474.636058,296.082377,3294.210641
934.090043,-8734.430116,814.226536,2451.505594
934.090363,-9770.718434,-592.164754,1608.800546
934.090684,-9992.780217,-666.185348,1149.143247
934.091004,-9400.615463,-296.082377,-306.438199
934.091325,-9474.636058,1036.288319,-76.609550
934.091646,-9696.697840,1406.391290,612.876398
934.091966,-9548.656652,518.144159,1608.800546
934.092287,-9918.759623,-148.041188,2374.896044
934.092607,-11547.212695,-1702.473667,1302.362347
934.092928,-10881.027347,-814.226536,1685.410096
934.093249,-11103.089130,-148.041188,1685.410096
934.093569,-10584.944971,296.082377,919.314598
934.093890,-8734.430116,1036.288319,-536.266849
934.094210,-7254.018232,1406.391290,306.438199
934.094531,-9326.594869,-1332.370696,536.266849
934.094852,-8956.491898,-1258.350101,306.438199
934.095172,-10140.821405,-2886.803174,536.266849
934.095493,-10658.965565,-1110.308913,842.705048
934.095813,-10066.800811,518.144159,1838.629195
934.096134,-10288.862594,962.267725,2298.286494
934.096455,-9400.615463,1110.308913,1991.848295
934.096775,-9326.594869,296.082377,153.219100
934.097096,-10362.883188,-740.205942,919.314598
934.097416,-8364.327145,-1110.308913,459.657299
934.097737,-10066.800811,-1110.308913,153.219100
934.098058,-9400.615463,0.000000,459.657299
934.098378,-8290.306550,-444.123565,229.828649
934.098699,-8586.388927,962.267725,1991.848295
934.099019,-10658.965565,222.061783,2298.286494
934.099340,-9622.677246,518.144159,2298.286494
934.099661,-9770.718434,-2072.576638,995.924147
934.099981,-9326.594869,-1332.370696,459.657299
934.100302,-9104.533087,0.000000,612.876398
934.100623,-8956.491898,0.000000,919.314598
934.100943,-8364.327145,-444.123565,1302.362347
934.101264,-8438.347739,-518.144159,-459.657299
934.101585,-9844.739029,-1480.411884,306.438199
934.101905,-9918.759623,-1480.411884,612.876398
934.102226,-9918.759623,370.102971,2374.896044
934.102547,-11399.171507,-518.144159,1532.190996
934.102867,-9252.574275,666.185348,1838.629195
934.103188,-9474.636058,-222.061783,1685.410096
934.103509,-10140.821405,-888.247130,1378.971896
934.103829,-9252.574275,-1258.350101,842.705048
934.104150,-9474.636058,-740.205942,-306.438199
934.104470,-10214.842000,888.247130,689.485948
934.104791,-9474.636058,814.226536,536.266849
934.105112,-9844.739029,-1036.288319,995.924147
934.105432,-9030.512492,-592.164754,153.219100
934.105753,-9844.739029,-370.102971,1149.143247
934.106074,-10807.006753,-2072.576638,995.924147
934.106394,-10066.800811,-1332.370696,1225.752797
934.106715,-10510.924376,-1184.329507,766.095498
934.107036,-9844.739029,-148.041188,0.000000
934.107356,-8586.388927,962.267725,1455.581446
934.107677,-9400.615463,1184.329507,2451.505594
934.107998,-9918.759623,-148.041188,1915.238745
934.108318,-9548.656652,-962.267725,1608.800546
934.108639,-9474.636058,-1036.288319,689.485948
934.108959,-9474.636058,-962.267725,76.609550
934.109280,-8068.244768,518.144159,842.705048
934.109601,-7550.100608,148.041188,-306.438199
934.109921,-7698.141797,370.102971,-383.047749
934.110242,-9474.636058,222.061783,0.000000
934.110563,-9770.718434,-888.247130,1608.800546
934.110883,-10732.986159,-2368.659014,1685.410096
934.111204,-10881.027347,-888.247130,2068.457845
934.111525,-11621.233289,-962.267725,2987.772442
934.111845,-9326.594869,0.000000,3217.601092
934.112166,-10288.862594,-222.061783,4673.182538
934.112487,-9918.759623,-1702.473667,2604.724693
934.112807,-8956.491898,-1776.494261,842.705048
934.113128,-9104.533087,148.041188,995.924147
934.113449,-9918.759623,1776.494261,1532.190996
934.113769,-9104.533087,1924.535449,1838.629195
934.114090,-8882.471304,1184.329507,1302.362347
934.114410,-8512.368333,1184.329507,689.485948
934.114731,-10658.965565,-148.041188,1149.143247
934.115052,-10732.986159,-1850.514855,1915.238745
934.115372,-9770.718434,-1184.329507,689.485948
934.115693,-10510.924376,-444.123565,0.000000
934.116014,-9474.636058,888.247130,0.000000
934.116334,-9030.512492,1924.535449,1685.410096
934.116655,-9696.697840,1036.288319,2221.676944
934.116976,-10584.944971,-1258.350101,1149.143247
934.117296,-9918.759623,-1850.514855,1149.143247
934.117617,-7772.162391,-1776.494261,766.095498
934.117938,-10436.903782,-1184.329507,1072.533697
934.118258,-9548.656652,74.020594,2451.505594
934.118579,-8660.409521,-148.041188,1532.190996
934.118900,-8364.327145,-1184.329507,153.219100
934.119220,-9252.574275,-296.082377,0.000000
934.119541,-10436.903782,-666.185348,995.924147
934.119861,-9696.697840,-592.164754,306.438199
934.120182,-10066.800811,148.041188,0.000000
934.120503,-8438.347739,740.205942,612.876398
934.120823,-8882.471304,1110.308913,1685.410096
934.121144,-10288.862594,518.144159,2068.457845
934.121465,-10066.800811,0.000000,1838.629195
934.121785,-9622.677246,-592.164754,2221.676944
934.122106,-9622.677246,-296.082377,1072.533697
934.122427,-10140.821405,0.000000,995.924147
934.122747,-9178.553681,-222.061783,1225.752797
934.123068,-8216.285956,0.000000,612.876398
934.123389,-9770.718434,-370.102971,536.266849
934.123709,-10066.800811,-1702.473667,766.095498
934.124030,-9992.780217,-1924.535449,766.095498
934.124350,-10140.821405,-1480.411884,612.876398
934.124671,-9622.677246,-888.247130,842.705048
934.124992,-9030.512492,-296.082377,536.266849
934.125312,-8586.388927,1184.329507,919.314598
934.125633,-10288.862594,-592.164754,1915.238745
934.125954,-9326.594869,-1258.350101,612.876398
934.126274,-9548.656652,-1480.411884,306.438199
934.126595,-10584.944971,-888.247130,459.657299
934.126916,-9992.780217,148.041188,1685.410096
934.127236,-9918.759623,-666.185348,2681.334243
934.127557,-9030.512492,444.123565,1302.362347
934.127878,-10436.903782,-518.144159,1378.971896
934.128198,-11177.109724,-1332.370696,1991.848295
934.128519,-9622.677246,-1702.473667,995.924147
934.128840,-10362.883188,-1110.308913,459.657299
934.129160,-8956.491898,-148.041188,-229.828649
934.129481,-8068.244768,888.247130,-306.438199
934.129801,-8956.491898,1850.514855,1608.800546
934.130122,-10066.800811,-592.164754,1455.581446
934.130443,-9622.677246,-518.144159,1838.629195
934.130763,-10066.800811,-1406.391290,1378.971896
934.131084,-10066.800811,0.000000,536.266849
934.131405,-9844.739029,666.185348,2145.067394
934.131725,-8290.306550,-222.061783,919.314598
934.132046,-7698.141797,-370.102971,229.828649
934.132367,-9474.636058,-1924.535449,0.000000
934.132687,-9104.533087,-1480.411884,536.266849
934.133008,-10066.800811,-1110.308913,459.657299
934.133329,-10288.862594,-296.082377,612.876398
934.133649,-9474.636058,1110.308913,1455.581446
934.133970,-9474.636058,518.144159,2145.067394
934.134290,-9548.656652,0.000000,2145.067394
934.134611,-11029.068536,-1258.350101,1225.752797
934.134932,-9770.718434,-1924.535449,1302.362347
934.135252,-9326.594869,-1036.288319,536.266849
934.135573,-10362.883188,444.123565,1455.581446
934.135894,-9622.677246,2146.597232,1915.238745
934.136214,-8512.368333,1258.350101,919.314598
934.136535,-8882.471304,1184.329507,536.266849
934.136856,-10288.862594,148.041188,306.438199
934.137176,-10658.965565,-592.164754,1608.800546
934.137497,-10807.006753,-592.164754,1762.019645
934.137818,-10288.862594,-1628.453072,459.657299
934.138138,-9030.512492,-518.144159,612.876398
934.138459,-9252.574275,592.164754,1991.848295
934.138780,-10214.842000,0.000000,2681.334243
934.139100,-10214.842000,-888.247130,2145.067394
934.139421,-9030.512492,-1184.329507,536.266849
934.139741,-9770.718434,-444.123565,0.000000
934.140062,-9622.677246,1406.391290,2681.334243
934.140383,-9548.656652,666.185348,2221.676944
934.140703,-8734.430116,74.020594,1455.581446
934.141024,-8956.491898,-222.061783,383.047749
934.141345,-10732.986159,-1480.411884,919.314598
934.141665,-10066.800811,-1184.329507,1762.019645
934.141986,-11547.212695,-1332.370696,1685.410096
934.142307,-10288.862594,-666.185348,842.705048
934.142627,-9104.533087,222.061783,1072.533697
934.142948,-7031.956449,-1184.329507,-689.485948
934.143269,-8216.285956,-1258.350101,459.657299
934.143589,-8882.471304,-1776.494261,-1991.848295
934.143910,-8142.265362,-1998.556043,-1455.581446
934.144231,-8808.450710,-74.020594,-1225.752797
934.144551,-9918.759623,1036.288319,1302.362347
934.144872,-9400.615463,0.000000,2145.067394
934.145192,-9844.739029,0.000000,2374.896044
934.145513,-9844.739029,-370.102971,1685.410096
934.145834,-10214.842000,-1702.473667,1455.581446
934.146154,-9918.759623,-1480.411884,1302.362347
934.146475,-9474.636058,-814.226536,383.047749
934.146796,-8660.409521,-296.082377,-459.657299
934.147116,-8290.306550,444.123565,-1225.752797
934.147437,-9252.574275,1554.432478,1608.800546
934.147758,-10881.027347,-370.102971,1685.410096
934.148078,-10436.903782,-1036.288319,1915.238745
934.148399,-9992.780217,-1332.370696,1455.581446
934.148720,-10510.924376,-444.123565,1378.971896
934.149040,-10732.986159,518.144159,2451.505594
934.149361,-9252.574275,0.000000,2528.115143
934.149681,-8882.471304,-296.082377,1685.410096
934.150002,-10140.821405,-370.102971,842.705048
934.150323,-9770.718434,-888.247130,76.609550
934.150643,-9548.656652,-740.205942,153.219100
934.150964,-9992.780217,74.020594,612.876398
934.151285,-8956.491898,148.041188,1608.800546
934.151605,-9178.553681,0.000000,1225.752797
934.151926,-10510.924376,-518.144159,2757.943793
934.152247,-11029.068536,-1776.494261,2451.505594
934.152567,-10658.965565,-2146.597232,1915.238745
934.152888,-9474.636058,-370.102971,1072.533697
934.153209,-9770.718434,814.226536,1149.143247
934.153529,-9178.553681,1184.329507,1225.752797
934.153850,-7994.224174,740.205942,842.705048
934.154171,-7698.141797,-296.082377,306.438199
934.154491,-9474.636058,-1776.494261,-306.438199
934.154812,-9104.533087,-1184.329507,1378.971896
934.155132,-9992.780217,-1110.308913,995.924147
934.155453,-9992.780217,814.226536,153.219100
934.155774,-9474.636058,1406.391290,1532.190996
934.156094,-9178.553681,1776.494261,1838.629195
934.156415,-10510.924376,444.123565,2221.676944
934.156736,-10140.821405,-1110.308913,2145.067394
934.157056,-9252.574275,-1776.494261,536.266849
934.157377,-9474.636058,-888.247130,-459.657299
934.157698,-9696.697840,1628.453072,536.266849
934.158018,-9030.512492,2146.597232,536.266849
934.158339,-7624.121203,1628.453072,919.314598
934.158660,-8882.471304,518.144159,383.047749
934.158980,-9252.574275,-1998.556043,-919.314598
934.159301,-9474.636058,-2146.597232,-306.438199
934.159622,-10214.842000,-592.164754,1072.533697
934.159942,-10807.006753,-518.144159,1685.410096
934.160263,-9474.636058,0.000000,1915.238745
934.160583,-9474.636058,0.000000,2528.115143
934.160904,-10955.047942,-1110.308913,2681.334243
934.161225,-11029.068536,-2220.617826,2298.286494
934.161545,-9770.718434,-1924.535449,1838.629195
934.161866,-10362.883188,-592.164754,1608.800546
934.162187,-9918.759623,74.020594,1532.190996
934.162507,-8956.491898,0.000000,2374.896044
934.162828,-8438.347739,74.020594,1532.190996
934.163149,-9696.697840,-518.144159,306.438199
934.163469,-8586.388927,888.247130,1455.581446
934.163790,-9622.677246,-1554.432478,0.000000
934.164111,-8586.388927,296.082377,229.828649
934.164431,-9548.656652,0.000000,383.047749
934.164752,-8068.244768,148.041188,-536.266849
934.165072,-9030.512492,1406.391290,2145.067394
934.165393,-10362.883188,-518.144159,995.924147
934.165714,-9548.656652,-740.205942,1685.410096
934.166034,-10436.903782,-2442.679609,689.485948
934.166355,-9474.636058,-592.164754,0.000000
934.166676,-10732.986159,666.185348,919.314598
934.166996,-9474.636058,666.185348,1685.410096
934.167317,-8586.388927,740.205942,995.924147
934.167638,-9844.739029,-1332.370696,229.828649
934.167958,-9030.512492,-2220.617826,1455.581446
934.168279,-9178.553681,-222.061783,2221.676944
934.168600,-12509.480420,-2812.782580,0.000000
934.168920,-5477.523971,1702.473667,689.485948
934.169241,-9918.759623,0.000000,229.828649
934.169562,-8438.347739,1628.453072,2681.334243
934.169882,-9918.759623,-814.226536,459.657299
934.170203,-10955.047942,-1184.329507,2374.896044
934.170523,-8364.327145,-2516.700203,-1302.362347
934.170844,-10362.883188,-962.267725,-153.219100
934.171165,-11177.109724,444.123565,2757.943793
934.171485,-8512.368333,222.061783,766.095498
934.171806,-9918.759623,1776.494261,2298.286494
934.172127,-10288.862594,-370.102971,1532.190996
934.172447,-8956.491898,-592.164754,229.828649
934.172768,-11843.295072,-740.205942,1685.410096
934.173089,-9178.553681,148.041188,1149.143247
934.173409,-8660.409521,0.000000,306.438199
934.173730,-8586.388927,148.041188,1072.533697
934.174051,-8882.471304,148.041188,1532.190996
934.174371,-9548.656652,-518.144159,1072.533697
934.174692,-9992.780217,-592.164754,1838.629195
934.175012,-8734.430116,-222.061783,995.924147
934.175333,-9844.739029,0.000000,536.266849
934.175654,-9844.739029,0.000000,1838.629195
934.175974,-9474.636058,222.061783,1991.848295
934.176295,-9548.656652,-148.041188,1762.019645
934.176616,-10658.965565,-1406.391290,1991.848295
934.176936,-9548.656652,-1406.391290,2451.505594
934.177257,-10140.821405,-1850.514855,995.924147
934.177578,-10510.924376,-296.082377,919.314598
934.177898,-8216.285956,1258.350101,1225.752797
934.178219,-8734.430116,1480.411884,1072.533697
934.178540,-9252.574275,1258.350101,1838.629195
934.178860,-9030.512492,-592.164754,766.095498
934.179181,-9400.615463,-1480.411884,1072.533697
934.179502,-9918.759623,-962.267725,1149.143247
934.179822,-10214.842000,74.020594,1072.533697
934.180143,-10214.842000,888.247130,2145.067394
934.180463,-7550.100608,740.205942,306.438199
934.180784,-9474.636058,814.226536,1378.971896
934.181105,-10362.883188,-814.226536,1225.752797
934.181425,-9770.718434,-1480.411884,0.000000
934.181746,-9622.677246,-296.082377,-383.047749
934.182067,-10436.903782,814.226536,76.609550
934.182387,-9030.512492,1406.391290,1302.362347
934.182708,-9178.553681,1554.432478,2145.067394
934.183029,-10436.903782,-1480.411884,919.314598
934.183349,-9400.615463,-1480.411884,612.876398
934.183670,-10140.821405,-2664.741391,0.000000
934.183991,-9844.739029,-814.226536,536.266849
934.184311,-10140.821405,296.082377,766.095498
934.184632,-8586.388927,740.205942,0.000000
934.184953,-8068.244768,1258.350101,383.047749
934.185273,-9918.759623,0.000000,612.876398
934.185594,-10140.821405,-1036.288319,1838.629195
934.185914,-10510.924376,-1776.494261,1532.190996
934.186235,-10140.821405,-1184.329507,766.095498
934.186556,-9918.759623,0.000000,842.705048
934.186876,-8956.491898,444.123565,1915.238745
934.187197,-8882.471304,962.267725,2987.772442
934.187518,-9770.718434,-1332.370696,1685.410096
934.187838,-9252.574275,-1924.535449,919.314598
934.188159,-9178.553681,-3108.864956,-612.876398
934.188480,-8882.471304,-518.144159,0.000000
934.188800,-9474.636058,740.205942,459.657299
934.189121,-8364.327145,1258.350101,1838.629195
934.189442,-8808.450710,518.144159,995.924147
934.189762,-9770.718434,-592.164754,1302.362347
934.190083,-10362.883188,-2294.638420,1378.971896
934.190403,-10658.965565,-2220.617826,1915.238745
934.190724,-10732.986159,-1480.411884,1225.752797
934.191045,-9178.553681,148.041188,383.047749
934.191365,-9400.615463,666.185348,919.314598
934.191686,-8586.388927,962.267725,1532.190996
934.192007,-10362.883188,-1554.432478,995.924147
934.192327,-9326.594869,-1332.370696,689.485948
934.192648,-9992.780217,-1998.556043,0.000000
934.192969,-9918.759623,-518.144159,766.095498
934.193289,-10066.800811,740.205942,1455.581446
934.193610,-8882.471304,74.020594,1378.971896
934.193931,-9474.636058,-740.205942,766.095498
934.194251,-10066.800811,-1924.535449,153.219100
934.194572,-9622.677246,-1480.411884,0.000000
934.194893,-11103.089130,-666.185348,1302.362347
934.195213,-10214.842000,444.123565,1149.143247
934.195534,-9770.718434,1406.391290,689.485948
934.195854,-8586.388927,1924.535449,2221.676944
934.196175,-10066.800811,666.185348,2528.115143
934.196496,-10214.842000,-518.144159,2604.724693
934.196816,-10288.862594,-2294.638420,1149.143247
934.197137,-8586.388927,-814.226536,0.000000
934.197458,-9252.574275,296.082377,0.000000
934.197778,-9178.553681,1110.308913,1455.581446
934.198099,-7994.224174,1036.288319,1225.752797
934.198420,-9252.574275,-370.102971,459.657299
934.198740,-10140.821405,-1184.329507,383.047749
934.199061,-9918.759623,-1258.350101,689.485948
934.199382,-10807.006753,-888.247130,1455.581446
934.199702,-10362.883188,518.144159,2298.286494
934.200023,-9178.553681,1628.453072,1455.581446
934.200344,-8734.430116,592.164754,2221.676944
934.200664,-9474.636058,-1332.370696,1455.581446
934.200985,-9770.718434,-1924.535449,1149.143247
934.201306,-10066.800811,-2146.597232,612.876398
934.201626,-9252.574275,-592.164754,383.047749
934.201947,-10066.800811,666.185348,766.095498
934.202268,-8956.491898,296.082377,919.314598
934.202588,-8956.491898,1332.370696,1762.019645
934.202909,-10288.862594,0.000000,1072.533697
934.203230,-10288.862594,-518.144159,919.314598
934.203550,-10140.821405,-814.226536,842.705048
934.203871,-10362.883188,0.000000,383.047749
934.204192,-10362.883188,592.164754,995.924147
934.204513,-9030.512492,1258.350101,1532.190996
934.204833,-9474.636058,1332.370696,2145.067394
934.205154,-10732.986159,-1036.288319,2374.896044
934.205475,-9400.615463,-2072.576638,1762.019645
934.205795,-9696.697840,-2220.617826,612.876398
934.206116,-9548.656652,-740.205942,536.266849
934.206437,-9326.594869,518.144159,306.438199
934.206757,-8882.471304,518.144159,1302.362347
934.207078,-7402.059420,-962.267725,-459.657299
934.207399,-7994.224174,-1036.288319,-1225.752797
934.207720,-10732.986159,-2960.823768,-459.657299
934.208040,-8882.471304,-1554.432478,-383.047749
934.208361,-9548.656652,-1184.329507,1302.362347
934.208682,-9326.594869,740.205942,306.438199
934.209002,-9178.553681,2516.700203,2298.286494
934.209323,-11177.109724,518.144159,4136.915689
934.209644,-10140.821405,-1110.308913,3677.258390
934.209964,-10584.944971,-3108.864956,2681.334243
934.210285,-9326.594869,-3034.844362,1302.362347
934.210606,-9918.759623,-1110.308913,842.705048
934.210927,-8734.430116,1332.370696,536.266849
934.211247,-6513.812290,1332.370696,0.000000
934.211568,-7920.203579,814.226536,-766.095498
934.211889,-9104.533087,-444.123565,-612.876398
934.212209,-10362.883188,-2368.659014,229.828649
934.212530,-11325.150913,-1406.391290,306.438199
934.212851,-10584.944971,518.144159,2298.286494
934.213171,-11251.130318,222.061783,1915.238745
934.213492,-9104.533087,1036.288319,2451.505594
934.213813,-10510.924376,-518.144159,2221.676944
934.214134,-10140.821405,-1406.391290,2068.457845
934.214454,-9844.739029,-3108.864956,842.705048
934.214775,-9548.656652,-2368.659014,612.876398
934.215096,-9918.759623,-518.144159,0.000000
934.215416,-9474.636058,592.164754,919.314598
934.215737,-8512.368333,2516.700203,766.095498
934.216058,-8808.450710,962.267725,536.266849
934.216378,-10288.862594,-1406.391290,-306.438199
934.216699,-9548.656652,-2220.617826,76.609550
934.217020,-10066.800811,-1480.411884,459.657299
934.217340,-11103.089130,-814.226536,1532.190996
934.217661,-9548.656652,1036.288319,766.095498
934.217982,-9474.636058,2294.638420,2681.334243
934.218303,-9992.780217,1110.308913,2757.943793
934.218623,-9474.636058,222.061783,2374.896044
934.218944,-9770.718434,-2220.617826,1072.533697
934.219265,-8660.409521,0.000000,689.485948
934.219585,-8956.491898,-222.061783,0.000000
934.219906,-8586.388927,1184.329507,1762.019645
934.220227,-7624.121203,370.102971,1532.190996
934.220547,-8586.388927,0.000000,1225.752797
934.220868,-10214.842000,-1850.514855,1302.362347
934.221189,-9992.780217,-1924.535449,1915.238745
934.221510,-11177.109724,-1480.411884,1991.848295
934.221830,-11177.109724,-444.123565,2145.067394
934.222151,-8956.491898,592.164754,1762.019645
934.222472,-8364.327145,1110.308913,1991.848295
934.222792,-10214.842000,148.041188,2298.286494
934.223113,-9326.594869,-888.247130,1532.190996
934.223434,-8882.471304,-1184.329507,-383.047749
934.223754,-9326.594869,-296.082377,-1225.752797
934.224075,-8438.347739,370.102971,-995.924147
934.224396,-9178.553681,370.102971,612.876398
934.224717,-9326.594869,0.000000,1685.410096
934.225037,-10955.047942,-1332.370696,2451.505594
934.225358,-11843.295072,-2220.617826,2604.724693
934.225679,-12583.501014,-1776.494261,3064.381992
934.225999,-11843.295072,444.123565,2604.724693
934.226320,-11917.315666,1184.329507,2451.505594
934.226641,-8364.327145,1628.453072,1149.143247
934.226961,-7994.224174,444.123565,0.000000
934.227282,-8660.409521,-1776.494261,-1455.581446
934.227603,-8290.306550,-1628.453072,-1225.752797
934.227924,-9030.512492,-1480.411884,-1455.581446
934.228244,-9844.739029,-444.123565,0.000000
934.228565,-9622.677246,888.247130,1225.752797
934.228886,-9992.780217,-370.102971,1608.800546
934.229206,-9918.759623,370.102971,1838.629195
934.229527,-11103.089130,-222.061783,2145.067394
934.229848,-9918.759623,-1332.370696,1225.752797
934.230168,-9770.718434,-1036.288319,612.876398
934.230489,-9400.615463,-814.226536,-306.438199
934.230810,-8364.327145,0.000000,-766.095498
934.231131,-7846.182985,814.226536,536.266849
934.231451,-8660.409521,0.000000,1072.533697
934.231772,-9400.615463,-1998.556043,766.095498
934.232093,-10066.800811,-1110.308913,459.657299
934.232413,-9844.739029,-1702.473667,383.047749
934.232734,-10288.862594,74.020594,2068.457845
934.233055,-10066.800811,0.000000,2528.115143
934.233375,-8068.244768,-370.102971,1302.362347
934.233696,-8142.265362,-592.164754,383.047749
934.234017,-9696.697840,-1702.473667,0.000000
934.234337,-9400.615463,-1480.411884,0.000000
934.234658,-9400.615463,-296.082377,76.609550
934.234979,-10807.006753,222.061783,0.000000
934.235300,-9770.718434,740.205942,995.924147
934.235620,-9400.615463,666.185348,1991.848295
934.235941,-10436.903782,-740.205942,2834.553343
934.236262,-10510.924376,-518.144159,1225.752797
934.236582,-10584.944971,-1776.494261,2681.334243
934.236903,-10066.800811,-1406.391290,1608.800546
934.237224,-9326.594869,222.061783,2221.676944
934.237544,-9918.759623,-148.041188,2145.067394
934.237865,-7994.224174,1184.329507,1225.752797
934.238186,-9252.574275,444.123565,689.485948
934.238507,-9844.739029,0.000000,842.705048
934.238827,-9474.636058,-1332.370696,229.828649
934.239148,-10584.944971,-888.247130,0.000000
934.239469,-10214.842000,-370.102971,-306.438199
934.239789,-9030.512492,1258.350101,919.314598
934.240110,-9474.636058,1628.453072,2757.943793
934.240431,-10288.862594,888.247130,4519.963438
934.240751,-11251.130318,-962.267725,2451.505594
934.241072,-9400.615463,-1554.432478,1378.971896
934.241393,-9844.739029,-296.082377,766.095498
934.241714,-9622.677246,740.205942,1378.971896
934.242034,-8882.471304,1258.350101,1608.800546
934.242355,-8290.306550,1110.308913,1991.848295
934.242676,-9252.574275,-370.102971,1149.143247
934.242996,-9548.656652,-1850.514855,612.876398
934.243317,-9400.615463,-2294.638420,689.485948
934.243638,-10140.821405,-1110.308913,76.609550
934.243958,-9770.718434,444.123565,612.876398
934.244279,-8586.388927,666.185348,1072.533697
934.244600,-8364.327145,1776.494261,919.314598
934.244921,-10584.944971,-518.144159,1915.238745
934.245241,-10140.821405,-1184.329507,1149.143247
934.245562,-9992.780217,-1480.411884,612.876398
934.245883,-9918.759623,-888.247130,229.828649
934.246203,-9474.636058,1110.308913,459.657299
934.246524,-8660.409521,1776.494261,1608.800546
934.246845,-8808.450710,1628.453072,689.485948
934.247165,-9770.718434,370.102971,919.314598
934.247486,-9622.677246,-1480.411884,306.438199
934.247807,-9918.759623,-1554.432478,995.924147
934.248127,-10732.986159,-1850.514855,383.047749
934.248448,-9400.615463,0.000000,0.000000
934.248769,-7920.203579,1776.494261,1685.410096
934.249090,-9178.553681,2072.576638,2068.457845
934.249410,-10807.006753,-148.041188,2374.896044
934.249731,-10140.821405,-2812.782580,1072.533697
934.250052,-9474.636058,-2664.741391,0.000000
934.250372,-10066.800811,-888.247130,-229.828649
934.250693,-9770.718434,1036.288319,1532.190996
934.251014,-8808.450710,518.144159,2298.286494
934.251334,-8808.450710,444.123565,2374.896044
934.251655,-10436.903782,-2220.617826,766.095498
934.251976,-10066.800811,-3108.864956,1072.533697
934.252297,-9622.677246,-2146.597232,1685.410096
934.252617,-10362.883188,-1924.535449,995.924147
934.252938,-8216.285956,1628.453072,2757.943793
934.253259,-9104.533087,1406.391290,1378.971896
934.253579,-8290.306550,1036.288319,153.219100
934.253900,-9770.718434,-296.082377,1149.143247
934.254221,-9844.739029,-2442.679609,1455.581446
934.254541,-9474.636058,-1628.453072,153.219100
934.254862,-11251.130318,-962.267725,995.924147
934.255183,-8882.471304,814.226536,1455.581446
934.255504,-9030.512492,518.144159,1608.800546
934.255824,-9326.594869,444.123565,1225.752797
934.256145,-9474.636058,-1258.350101,612.876398
934.256466,-9400.615463,-1776.494261,229.828649
934.256786,-9548.656652,-1924.535449,536.266849
934.257107,-10732.986159,-74.020594,76.609550
934.257428,-9474.636058,-296.082377,919.314598
934.257748,-7846.182985,0.000000,-153.219100
934.258069,-8956.491898,370.102971,306.438199
934.258390,-9400.615463,-518.144159,153.219100
934.258711,-9696.697840,-1110.308913,612.876398
934.259031,-10140.821405,-444.123565,383.047749
934.259352,-10214.842000,-296.082377,842.705048
934.259673,-10288.862594,-518.144159,1532.190996
934.259993,-9474.636058,666.185348,2451.505594
934.260314,-11547.212695,-1258.350101,2451.505594
934.260635,-10510.924376,0.000000,2528.115143
934.260955,-10214.842000,-1036.288319,1455.581446
934.261276,-9844.739029,518.144159,-383.047749
934.261597,-9696.697840,1036.288319,229.828649
934.261918,-8586.388927,1110.308913,995.924147
934.262238,-8216.285956,1332.370696,1762.019645
934.262559,-9918.759623,-1702.473667,459.657299
934.262880,-9474.636058,-1258.350101,536.266849
934.263200,-9918.759623,-2146.597232,919.314598
934.263521,-10955.047942,0.000000,1608.800546
934.263842,-11177.109724,1406.391290,2528.115143
934.264162,-10510.924376,2442.679609,2987.772442
934.264483,-9474.636058,444.123565,2374.896044
934.264804,-8734.430116,0.000000,1685.410096
934.265124,-9474.636058,-2072.576638,689.485948
934.265445,-8438.347739,-370.102971,-229.828649
934.265766,-9252.574275,-148.041188,-459.657299
934.266087,-8068.244768,1406.391290,153.219100
934.266407,-7105.977043,740.205942,612.876398
934.266728,-8586.388927,1332.370696,2374.896044
934.267049,-11991.336260,-592.164754,3907.087040
934.267369,-11103.089130,-2442.679609,3217.601092
934.267690,-10955.047942,-1480.411884,2757.943793
934.268011,-10510.924376,0.000000,2451.505594
934.268331,-10140.821405,1184.329507,1915.238745
934.268652,-8142.265362,1702.473667,1608.800546
934.268973,-7772.162391,518.144159,-153.219100
934.269294,-8142.265362,-518.144159,-995.924147
934.269614,-9326.594869,-1924.535449,-536.266849
934.269935,-10066.800811,-1258.350101,689.485948
934.270256,-10881.027347,296.082377,1302.362347
934.270576,-10658.965565,-74.020594,2145.067394
934.270897,-9104.533087,666.185348,1991.848295
934.271218,-10510.924376,-222.061783,2145.067394
934.271538,-10955.047942,-1702.473667,1378.971896
934.271859,-9696.697840,-1776.494261,842.705048
934.272180,-9252.574275,-1924.535449,-842.705048
934.272501,-9104.533087,-962.267725,-1225.752797
934.272821,-8216.285956,962.267725,-1378.971896
934.273142,-8364.327145,888.247130,-306.438199
934.273463,-8364.327145,666.185348,-306.438199
934.273783,-8882.471304,-1184.329507,919.314598
934.274104,-10362.883188,-2072.576638,536.266849
934.274425,-11103.089130,-2072.576638,1072.533697
934.274745,-11473.192101,-1480.411884,1762.019645
934.275066,-10362.883188,-592.164754,2068.457845
934.275387,-8808.450710,888.247130,2374.896044
934.275708,-10066.800811,0.000000,2145.067394
934.276028,-10214.842000,-1332.370696,1608.800546
934.276349,-8512.368333,-2294.638420,-536.266849
934.276670,-8660.409521,-2368.659014,-2834.553343
934.276990,-8512.368333,-592.164754,-1991.848295
934.277311,-8734.430116,148.041188,0.000000
934.277632,-8290.306550,1110.308913,1072.533697
934.277952,-9992.780217,-518.144159,2221.676944
934.278273,-10732.986159,-1332.370696,2221.676944
934.278594,-11103.089130,-3108.864956,2298.286494
934.278914,-10510.924376,-1776.494261,1532.190996
934.279235,-11029.068536,-444.123565,1532.190996
934.279556,-8586.388927,592.164754,1072.533697
934.279877,-7994.224174,1332.370696,1149.143247
934.280197,-9030.512492,-888.247130,459.657299
934.280518,-9326.594869,-1406.391290,306.438199
934.280839,-10584.944971,-814.226536,1149.143247
934.281159,-9474.636058,-740.205942,689.485948
934.281480,-10658.965565,888.247130,1685.410096
934.281801,-9474.636058,1184.329507,2834.553343
934.282121,-9474.636058,0.000000,2681.334243
934.282442,-10510.924376,-740.205942,2221.676944
934.282763,-9918.759623,-1776.494261,2298.286494
934.283084,-9548.656652,-1184.329507,1455.581446
934.283404,-10362.883188,-296.082377,1685.410096
934.283725,-9474.636058,666.185348,1608.800546
934.284046,-8364.327145,2294.638420,1225.752797
934.284366,-8512.368333,1850.514855,1302.362347
934.284687,-10658.965565,0.000000,1225.752797
934.285008,-10066.800811,-814.226536,383.047749
934.285328,-10362.883188,-1924.535449,1072.533697
934.285649,-10362.883188,0.000000,2145.067394
934.285970,-10732.986159,666.185348,3064.381992
934.286291,-9548.656652,962.267725,3370.820191
934.286611,-8808.450710,2146.597232,3064.381992
934.286932,-10066.800811,-370.102971,919.314598
934.287253,-8142.265362,-740.205942,536.266849
934.287573,-9178.553681,-592.164754,-536.266849
934.287894,-8808.450710,0.000000,-153.219100
934.288215,-8438.347739,1036.288319,-383.047749
934.288535,-8068.244768,962.267725,-153.219100
934.288856,-9030.512492,296.082377,689.485948
934.289177,-10288.862594,-592.164754,2374.896044
934.289498,-10362.883188,-1998.556043,1378.971896
934.289818,-10510.924376,-1258.350101,689.485948
934.290139,-10807.006753,0.000000,842.705048
934.290460,-9622.677246,1850.514855,1225.752797
934.290780,-9104.533087,1258.350101,1455.581446
934.291101,-9326.594869,444.123565,612.876398
934.291422,-10066.800811,-1110.308913,153.219100
934.291742,-9770.718434,-1998.556043,383.047749
934.292063,-9622.677246,-1554.432478,612.876398
934.292384,-10288.862594,-296.082377,919.314598
934.292705,-9400.615463,740.205942,459.657299
934.293025,-8808.450710,1702.473667,1762.019645
934.293346,-9992.780217,814.226536,1149.143247
934.293667,-10214.842000,-1406.391290,919.314598
934.293987,-9548.656652,-2146.597232,536.266849
934.294308,-9844.739029,-1998.556043,153.219100
934.294629,-9992.780217,74.020594,536.266849
934.294949,-9474.636058,0.000000,1225.752797
934.295270,-8364.327145,222.061783,1225.752797
934.295591,-9622.677246,-740.205942,919.314598
934.295911,-9548.656652,-1184.329507,1072.533697
934.296232,-10436.903782,-3775.050304,1915.238745
934.296553,-10066.800811,-1554.432478,1838.629195
934.296874,-11029.068536,-814.226536,2298.286494
934.297194,-8956.491898,-1258.350101,1915.238745
934.297515,-7105.977043,148.041188,2834.553343
934.297836,-10436.903782,-592.164754,3294.210641
934.298156,-9400.615463,-2072.576638,1302.362347
934.298477,-8808.450710,-1998.556043,689.485948
934.298798,-9104.533087,-1776.494261,0.000000
934.299118,-8956.491898,370.102971,383.047749
934.299439,-9400.615463,518.144159,689.485948
934.299760,-8216.285956,1110.308913,153.219100
934.300080,-9918.759623,-518.144159,459.657299
934.300401,-10288.862594,-1480.411884,1302.362347
934.300722,-10066.800811,-1850.514855,1762.019645
934.301043,-11325.150913,-1110.308913,2451.505594
934.301363,-10658.965565,-444.123565,1762.019645
934.301684,-8438.347739,-1184.329507,3447.429741
934.302005,-8660.409521,296.082377,1915.238745
934.302325,-9548.656652,-962.267725,995.924147
934.302646,-9474.636058,-740.205942,459.657299
934.302967,-8956.491898,-740.205942,-383.047749
934.303288,-9474.636058,222.061783,-1149.143247
934.303608,-9548.656652,1184.329507,0.000000
934.303929,-9474.636058,296.082377,1149.143247
934.304250,-9400.615463,222.061783,536.266849
934.304571,-10510.924376,74.020594,536.266849
934.304891,-10658.965565,-1110.308913,995.924147
934.305212,-10436.903782,-222.061783,1378.971896
934.305533,-11473.192101,296.082377,1532.190996
934.305853,-9918.759623,1406.391290,919.314598
934.306174,-8216.285956,1332.370696,766.095498
934.306495,-8956.491898,1110.308913,1915.238745
934.306816,-9992.780217,-962.267725,1608.800546
934.307136,-9400.615463,-1480.411884,1608.800546
934.307457,-8734.430116,-1850.514855,-153.219100
934.307778,-8216.285956,0.000000,-536.266849
934.308099,-9178.553681,1110.308913,0.000000
934.308419,-7846.182985,1924.535449,919.314598
934.308740,-8956.491898,1924.535449,1991.848295
934.309061,-9548.656652,0.000000,919.314598
934.309382,-10066.800811,-2072.576638,1378.971896
934.309702,-10066.800811,-1702.473667,2451.505594
934.310023,-11325.150913,-888.247130,2681.334243
934.310344,-10288.862594,0.000000,3294.210641
934.310664,-8734.430116,814.226536,2528.115143
934.310985,-9252.574275,222.061783,3064.381992
934.311306,-10140.821405,-1258.350101,1762.019645
934.311627,-8364.327145,-1332.370696,1685.410096
934.311947,-9104.533087,-1036.288319,0.000000
934.312268,-9400.615463,666.185348,0.000000
934.312589,-9178.553681,666.185348,536.266849
934.312910,-9326.594869,888.247130,995.924147
934.313230,-10807.006753,0.000000,2068.457845
934.313551,-11769.274478,-1480.411884,2987.772442
934.313872,-11843.295072,-1776.494261,3370.820191
934.314192,-11399.171507,-2664.741391,1838.629195
934.314513,-10066.800811,814.226536,153.219100
934.314834,-8956.491898,2368.659014,-995.924147
934.315155,-6809.894666,3108.864956,0.000000
934.315475,-7994.224174,814.226536,-306.438199
934.315796,-8734.430116,-1554.432478,306.438199
934.316117,-9252.574275,-3182.885551,-383.047749
934.316438,-10584.944971,-2072.576638,689.485948
934.316758,-11843.295072,-1036.288319,2604.724693
934.317079,-9770.718434,-444.123565,2145.067394
934.317400,-9992.780217,518.144159,2451.505594
934.317721,-9622.677246,-444.123565,842.705048
934.318041,-9104.533087,-296.082377,306.438199
934.318362,-9770.718434,-1184.329507,383.047749
934.318683,-8956.491898,-592.164754,0.000000
934.319003,-9548.656652,74.020594,153.219100
934.319324,-8882.471304,-148.041188,919.314598
934.319645,-7846.182985,814.226536,1225.752797
934.319966,-9844.739029,592.164754,3217.601092
934.320286,-10066.800811,-2294.638420,1838.629195
934.320607,-9104.533087,-2368.659014,995.924147
934.320928,-9474.636058,-1184.329507,306.438199
934.321249,-9252.574275,814.226536,-612.876398
934.321569,-8660.409521,444.123565,1072.533697
934.321890,-7994.224174,740.205942,229.828649
934.322211,-9030.512492,-518.144159,0.000000
934.322531,-9400.615463,-1924.535449,383.047749
934.322852,-9474.636058,-2516.700203,689.485948
934.323173,-10807.006753,-1480.411884,842.705048
934.323494,-11029.068536,-296.082377,1762.019645
934.323814,-10066.800811,1184.329507,3294.210641
934.324135,-11473.192101,1702.473667,4826.401637
934.324456,-11473.192101,222.061783,3907.087040
934.324777,-10436.903782,-1628.453072,1532.190996
934.325097,-8882.471304,-1258.350101,0.000000
934.325418,-8956.491898,-518.144159,459.657299
934.325739,-8364.327145,444.123565,-1225.752797
934.326060,-7328.038826,1480.411884,0.000000
934.326380,-8290.306550,740.205942,-459.657299
934.326701,-9474.636058,-296.082377,-153.219100
934.327022,-11991.336260,-592.164754,1915.238745
934.327342,-11399.171507,-1036.288319,2451.505594
934.327663,-12509.480420,-1036.288319,1915.238745
934.327984,-10436.903782,296.082377,1532.190996
934.328305,-9622.677246,666.185348,689.485948
934.328625,-8364.327145,1332.370696,1915.238745
934.328946,-10140.821405,-888.247130,1455.581446
934.329267,-8142.265362,-1406.391290,0.000000
934.329588,-9178.553681,-1480.411884,-536.266849
934.329908,-8734.430116,888.247130,-306.438199
934.330229,-9548.656652,2368.659014,1838.629195
934.330550,-9548.656652,1184.329507,2604.724693
934.330870,-9252.574275,74.020594,2221.676944
934.331191,-10214.842000,-2294.638420,995.924147
934.331512,-9622.677246,-3108.864956,1072.533697
934.331833,-10881.027347,-2590.720797,1455.581446
934.332153,-9918.759623,0.000000,1378.971896
934.332474,-9474.636058,888.247130,1838.629195
934.332795,-7920.203579,2294.638420,1225.752797
934.333116,-9252.574275,814.226536,1915.238745
934.333436,-10881.027347,-1776.494261,1455.581446
934.333757,-10066.800811,-1406.391290,995.924147
934.334078,-10066.800811,-1776.494261,1762.019645
934.334398,-9770.718434,-814.226536,1455.581446
934.334719,-10140.821405,296.082377,2834.553343
934.335040,-9252.574275,148.041188,1991.848295
934.335361,-9178.553681,1406.391290,2068.457845
934.335681,-10436.903782,444.123565,1302.362347
934.336002,-9548.656652,74.020594,919.314598
934.336323,-10066.800811,-222.061783,-306.438199
934.336644,-10658.965565,740.205942,-536.266849
934.336964,-8438.347739,592.164754,-383.047749
934.337285,-8438.347739,1702.473667,995.924147
934.337606,-10362.883188,222.061783,2528.115143
934.337927,-10955.047942,-1554.432478,2451.505594
934.338247,-10362.883188,-2220.617826,1455.581446
934.338568,-10066.800811,-2368.659014,919.314598
934.338889,-10140.821405,-518.144159,919.314598
934.339209,-9178.553681,666.185348,1608.800546
934.339530,-8364.327145,592.164754,842.705048
934.339851,-8216.285956,0.000000,0.000000
934.340172,-9474.636058,-2146.597232,-612.876398
934.340492,-9252.574275,-2368.659014,0.000000
934.340813,-10807.006753,-1628.453072,-153.219100
934.341134,-10510.924376,-666.185348,612.876398
934.341455,-8660.409521,962.267725,1685.410096
934.341775,-8734.430116,1036.288319,2068.457845
934.342096,-10584.944971,0.000000,2451.505594
934.342417,-8956.491898,0.000000,3294.210641
934.342737,-11029.068536,-3108.864956,-689.485948
934.343058,-6365.771101,296.082377,536.266849
934.343379,-11399.171507,-1184.329507,-383.047749
934.343700,-7846.182985,1184.329507,1762.019645
934.344020,-7328.038826,-592.164754,0.000000
934.344341,-10288.862594,0.000000,1225.752797
934.344662,-10362.883188,-2664.741391,0.000000
934.344983,-8882.471304,-2886.803174,-2528.115143
934.345303,-11547.212695,-1036.288319,1762.019645
934.345624,-8808.450710,-962.267725,-306.438199
934.345945,-9252.574275,1998.556043,1685.410096
934.346266,-9844.739029,1184.329507,3217.601092
934.346586,-9030.512492,370.102971,766.095498
934.346907,-11621.233289,-1184.329507,2068.457845
934.347228,-9696.697840,-1998.556043,689.485948
934.347548,-8808.450710,-888.247130,-459.657299
934.347869,-10807.006753,-148.041188,0.000000
934.348190,-7328.038826,1110.308913,919.314598
934.348511,-8808.450710,518.144159,536.266849
934.348831,-10807.006753,-592.164754,1225.752797
934.349152,-10214.842000,-1258.350101,1455.581446
934.349473,-10658.965565,-2146.597232,766.095498
934.349794,-10807.006753,-1480.411884,1302.362347
934.350114,-10658.965565,1184.329507,2451.505594
934.350435,-8808.450710,1702.473667,2604.724693
934.350756,-9548.656652,1110.308913,3064.381992
934.351076,-9844.739029,148.041188,2145.067394
934.351397,-9400.615463,-1110.308913,229.828649
934.351718,-9548.656652,-296.082377,1149.143247
934.352039,-9622.677246,1406.391290,1149.143247
934.352359,-9178.553681,1628.453072,1915.238745
934.352680,-8142.265362,1258.350101,1455.581446
934.353001,-7328.038826,888.247130,1302.362347
934.353322,-10658.965565,-1702.473667,1149.143247
934.353642,-9844.739029,-2072.576638,2068.457845
934.353963,-10066.800811,-1406.391290,1378.971896
934.354284,-10436.903782,-444.123565,1532.190996
934.354605,-8956.491898,296.082377,1225.752797
934.354925,-8290.306550,1554.432478,1608.800546
934.355246,-10066.800811,-74.020594,2068.457845
934.355567,-9918.759623,-1258.350101,1378.971896
934.355887,-9178.553681,-1924.535449,1532.190996
934.356208,-8882.471304,-2960.823768,536.266849
934.356529,-9474.636058,222.061783,995.924147
934.356850,-9622.677246,518.144159,1915.238745
934.357170,-8364.327145,962.267725,1838.629195
934.357491,-9474.636058,444.123565,2451.505594
934.357812,-10362.883188,-592.164754,766.095498
934.358133,-10362.883188,-1184.329507,995.924147
934.358453,-10362.883188,-296.082377,766.095498
934.358774,-10214.842000,-370.102971,0.000000
934.359095,-8364.327145,592.164754,-229.828649
934.359415,-8882.471304,1480.411884,766.095498
934.359736,-10955.047942,-740.205942,1149.143247
934.360057,-10362.883188,-1406.391290,995.924147
934.360378,-9474.636058,-1924.535449,306.438199
934.360698,-9770.718434,-814.226536,0.000000
934.361019,-11103.089130,222.061783,995.924147
934.361340,-9252.574275,1628.453072,2451.505594
934.361661,-8734.430116,148.041188,689.485948
934.361981,-8438.347739,-222.061783,459.657299
934.362302,-9844.739029,-2146.597232,0.000000
934.362623,-9474.636058,-2072.576638,383.047749
934.362944,-9918.759623,-1480.411884,919.314598
934.363264,-9252.574275,-444.123565,-306.438199
934.363585,-8438.347739,888.247130,0.000000
934.363906,-9326.594869,666.185348,842.705048
934.364226,-10732.986159,-148.041188,1302.362347
934.364547,-10066.800811,-814.226536,2298.286494
934.364868,-9918.759623,-2072.576638,612.876398
934.365189,-9992.780217,-666.185348,612.876398
934.365509,-9992.780217,0.000000,1225.752797
934.365830,-8512.368333,74.020594,1762.019645
934.366151,-8216.285956,-148.041188,1149.143247
934.366472,-9178.553681,-1998.556043,-612.876398
934.366792,-8660.409521,-2368.659014,-1225.752797
934.367113,-9252.574275,-1702.473667,-689.485948
934.367434,-9696.697840,0.000000,-306.438199
934.367754,-9326.594869,1110.308913,842.705048
934.368075,-8956.491898,2220.617826,2298.286494
934.368396,-10881.027347,370.102971,3447.429741
934.368717,-12509.480420,-888.247130,4136.915689
934.369037,-11991.336260,-3775.050304,3677.258390
934.369358,-10362.883188,-3404.947333,1762.019645
934.369679,-10140.821405,-1258.350101,1225.752797
934.370000,-9696.697840,888.247130,2451.505594
934.370320,-7328.038826,2220.617826,1225.752797
934.370641,-8290.306550,1258.350101,229.828649
934.370962,-9474.636058,222.061783,306.438199
934.371282,-9104.533087,-1554.432478,306.438199
934.371603,-9474.636058,-1554.432478,1762.019645
934.371924,-11029.068536,-518.144159,2145.067394
934.372245,-9992.780217,444.123565,1608.800546
934.372565,-9104.533087,1332.370696,3294.210641
934.372886,-10658.965565,296.082377,2757.943793
934.373207,-10732.986159,-444.123565,1302.362347
934.373528,-10658.965565,-1184.329507,1149.143247
934.373848,-8660.409521,0.000000,76.609550
934.374169,-9696.697840,1110.308913,306.438199
934.374490,-9178.553681,2146.597232,2298.286494
934.374811,-8290.306550,814.226536,766.095498
934.375131,-8364.327145,-518.144159,383.047749
934.375452,-9844.739029,-2368.659014,153.219100
934.375773,-9918.759623,-2220.617826,1302.362347
934.376093,-10066.800811,-1036.288319,1149.143247
934.376414,-10584.944971,74.020594,1225.752797
934.376735,-8734.430116,1184.329507,1072.533697
934.377056,-8660.409521,1036.288319,1608.800546
934.377376,-10066.800811,-518.144159,1072.533697
934.377697,-10362.883188,-1480.411884,1072.533697
934.378018,-9696.697840,-1480.411884,459.657299
934.378339,-9400.615463,-592.164754,383.047749
934.378659,-9400.615463,1628.453072,-1072.533697
934.378980,-8882.471304,1554.432478,1225.752797
934.379301,-8882.471304,962.267725,1225.752797
934.379621,-9548.656652,-296.082377,919.314598
934.379942,-10288.862594,-2220.617826,919.314598
934.380263,-10066.800811,-2072.576638,1149.143247
934.380584,-10955.047942,-814.226536,1302.362347
934.380904,-11251.130318,0.000000,2145.067394
934.381225,-9326.594869,1110.308913,2528.115143
934.381546,-9622.677246,888.247130,2145.067394
934.381867,-10510.924376,-222.061783,1838.629195
934.382187,-10436.903782,-666.185348,1149.143247
934.382508,-9770.718434,-740.205942,459.657299
934.382829,-9548.656652,1480.411884,689.485948
934.383150,-8956.491898,518.144159,0.000000
934.383470,-8512.368333,74.020594,612.876398
934.383791,-8438.347739,-444.123565,919.314598
934.384112,-10214.842000,-1332.370696,1762.019645
934.384432,-11103.089130,-1332.370696,2374.896044
934.384753,-10066.800811,-962.267725,1762.019645
934.385074,-10436.903782,-740.205942,1608.800546
934.385395,-9696.697840,888.247130,1455.581446
934.385715,-8660.409521,1406.391290,306.438199
934.386036,-7920.203579,0.000000,1072.533697
934.386357,-9474.636058,-1702.473667,536.266849
934.386678,-9104.533087,-2886.803174,459.657299
934.386998,-9474.636058,-3182.885551,-689.485948
934.387319,-9030.512492,-1036.288319,383.047749
934.387640,-9696.697840,222.061783,536.266849
934.387960,-8956.491898,1036.288319,2604.724693
934.388281,-9844.739029,-666.185348,1532.190996
934.388602,-9770.718434,-1776.494261,0.000000
934.388923,-10066.800811,-1702.473667,689.485948
934.389243,-9992.780217,-1406.391290,459.657299
934.389564,-10214.842000,148.041188,1455.581446
934.389885,-10658.965565,1036.288319,919.314598
934.390206,-7105.977043,1628.453072,1685.410096
934.390526,-9622.677246,0.000000,306.438199
934.390847,-9918.759623,-1258.350101,306.438199
934.391168,-8956.491898,-888.247130,-229.828649
934.391489,-9400.615463,-518.144159,-153.219100
934.391809,-9918.759623,-74.020594,-689.485948
934.392130,-8438.347739,666.185348,689.485948
934.392451,-9474.636058,296.082377,1455.581446
934.392771,-10140.821405,0.000000,2374.896044
934.393092,-11399.171507,-1184.329507,2298.286494
934.393413,-11621.233289,-1628.453072,2374.896044
934.393734,-10066.800811,-888.247130,995.924147
934.394054,-10288.862594,148.041188,1149.143247
934.394375,-8808.450710,1110.308913,689.485948
934.394696,-8142.265362,1702.473667,1149.143247
934.395017,-9474.636058,444.123565,1225.752797
934.395337,-9696.697840,-1702.473667,1072.533697
934.395658,-9030.512492,-2368.659014,459.657299
934.395979,-10436.903782,-1480.411884,842.705048
934.396299,-10510.924376,518.144159,1455.581446
934.396620,-9622.677246,1332.370696,1915.238745
934.396941,-9104.533087,2516.700203,1608.800546
934.397262,-9844.739029,444.123565,919.314598
934.397582,-9992.780217,-962.267725,919.314598
934.397903,-9992.780217,-740.205942,995.924147
934.398224,-10362.883188,-740.205942,1302.362347
934.398545,-9770.718434,740.205942,995.924147
934.398865,-9030.512492,962.267725,1838.629195
934.399186,-7624.121203,2442.679609,2298.286494
934.399507,-10288.862594,-666.185348,1685.410096
934.399827,-8586.388927,-962.267725,2374.896044
934.400148,-9474.636058,-1776.494261,1378.971896
934.400469,-9696.697840,-1924.535449,766.095498
934.400790,-10066.800811,-518.144159,1302.362347
934.401110,-9844.739029,740.205942,1378.971896
934.401431,-8142.265362,740.205942,919.314598
934.401752,-9622.677246,-518.144159,1149.143247
934.402072,-9918.759623,-666.185348,1225.752797
934.402393,-10658.965565,-1776.494261,1762.019645
934.402714,-9918.759623,-1332.370696,842.705048
934.403034,-9622.677246,0.000000,612.876398
934.403355,-9326.594869,592.164754,919.314598
934.403676,-8956.491898,666.185348,1608.800546
934.403997,-9400.615463,-518.144159,919.314598
934.404317,-9474.636058,-1332.370696,689.485948
934.404638,-8882.471304,-1702.473667,-306.438199
934.404959,-10584.944971,-1184.329507,689.485948
934.405279,-9326.594869,-888.247130,1225.752797
934.405600,-8956.491898,592.164754,1455.581446
934.405921,-9252.574275,518.144159,1149.143247
934.406241,-9548.656652,-814.226536,919.314598
934.406562,-10881.027347,-1332.370696,995.924147
934.406883,-10066.800811,-1110.308913,1608.800546
934.407204,-10658.965565,-370.102971,536.266849
934.407524,-10362.883188,518.144159,689.485948
934.407845,-8512.368333,518.144159,766.095498
934.408166,-8586.388927,0.000000,2145.067394
934.408486,-10362.883188,-962.267725,1225.752797
934.408807,-9400.615463,-1776.494261,536.266849
934.409128,-9548.656652,-1702.473667,0.000000
934.409448,-9918.759623,-222.061783,1608.800546
934.409769,-9622.677246,148.041188,1072.533697
934.410090,-9178.553681,222.061783,1762.019645
934.410411,-9474.636058,-370.102971,1532.190996
934.410731,-10140.821405,-1184.329507,1149.143247
934.411052,-10066.800811,-1850.514855,2681.334243
934.411373,-10881.027347,-1480.411884,3677.258390
934.411693,-10955.047942,-1702.473667,2681.334243
934.412014,-9474.636058,-1850.514855,1455.581446
934.412335,-7179.997637,518.144159,766.095498
934.412655,-8142.265362,592.164754,229.828649
934.412976,-9696.697840,0.000000,229.828649
934.413297,-8438.347739,-296.082377,229.828649
934.413617,-8586.388927,-814.226536,-766.095498
934.413938,-9474.636058,0.000000,-306.438199
934.414259,-10066.800811,296.082377,1838.629195
934.414580,-10658.965565,222.061783,3064.381992
934.414900,-10288.862594,74.020594,2451.505594
934.415221,-9622.677246,-1554.432478,2374.896044
934.415542,-9548.656652,-1628.453072,383.047749
934.415862,-10066.800811,-740.205942,-612.876398
934.416183,-9474.636058,592.164754,-919.314598
934.416504,-7698.141797,1554.432478,-1072.533697
934.416824,-7031.956449,2146.597232,-919.314598
934.417145,-9548.656652,1554.432478,306.438199
934.417466,-11103.089130,740.205942,1991.848295
934.417787,-11103.089130,-962.267725,2451.505594
934.418107,-11399.171507,-592.164754,2604.724693
934.418428,-12065.356855,-1258.350101,1915.238745
934.418749,-9474.636058,-222.061783,2068.457845
934.419069,-9178.553681,444.123565,1608.800546
934.419390,-8882.471304,-370.102971,536.266849
934.419711,-8808.450710,-1184.329507,0.000000
934.420031,-7772.162391,-592.164754,-689.485948
934.420352,-10066.800811,0.000000,-689.485948
934.420673,-9474.636058,518.144159,306.438199
934.420994,-9622.677246,962.267725,2221.676944
934.421314,-8808.450710,1184.329507,2987.772442
934.421635,-10362.883188,-740.205942,3217.601092
934.421956,-11325.150913,-1110.308913,3753.867940
934.422276,-10140.821405,-2146.597232,3907.087040
934.422597,-9696.697840,-1184.329507,1532.190996
934.422918,-9548.656652,0.000000,919.314598
934.423238,-7698.141797,1406.391290,229.828649
934.423559,-8438.347739,1628.453072,612.876398
934.423880,-9252.574275,0.000000,1149.143247
934.424201,-9030.512492,-1110.308913,689.485948
934.424521,-9770.718434,-2368.659014,229.828649
934.424842,-10955.047942,-1924.535449,1072.533697
934.425163,-9400.615463,148.041188,2451.505594
934.425483,-9474.636058,518.144159,3524.039291
934.425804,-9918.759623,1036.288319,3677.258390
934.426125,-10288.862594,148.041188,2451.505594
934.426445,-9992.780217,814.226536,3524.039291
934.426766,-9622.677246,-814.226536,1991.848295
934.427087,-8956.491898,-666.185348,1072.533697
934.427408,-9030.512492,148.041188,1455.581446
934.427728,-7105.977043,444.123565,2528.115143
934.428049,-7698.141797,0.000000,612.876398
934.428370,-10436.903782,-888.247130,2068.457845
934.428690,-9400.615463,-962.267725,2451.505594
934.429011,-10140.821405,-1332.370696,2298.286494
934.429332,-10510.924376,740.205942,2451.505594
934.429652,-10584.944971,888.247130,2145.067394
934.429973,-9400.615463,1184.329507,1378.971896
934.430294,-8808.450710,2072.576638,2145.067394
934.430615,-9326.594869,370.102971,1991.848295
934.430935,-10362.883188,740.205942,2145.067394
934.431256,-10807.006753,148.041188,2145.067394
934.431577,-10362.883188,962.267725,842.705048
934.431897,-10658.965565,2960.823768,1225.752797
934.432218,-10436.903782,2072.576638,1762.019645
934.432539,-8956.491898,2146.597232,1072.533697
934.432859,-9474.636058,592.164754,459.657299
934.433180,-9104.533087,74.020594,995.924147
934.433501,-9696.697840,-592.164754,1302.362347
934.433821,-11029.068536,74.020594,2681.334243
934.434142,-10288.862594,1702.473667,3830.477490
934.434463,-9918.759623,2664.741391,3370.820191
934.434784,-9474.636058,2516.700203,2834.553343
934.435104,-9918.759623,3849.070898,3370.820191
934.435425,-9918.759623,4219.173869,4519.963438
934.435746,-10658.965565,1924.535449,4519.963438
934.436066,-9400.615463,740.205942,2987.772442
934.436387,-8956.491898,222.061783,2374.896044
934.436708,-9326.594869,814.226536,2298.286494
934.437028,-9030.512492,2220.617826,3524.039291
934.437349,-9178.553681,888.247130,3217.601092
934.437670,-8956.491898,888.247130,2834.553343
934.437991,-9696.697840,740.205942,2987.772442
934.438311,-10436.903782,296.082377,3830.477490
934.438632,-10362.883188,518.144159,4366.744339
934.438953,-10140.821405,1702.473667,4290.134789
934.439273,-8956.491898,3182.885551,3294.210641
934.439594,-9474.636058,3108.864956,3524.039291
934.439915,-9326.594869,2590.720797,4060.306139
934.440235,-9622.677246,1998.556043,3907.087040
934.440556,-9400.615463,2516.700203,4136.915689
934.440877,-9400.615463,3256.906145,5362.668486
934.441198,-9696.697840,3256.906145,6128.763984
934.441518,-9770.718434,2220.617826,4749.792088
934.441839,-7846.182985,2146.597232,3294.210641
934.442160,-8660.409521,1998.556043,1915.238745
934.442480,-8808.450710,2368.659014,2757.943793
934.442801,-9474.636058,1998.556043,3140.991542
934.443122,-9770.718434,1702.473667,3600.648841
934.443442,-9844.739029,1850.514855,2451.505594
934.443763,-10140.821405,2664.741391,3370.820191
934.444084,-11177.109724,3849.070898,5132.839837
934.444405,-11695.253884,3627.009116,4366.744339
934.444725,-11325.150913,2960.823768,5209.449386
934.445046,-9696.697840,1184.329507,3600.648841
934.445367,-9104.533087,740.205942,2681.334243
934.445687,-9474.636058,1110.308913,3217.601092
934.446008,-9030.512492,1850.514855,3447.429741
934.446329,-8956.491898,666.185348,2451.505594
934.446649,-8216.285956,444.123565,766.095498
934.446970,-9400.615463,1110.308913,1072.533697
934.447291,-10584.944971,1998.556043,3370.820191
934.447612,-11473.192101,2516.700203,4673.182538
934.447932,-11695.253884,2294.638420,5515.887586
934.448253,-9918.759623,1776.494261,3907.087040
