#time,accel_x,accel_y,accel_z
1401.103188,-9622.677246,-222.061783,919.314598
1401.103509,-9326.594869,-444.123565,2451.505594
1401.103830,-9622.677246,-370.102971,1149.143247
1401.104151,-9474.636058,-370.102971,1072.533697
1401.104472,-9474.636058,-296.082377,1225.752797
1401.104793,-9622.677246,-222.061783,1225.752797
1401.105114,-9696.697840,0.000000,995.924147
1401.105435,-9622.677246,-296.082377,1225.752797
1401.105756,-9548.656652,-296.082377,919.314598
1401.106077,-9474.636058,-444.123565,1072.533697
1401.106398,-9474.636058,-296.082377,1608.800546
1401.106719,-9844.739029,-370.102971,919.314598
1401.107040,-9622.677246,-296.082377,842.705048
1401.107361,-9696.697840,-370.102971,842.705048
1401.107682,-9622.677246,-370.102971,919.314598
1401.108003,-9844.739029,592.164754,459.657299
1401.108324,-9474.636058,0.000000,919.314598
1401.108645,-9548.656652,-74.020594,995.924147
1401.108966,-9474.636058,-296.082377,1149.143247
1401.109287,-9622.677246,-370.102971,1072.533697
1401.109608,-9400.615463,0.000000,1378.971896
1401.109929,-9548.656652,-444.123565,1302.362347
1401.110251,-9622.677246,-222.061783,995.924147
1401.110572,-9696.697840,-296.082377,1072.533697
1401.110893,-9548.656652,-148.041188,995.924147
1401.111214,-9918.759623,-296.082377,919.314598
1401.111535,-9474.636058,-444.123565,1302.362347
1401.111856,-9548.656652,-740.205942,1072.533697
1401.112177,-9474.636058,-370.102971,1378.971896
1401.112498,-9696.697840,-518.144159,3064.381992
1401.112819,-9400.615463,-740.205942,995.924147
1401.113140,-9326.594869,-1036.288319,842.705048
1401.113461,-9548.656652,-888.247130,842.705048
1401.113782,-9696.697840,-518.144159,995.924147
1401.114103,-10140.821405,-148.041188,1149.143247
1401.114424,-9474.636058,-444.123565,689.485948
1401.114745,-9770.718434,-888.247130,766.095498
1401.115066,-9474.636058,-518.144159,459.657299
1401.115387,-10214.842000,-888.247130,995.924147
1401.115708,-9252.574275,-518.144159,1455.581446
1401.116029,-9696.697840,-1110.308913,1302.362347
1401.116350,-9622.677246,-1184.329507,1378.971896
1401.116671,-9696.697840,-1184.329507,1302.362347
1401.116992,-9548.656652,-1850.514855,2528.115143
1401.117313,-9474.636058,-1332.370696,1915.238745
1401.117634,-9474.636058,-1184.329507,1915.238745
1401.117955,-9548.656652,-1258.350101,1838.629195
1401.118276,-9326.594869,-1036.288319,2145.067394
1401.118597,-9030.512492,-1332.370696,2298.286494
1401.118918,-9548.656652,-888.247130,1915.238745
1401.119239,-9696.697840,-962.267725,2374.896044
1401.119560,-9696.697840,-1036.288319,2528.115143
1401.119881,-9770.718434,-962.267725,2987.772442
1401.120202,-9548.656652,-1110.308913,3294.210641
1401.120523,-9696.697840,-1332.370696,3447.429741
1401.120844,-9622.677246,-1480.411884,4060.306139
1401.121166,-9696.697840,-2294.638420,4136.915689
1401.121487,-9326.594869,-2960.823768,5975.544884
1401.121808,-9474.636058,-3256.906145,5439.278036
1401.122129,-9178.553681,-3552.988522,5592.497135
1401.122450,-9252.574275,-3552.988522,5669.106685
1401.122771,-9104.533087,-3701.029710,6052.154434
1401.123092,-9104.533087,-3701.029710,5822.325785
1401.123413,-9252.574275,-4071.132681,5745.716235
1401.123734,-8956.491898,-4663.297435,5898.935335
1401.124055,-9252.574275,-4811.338623,5975.544884
1401.124376,-8734.430116,-5255.462188,6358.592633
1401.124697,-9178.553681,-4737.318029,5669.106685
1401.125018,-9326.594869,-4737.318029,5209.449386
1401.125339,-9400.615463,-3997.112087,5132.839837
1401.125660,-9474.636058,-3701.029710,3677.258390
1401.125981,-9474.636058,-3330.926739,4596.572988
1401.126302,-9326.594869,-3701.029710,4519.963438
1401.126623,-9474.636058,-3775.050304,4749.792088
1401.126944,-9548.656652,-3997.112087,4060.306139
1401.127265,-9400.615463,-4071.132681,4366.744339
1401.127586,-9326.594869,-4589.276840,4290.134789
1401.127907,-9474.636058,-4811.338623,3983.696590
1401.128228,-9400.615463,-5477.523971,3447.429741
1401.128549,-9474.636058,-5847.626942,2221.676944
1401.128870,-9178.553681,-5181.441594,1762.019645
1401.129191,-9178.553681,-4071.132681,1072.533697
1401.129512,-9622.677246,-2516.700203,766.095498
1401.129833,-9992.780217,-1332.370696,689.485948
1401.130154,-10584.944971,-444.123565,459.657299
1401.130475,-10362.883188,-148.041188,612.876398
1401.130796,-10658.965565,-518.144159,919.314598
1401.131117,-10732.986159,-1554.432478,995.924147
1401.131438,-10658.965565,-2590.720797,2451.505594
1401.131759,-10807.006753,-3997.112087,2221.676944
1401.132081,-9252.574275,-4589.276840,2221.676944
1401.132402,-9400.615463,-5477.523971,2145.067394
1401.132723,-9474.636058,-4737.318029,2987.772442
1401.133044,-8438.347739,-4885.359217,2604.724693
1401.133365,-8956.491898,-4589.276840,2681.334243
1401.133686,-8808.450710,-3701.029710,2221.676944
1401.134007,-9400.615463,-3330.926739,1225.752797
1401.134328,-8586.388927,-2590.720797,1608.800546
1401.134649,-9104.533087,-1036.288319,766.095498
1401.134970,-9622.677246,740.205942,689.485948
1401.135291,-9770.718434,1998.556043,1149.143247
1401.135612,-9696.697840,2960.823768,2068.457845
1401.135933,-10510.924376,2072.576638,2451.505594
1401.136254,-10658.965565,296.082377,3983.696590
1401.136575,-10214.842000,-1924.535449,4519.963438
1401.136896,-9474.636058,-4145.153275,4596.572988
1401.137217,-9326.594869,-5181.441594,5515.887586
1401.137538,-8586.388927,-4367.215058,6511.811733
1401.137859,-8586.388927,-4589.276840,6971.469032
1401.138180,-8142.265362,-4959.379811,6205.373534
1401.138501,-7920.203579,-5107.421000,4826.401637
1401.138822,-7698.141797,-3775.050304,2987.772442
1401.139143,-8586.388927,-1184.329507,2528.115143
1401.139464,-9178.553681,1406.391290,3064.381992
1401.139785,-9918.759623,3330.926739,3524.039291
1401.140106,-10362.883188,2072.576638,3140.991542
1401.140427,-10807.006753,1776.494261,3830.477490
1401.140748,-11399.171507,592.164754,4136.915689
1401.141069,-11325.150913,-592.164754,5056.230287
1401.141390,-10807.006753,-1776.494261,6052.154434
1401.141711,-9992.780217,-3404.947333,5822.325785
1401.142032,-9030.512492,-5847.626942,4903.011187
1401.142353,-8142.265362,-7402.059420,4136.915689
1401.142675,-8068.244768,-7105.977043,2681.334243
1401.142996,-8290.306550,-5033.400406,2834.553343
1401.143317,-8808.450710,-2590.720797,3064.381992
1401.143638,-9178.553681,-1184.329507,3140.991542
1401.143959,-9474.636058,-888.247130,2911.162892
1401.144280,-9474.636058,-592.164754,2068.457845
1401.144601,-11029.068536,-592.164754,2681.334243
1401.144922,-11103.089130,-1036.288319,3064.381992
1401.145243,-10732.986159,-2368.659014,2298.286494
1401.145564,-9622.677246,-2886.803174,459.657299
1401.145885,-9474.636058,-2738.761985,0.000000
1401.146206,-8438.347739,-1332.370696,76.609550
1401.146527,-10510.924376,-1702.473667,1455.581446
1401.146848,-9844.739029,-1702.473667,2298.286494
1401.147169,-9548.656652,-3404.947333,2068.457845
1401.147490,-9696.697840,-4959.379811,2451.505594
1401.147811,-9622.677246,-4293.194464,3677.258390
1401.148132,-10510.924376,-5847.626942,4673.182538
1401.148453,-8956.491898,-6069.688724,3677.258390
1401.148774,-7846.182985,-4885.359217,1915.238745
1401.149095,-8808.450710,-2368.659014,1378.971896
1401.149416,-9548.656652,-1036.288319,2604.724693
1401.149737,-9844.739029,-1110.308913,2681.334243
1401.150058,-9474.636058,-1998.556043,2451.505594
1401.150379,-9696.697840,-2146.597232,1838.629195
1401.150700,-10658.965565,-2516.700203,2987.772442
1401.151021,-10436.903782,-3478.967927,4519.963438
1401.151342,-9992.780217,-4663.297435,3217.601092
1401.151663,-8734.430116,-4071.132681,2681.334243
1401.151984,-9030.512492,-2960.823768,2987.772442
1401.152305,-8586.388927,-2294.638420,4749.792088
1401.152626,-8956.491898,-3849.070898,4290.134789
1401.152947,-8660.409521,-3997.112087,4290.134789
1401.153268,-9252.574275,-4293.194464,4060.306139
1401.153590,-8734.430116,-3997.112087,4673.182538
1401.153911,-9252.574275,-4737.318029,4749.792088
1401.154232,-9252.574275,-3034.844362,4366.744339
1401.154553,-9474.636058,-1332.370696,3753.867940
1401.154874,-9400.615463,-740.205942,3677.258390
1401.155195,-9548.656652,74.020594,3140.991542
1401.155516,-9400.615463,370.102971,3447.429741
1401.155837,-10807.006753,-740.205942,3907.087040
1401.156158,-10140.821405,-1480.411884,2911.162892
1401.156479,-8882.471304,-1998.556043,2911.162892
1401.156800,-9918.759623,-2442.679609,3677.258390
1401.157121,-10362.883188,-2368.659014,4673.182538
1401.157442,-9474.636058,-2072.576638,5898.935335
1401.157763,-10288.862594,-4663.297435,4903.011187
1401.158084,-7772.162391,-3404.947333,3140.991542
1401.158405,-8512.368333,-4071.132681,1991.848295
1401.158726,-9104.533087,-2220.617826,2834.553343
1401.159047,-9030.512492,-1036.288319,2528.115143
1401.159368,-8956.491898,-592.164754,2451.505594
1401.159689,-9474.636058,-74.020594,3140.991542
1401.160010,-10362.883188,-962.267725,3294.210641
1401.160331,-12583.501014,-2294.638420,4136.915689
1401.160652,-10881.027347,-2738.761985,3600.648841
1401.160972,-9770.718434,-2072.576638,1762.019645
1401.161293,-9770.718434,-1554.432478,1685.410096
1401.161614,-8216.285956,148.041188,1838.629195
1401.161935,-8586.388927,-888.247130,1225.752797
1401.162256,-8438.347739,-2368.659014,76.609550
1401.162577,-7179.997637,-3034.844362,76.609550
1401.162898,-8734.430116,-3256.906145,1302.362347
1401.163219,-9770.718434,-2738.761985,3294.210641
1401.163540,-9844.739029,-3034.844362,3907.087040
1401.163861,-9326.594869,-3404.947333,4826.401637
1401.164182,-8660.409521,-4441.235652,1685.410096
1401.164502,-8734.430116,-2146.597232,306.438199
1401.164823,-9992.780217,148.041188,1762.019645
1401.165144,-9770.718434,2294.638420,1838.629195
1401.165465,-9770.718434,2220.617826,3217.601092
1401.165786,-9622.677246,0.000000,2451.505594
1401.166107,-10807.006753,-2146.597232,2911.162892
1401.166428,-10214.842000,-3478.967927,2757.943793
1401.166749,-11399.171507,-3627.009116,4826.401637
1401.167070,-9326.594869,-3108.864956,5745.716235
1401.167391,-8808.450710,-4293.194464,3830.477490
1401.167711,-9992.780217,-3182.885551,5056.230287
1401.168032,-9474.636058,-4737.318029,2681.334243
1401.168353,-7476.080014,-2516.700203,2298.286494
1401.168674,-10362.883188,-3330.926739,4136.915689
1401.168995,-7846.182985,-2442.679609,3370.820191
1401.169316,-8882.471304,-5033.400406,3294.210641
1401.169637,-9548.656652,-6069.688724,3064.381992
1401.169958,-7328.038826,-2960.823768,1915.238745
1401.170279,-9696.697840,-1850.514855,2298.286494
1401.170600,-11177.109724,1998.556043,6511.811733
1401.170921,-8956.491898,-962.267725,4673.182538
1401.171241,-11325.150913,-3775.050304,4060.306139
1401.171562,-9992.780217,-4441.235652,3830.477490
1401.171883,-8586.388927,-4515.256246,2145.067394
1401.172204,-11991.336260,-2960.823768,5056.230287
1401.172525,-9622.677246,-1850.514855,5975.544884
1401.172846,-8068.244768,-3256.906145,3447.429741
1401.173167,-8290.306550,-4071.132681,1685.410096
1401.173488,-7846.182985,-1702.473667,1532.190996
1401.173809,-9992.780217,-666.185348,3677.258390
1401.174130,-11473.192101,-1480.411884,5209.449386
1401.174451,-9696.697840,-2516.700203,4060.306139
1401.174771,-9178.553681,-4293.194464,1225.752797
1401.175092,-9252.574275,-3182.885551,842.705048
1401.175413,-9548.656652,2368.659014,3600.648841
1401.175734,-12213.398043,-444.123565,3677.258390
1401.176055,-8142.265362,-296.082377,3294.210641
1401.176376,-8808.450710,-2960.823768,0.000000
1401.176697,-6735.874072,-1850.514855,-2068.457845
1401.177018,-12361.439231,-1184.329507,2145.067394
1401.177339,-9474.636058,444.123565,3140.991542
1401.177660,-8586.388927,-814.226536,-689.485948
1401.177980,-8512.368333,-1480.411884,-229.828649
1401.178301,-7772.162391,592.164754,229.828649
1401.178622,-13027.624579,-1332.370696,3600.648841
1401.178943,-10658.965565,-1480.411884,3907.087040
1401.179264,-7994.224174,-2220.617826,1225.752797
1401.179585,-9030.512492,-2220.617826,-842.705048
1401.179906,-8586.388927,0.000000,-459.657299
1401.180227,-11177.109724,-740.205942,536.266849
1401.180548,-6587.832884,4441.235652,1915.238745
1401.180869,-10510.924376,-3478.967927,-689.485948
1401.181190,-6661.853478,0.000000,-536.266849
1401.181510,-9326.594869,-1776.494261,-766.095498
1401.181831,-13175.665768,888.247130,2681.334243
1401.182152,-9326.594869,1776.494261,3907.087040
1401.182473,-9622.677246,-2294.638420,0.000000
1401.182794,-8808.450710,888.247130,995.924147
1401.183115,-7846.182985,-1258.350101,-1762.019645
1401.183436,-11325.150913,2072.576638,2528.115143
1401.183757,-8586.388927,-962.267725,2528.115143
1401.184078,-8290.306550,0.000000,-2298.286494
1401.184399,-9844.739029,1480.411884,0.000000
1401.184720,-10288.862594,2812.782580,2757.943793
1401.185040,-9918.759623,1480.411884,3907.087040
1401.185361,-11103.089130,-2590.720797,3370.820191
1401.185682,-8364.327145,-1110.308913,1072.533697
1401.186003,-9400.615463,-1406.391290,919.314598
1401.186324,-12139.377449,1258.350101,3753.867940
1401.186645,-9770.718434,296.082377,4979.620737
1401.186966,-8364.327145,-1998.556043,1608.800546
1401.187287,-7994.224174,444.123565,-1608.800546
1401.187608,-10807.006753,1628.453072,306.438199
1401.187929,-10214.842000,3552.988522,3370.820191
1401.188249,-11325.150913,148.041188,2757.943793
1401.188570,-9326.594869,-74.020594,306.438199
1401.188891,-9178.553681,-370.102971,-1838.629195
1401.189212,-11251.130318,888.247130,1915.238745
1401.189533,-10214.842000,1332.370696,4673.182538
1401.189854,-10510.924376,-1110.308913,2911.162892
1401.190175,-9548.656652,-962.267725,-153.219100
1401.190496,-8364.327145,1184.329507,-383.047749
1401.190817,-11029.068536,-296.082377,2374.896044
1401.191138,-9252.574275,-222.061783,3217.601092
1401.191459,-9252.574275,-2812.782580,1225.752797
1401.191779,-6957.935855,-3256.906145,-2374.896044
1401.192100,-7031.956449,-888.247130,-3064.381992
1401.192421,-8216.285956,148.041188,-153.219100
1401.192742,-8142.265362,1036.288319,306.438199
1401.193063,-8882.471304,-1036.288319,0.000000
1401.193384,-8438.347739,0.000000,-689.485948
1401.193705,-11621.233289,0.000000,1455.581446
1401.194026,-12139.377449,0.000000,3524.039291
1401.194347,-9918.759623,-1406.391290,2834.553343
1401.194668,-9696.697840,-1924.535449,0.000000
1401.194989,-7698.141797,814.226536,-766.095498
1401.195309,-8660.409521,592.164754,536.266849
1401.195630,-7698.141797,-592.164754,1532.190996
1401.195951,-7994.224174,-3701.029710,0.000000
1401.196272,-8142.265362,-2590.720797,-2298.286494
1401.196593,-8660.409521,-370.102971,-689.485948
1401.196914,-9696.697840,222.061783,2528.115143
1401.197235,-11029.068536,-1998.556043,3600.648841
1401.197556,-9474.636058,-1776.494261,1915.238745
1401.197877,-10807.006753,-1554.432478,536.266849
1401.198198,-11103.089130,1776.494261,2298.286494
1401.198518,-11325.150913,1258.350101,3677.258390
1401.198839,-10288.862594,-1998.556043,2221.676944
1401.199160,-8438.347739,-2368.659014,-1225.752797
1401.199481,-8142.265362,370.102971,-1608.800546
1401.199802,-10362.883188,3182.885551,3140.991542
1401.200123,-10214.842000,1110.308913,5362.668486
1401.200444,-11843.295072,-4293.194464,4366.744339
1401.200765,-9104.533087,-4515.256246,1455.581446
1401.201086,-8216.285956,-1776.494261,306.438199
1401.201407,-11029.068536,740.205942,3524.039291
1401.201728,-9770.718434,1628.453072,4903.011187
1401.202048,-8438.347739,-1924.535449,1072.533697
1401.202369,-6513.812290,-370.102971,-2451.505594
1401.202690,-8660.409521,1036.288319,-919.314598
1401.203011,-10584.944971,3108.864956,2987.772442
1401.203332,-13027.624579,814.226536,5132.839837
1401.203653,-9326.594869,-222.061783,2145.067394
1401.203974,-8956.491898,518.144159,0.000000
1401.204295,-10066.800811,1110.308913,2145.067394
1401.204616,-10584.944971,888.247130,3600.648841
1401.204937,-10510.924376,-2516.700203,3064.381992
1401.205258,-7328.038826,-2960.823768,-1149.143247
1401.205578,-7254.018232,-592.164754,-2604.724693
1401.205899,-10658.965565,1406.391290,229.828649
1401.206220,-10214.842000,1406.391290,2987.772442
1401.206541,-9400.615463,1258.350101,2451.505594
1401.206862,-9474.636058,-1702.473667,153.219100
1401.207183,-7846.182985,0.000000,-153.219100
1401.207504,-10214.842000,-740.205942,919.314598
1401.207825,-9474.636058,-3552.988522,-229.828649
1401.208146,-7328.038826,-370.102971,-2374.896044
1401.208467,-8216.285956,1184.329507,-3677.258390
1401.208787,-8216.285956,4367.215058,-1915.238745
1401.209108,-9252.574275,3775.050304,1302.362347
1401.209429,-10732.986159,-1406.391290,1378.971896
1401.209750,-9622.677246,-1184.329507,-459.657299
1401.210071,-11399.171507,-370.102971,842.705048
1401.210392,-11547.212695,1110.308913,3370.820191
1401.210713,-10066.800811,518.144159,3830.477490
1401.211034,-9622.677246,-3404.947333,-229.828649
1401.211355,-6291.750507,-888.247130,-3064.381992
1401.211676,-9030.512492,3404.947333,-1762.019645
1401.211997,-11621.233289,2960.823768,3983.696590
1401.212317,-9252.574275,-148.041188,3677.258390
1401.212638,-10955.047942,-1850.514855,689.485948
1401.212959,-10658.965565,-1036.288319,0.000000
1401.213280,-9918.759623,2516.700203,2068.457845
1401.213601,-11399.171507,2146.597232,5362.668486
1401.213922,-9622.677246,-1184.329507,3140.991542
1401.214243,-9104.533087,-1332.370696,-1455.581446
1401.214564,-8956.491898,518.144159,-689.485948
1401.214885,-9696.697840,2072.576638,1149.143247
1401.215206,-10584.944971,888.247130,4519.963438
1401.215527,-9696.697840,-2072.576638,3370.820191
1401.215847,-8438.347739,-2368.659014,383.047749
1401.216168,-8956.491898,-2590.720797,1378.971896
1401.216489,-11399.171507,-4811.338623,2374.896044
1401.216810,-7105.977043,2368.659014,5209.449386
1401.217131,-12879.583391,-5921.647536,1762.019645
1401.217452,-3923.091493,2590.720797,1608.800546
1401.217773,-10436.903782,-1110.308913,383.047749
1401.218094,-9844.739029,74.020594,2911.162892
1401.218415,-8438.347739,-1776.494261,1685.410096
1401.218736,-10066.800811,-2738.761985,1532.190996
1401.219056,-9474.636058,-1480.411884,1225.752797
1401.219377,-8216.285956,-1776.494261,76.609550
1401.219698,-13027.624579,1332.370696,5056.230287
1401.220019,-7846.182985,-2368.659014,3217.601092
1401.220340,-9474.636058,-1184.329507,689.485948
1401.220661,-9770.718434,666.185348,1762.019645
1401.220982,-9992.780217,-962.267725,919.314598
1401.221303,-8068.244768,-1998.556043,1608.800546
1401.221624,-8808.450710,-4885.359217,0.000000
1401.221945,-6809.894666,-1776.494261,-2298.286494
1401.222266,-9474.636058,1258.350101,0.000000
1401.222586,-10436.903782,1258.350101,2451.505594
1401.222907,-9104.533087,-370.102971,2145.067394
1401.223228,-9770.718434,-2886.803174,1072.533697
1401.223549,-9400.615463,370.102971,-1608.800546
1401.223870,-11843.295072,2368.659014,1072.533697
1401.224191,-10658.965565,1184.329507,2451.505594
1401.224512,-9844.739029,-1924.535449,1378.971896
1401.224833,-8586.388927,-1776.494261,-2604.724693
1401.225154,-9400.615463,-666.185348,-3217.601092
1401.225475,-9474.636058,2368.659014,76.609550
1401.225795,-9622.677246,-148.041188,536.266849
1401.226116,-7846.182985,-222.061783,-1685.410096
1401.226437,-9622.677246,-148.041188,-536.266849
1401.226758,-10732.986159,370.102971,1455.581446
1401.227079,-12805.562797,0.000000,5898.935335
1401.227400,-11399.171507,-3923.091493,3907.087040
1401.227721,-9622.677246,-2664.741391,-383.047749
1401.228042,-8734.430116,0.000000,-1072.533697
1401.228363,-9474.636058,4737.318029,1225.752797
1401.228684,-9474.636058,2812.782580,3217.601092
1401.229005,-8068.244768,-1850.514855,1072.533697
1401.229325,-7550.100608,-2368.659014,-2451.505594
1401.229646,-9474.636058,-1258.350101,-1915.238745
1401.229967,-11177.109724,1924.535449,2681.334243
1401.230288,-11843.295072,1998.556043,6205.373534
1401.230609,-10140.821405,518.144159,3753.867940
1401.230930,-8290.306550,0.000000,383.047749
1401.231251,-9844.739029,888.247130,689.485948
1401.231572,-10436.903782,1628.453072,3983.696590
1401.231893,-9548.656652,-1998.556043,2451.505594
1401.232214,-6735.874072,-2590.720797,0.000000
1401.232535,-7031.956449,-740.205942,-1991.848295
1401.232855,-8956.491898,1702.473667,842.705048
1401.233176,-10140.821405,2072.576638,4366.744339
1401.233497,-10214.842000,444.123565,2221.676944
1401.233818,-9326.594869,1554.432478,612.876398
1401.234139,-11399.171507,888.247130,-689.485948
1401.234460,-10140.821405,3108.864956,3217.601092
1401.234781,-11251.130318,-740.205942,3370.820191
1401.235102,-9326.594869,-2368.659014,1378.971896
1401.235423,-7402.059420,-1924.535449,-2451.505594
1401.235744,-10066.800811,1406.391290,842.705048
1401.236064,-11251.130318,2368.659014,4290.134789
1401.236385,-11029.068536,-1036.288319,5056.230287
1401.236706,-9844.739029,-4219.173869,1762.019645
1401.237027,-7698.141797,-2146.597232,-3447.429741
1401.237348,-10214.842000,814.226536,-536.266849
1401.237669,-9474.636058,2516.700203,1532.190996
1401.237990,-7698.141797,-222.061783,-459.657299
1401.238311,-7179.997637,-3108.864956,-3753.867940
1401.238632,-7402.059420,0.000000,-3830.477490
1401.238953,-11399.171507,518.144159,306.438199
1401.239274,-11769.274478,370.102971,3600.648841
1401.239594,-10807.006753,-888.247130,2911.162892
1401.239915,-9474.636058,-148.041188,-229.828649
1401.240236,-10214.842000,1998.556043,536.266849
1401.240557,-10658.965565,222.061783,1915.238745
1401.240878,-8364.327145,-1628.453072,3370.820191
1401.241199,-8512.368333,-3330.926739,-2068.457845
1401.241520,-7179.997637,-518.144159,-3600.648841
1401.241841,-8660.409521,1332.370696,-1302.362347
1401.242162,-10955.047942,1258.350101,2911.162892
1401.242483,-9400.615463,-666.185348,3294.210641
1401.242804,-10881.027347,-1702.473667,1532.190996
1401.243124,-9992.780217,370.102971,919.314598
1401.243445,-11325.150913,888.247130,2374.896044
1401.243766,-10584.944971,0.000000,3524.039291
1401.244087,-8660.409521,-2368.659014,536.266849
1401.244408,-6661.853478,-888.247130,-2451.505594
1401.244729,-8882.471304,518.144159,-1685.410096
1401.245050,-9622.677246,1628.453072,2068.457845
1401.245371,-10807.006753,-740.205942,4673.182538
1401.245692,-10362.883188,-4145.153275,2374.896044
1401.246013,-9474.636058,-2294.638420,1072.533697
1401.246333,-11251.130318,-592.164754,2757.943793
1401.246654,-11695.253884,296.082377,6588.421283
1401.246975,-9622.677246,-2368.659014,4060.306139
1401.247296,-8808.450710,-3330.926739,842.705048
1401.247617,-7402.059420,-740.205942,-1302.362347
1401.247938,-9104.533087,1480.411884,1225.752797
1401.248259,-10584.944971,962.267725,3140.991542
1401.248580,-9030.512492,-1110.308913,2374.896044
1401.248901,-8660.409521,-1184.329507,383.047749
1401.249222,-9030.512492,-1036.288319,842.705048
1401.249543,-11621.233289,888.247130,4596.572988
1401.249863,-12361.439231,-222.061783,5439.278036
1401.250184,-10510.924376,-2146.597232,2757.943793
1401.250505,-7698.141797,1110.308913,76.609550
1401.250826,-10140.821405,888.247130,766.095498
1401.251147,-9178.553681,0.000000,2451.505594
1401.251468,-8364.327145,-1850.514855,842.705048
1401.251789,-7698.141797,-3034.844362,-2374.896044
1401.252110,-6661.853478,666.185348,-2757.943793
1401.252431,-12139.377449,2738.761985,919.314598
1401.252752,-10955.047942,2146.597232,3370.820191
1401.253073,-9696.697840,-888.247130,1378.971896
1401.253393,-10658.965565,-2738.761985,-383.047749
1401.253714,-8142.265362,-1184.329507,-1608.800546
1401.254035,-11251.130318,1184.329507,-1608.800546
1401.254356,-9992.780217,740.205942,1915.238745
1401.254677,-7994.224174,-222.061783,-1225.752797
1401.254998,-8364.327145,-370.102971,-2911.162892
1401.255319,-8808.450710,0.000000,-1991.848295
1401.255640,-9918.759623,1628.453072,919.314598
1401.255961,-10658.965565,-1184.329507,2221.676944
1401.256282,-9696.697840,-2368.659014,0.000000
1401.256602,-9400.615463,74.020594,-1072.533697
1401.256923,-10732.986159,1850.514855,1838.629195
1401.257244,-10066.800811,2072.576638,2911.162892
1401.257565,-10436.903782,-1184.329507,2451.505594
1401.257886,-8586.388927,-2294.638420,-766.095498
1401.258207,-9400.615463,-1110.308913,-1455.581446
1401.258528,-9030.512492,1480.411884,919.314598
1401.258849,-10436.903782,74.020594,2451.505594
1401.259169,-10214.842000,-1406.391290,1532.190996
1401.259490,-8586.388927,-222.061783,-612.876398
1401.259811,-9474.636058,-592.164754,2221.676944
1401.260132,-10955.047942,2812.782580,3677.258390
1401.260453,-11843.295072,0.000000,5132.839837
1401.260773,-10658.965565,-2664.741391,2374.896044
1401.261094,-8142.265362,-962.267725,0.000000
1401.261415,-9622.677246,148.041188,919.314598
1401.261736,-10140.821405,1406.391290,2834.553343
1401.262056,-9030.512492,-1406.391290,1608.800546
1401.262377,-6587.832884,-1184.329507,-2221.676944
1401.262698,-7105.977043,1628.453072,0.000000
1401.263019,-11769.274478,1480.411884,4136.915689
1401.263340,-12361.439231,-444.123565,6894.859482
1401.263660,-11843.295072,-2516.700203,5822.325785
1401.263981,-9770.718434,-3330.926739,2145.067394
1401.264302,-9474.636058,-814.226536,1762.019645
1401.264623,-10510.924376,592.164754,3600.648841
1401.264943,-8142.265362,296.082377,2681.334243
1401.265264,-7476.080014,-1924.535449,-383.047749
1401.265585,-6587.832884,-1998.556043,-3370.820191
1401.265906,-9474.636058,-296.082377,-1072.533697
1401.266227,-10658.965565,518.144159,2681.334243
1401.266547,-10362.883188,-1480.411884,3524.039291
1401.266868,-10362.883188,-3182.885551,1762.019645
1401.267189,-7994.224174,-1184.329507,-919.314598
1401.267510,-11325.150913,-962.267725,1225.752797
1401.267830,-9474.636058,1554.432478,3447.429741
1401.268151,-9844.739029,-2368.659014,919.314598
1401.268472,-8956.491898,-2442.679609,-2681.334243
1401.268793,-6365.771101,370.102971,-4290.134789
1401.269114,-10140.821405,1554.432478,-306.438199
1401.269434,-10807.006753,1628.453072,3983.696590
1401.269755,-10658.965565,-2664.741391,2681.334243
1401.270076,-10288.862594,-2294.638420,-995.924147
1401.270397,-9844.739029,518.144159,-383.047749
1401.270717,-11621.233289,0.000000,919.314598
1401.271038,-8586.388927,740.205942,2298.286494
1401.271359,-8364.327145,-1702.473667,-2068.457845
1401.271680,-6069.688724,814.226536,-4749.792088
1401.272001,-9252.574275,2664.741391,-1455.581446
1401.272321,-11029.068536,592.164754,1991.848295
1401.272642,-9696.697840,-592.164754,2911.162892
1401.272963,-12731.542202,-2664.741391,1149.143247
1401.273284,-9770.718434,444.123565,1378.971896
1401.273604,-11769.274478,814.226536,2911.162892
1401.273925,-10955.047942,0.000000,3983.696590
1401.274246,-9178.553681,-1702.473667,1378.971896
1401.274567,-7920.203579,-740.205942,-2145.067394
1401.274888,-9104.533087,518.144159,-1225.752797
1401.275208,-9622.677246,1628.453072,383.047749
1401.275529,-10732.986159,0.000000,3064.381992
1401.275850,-10288.862594,-1406.391290,766.095498
1401.276171,-9104.533087,-222.061783,306.438199
1401.276491,-11399.171507,592.164754,2451.505594
1401.276812,-11103.089130,1036.288319,4749.792088
1401.277133,-10362.883188,-2368.659014,3217.601092
1401.277454,-8068.244768,-3701.029710,-995.924147
1401.277775,-7179.997637,-370.102971,-1915.238745
1401.278095,-9030.512492,1998.556043,306.438199
1401.278416,-9178.553681,666.185348,3140.991542
1401.278737,-8438.347739,-962.267725,1685.410096
1401.279058,-8956.491898,-2368.659014,459.657299
1401.279378,-9622.677246,-592.164754,1149.143247
1401.279699,-12139.377449,1332.370696,5745.716235
1401.280020,-11547.212695,-962.267725,5362.668486
1401.280341,-9992.780217,-740.205942,1991.848295
1401.280662,-7698.141797,814.226536,-842.705048
1401.280982,-9252.574275,1332.370696,-1608.800546
1401.281303,-8216.285956,2072.576638,1072.533697
1401.281624,-8882.471304,-370.102971,76.609550
1401.281945,-8438.347739,-1554.432478,-229.828649
1401.282265,-8956.491898,-962.267725,-229.828649
1401.282586,-11325.150913,222.061783,3677.258390
1401.282907,-13323.706956,-1776.494261,4366.744339
1401.283228,-9696.697840,-518.144159,3524.039291
1401.283549,-10066.800811,-2220.617826,-842.705048
1401.283869,-8068.244768,2590.720797,-306.438199
1401.284190,-9770.718434,1332.370696,-306.438199
1401.284511,-9844.739029,0.000000,1608.800546
1401.284832,-7105.977043,-2664.741391,-2604.724693
1401.285152,-7254.018232,-2146.597232,-4060.306139
1401.285473,-10288.862594,1110.308913,-306.438199
1401.285794,-10955.047942,592.164754,1455.581446
1401.286115,-11843.295072,592.164754,3524.039291
1401.286436,-10214.842000,-1776.494261,153.219100
1401.286756,-8956.491898,888.247130,-919.314598
1401.287077,-12583.501014,1258.350101,1532.190996
1401.287398,-9992.780217,814.226536,3907.087040
1401.287719,-8956.491898,-1998.556043,76.609550
1401.288039,-7920.203579,-1406.391290,-2528.115143
1401.288360,-8512.368333,74.020594,-1608.800546
1401.288681,-10807.006753,962.267725,1455.581446
1401.289002,-11251.130318,-1258.350101,3983.696590
1401.289323,-9326.594869,-3108.864956,842.705048
1401.289643,-8290.306550,-2072.576638,-1149.143247
1401.289964,-10510.924376,1332.370696,1608.800546
1401.290285,-12065.356855,1924.535449,4903.011187
1401.290606,-9548.656652,-518.144159,3447.429741
1401.290926,-9252.574275,-2368.659014,536.266849
1401.291247,-7402.059420,-1850.514855,-1532.190996
1401.291568,-9622.677246,74.020594,536.266849
1401.291889,-11621.233289,740.205942,3524.039291
1401.292210,-9252.574275,-1998.556043,2145.067394
1401.292530,-8216.285956,-444.123565,76.609550
1401.292851,-9548.656652,666.185348,919.314598
1401.293172,-10658.965565,1998.556043,3217.601092
1401.293493,-11547.212695,74.020594,5439.278036
1401.293813,-9622.677246,-2664.741391,2298.286494
1401.294134,-7920.203579,-1332.370696,-229.828649
1401.294455,-9992.780217,74.020594,0.000000
1401.294776,-10066.800811,2738.761985,3830.477490
1401.295097,-9770.718434,518.144159,4290.134789
1401.295417,-8660.409521,-2146.597232,-229.828649
1401.295738,-5921.647536,-1184.329507,-2221.676944
1401.296059,-9770.718434,222.061783,153.219100
1401.296380,-11473.192101,-518.144159,4443.353888
1401.296700,-10658.965565,-1628.453072,4596.572988
1401.297021,-10066.800811,-2812.782580,1762.019645
1401.297342,-9030.512492,-1258.350101,-306.438199
1401.297663,-11177.109724,296.082377,1915.238745
1401.297984,-10066.800811,962.267725,2834.553343
1401.298304,-9474.636058,-1702.473667,-306.438199
1401.298625,-7179.997637,-222.061783,-3294.210641
1401.298946,-7698.141797,2738.761985,-1838.629195
1401.299267,-11843.295072,1258.350101,2451.505594
1401.299587,-9474.636058,370.102971,2911.162892
1401.299908,-10362.883188,-2886.803174,0.000000
1401.300229,-8734.430116,-148.041188,-766.095498
1401.300550,-10140.821405,962.267725,306.438199
1401.300871,-10214.842000,962.267725,3753.867940
1401.301191,-9474.636058,-592.164754,2451.505594
1401.301512,-7994.224174,-1406.391290,-2681.334243
1401.301833,-7698.141797,518.144159,-2681.334243
1401.302154,-10066.800811,1110.308913,-536.266849
1401.302474,-9474.636058,1924.535449,2221.676944
1401.302795,-11399.171507,1036.288319,3447.429741
1401.303116,-9992.780217,74.020594,1532.190996
1401.303437,-11177.109724,222.061783,1685.410096
1401.303758,-11177.109724,-814.226536,3217.601092
1401.304078,-9326.594869,-2590.720797,766.095498
1401.304399,-9252.574275,-1184.329507,-153.219100
1401.304720,-7328.038826,592.164754,-3294.210641
1401.305041,-7031.956449,3404.947333,-2068.457845
1401.305361,-8882.471304,2368.659014,-459.657299
1401.305682,-8586.388927,740.205942,1838.629195
1401.306003,-9992.780217,-1776.494261,76.609550
1401.306324,-9992.780217,-962.267725,1608.800546
1401.306645,-13175.665768,74.020594,4903.011187
1401.306965,-11325.150913,-740.205942,6052.154434
1401.307286,-11325.150913,-3478.967927,3907.087040
1401.307607,-7550.100608,-1406.391290,-459.657299
1401.307928,-8438.347739,222.061783,-766.095498
1401.308248,-8512.368333,1184.329507,1378.971896
1401.308569,-8882.471304,518.144159,2757.943793
1401.308890,-8956.491898,-1924.535449,1225.752797
1401.309211,-9696.697840,-1850.514855,383.047749
1401.309532,-9696.697840,1480.411884,4596.572988
1401.309852,-12361.439231,-814.226536,5592.497135
1401.310173,-11325.150913,-2368.659014,6435.202183
1401.310494,-9992.780217,-2812.782580,3064.381992
1401.310815,-9178.553681,-2146.597232,842.705048
1401.311135,-9252.574275,444.123565,0.000000
1401.311456,-9400.615463,518.144159,2145.067394
1401.311777,-7550.100608,-1110.308913,0.000000
1401.312098,-7550.100608,-1480.411884,-2987.772442
1401.312419,-7254.018232,-148.041188,-1532.190996
1401.312739,-9474.636058,-1332.370696,536.266849
1401.313060,-10436.903782,-2294.638420,3830.477490
1401.313381,-11991.336260,-4219.173869,2145.067394
1401.313702,-10584.944971,-1332.370696,1072.533697
1401.314022,-11473.192101,2072.576638,1532.190996
1401.314343,-11251.130318,1924.535449,3064.381992
1401.314664,-9548.656652,-1184.329507,842.705048
1401.314985,-6957.935855,-2516.700203,-3064.381992
1401.315306,-6883.915261,-1998.556043,-2987.772442
1401.315626,-8808.450710,0.000000,-995.924147
1401.315947,-11029.068536,-296.082377,2987.772442
1401.316268,-10807.006753,-3404.947333,2681.334243
1401.316589,-9622.677246,-1554.432478,383.047749
1401.316909,-10362.883188,1554.432478,1685.410096
1401.317230,-11399.171507,2368.659014,2757.943793
1401.317551,-10436.903782,1998.556043,2451.505594
1401.317872,-10140.821405,-1036.288319,-459.657299
1401.318193,-7105.977043,-2072.576638,-2681.334243
1401.318513,-6957.935855,-1258.350101,-3217.601092
1401.318834,-10214.842000,296.082377,689.485948
1401.319155,-10362.883188,-888.247130,2068.457845
1401.319476,-9548.656652,-666.185348,76.609550
1401.319796,-10140.821405,814.226536,-612.876398
1401.320117,-10658.965565,2220.617826,2298.286494
1401.320438,-11621.233289,518.144159,3677.258390
1401.320759,-10955.047942,-1332.370696,2681.334243
1401.321080,-8808.450710,-2220.617826,-229.828649
1401.321400,-8512.368333,-1332.370696,-1378.971896
1401.321721,-9622.677246,444.123565,1302.362347
1401.322042,-9030.512492,-296.082377,1378.971896
1401.322363,-9030.512492,-296.082377,536.266849
1401.322683,-7698.141797,1998.556043,306.438199
1401.323004,-9696.697840,2294.638420,2068.457845
1401.323325,-12065.356855,1258.350101,3753.867940
1401.323646,-10807.006753,0.000000,4213.525239
1401.323967,-10510.924376,-1702.473667,2298.286494
1401.324287,-7920.203579,-962.267725,536.266849
1401.324608,-10288.862594,370.102971,2221.676944
1401.324929,-10214.842000,518.144159,3140.991542
1401.325250,-8512.368333,-222.061783,1608.800546
1401.325570,-8882.471304,0.000000,-76.609550
1401.325891,-7550.100608,2220.617826,0.000000
1401.326212,-11769.274478,1628.453072,2298.286494
1401.326533,-10288.862594,74.020594,3830.477490
1401.326854,-9030.512492,-2442.679609,536.266849
1401.327174,-9400.615463,-2146.597232,-1685.410096
1401.327495,-9104.533087,518.144159,-306.438199
1401.327816,-11843.295072,1554.432478,3370.820191
1401.328137,-9770.718434,666.185348,2681.334243
1401.328457,-8290.306550,-1332.370696,-1225.752797
1401.328778,-7179.997637,-1776.494261,-4443.353888
1401.329099,-7698.141797,1998.556043,-2374.896044
1401.329420,-10066.800811,592.164754,1608.800546
1401.329741,-9844.739029,0.000000,3677.258390
1401.330061,-10510.924376,-1850.514855,3217.601092
1401.330382,-10732.986159,-1924.535449,1378.971896
1401.330703,-10140.821405,-1776.494261,2298.286494
1401.331024,-9696.697840,-740.205942,2451.505594
1401.331344,-10584.944971,1702.473667,1225.752797
1401.331665,-6809.894666,1850.514855,-1072.533697
1401.331986,-7550.100608,74.020594,-2681.334243
1401.332307,-7031.956449,962.267725,306.438199
1401.332628,-10584.944971,-2368.659014,0.000000
1401.332948,-9622.677246,-2368.659014,842.705048
1401.333269,-8364.327145,-1036.288319,0.000000
1401.333590,-9918.759623,222.061783,1915.238745
1401.333911,-12213.398043,148.041188,4213.525239
1401.334231,-9252.574275,-2220.617826,2757.943793
1401.334552,-9252.574275,-2368.659014,383.047749
1401.334873,-8142.265362,370.102971,-1608.800546
1401.335194,-9918.759623,2072.576638,1072.533697
1401.335515,-10510.924376,814.226536,2987.772442
1401.335835,-9178.553681,-1184.329507,1608.800546
1401.336156,-7994.224174,-1184.329507,-766.095498
1401.336477,-9918.759623,518.144159,1608.800546
1401.336798,-11843.295072,-148.041188,4979.620737
1401.337118,-12065.356855,-2220.617826,6052.154434
1401.337439,-10436.903782,-3775.050304,2374.896044
1401.337760,-7698.141797,-1406.391290,-1072.533697
1401.338081,-9178.553681,1406.391290,-995.924147
1401.338402,-9770.718434,2886.803174,2528.115143
1401.338722,-8660.409521,-296.082377,3983.696590
1401.339043,-8438.347739,-2072.576638,-229.828649
1401.339364,-8734.430116,-1702.473667,229.828649
1401.339685,-11325.150913,-2368.659014,2374.896044
1401.340005,-11547.212695,-444.123565,6205.373534
1401.340326,-11695.253884,-2886.803174,5056.230287
1401.340647,-8290.306550,-666.185348,459.657299
1401.340968,-8142.265362,1110.308913,0.000000
1401.341289,-10510.924376,2072.576638,919.314598
1401.341609,-9770.718434,518.144159,2528.115143
1401.341930,-9474.636058,-2664.741391,536.266849
1401.342251,-6883.915261,-2590.720797,-1685.410096
1401.342572,-8660.409521,-1628.453072,-1149.143247
1401.342892,-10288.862594,0.000000,2604.724693
1401.343213,-10807.006753,-1480.411884,4060.306139
1401.343534,-10214.842000,-1480.411884,842.705048
1401.343855,-9252.574275,592.164754,-1608.800546
1401.344176,-10732.986159,3923.091493,459.657299
1401.344496,-11029.068536,2442.679609,2221.676944
1401.344817,-9030.512492,-1554.432478,689.485948
1401.345138,-6957.935855,-2072.576638,-2911.162892
1401.345459,-6957.935855,-1628.453072,-4519.963438
1401.345779,-8586.388927,1406.391290,-1532.190996
1401.346100,-9474.636058,518.144159,1685.410096
1401.346421,-10584.944971,-962.267725,76.609550
1401.346742,-8956.491898,2294.638420,-919.314598
1401.347063,-11177.109724,2886.803174,919.314598
1401.347383,-12879.583391,3701.029710,3600.648841
1401.347704,-11547.212695,0.000000,3370.820191
1401.348025,-9474.636058,-2516.700203,0.000000
1401.348346,-7254.018232,-1110.308913,-1762.019645
1401.348666,-9918.759623,0.000000,612.876398
1401.348987,-8512.368333,0.000000,2221.676944
1401.349308,-9622.677246,-2072.576638,1302.362347
1401.349629,-8734.430116,-962.267725,-459.657299
1401.349950,-8734.430116,1628.453072,-612.876398
1401.350270,-11621.233289,2886.803174,2911.162892
1401.350591,-10955.047942,814.226536,4519.963438
1401.350912,-9844.739029,-888.247130,2911.162892
1401.351233,-9844.739029,-2146.597232,229.828649
1401.351553,-9622.677246,-592.164754,153.219100
1401.351874,-10584.944971,518.144159,2987.772442
1401.352195,-10436.903782,-518.144159,3064.381992
1401.352516,-8956.491898,-814.226536,1149.143247
1401.352837,-8808.450710,-814.226536,-459.657299
1401.353157,-9178.553681,1110.308913,1378.971896
1401.353478,-10732.986159,1184.329507,3830.477490
1401.353799,-10510.924376,-666.185348,4366.744339
1401.354120,-9252.574275,-2812.782580,1685.410096
1401.354440,-7920.203579,-444.123565,612.876398
1401.354761,-10732.986159,-222.061783,2298.286494
1401.355082,-9400.615463,1036.288319,3524.039291
1401.355403,-10140.821405,-962.267725,2528.115143
1401.355723,-8364.327145,-814.226536,-766.095498
1401.356044,-7772.162391,1036.288319,-612.876398
1401.356365,-10436.903782,962.267725,3753.867940
1401.356686,-8956.491898,-888.247130,2834.553343
1401.357007,-9474.636058,-2368.659014,919.314598
1401.357327,-9030.512492,-1406.391290,-229.828649
1401.357648,-8734.430116,-370.102971,-383.047749
1401.357969,-10732.986159,-1184.329507,1149.143247
1401.358290,-8882.471304,-1924.535449,1532.190996
1401.358610,-9326.594869,-3182.885551,-1608.800546
1401.358931,-8734.430116,-1406.391290,-2604.724693
1401.359252,-8956.491898,2146.597232,0.000000
1401.359573,-10807.006753,0.000000,1378.971896
1401.359894,-8956.491898,-962.267725,995.924147
1401.360214,-10140.821405,-2664.741391,-383.047749
1401.360535,-8364.327145,-740.205942,-1991.848295
1401.360856,-9622.677246,1998.556043,1608.800546
1401.361177,-10510.924376,-666.185348,1685.410096
1401.361497,-7920.203579,-962.267725,0.000000
1401.361818,-9252.574275,-1628.453072,-2145.067394
1401.362139,-8734.430116,370.102971,-995.924147
1401.362460,-11325.150913,1628.453072,3447.429741
1401.362781,-13397.727550,-1184.329507,3907.087040
1401.363101,-9844.739029,-1332.370696,2374.896044
1401.363422,-9030.512492,-888.247130,-383.047749
1401.363743,-10807.006753,814.226536,1455.581446
1401.364064,-8882.471304,518.144159,2451.505594
1401.364385,-10658.965565,-2072.576638,1532.190996
1401.364705,-7254.018232,-1406.391290,-995.924147
1401.365026,-7476.080014,740.205942,-3064.381992
1401.365347,-10362.883188,3182.885551,2987.772442
1401.365668,-10807.006753,-296.082377,2911.162892
1401.365988,-9918.759623,-740.205942,2757.943793
1401.366309,-9030.512492,-1406.391290,536.266849
1401.366630,-8882.471304,666.185348,612.876398
1401.366951,-10955.047942,1628.453072,3907.087040
1401.367272,-11621.233289,-1924.535449,4290.134789
1401.367592,-7920.203579,-1850.514855,383.047749
1401.367913,-7920.203579,0.000000,-842.705048
1401.368234,-9548.656652,1332.370696,919.314598
1401.368555,-10436.903782,518.144159,3983.696590
1401.368876,-9918.759623,-2368.659014,2528.115143
1401.369196,-8512.368333,-3034.844362,0.000000
1401.369517,-7846.182985,-74.020594,0.000000
1401.369838,-11843.295072,1258.350101,5745.716235
1401.370159,-11695.253884,-370.102971,7354.516781
1401.370479,-11473.192101,-2664.741391,4979.620737
1401.370800,-8882.471304,-3034.844362,919.314598
1401.371121,-8290.306550,-444.123565,-2604.724693
1401.371442,-8956.491898,2368.659014,-229.828649
1401.371763,-8142.265362,1406.391290,-306.438199
1401.372083,-6883.915261,296.082377,-1915.238745
1401.372404,-7476.080014,0.000000,-3600.648841
1401.372725,-9696.697840,-370.102971,153.219100
1401.373046,-11029.068536,-1554.432478,2145.067394
1401.373366,-11473.192101,-3256.906145,2298.286494
1401.373687,-9770.718434,-2220.617826,-153.219100
1401.374008,-8438.347739,2960.823768,-919.314598
1401.374329,-10807.006753,4145.153275,2068.457845
1401.374650,-10732.986159,1628.453072,4213.525239
1401.374970,-10732.986159,-3108.864956,1455.581446
1401.375291,-7846.182985,-3997.112087,-3753.867940
1401.375612,-8882.471304,-1628.453072,-3830.477490
1401.375933,-9400.615463,1702.473667,153.219100
1401.376254,-11547.212695,1924.535449,3907.087040
1401.376574,-10658.965565,-444.123565,842.705048
1401.376895,-7105.977043,296.082377,-2374.896044
1401.377216,-11399.171507,518.144159,-306.438199
1401.377537,-12361.439231,296.082377,3064.381992
1401.377857,-10955.047942,-1406.391290,3064.381992
1401.378178,-8882.471304,-2220.617826,536.266849
1401.378499,-7402.059420,0.000000,-1915.238745
1401.378820,-9400.615463,666.185348,-612.876398
1401.379141,-9622.677246,592.164754,2681.334243
1401.379461,-10436.903782,-1406.391290,1378.971896
1401.379782,-8290.306550,-962.267725,-766.095498
1401.380103,-8734.430116,666.185348,-306.438199
1401.380424,-12213.398043,1554.432478,2911.162892
1401.380744,-11325.150913,-222.061783,4979.620737
1401.381065,-11177.109724,-1924.535449,3370.820191
1401.381386,-7698.141797,-1406.391290,153.219100
1401.381707,-9400.615463,-740.205942,-536.266849
1401.382028,-9992.780217,1110.308913,3677.258390
1401.382348,-10436.903782,-2072.576638,3907.087040
1401.382669,-8438.347739,-2516.700203,229.828649
1401.382990,-7846.182985,0.000000,76.609550
1401.383311,-9548.656652,1110.308913,1685.410096
1401.383632,-9918.759623,592.164754,4979.620737
1401.383952,-10066.800811,-2368.659014,4213.525239
1401.384273,-8364.327145,-3182.885551,1455.581446
1401.384594,-8290.306550,-370.102971,-459.657299
1401.384915,-10658.965565,2368.659014,2528.115143
1401.385235,-10140.821405,2442.679609,4443.353888
1401.385556,-9548.656652,444.123565,2604.724693
1401.385877,-8586.388927,-814.226536,-459.657299
1401.386198,-9844.739029,740.205942,153.219100
1401.386519,-11325.150913,-1258.350101,919.314598
1401.386839,-9326.594869,-2664.741391,4136.915689
1401.387160,-9030.512492,-2886.803174,766.095498
1401.387481,-8364.327145,-444.123565,-1378.971896
1401.387802,-9252.574275,1036.288319,76.609550
1401.388123,-9696.697840,592.164754,2298.286494
1401.388443,-10881.027347,-1332.370696,1685.410096
1401.388764,-8882.471304,-1998.556043,-383.047749
1401.389085,-6661.853478,1332.370696,-2451.505594
1401.389406,-11399.171507,444.123565,842.705048
1401.389726,-10881.027347,74.020594,2757.943793
1401.390047,-9400.615463,-1258.350101,612.876398
1401.390368,-9030.512492,-3775.050304,-2757.943793
1401.390689,-8142.265362,1924.535449,-1991.848295
1401.391010,-12065.356855,1036.288319,1378.971896
1401.391330,-10436.903782,-444.123565,1532.190996
1401.391651,-8142.265362,-666.185348,-153.219100
1401.391972,-7624.121203,-1776.494261,-3140.991542
1401.392293,-9474.636058,2146.597232,-612.876398
1401.392613,-10955.047942,1184.329507,2528.115143
1401.392934,-10140.821405,-2072.576638,2681.334243
1401.393255,-8734.430116,-2294.638420,1225.752797
1401.393576,-8660.409521,-1480.411884,-1149.143247
1401.393897,-9400.615463,592.164754,229.828649
1401.394217,-9992.780217,1850.514855,1838.629195
1401.394538,-8882.471304,1850.514855,919.314598
1401.394859,-9252.574275,1628.453072,-153.219100
1401.395180,-9474.636058,2072.576638,995.924147
1401.395501,-11843.295072,740.205942,3983.696590
1401.395821,-12213.398043,-1850.514855,4290.134789
1401.396142,-11029.068536,-3034.844362,2221.676944
1401.396463,-8882.471304,-296.082377,919.314598
1401.396784,-9400.615463,1406.391290,2451.505594
1401.397104,-9104.533087,1184.329507,3140.991542
1401.397425,-10510.924376,-1406.391290,1225.752797
1401.397746,-8142.265362,-2442.679609,-1685.410096
1401.398067,-6957.935855,0.000000,-1378.971896
1401.398388,-11177.109724,1184.329507,2911.162892
1401.398708,-10584.944971,-962.267725,3830.477490
1401.399029,-9474.636058,-2664.741391,3064.381992
1401.399350,-9400.615463,-3034.844362,1455.581446
1401.399671,-8290.306550,-814.226536,1149.143247
1401.399991,-11547.212695,444.123565,4136.915689
1401.400312,-9622.677246,-962.267725,4213.525239
1401.400633,-8660.409521,-962.267725,229.828649
1401.400954,-8364.327145,-888.247130,-1072.533697
1401.401275,-8068.244768,888.247130,229.828649
1401.401595,-10066.800811,592.164754,2298.286494
1401.401916,-9400.615463,-1110.308913,2987.772442
1401.402237,-10140.821405,-3108.864956,1838.629195
1401.402558,-7698.141797,-3627.009116,-306.438199
1401.402879,-10362.883188,-1258.350101,919.314598
1401.403199,-10658.965565,-962.267725,2911.162892
1401.403520,-8586.388927,-1110.308913,1225.752797
1401.403841,-9770.718434,-296.082377,-229.828649
1401.404162,-8290.306550,1998.556043,-689.485948
1401.404482,-11177.109724,1924.535449,2145.067394
1401.404803,-11843.295072,0.000000,3907.087040
1401.405124,-9548.656652,-3330.926739,-459.657299
1401.405445,-7179.997637,-2442.679609,-3294.210641
1401.405766,-7772.162391,444.123565,-2221.676944
1401.406086,-9104.533087,1924.535449,-383.047749
1401.406407,-10881.027347,-1554.432478,1455.581446
1401.406728,-7994.224174,-1850.514855,-2068.457845
1401.407049,-8660.409521,-74.020594,-2757.943793
1401.407370,-11177.109724,1998.556043,1225.752797
1401.407690,-9326.594869,2146.597232,3064.381992
1401.408011,-10807.006753,-1258.350101,2221.676944
1401.408332,-8512.368333,-1554.432478,-1991.848295
1401.408653,-8512.368333,-1036.288319,-1762.019645
1401.408973,-10955.047942,-962.267725,1532.190996
1401.409294,-11917.315666,-518.144159,4903.011187
1401.409615,-12139.377449,-2146.597232,2911.162892
1401.409936,-8734.430116,-1480.411884,-1915.238745
1401.410257,-9474.636058,2146.597232,-612.876398
1401.410577,-10436.903782,3330.926739,3907.087040
1401.410898,-11177.109724,962.267725,3140.991542
1401.411219,-9844.739029,-1258.350101,1455.581446
1401.411540,-7772.162391,-1924.535449,-612.876398
1401.411860,-9770.718434,-296.082377,383.047749
1401.412181,-10436.903782,148.041188,4136.915689
1401.412502,-9696.697840,-740.205942,2834.553343
1401.412823,-8216.285956,370.102971,-689.485948
1401.413144,-7105.977043,2516.700203,-1149.143247
1401.413464,-9474.636058,1702.473667,2757.943793
1401.413785,-10881.027347,-666.185348,4213.525239
1401.414106,-9548.656652,-3256.906145,2834.553343
1401.414427,-8882.471304,-2220.617826,536.266849
1401.414748,-9326.594869,1184.329507,1608.800546
1401.415068,-10214.842000,2294.638420,3983.696590
1401.415389,-10658.965565,1332.370696,5362.668486
1401.415710,-9400.615463,0.000000,1302.362347
1401.416031,-7476.080014,592.164754,-1608.800546
1401.416351,-9622.677246,814.226536,153.219100
1401.416672,-9992.780217,74.020594,1685.410096
1401.416993,-10584.944971,-2146.597232,2298.286494
1401.417314,-8216.285956,-2368.659014,-383.047749
1401.417635,-8290.306550,-666.185348,-1915.238745
1401.417955,-10140.821405,1406.391290,1532.190996
1401.418276,-10584.944971,-296.082377,2451.505594
1401.418597,-10658.965565,-2072.576638,1608.800546
1401.418918,-8586.388927,-1480.411884,-1455.581446
1401.419238,-8660.409521,-222.061783,-1149.143247
1401.419559,-10214.842000,296.082377,766.095498
1401.419880,-8364.327145,1036.288319,995.924147
1401.420201,-10732.986159,-2294.638420,-766.095498
1401.420522,-7476.080014,296.082377,-2221.676944
1401.420842,-10436.903782,740.205942,536.266849
1401.421163,-11103.089130,-2294.638420,1838.629195
1401.421484,-10066.800811,-1850.514855,1455.581446
1401.421805,-10436.903782,-1702.473667,0.000000
1401.422126,-7772.162391,1406.391290,-1762.019645
1401.422446,-10362.883188,2294.638420,995.924147
1401.422767,-10140.821405,814.226536,3294.210641
1401.423088,-8808.450710,-1776.494261,995.924147
1401.423409,-8882.471304,-592.164754,-536.266849
1401.423729,-9400.615463,148.041188,229.828649
1401.424050,-10288.862594,1776.494261,2374.896044
1401.424371,-10658.965565,740.205942,3294.210641
1401.424692,-8586.388927,-1702.473667,306.438199
1401.425013,-8734.430116,148.041188,-153.219100
1401.425333,-9326.594869,1036.288319,1149.143247
1401.425654,-12287.418637,740.205942,4290.134789
1401.425975,-10584.944971,-1258.350101,4136.915689
1401.426296,-9474.636058,-2146.597232,766.095498
1401.426617,-8956.491898,-740.205942,153.219100
1401.426937,-10436.903782,888.247130,1532.190996
1401.427258,-10140.821405,222.061783,4826.401637
1401.427579,-9326.594869,-2368.659014,2681.334243
1401.427900,-8142.265362,-3330.926739,-995.924147
1401.428220,-8142.265362,74.020594,0.000000
1401.428541,-11843.295072,666.185348,3140.991542
1401.428862,-10066.800811,814.226536,6205.373534
1401.429183,-11103.089130,-2738.761985,4749.792088
1401.429504,-8734.430116,-3627.009116,919.314598
1401.429824,-9178.553681,-3034.844362,536.266849
1401.430145,-9622.677246,0.000000,3524.039291
1401.430466,-11325.150913,-2146.597232,4519.963438
1401.430787,-8290.306550,-2294.638420,153.219100
1401.431107,-6957.935855,-592.164754,-2604.724693
1401.431428,-8956.491898,1776.494261,-1608.800546
1401.431749,-11029.068536,2294.638420,2604.724693
1401.432070,-10066.800811,-370.102971,3294.210641
1401.432391,-9696.697840,-888.247130,995.924147
1401.432711,-9104.533087,-814.226536,-2374.896044
1401.433032,-9844.739029,1036.288319,1532.190996
1401.433353,-10214.842000,-1702.473667,2757.943793
1401.433674,-8956.491898,-2442.679609,306.438199
1401.433995,-8216.285956,-1702.473667,-2374.896044
1401.434315,-7846.182985,1258.350101,-2604.724693
1401.434636,-9474.636058,3256.906145,0.000000
1401.434957,-10658.965565,888.247130,1608.800546
1401.435278,-10066.800811,-1850.514855,459.657299
1401.435598,-8290.306550,1702.473667,-2221.676944
1401.435919,-11103.089130,0.000000,153.219100
1401.436240,-10510.924376,0.000000,2757.943793
1401.436561,-10955.047942,-2368.659014,2911.162892
1401.436882,-8660.409521,-3330.926739,-1991.848295
1401.437202,-7846.182985,1036.288319,-2451.505594
1401.437523,-10214.842000,4145.153275,-229.828649
1401.437844,-11399.171507,3108.864956,4749.792088
1401.438165,-11029.068536,-148.041188,2681.334243
1401.438485,-10066.800811,-1554.432478,1455.581446
1401.438806,-10066.800811,-2812.782580,153.219100
1401.439127,-10066.800811,-2072.576638,1532.190996
1401.439448,-9400.615463,-2960.823768,2451.505594
1401.439769,-8808.450710,-1554.432478,0.000000
1401.440089,-7476.080014,1332.370696,0.000000
1401.440410,-8438.347739,2294.638420,-766.095498
1401.440731,-10436.903782,2590.720797,3677.258390
1401.441052,-10214.842000,-1776.494261,2834.553343
1401.441373,-7846.182985,-3627.009116,153.219100
1401.441693,-9252.574275,-962.267725,-766.095498
1401.442014,-9474.636058,1258.350101,1838.629195
1401.442335,-10288.862594,2146.597232,4673.182538
1401.442656,-11103.089130,-592.164754,5132.839837
1401.442976,-9474.636058,-1258.350101,2374.896044
1401.443297,-9474.636058,-740.205942,536.266849
1401.443618,-11251.130318,814.226536,3140.991542
1401.443939,-10214.842000,-222.061783,4213.525239
1401.444260,-9548.656652,-1850.514855,2221.676944
1401.444580,-8290.306550,-2368.659014,-153.219100
1401.444901,-7179.997637,1480.411884,-306.438199
1401.445222,-10732.986159,888.247130,3370.820191
1401.445543,-10362.883188,-1258.350101,3370.820191
1401.445864,-9104.533087,-962.267725,689.485948
1401.446184,-9474.636058,-666.185348,-1991.848295
1401.446505,-7920.203579,4071.132681,-612.876398
1401.446826,-10214.842000,2960.823768,2911.162892
1401.447147,-9770.718434,-444.123565,2145.067394
1401.447467,-8438.347739,-2294.638420,-459.657299
1401.447788,-9622.677246,-1998.556043,-153.219100
1401.448109,-11473.192101,-1850.514855,1991.848295
1401.448430,-11695.253884,-1406.391290,3983.696590
1401.448751,-11621.233289,-1850.514855,2451.505594
1401.449071,-8734.430116,-148.041188,-1302.362347
1401.449392,-7402.059420,2812.782580,-689.485948
1401.449713,-10214.842000,-222.061783,-383.047749
1401.450034,-7772.162391,-814.226536,0.000000
1401.450354,-9252.574275,-3330.926739,-612.876398
1401.450675,-8586.388927,-3034.844362,-2068.457845
1401.450996,-9992.780217,74.020594,306.438199
1401.451317,-11695.253884,-296.082377,1915.238745
1401.451638,-8882.471304,-222.061783,1149.143247
1401.451958,-10288.862594,74.020594,-383.047749
1401.452279,-8734.430116,592.164754,-383.047749
1401.452600,-10140.821405,814.226536,689.485948
1401.452921,-10288.862594,-518.144159,1455.581446
1401.453242,-7846.182985,-888.247130,153.219100
1401.453562,-9400.615463,-1628.453072,-1762.019645
1401.453883,-7698.141797,1110.308913,-1072.533697
1401.454204,-9622.677246,2146.597232,2221.676944
1401.454525,-10362.883188,-296.082377,4290.134789
1401.454845,-9918.759623,-2664.741391,1378.971896
1401.455166,-9400.615463,-962.267725,153.219100
1401.455487,-10066.800811,1406.391290,1455.581446
1401.455808,-9770.718434,1480.411884,3753.867940
1401.456129,-10140.821405,-370.102971,3524.039291
1401.456449,-8586.388927,-2886.803174,76.609550
1401.456770,-8142.265362,-1480.411884,-1915.238745
1401.457091,-9844.739029,1850.514855,1838.629195
1401.457412,-10658.965565,-148.041188,3524.039291
1401.457732,-10362.883188,-1332.370696,2604.724693
1401.458053,-8956.491898,-1406.391290,0.000000
1401.458374,-8216.285956,74.020594,-383.047749
1401.458695,-11029.068536,1406.391290,2681.334243
1401.459016,-10881.027347,0.000000,4596.572988
1401.459336,-10362.883188,-1110.308913,2987.772442
1401.459657,-9030.512492,-1924.535449,689.485948
1401.459978,-8512.368333,-1184.329507,0.000000
1401.460299,-9178.553681,-1480.411884,2451.505594
1401.460620,-10066.800811,-1924.535449,2528.115143
1401.460940,-8364.327145,-1258.350101,229.828649
1401.461261,-8290.306550,888.247130,-229.828649
1401.461582,-9770.718434,1554.432478,536.266849
1401.461903,-9252.574275,1776.494261,2604.724693
1401.462224,-11177.109724,-666.185348,2834.553343
1401.462545,-10584.944971,-1480.411884,2221.676944
1401.462865,-10288.862594,-1628.453072,1608.800546
1401.463186,-11103.089130,-1776.494261,4826.401637
1401.463507,-9548.656652,-1406.391290,2451.505594
1401.463828,-9474.636058,-2220.617826,0.000000
1401.464149,-7846.182985,0.000000,-1072.533697
1401.464470,-8734.430116,2072.576638,-1532.190996
1401.464791,-10140.821405,1332.370696,612.876398
1401.465111,-9030.512492,-1258.350101,-76.609550
1401.465432,-9030.512492,-1406.391290,-1378.971896
1401.465753,-9770.718434,-1036.288319,-995.924147
1401.466074,-9992.780217,814.226536,2374.896044
1401.466395,-10658.965565,-296.082377,3370.820191
1401.466716,-10140.821405,-2886.803174,612.876398
1401.467037,-9326.594869,-1628.453072,-1991.848295
1401.467357,-9030.512492,1776.494261,-1149.143247
1401.467678,-10658.965565,2664.741391,919.314598
1401.467999,-10140.821405,2886.803174,1378.971896
1401.468320,-10436.903782,-1480.411884,76.609550
1401.468641,-7328.038826,-3330.926739,-2374.896044
1401.468962,-9400.615463,-1924.535449,-919.314598
1401.469282,-10658.965565,-2072.576638,2145.067394
1401.469603,-11251.130318,-1480.411884,2374.896044
1401.469924,-9770.718434,222.061783,766.095498
1401.470245,-8734.430116,2220.617826,-229.828649
1401.470566,-10140.821405,4293.194464,1685.410096
1401.470887,-9622.677246,1332.370696,2221.676944
1401.471208,-10288.862594,74.020594,2145.067394
1401.471528,-9622.677246,-814.226536,1685.410096
1401.471849,-9474.636058,-1628.453072,1685.410096
1401.472170,-10807.006753,-2368.659014,3677.258390
1401.472491,-8734.430116,-1998.556043,2834.553343
1401.472812,-8956.491898,222.061783,-1072.533697
1401.473133,-7476.080014,4219.173869,919.314598
1401.473454,-8216.285956,3478.967927,842.705048
1401.473774,-9252.574275,2812.782580,3753.867940
1401.474095,-10288.862594,-2886.803174,2451.505594
1401.474416,-7476.080014,-4737.318029,-383.047749
1401.474737,-8364.327145,-1776.494261,612.876398
1401.475058,-9918.759623,-370.102971,2911.162892
1401.475379,-9844.739029,1776.494261,4596.572988
1401.475699,-9992.780217,0.000000,3600.648841
1401.476020,-9030.512492,814.226536,1225.752797
1401.476341,-10658.965565,1184.329507,995.924147
1401.476662,-12139.377449,814.226536,3677.258390
1401.476983,-9696.697840,-888.247130,3983.696590
1401.477304,-9770.718434,-3182.885551,536.266849
1401.477625,-7179.997637,-2516.700203,-1225.752797
1401.477945,-7846.182985,-296.082377,-842.705048
1401.478266,-10362.883188,740.205942,1532.190996
1401.478587,-10066.800811,-1036.288319,2374.896044
1401.478908,-10362.883188,-2294.638420,76.609550
1401.479229,-8512.368333,-1998.556043,-1838.629195
1401.479550,-9178.553681,148.041188,-1225.752797
1401.479871,-10955.047942,1258.350101,1991.848295
1401.480191,-9474.636058,370.102971,1149.143247
1401.480512,-7994.224174,-1924.535449,-2681.334243
1401.480833,-6291.750507,-370.102971,-3064.381992
1401.481154,-9474.636058,-370.102971,-1072.533697
1401.481475,-11029.068536,-518.144159,2068.457845
1401.481796,-11251.130318,-888.247130,2298.286494
1401.482116,-9104.533087,444.123565,-995.924147
1401.482437,-8586.388927,2960.823768,-229.828649
1401.482758,-12139.377449,1924.535449,2451.505594
1401.483079,-9548.656652,-296.082377,2451.505594
1401.483400,-9844.739029,-2442.679609,0.000000
1401.483721,-8216.285956,-1850.514855,-1302.362347
1401.484042,-9400.615463,-148.041188,-306.438199
1401.484362,-10066.800811,1554.432478,1991.848295
1401.484683,-10658.965565,0.000000,2528.115143
1401.485004,-8660.409521,-1332.370696,-612.876398
1401.485325,-7772.162391,370.102971,-1302.362347
1401.485646,-10362.883188,1776.494261,1302.362347
1401.485967,-11843.295072,1332.370696,3907.087040
1401.486288,-10881.027347,-518.144159,3370.820191
1401.486608,-9622.677246,-1332.370696,919.314598
1401.486929,-7846.182985,-962.267725,-1915.238745
1401.487250,-10214.842000,296.082377,2145.067394
1401.487571,-10214.842000,-1480.411884,4060.306139
1401.487892,-8734.430116,-2220.617826,1149.143247
1401.488213,-9474.636058,-592.164754,919.314598
1401.488533,-9474.636058,2146.597232,1532.190996
1401.488854,-10436.903782,740.205942,3064.381992
1401.489175,-11251.130318,-444.123565,4673.182538
1401.489496,-9474.636058,-2738.761985,1915.238745
1401.489817,-7105.977043,-2072.576638,0.000000
1401.490138,-9252.574275,-370.102971,1302.362347
1401.490459,-9474.636058,-296.082377,3294.210641
1401.490779,-10362.883188,-666.185348,2911.162892
1401.491100,-8956.491898,-666.185348,1455.581446
1401.491421,-7476.080014,0.000000,-1149.143247
1401.491742,-9252.574275,814.226536,1685.410096
1401.492063,-10955.047942,0.000000,2987.772442
1401.492384,-9770.718434,-222.061783,2221.676944
1401.492704,-8956.491898,-592.164754,612.876398
1401.493025,-9474.636058,-222.061783,1149.143247
1401.493346,-9622.677246,-370.102971,1378.971896
1401.493667,-10510.924376,-2738.761985,1378.971896
1401.493988,-8438.347739,-1924.535449,-612.876398
1401.494309,-7772.162391,1332.370696,-2374.896044
1401.494630,-10066.800811,2812.782580,0.000000
1401.494950,-10436.903782,2812.782580,1608.800546
1401.495271,-9918.759623,370.102971,459.657299
1401.495592,-10214.842000,-2072.576638,-612.876398
1401.495913,-9474.636058,-1110.308913,-536.266849
1401.496234,-10584.944971,-814.226536,995.924147
1401.496555,-10955.047942,-3108.864956,1991.848295
1401.496876,-8364.327145,-2516.700203,-1225.752797
1401.497196,-8512.368333,-1702.473667,-2145.067394
1401.497517,-8438.347739,296.082377,-2221.676944
1401.497838,-10066.800811,1332.370696,1225.752797
1401.498159,-10658.965565,-962.267725,1225.752797
1401.498480,-9252.574275,-444.123565,-306.438199
1401.498801,-9918.759623,-962.267725,-536.266849
1401.499121,-10436.903782,-444.123565,1532.190996
1401.499442,-10288.862594,-888.247130,3600.648841
1401.499763,-10732.986159,-4071.132681,2145.067394
1401.500084,-8068.244768,-2738.761985,0.000000
1401.500405,-8586.388927,1480.411884,-689.485948
1401.500726,-10362.883188,1406.391290,1455.581446
1401.501047,-8956.491898,3034.844362,2451.505594
1401.501367,-9844.739029,-148.041188,3064.381992
1401.501688,-7031.956449,-1702.473667,-1608.800546
1401.502009,-10214.842000,-814.226536,612.876398
1401.502330,-10140.821405,-444.123565,2374.896044
1401.502651,-10732.986159,0.000000,4213.525239
1401.502972,-9844.739029,-592.164754,4136.915689
1401.503293,-8586.388927,1480.411884,1455.581446
1401.503613,-10140.821405,1702.473667,2987.772442
1401.503934,-11177.109724,222.061783,4979.620737
1401.504255,-11325.150913,-2738.761985,3447.429741
1401.504576,-10066.800811,-1924.535449,1455.581446
1401.504897,-8068.244768,-296.082377,1225.752797
1401.505218,-10288.862594,1110.308913,3907.087040
1401.505538,-10288.862594,-518.144159,6281.983084
1401.505859,-9400.615463,-4145.153275,1685.410096
1401.506180,-8882.471304,-2368.659014,-1685.410096
1401.506501,-8438.347739,1184.329507,-2451.505594
1401.506822,-9918.759623,4589.276840,1685.410096
1401.507143,-10436.903782,3923.091493,3907.087040
1401.507464,-9474.636058,444.123565,995.924147
1401.507784,-8364.327145,-2294.638420,-842.705048
1401.508105,-8734.430116,-2738.761985,-1455.581446
1401.508426,-11547.212695,-1924.535449,1915.238745
1401.508747,-11473.192101,-888.247130,2834.553343
1401.509068,-9178.553681,1184.329507,-306.438199
1401.509389,-8142.265362,2886.803174,-2068.457845
1401.509710,-8512.368333,4441.235652,-1072.533697
1401.510030,-10807.006753,1036.288319,1532.190996
1401.510351,-10288.862594,-2664.741391,-689.485948
1401.510672,-7105.977043,-1036.288319,-2451.505594
1401.510993,-9844.739029,-2146.597232,-2681.334243
1401.511314,-8512.368333,518.144159,1302.362347
1401.511635,-11251.130318,-1628.453072,2604.724693
1401.511955,-10732.986159,-3034.844362,306.438199
1401.512276,-7994.224174,444.123565,-2451.505594
1401.512597,-11251.130318,2368.659014,-612.876398
1401.512918,-9474.636058,2590.720797,2451.505594
1401.513239,-9622.677246,-1628.453072,1072.533697
1401.513560,-7994.224174,-1036.288319,-1685.410096
1401.513881,-7328.038826,-444.123565,-2681.334243
1401.514201,-6809.894666,444.123565,-2451.505594
1401.514522,-10066.800811,962.267725,2911.162892
1401.514843,-9770.718434,-2738.761985,1149.143247
1401.515164,-9104.533087,-1480.411884,995.924147
1401.515485,-10214.842000,-370.102971,1455.581446
1401.515806,-11621.233289,2368.659014,3907.087040
1401.516127,-11621.233289,2072.576638,5592.497135
1401.516447,-11769.274478,-74.020594,4060.306139
1401.516768,-7328.038826,370.102971,459.657299
1401.517089,-9326.594869,-222.061783,-689.485948
1401.517410,-8216.285956,1036.288319,1302.362347
1401.517731,-8956.491898,-2220.617826,919.314598
1401.518052,-8882.471304,-1332.370696,306.438199
1401.518372,-9696.697840,148.041188,919.314598
1401.518693,-10362.883188,2664.741391,4596.572988
1401.519014,-13619.789333,0.000000,6588.421283
1401.519335,-10955.047942,-2442.679609,5822.325785
1401.519656,-11251.130318,-3330.926739,3370.820191
1401.519977,-8512.368333,-2590.720797,1455.581446
1401.520298,-8882.471304,-222.061783,2068.457845
1401.520618,-8586.388927,-1332.370696,2145.067394
1401.520939,-8068.244768,-1850.514855,919.314598
1401.521260,-9178.553681,-1258.350101,-1302.362347
1401.521581,-9252.574275,888.247130,0.000000
1401.521902,-11251.130318,962.267725,2757.943793
1401.522223,-11103.089130,-1258.350101,4136.915689
1401.522544,-10732.986159,-3108.864956,2221.676944
1401.522864,-9548.656652,-1776.494261,842.705048
1401.523185,-9622.677246,-296.082377,2451.505594
1401.523506,-10436.903782,-962.267725,3140.991542
1401.523827,-9104.533087,-2220.617826,1225.752797
1401.524148,-7920.203579,-2516.700203,-2298.286494
1401.524469,-7402.059420,0.000000,-3217.601092
1401.524789,-9474.636058,3256.906145,-689.485948
1401.525110,-10066.800811,1036.288319,995.924147
1401.525431,-9844.739029,-592.164754,-383.047749
1401.525752,-10436.903782,-740.205942,-1762.019645
1401.526073,-10510.924376,1258.350101,-459.657299
1401.526394,-10658.965565,2368.659014,2068.457845
1401.526715,-11547.212695,-1332.370696,2145.067394
1401.527035,-9252.574275,-3108.864956,-1455.581446
1401.527356,-7254.018232,-1036.288319,-3907.087040
1401.527677,-9474.636058,1628.453072,-3524.039291
1401.527998,-9474.636058,2590.720797,1302.362347
1401.528319,-9918.759623,0.000000,1072.533697
1401.528640,-9696.697840,-1258.350101,-1072.533697
1401.528961,-8956.491898,0.000000,-842.705048
1401.529281,-10658.965565,0.000000,2451.505594
1401.529602,-12065.356855,-1998.556043,4366.744339
1401.529923,-9992.780217,-2812.782580,1685.410096
1401.530244,-8512.368333,-2072.576638,-1149.143247
1401.530565,-6957.935855,1332.370696,-1149.143247
1401.530886,-9844.739029,2590.720797,2604.724693
1401.531206,-10288.862594,370.102971,2604.724693
1401.531527,-8734.430116,-1036.288319,459.657299
1401.531848,-8956.491898,-1184.329507,-842.705048
1401.532169,-9770.718434,370.102971,766.095498
1401.532490,-10807.006753,740.205942,4826.401637
1401.532811,-10807.006753,-1480.411884,4903.011187
1401.533132,-9400.615463,0.000000,2298.286494
1401.533452,-9770.718434,666.185348,2145.067394
1401.533773,-9548.656652,2072.576638,2681.334243
1401.534094,-10140.821405,296.082377,4979.620737
1401.534415,-9548.656652,-3256.906145,2757.943793
1401.534736,-7624.121203,-1184.329507,306.438199
1401.535057,-9770.718434,-1480.411884,1378.971896
1401.535378,-8734.430116,1184.329507,3447.429741
1401.535698,-10214.842000,222.061783,4290.134789
1401.536019,-9474.636058,-74.020594,3140.991542
1401.536340,-10288.862594,-2368.659014,536.266849
1401.536661,-8438.347739,1480.411884,1225.752797
1401.536982,-12287.418637,1776.494261,4213.525239
1401.537303,-9770.718434,222.061783,3294.210641
1401.537623,-9474.636058,-962.267725,536.266849
1401.537944,-8438.347739,-1998.556043,-1608.800546
1401.538265,-7550.100608,814.226536,-1072.533697
1401.538586,-11473.192101,444.123565,3677.258390
1401.538907,-11473.192101,-888.247130,5132.839837
1401.539228,-10140.821405,-2590.720797,1532.190996
1401.539549,-10288.862594,-2368.659014,0.000000
1401.539869,-10288.862594,-740.205942,-229.828649
1401.540190,-8290.306550,0.000000,153.219100
1401.540511,-9400.615463,-1480.411884,-2528.115143
1401.540832,-4515.256246,740.205942,-3830.477490
1401.541153,-8068.244768,296.082377,-4213.525239
1401.541474,-8882.471304,1110.308913,-536.266849
1401.541795,-9918.759623,-2664.741391,229.828649
1401.542115,-11769.274478,-3478.967927,-766.095498
1401.542436,-8216.285956,666.185348,-2221.676944
1401.542757,-9696.697840,2738.761985,-229.828649
1401.543078,-11251.130318,3256.906145,3370.820191
1401.543399,-9770.718434,-370.102971,2145.067394
1401.543720,-10288.862594,-1924.535449,689.485948
1401.544040,-8364.327145,-740.205942,-689.485948
1401.544361,-9992.780217,0.000000,0.000000
1401.544682,-10214.842000,-296.082377,2298.286494
1401.545003,-10510.924376,-1258.350101,612.876398
1401.545324,-8364.327145,296.082377,306.438199
1401.545645,-8882.471304,666.185348,459.657299
1401.545966,-11029.068536,370.102971,2374.896044
1401.546286,-11843.295072,-2368.659014,2681.334243
1401.546607,-10066.800811,0.000000,1608.800546
1401.546928,-10807.006753,-148.041188,2068.457845
1401.547249,-9030.512492,2664.741391,2145.067394
1401.547570,-9992.780217,814.226536,2757.943793
1401.547891,-9622.677246,-1406.391290,1225.752797
1401.548211,-7254.018232,-1406.391290,-2221.676944
1401.548532,-8438.347739,0.000000,-766.095498
1401.548853,-9548.656652,2368.659014,3064.381992
1401.549174,-9844.739029,962.267725,4290.134789
1401.549495,-11843.295072,-370.102971,4979.620737
1401.549816,-10584.944971,-3108.864956,3983.696590
1401.550137,-9030.512492,-2220.617826,1532.190996
1401.550457,-10807.006753,-1332.370696,3983.696590
1401.550778,-8438.347739,-2368.659014,3140.991542
1401.551099,-8660.409521,-2146.597232,1455.581446
1401.551420,-8512.368333,-518.144159,76.609550
1401.551741,-7402.059420,2812.782580,76.609550
1401.552062,-9918.759623,2664.741391,3524.039291
1401.552383,-10807.006753,-962.267725,3064.381992
1401.552703,-9474.636058,-1480.411884,306.438199
1401.553024,-8956.491898,-1480.411884,0.000000
1401.553345,-9400.615463,-888.247130,1762.019645
1401.553666,-9918.759623,-740.205942,2987.772442
1401.553987,-9622.677246,-2442.679609,1072.533697
1401.554308,-8068.244768,-370.102971,-1915.238745
1401.554628,-8364.327145,2590.720797,-1378.971896
1401.554949,-9992.780217,1998.556043,1072.533697
1401.555270,-10140.821405,0.000000,2374.896044
1401.555591,-8882.471304,-2146.597232,1915.238745
1401.555912,-9992.780217,-1850.514855,-1225.752797
1401.556233,-8142.265362,888.247130,-1762.019645
1401.556554,-9918.759623,0.000000,-1302.362347
1401.556874,-7698.141797,2146.597232,-1455.581446
1401.557195,-9844.739029,1036.288319,-1685.410096
1401.557516,-9178.553681,296.082377,-1608.800546
1401.557837,-11325.150913,74.020594,2221.676944
1401.558158,-12287.418637,-3627.009116,3140.991542
1401.558479,-11547.212695,-4145.153275,1762.019645
1401.558800,-11325.150913,-1258.350101,1149.143247
1401.559120,-9030.512492,148.041188,383.047749
1401.559441,-9252.574275,1998.556043,1225.752797
1401.559762,-10140.821405,518.144159,1991.848295
1401.560083,-7920.203579,-1184.329507,-1225.752797
1401.560404,-9252.574275,-3775.050304,-3294.210641
1401.560725,-8068.244768,296.082377,-1532.190996
1401.561045,-9622.677246,1776.494261,2528.115143
1401.561366,-10955.047942,74.020594,3983.696590
1401.561687,-10584.944971,-518.144159,2604.724693
1401.562008,-9992.780217,0.000000,2298.286494
1401.562329,-10807.006753,74.020594,1149.143247
1401.562649,-9696.697840,296.082377,2298.286494
1401.562970,-10214.842000,-592.164754,2528.115143
1401.563291,-7920.203579,-74.020594,0.000000
1401.563612,-7994.224174,2146.597232,153.219100
1401.563933,-9474.636058,1850.514855,2221.676944
1401.564254,-10362.883188,-1628.453072,3294.210641
1401.564574,-9696.697840,-3552.988522,2451.505594
1401.564895,-9770.718434,-2960.823768,1838.629195
1401.565216,-9178.553681,-370.102971,2374.896044
1401.565537,-10362.883188,518.144159,4903.011187
1401.565858,-9400.615463,-740.205942,4826.401637
1401.566179,-9474.636058,-1332.370696,1378.971896
1401.566499,-8142.265362,-814.226536,-766.095498
1401.566820,-9474.636058,518.144159,459.657299
1401.567141,-9844.739029,-592.164754,3907.087040
1401.567462,-9770.718434,-518.144159,1915.238745
1401.567783,-10584.944971,-2072.576638,1149.143247
1401.568103,-9474.636058,-370.102971,-306.438199
1401.568424,-10732.986159,1628.453072,2145.067394
1401.568745,-11029.068536,296.082377,3370.820191
1401.569066,-9844.739029,-814.226536,1072.533697
1401.569387,-9696.697840,-1480.411884,-1378.971896
1401.569708,-7772.162391,-296.082377,-2604.724693
1401.570028,-9474.636058,1554.432478,-919.314598
1401.570349,-10140.821405,1036.288319,1072.533697
1401.570670,-9770.718434,518.144159,-306.438199
1401.570991,-9326.594869,518.144159,-995.924147
1401.571312,-9992.780217,222.061783,-229.828649
1401.571632,-10362.883188,-1776.494261,2068.457845
1401.571953,-9992.780217,-2368.659014,-76.609550
1401.572274,-9548.656652,296.082377,153.219100
1401.572595,-9918.759623,1702.473667,-383.047749
1401.572916,-8290.306550,2738.761985,1915.238745
1401.573237,-9770.718434,-1850.514855,2298.286494
1401.573557,-7624.121203,-1702.473667,-2374.896044
1401.573878,-9178.553681,-2442.679609,-2068.457845
1401.574199,-7624.121203,1036.288319,-1838.629195
1401.574520,-9474.636058,2960.823768,689.485948
1401.574841,-9474.636058,74.020594,1378.971896
1401.575161,-8956.491898,-1258.350101,-229.828649
1401.575482,-9992.780217,-2590.720797,-995.924147
1401.575803,-10436.903782,-296.082377,1378.971896
1401.576124,-11547.212695,0.000000,4749.792088
1401.576445,-10881.027347,-962.267725,4060.306139
1401.576766,-8438.347739,-1924.535449,1378.971896
1401.577086,-7846.182985,-1258.350101,-919.314598
1401.577407,-8438.347739,1406.391290,1225.752797
1401.577728,-9770.718434,888.247130,2528.115143
1401.578049,-9474.636058,-518.144159,3370.820191
1401.578370,-9252.574275,-1036.288319,766.095498
1401.578691,-10881.027347,1258.350101,2911.162892
1401.579011,-11547.212695,1554.432478,5132.839837
1401.579332,-11843.295072,-592.164754,6818.249932
1401.579653,-11103.089130,-2072.576638,4136.915689
1401.579974,-9252.574275,-1998.556043,1838.629195
1401.580295,-9104.533087,-148.041188,-153.219100
1401.580615,-10288.862594,1554.432478,3064.381992
1401.580936,-10288.862594,-370.102971,3217.601092
1401.581257,-8290.306550,-962.267725,0.000000
1401.581578,-8512.368333,-1258.350101,-1838.629195
1401.581899,-7624.121203,888.247130,-1685.410096
1401.582220,-8882.471304,814.226536,1762.019645
1401.582540,-9770.718434,-1332.370696,2681.334243
1401.582861,-9474.636058,-1850.514855,842.705048
1401.583182,-9178.553681,-1998.556043,306.438199
1401.583503,-11177.109724,-814.226536,1991.848295
1401.583824,-10807.006753,-1702.473667,3217.601092
1401.584144,-10658.965565,-1998.556043,1225.752797
1401.584465,-9400.615463,444.123565,-153.219100
1401.584786,-8438.347739,1554.432478,-2374.896044
1401.585107,-8512.368333,2072.576638,0.000000
1401.585428,-10214.842000,-1998.556043,383.047749
1401.585749,-8438.347739,-3552.988522,-1838.629195
1401.586069,-9252.574275,-2886.803174,-2451.505594
1401.586390,-8808.450710,-592.164754,-1608.800546
1401.586711,-9770.718434,666.185348,1225.752797
1401.587032,-11325.150913,0.000000,1532.190996
1401.587353,-9918.759623,148.041188,0.000000
1401.587673,-9030.512492,0.000000,-1072.533697
1401.587994,-9178.553681,666.185348,153.219100
1401.588315,-10214.842000,-1998.556043,2298.286494
1401.588636,-9474.636058,-3404.947333,153.219100
1401.588957,-8216.285956,-1480.411884,-1302.362347
1401.589278,-9178.553681,740.205942,0.000000
1401.589598,-8956.491898,1332.370696,689.485948
1401.589919,-10807.006753,740.205942,2681.334243
1401.590240,-10510.924376,-1924.535449,766.095498
1401.590561,-7105.977043,370.102971,-536.266849
1401.590882,-11399.171507,888.247130,1991.848295
1401.591203,-10362.883188,666.185348,3830.477490
1401.591523,-9770.718434,-1332.370696,1762.019645
1401.591844,-8216.285956,-1036.288319,-612.876398
1401.592165,-7254.018232,1036.288319,-1838.629195
1401.592486,-9696.697840,3627.009116,536.266849
1401.592807,-11547.212695,2442.679609,5592.497135
1401.593127,-11325.150913,-296.082377,4060.306139
1401.593448,-10881.027347,-740.205942,2757.943793
1401.593769,-10140.821405,-2960.823768,1378.971896
1401.594090,-9696.697840,888.247130,4136.915689
1401.594411,-11695.253884,-814.226536,5669.106685
1401.594732,-9252.574275,-1258.350101,3447.429741
1401.595052,-7772.162391,222.061783,0.000000
1401.595373,-9622.677246,-888.247130,-2298.286494
1401.595694,-7550.100608,2812.782580,3677.258390
1401.596015,-13545.768739,-1184.329507,3370.820191
1401.596336,-8438.347739,-1850.514855,2451.505594
1401.596656,-9474.636058,-3182.885551,-1762.019645
1401.596977,-10584.944971,1110.308913,2451.505594
1401.597298,-9770.718434,-1776.494261,2145.067394
1401.597619,-11473.192101,-1258.350101,4903.011187
1401.597940,-8734.430116,-2294.638420,766.095498
1401.598261,-7105.977043,-1184.329507,-3140.991542
1401.598581,-9992.780217,2516.700203,1532.190996
1401.598902,-10214.842000,296.082377,1838.629195
1401.599223,-9104.533087,-1332.370696,612.876398
1401.599544,-9178.553681,296.082377,-536.266849
1401.599865,-6883.915261,888.247130,-2604.724693
1401.600185,-10362.883188,888.247130,919.314598
1401.600506,-11473.192101,-2072.576638,1455.581446
1401.600827,-9178.553681,-1628.453072,0.000000
1401.601148,-9696.697840,296.082377,-1225.752797
1401.601469,-9696.697840,2146.597232,0.000000
1401.601790,-10066.800811,888.247130,1991.848295
1401.602110,-10362.883188,-2368.659014,766.095498
1401.602431,-8290.306550,-3034.844362,-1685.410096
1401.602752,-8364.327145,-1036.288319,-2145.067394
1401.603073,-9622.677246,370.102971,0.000000
1401.603394,-10584.944971,-148.041188,2604.724693
1401.603715,-9474.636058,-1480.411884,1072.533697
1401.604035,-8290.306550,-1184.329507,229.828649
1401.604356,-9252.574275,-2738.761985,459.657299
1401.604677,-8216.285956,-962.267725,2298.286494
1401.604998,-11769.274478,-3330.926739,2757.943793
1401.605319,-9844.739029,-1998.556043,1455.581446
1401.605639,-8956.491898,74.020594,-536.266849
1401.605960,-9030.512492,2812.782580,459.657299
1401.606281,-9400.615463,3552.988522,3753.867940
1401.606602,-10955.047942,-222.061783,4673.182538
1401.606923,-11621.233289,-2368.659014,3294.210641
1401.607244,-9178.553681,-1776.494261,536.266849
1401.607564,-10881.027347,-592.164754,153.219100
1401.607885,-9918.759623,1850.514855,3217.601092
1401.608206,-9326.594869,1258.350101,1302.362347
1401.608527,-7031.956449,1406.391290,76.609550
1401.608848,-7846.182985,2886.803174,229.828649
1401.609168,-9030.512492,1776.494261,2604.724693
1401.609489,-11103.089130,-1554.432478,2451.505594
1401.609810,-11769.274478,-814.226536,3677.258390
1401.610131,-9548.656652,0.000000,2451.505594
1401.610452,-10732.986159,1480.411884,2604.724693
1401.610773,-11103.089130,740.205942,4596.572988
1401.611093,-10140.821405,-1998.556043,1378.971896
1401.611414,-9844.739029,-2220.617826,-306.438199
1401.611735,-8438.347739,-666.185348,-2451.505594
1401.612056,-8586.388927,2442.679609,229.828649
1401.612377,-11177.109724,814.226536,2911.162892
1401.612698,-9548.656652,-2738.761985,1608.800546
1401.613018,-8956.491898,-4219.173869,229.828649
1401.613339,-9844.739029,-2664.741391,-995.924147
1401.613660,-9918.759623,-370.102971,1532.190996
1401.613981,-12065.356855,-888.247130,2911.162892
1401.614302,-9474.636058,222.061783,766.095498
1401.614622,-8290.306550,0.000000,-612.876398
1401.614943,-7698.141797,1628.453072,-2221.676944
1401.615264,-9400.615463,222.061783,-689.485948
1401.615585,-9474.636058,-1702.473667,-1302.362347
1401.615906,-8364.327145,-2146.597232,-2528.115143
1401.616227,-7476.080014,2368.659014,-3830.477490
1401.616547,-9474.636058,1406.391290,0.000000
1401.616868,-9918.759623,888.247130,2068.457845
1401.617189,-11843.295072,148.041188,3217.601092
1401.617510,-9178.553681,-2368.659014,229.828649
1401.617831,-9474.636058,-1258.350101,-1072.533697
1401.618151,-10436.903782,592.164754,1685.410096
1401.618472,-9918.759623,222.061783,1838.629195
1401.618793,-8068.244768,-1332.370696,229.828649
1401.619114,-7105.977043,-444.123565,689.485948
1401.619435,-8142.265362,0.000000,-689.485948
1401.619756,-9696.697840,666.185348,1225.752797
1401.620076,-12139.377449,-444.123565,2604.724693
1401.620397,-11399.171507,-740.205942,2451.505594
1401.620718,-9474.636058,0.000000,2068.457845
1401.621039,-9918.759623,0.000000,1455.581446
1401.621360,-10732.986159,740.205942,4366.744339
1401.621680,-11325.150913,-2368.659014,3830.477490
1401.622001,-8216.285956,-2220.617826,2221.676944
1401.622322,-9474.636058,-222.061783,689.485948
1401.622643,-9992.780217,1850.514855,3064.381992
1401.622964,-9992.780217,814.226536,3753.867940
1401.623285,-10584.944971,-666.185348,1762.019645
1401.623605,-8512.368333,-296.082377,0.000000
1401.623926,-9696.697840,0.000000,1149.143247
1401.624247,-11547.212695,518.144159,4136.915689
1401.624568,-10510.924376,-740.205942,4596.572988
1401.624889,-10362.883188,-1998.556043,2528.115143
1401.625210,-8364.327145,-740.205942,1378.971896
1401.625530,-8660.409521,0.000000,153.219100
1401.625851,-9548.656652,1332.370696,2834.553343
1401.626172,-9104.533087,-740.205942,1302.362347
1401.626493,-7105.977043,296.082377,1838.629195
1401.626814,-9400.615463,-1998.556043,689.485948
1401.627134,-9696.697840,0.000000,2834.553343
1401.627455,-12657.521608,-2960.823768,4136.915689
1401.627776,-9030.512492,-1480.411884,1072.533697
1401.628097,-9474.636058,-2368.659014,-153.219100
1401.628418,-7698.141797,1184.329507,-306.438199
1401.628739,-9474.636058,962.267725,229.828649
1401.629059,-9622.677246,-740.205942,0.000000
1401.629380,-6809.894666,-1184.329507,-2068.457845
1401.629701,-8660.409521,-1110.308913,-3677.258390
1401.630022,-10288.862594,2516.700203,0.000000
1401.630343,-10510.924376,592.164754,1302.362347
1401.630663,-10807.006753,-740.205942,0.000000
1401.630984,-8438.347739,-1036.288319,-1532.190996
1401.631305,-9178.553681,-666.185348,-2987.772442
1401.631626,-10881.027347,2072.576638,459.657299
1401.631947,-10955.047942,370.102971,1149.143247
1401.632268,-8364.327145,74.020594,-306.438199
1401.632588,-9252.574275,-2368.659014,-2451.505594
1401.632909,-7846.182985,-592.164754,-1838.629195
1401.633230,-10066.800811,222.061783,1225.752797
1401.633551,-10955.047942,-592.164754,1915.238745
1401.633872,-10288.862594,592.164754,1149.143247
1401.634192,-10140.821405,0.000000,459.657299
1401.634513,-10214.842000,1332.370696,1072.533697
1401.634834,-11325.150913,740.205942,3524.039291
1401.635155,-10362.883188,-2442.679609,1532.190996
1401.635476,-8734.430116,-2294.638420,-153.219100
1401.635797,-7994.224174,-1110.308913,-536.266849
1401.636117,-8882.471304,1332.370696,1762.019645
1401.636438,-10955.047942,0.000000,4290.134789
1401.636759,-9696.697840,-1184.329507,3370.820191
1401.637080,-9622.677246,-2368.659014,1225.752797
1401.637401,-9326.594869,518.144159,1378.971896
1401.637722,-10584.944971,1850.514855,4749.792088
1401.638042,-10732.986159,-1332.370696,6128.763984
1401.638363,-8142.265362,-1036.288319,2298.286494
1401.638684,-7920.203579,-962.267725,766.095498
1401.639005,-8808.450710,1036.288319,1149.143247
1401.639326,-9770.718434,814.226536,2987.772442
1401.639646,-8882.471304,-370.102971,842.705048
1401.639967,-7402.059420,0.000000,-536.266849
1401.640288,-7994.224174,814.226536,-459.657299
1401.640609,-9104.533087,1110.308913,3753.867940
1401.640930,-12805.562797,-1998.556043,6588.421283
1401.641251,-12065.356855,-3997.112087,4519.963438
1401.641571,-9696.697840,-3701.029710,766.095498
1401.641892,-9992.780217,518.144159,1378.971896
1401.642213,-9178.553681,1850.514855,2987.772442
1401.642534,-9770.718434,222.061783,2681.334243
1401.642855,-8142.265362,-1258.350101,-1532.190996
1401.643175,-7402.059420,-1406.391290,-5209.449386
1401.643496,-8586.388927,1628.453072,-3600.648841
1401.643817,-10732.986159,296.082377,612.876398
1401.644138,-9474.636058,0.000000,-153.219100
1401.644459,-9992.780217,-296.082377,-2145.067394
1401.644780,-8438.347739,370.102971,-3753.867940
1401.645100,-10732.986159,2442.679609,-306.438199
1401.645421,-13767.830521,1184.329507,1915.238745
1401.645742,-10436.903782,-592.164754,612.876398
1401.646063,-9400.615463,-1776.494261,-2374.896044
1401.646384,-8216.285956,666.185348,-3294.210641
1401.646704,-9770.718434,3404.947333,-1225.752797
1401.647025,-10214.842000,1924.535449,919.314598
1401.647346,-9918.759623,1258.350101,-1455.581446
1401.647667,-8290.306550,1850.514855,-3447.429741
1401.647988,-10214.842000,740.205942,-3600.648841
1401.648309,-10584.944971,4515.256246,1455.581446
1401.648629,-12879.583391,1554.432478,3064.381992
1401.648950,-10658.965565,1110.308913,1302.362347
1401.649271,-10066.800811,592.164754,-919.314598
1401.649592,-7550.100608,518.144159,-2068.457845
1401.649913,-9474.636058,-74.020594,-1302.362347
1401.650234,-8956.491898,-296.082377,-1225.752797
1401.650554,-7624.121203,2146.597232,-2298.286494
1401.650875,-7698.141797,2738.761985,-3217.601092
1401.651196,-7698.141797,4737.318029,-1762.019645
1401.651517,-10807.006753,3182.885551,1608.800546
1401.651838,-11399.171507,1036.288319,2451.505594
1401.652158,-10658.965565,814.226536,1225.752797
1401.652479,-10436.903782,0.000000,689.485948
1401.652800,-8660.409521,1776.494261,612.876398
1401.653121,-11547.212695,1480.411884,2528.115143
1401.653442,-8956.491898,1998.556043,1915.238745
1401.653763,-8512.368333,1628.453072,-229.828649
1401.654083,-9030.512492,222.061783,-1302.362347
1401.654404,-7254.018232,1924.535449,-3064.381992
1401.654725,-10807.006753,2368.659014,0.000000
1401.655046,-9770.718434,4515.256246,1455.581446
1401.655367,-10362.883188,4293.194464,536.266849
1401.655687,-10955.047942,2812.782580,0.000000
1401.656008,-8364.327145,1036.288319,-1915.238745
1401.656329,-10436.903782,1776.494261,-383.047749
1401.656650,-10436.903782,1702.473667,536.266849
1401.656971,-8660.409521,3849.070898,-766.095498
1401.657292,-9918.759623,3404.947333,-766.095498
1401.657612,-8364.327145,1480.411884,-2528.115143
1401.657933,-8734.430116,1776.494261,-2681.334243
1401.658254,-10510.924376,1258.350101,-1302.362347
1401.658575,-9696.697840,222.061783,-1532.190996
1401.658896,-10732.986159,1702.473667,306.438199
1401.659216,-10214.842000,-1628.453072,-153.219100
1401.659537,-9178.553681,-1702.473667,-2298.286494
1401.659858,-9474.636058,592.164754,-2068.457845
1401.660179,-9400.615463,1628.453072,-2834.553343
1401.660500,-8364.327145,4293.194464,-2987.772442
1401.660821,-9104.533087,3256.906145,-3217.601092
1401.661141,-9548.656652,1628.453072,-3753.867940
1401.661462,-9400.615463,962.267725,-4290.134789
1401.661783,-10510.924376,1776.494261,-2987.772442
1401.662104,-11103.089130,3478.967927,-1608.800546
1401.662425,-11769.274478,3997.112087,-153.219100
1401.662746,-10955.047942,2812.782580,-612.876398
1401.663066,-10732.986159,1850.514855,-1455.581446
1401.663387,-9918.759623,370.102971,-2451.505594
1401.663708,-8956.491898,518.144159,-2528.115143
1401.664028,-9178.553681,1628.453072,-919.314598
1401.664349,-9622.677246,740.205942,0.000000
1401.664670,-8882.471304,296.082377,-919.314598
1401.664991,-9104.533087,740.205942,-1072.533697
1401.665311,-9474.636058,222.061783,-1072.533697
1401.665632,-9622.677246,1332.370696,-1378.971896
1401.665953,-10140.821405,2960.823768,-1302.362347
1401.666274,-9770.718434,5107.421000,-1455.581446
1401.666594,-9844.739029,5847.626942,-1378.971896
1401.666915,-9326.594869,3404.947333,-536.266849
1401.667236,-9992.780217,814.226536,-689.485948
1401.667557,-10436.903782,0.000000,-842.705048
1401.667877,-10214.842000,-666.185348,-1225.752797
1401.668198,-9030.512492,2072.576638,1225.752797
1401.668519,-11325.150913,1850.514855,2221.676944
1401.668839,-9326.594869,370.102971,689.485948
1401.669160,-8660.409521,222.061783,383.047749
1401.669481,-9030.512492,-222.061783,306.438199
1401.669802,-8660.409521,-592.164754,-383.047749
1401.670122,-9474.636058,74.020594,153.219100
1401.670443,-8142.265362,1332.370696,-2145.067394
1401.670764,-8660.409521,4071.132681,-2145.067394
1401.671085,-9696.697840,5625.565159,0.000000
1401.671405,-9918.759623,4663.297435,689.485948
1401.671726,-11103.089130,2960.823768,153.219100
1401.672047,-12065.356855,2812.782580,612.876398
1401.672368,-10658.965565,666.185348,0.000000
1401.672688,-9548.656652,518.144159,0.000000
1401.673009,-9326.594869,0.000000,-1072.533697
1401.673330,-8808.450710,2072.576638,-1378.971896
1401.673651,-9696.697840,2220.617826,-383.047749
1401.673971,-9474.636058,2072.576638,-459.657299
1401.674292,-9326.594869,1776.494261,-1608.800546
1401.674613,-10584.944971,2072.576638,-842.705048
1401.674933,-10807.006753,2664.741391,0.000000
1401.675254,-10584.944971,1480.411884,-1532.190996
1401.675575,-9326.594869,2072.576638,-3753.867940
1401.675896,-9178.553681,4145.153275,-4136.915689
1401.676216,-10362.883188,4811.338623,-2451.505594
1401.676537,-11029.068536,3997.112087,-1532.190996
1401.676858,-9918.759623,3552.988522,-1838.629195
1401.677179,-9918.759623,2442.679609,-2911.162892
1401.677499,-10732.986159,2072.576638,-689.485948
1401.677820,-10362.883188,0.000000,842.705048
1401.678141,-9622.677246,-2220.617826,-842.705048
1401.678462,-8438.347739,-814.226536,-2145.067394
1401.678782,-8216.285956,1184.329507,-1915.238745
1401.679103,-9326.594869,1258.350101,-383.047749
1401.679424,-9474.636058,1776.494261,-459.657299
1401.679744,-9252.574275,1776.494261,-2374.896044
1401.680065,-8660.409521,3330.926739,-2757.943793
1401.680386,-9400.615463,4145.153275,-995.924147
1401.680707,-9918.759623,1850.514855,76.609550
1401.681027,-10436.903782,222.061783,-1378.971896
1401.681348,-9548.656652,1036.288319,-2681.334243
1401.681669,-9474.636058,1702.473667,-3217.601092
1401.681990,-10288.862594,4293.194464,-1991.848295
1401.682310,-10807.006753,5995.668130,229.828649
1401.682631,-10658.965565,4811.338623,76.609550
1401.682952,-9326.594869,2146.597232,-766.095498
1401.683273,-9030.512492,-666.185348,-1225.752797
1401.683593,-9400.615463,-2146.597232,-536.266849
1401.683914,-9918.759623,-1554.432478,1072.533697
1401.684235,-10362.883188,-518.144159,2987.772442
1401.684556,-8512.368333,-222.061783,459.657299
1401.684876,-8290.306550,370.102971,-1532.190996
1401.685197,-8734.430116,2220.617826,-2145.067394
1401.685518,-9474.636058,3478.967927,-1762.019645
1401.685838,-10214.842000,4367.215058,-1225.752797
1401.686159,-9992.780217,3923.091493,-1685.410096
1401.686480,-10362.883188,2812.782580,-2068.457845
1401.686801,-10732.986159,1628.453072,-1455.581446
1401.687121,-10955.047942,1406.391290,1225.752797
1401.687442,-11473.192101,1702.473667,766.095498
1401.687763,-10881.027347,2590.720797,919.314598
1401.688084,-10288.862594,2146.597232,766.095498
1401.688404,-9474.636058,814.226536,383.047749
1401.688725,-9548.656652,-370.102971,-1149.143247
1401.689046,-8808.450710,-740.205942,-1455.581446
1401.689367,-8586.388927,0.000000,-2221.676944
1401.689687,-8808.450710,1850.514855,-3064.381992
1401.690008,-9400.615463,3997.112087,-2604.724693
1401.690329,-9622.677246,5255.462188,-1455.581446
1401.690649,-9992.780217,5477.523971,-612.876398
1401.690970,-10436.903782,4515.256246,-842.705048
1401.691291,-10807.006753,2516.700203,-459.657299
1401.691612,-10658.965565,1036.288319,0.000000
1401.691932,-9844.739029,-666.185348,-229.828649
1401.692253,-9548.656652,-1184.329507,0.000000
1401.692574,-8882.471304,-1036.288319,0.000000
1401.692895,-8586.388927,-518.144159,-153.219100
1401.693215,-8956.491898,-370.102971,-383.047749
1401.693536,-8512.368333,-296.082377,-536.266849
1401.693857,-8660.409521,222.061783,-1608.800546
1401.694178,-9030.512492,1110.308913,-1915.238745
1401.694498,-9178.553681,2294.638420,-3294.210641
1401.694819,-9326.594869,3108.864956,-2834.553343
1401.695140,-10288.862594,3997.112087,-2604.724693
1401.695461,-10140.821405,4959.379811,-2528.115143
1401.695781,-10732.986159,4515.256246,-2145.067394
1401.696102,-11029.068536,4071.132681,-1838.629195
1401.696423,-10955.047942,3256.906145,-842.705048
1401.696743,-10584.944971,2294.638420,0.000000
1401.697064,-10066.800811,1110.308913,459.657299
1401.697385,-9104.533087,444.123565,1455.581446
1401.697706,-9326.594869,-1702.473667,306.438199
1401.698026,-8956.491898,-1332.370696,-536.266849
1401.698347,-8956.491898,148.041188,-766.095498
1401.698668,-9326.594869,1998.556043,-536.266849
1401.698989,-9474.636058,3997.112087,-1072.533697
1401.699309,-9548.656652,4145.153275,-1149.143247
1401.699630,-9770.718434,3849.070898,-1838.629195
1401.699951,-10584.944971,3701.029710,-1608.800546
1401.700272,-10807.006753,3182.885551,0.000000
1401.700592,-11029.068536,2812.782580,-995.924147
1401.700913,-10732.986159,2664.741391,-766.095498
1401.701234,-10658.965565,2442.679609,-383.047749
1401.701554,-10214.842000,1998.556043,0.000000
1401.701875,-9918.759623,1110.308913,-153.219100
1401.702196,-9474.636058,148.041188,-229.828649
1401.702517,-9252.574275,-592.164754,-459.657299
1401.702837,-9326.594869,-518.144159,-383.047749
1401.703158,-9104.533087,74.020594,-1072.533697
1401.703479,-9104.533087,1628.453072,-1378.971896
1401.703800,-9178.553681,2664.741391,-1532.190996
1401.704120,-9400.615463,3849.070898,-2145.067394
1401.704441,-9474.636058,4663.297435,-2374.896044
1401.704762,-9918.759623,5107.421000,-1762.019645
1401.705083,-9696.697840,4441.235652,-2221.676944
1401.705403,-10066.800811,2960.823768,-1991.848295
1401.705724,-9844.739029,1998.556043,-1149.143247
1401.706045,-9844.739029,1036.288319,-383.047749
1401.706366,-9918.759623,0.000000,76.609550
1401.706686,-9400.615463,-296.082377,153.219100
1401.707007,-9474.636058,-370.102971,536.266849
1401.707328,-9474.636058,-222.061783,612.876398
1401.707648,-8142.265362,0.000000,1072.533697
1401.707969,-8808.450710,370.102971,-153.219100
1401.708290,-8660.409521,1036.288319,-842.705048
1401.708611,-8882.471304,1702.473667,-1072.533697
1401.708931,-9400.615463,2442.679609,-536.266849
1401.709252,-9622.677246,2664.741391,-229.828649
1401.709573,-10066.800811,2664.741391,995.924147
1401.709894,-10732.986159,1184.329507,919.314598
1401.710214,-9992.780217,444.123565,1072.533697
1401.710535,-10214.842000,-1184.329507,0.000000
1401.710856,-10066.800811,-296.082377,1225.752797
1401.711177,-9474.636058,-666.185348,1072.533697
1401.711497,-9400.615463,-814.226536,1378.971896
1401.711818,-8956.491898,-518.144159,1149.143247
1401.712139,-8586.388927,-666.185348,919.314598
1401.712460,-9696.697840,296.082377,1608.800546
1401.712780,-9622.677246,1258.350101,1762.019645
1401.713101,-9992.780217,1554.432478,1685.410096
1401.713422,-9918.759623,2886.803174,766.095498
1401.713742,-9622.677246,1850.514855,306.438199
1401.714063,-9992.780217,2294.638420,229.828649
1401.714384,-10066.800811,2220.617826,76.609550
1401.714705,-9918.759623,2294.638420,-229.828649
1401.715025,-10140.821405,1776.494261,-919.314598
1401.715346,-9918.759623,1628.453072,-229.828649
1401.715667,-9918.759623,1184.329507,-229.828649
1401.715988,-10214.842000,1036.288319,-229.828649
1401.716308,-10214.842000,888.247130,-995.924147
1401.716629,-9548.656652,592.164754,-1072.533697
1401.716950,-9622.677246,962.267725,-2068.457845
1401.717271,-9474.636058,1554.432478,-2604.724693
1401.717591,-9474.636058,1924.535449,-3370.820191
1401.717912,-9400.615463,2368.659014,-3600.648841
1401.718233,-9474.636058,2960.823768,-4749.792088
1401.718553,-9696.697840,3034.844362,-5209.449386
1401.718874,-9844.739029,3256.906145,-5362.668486
1401.719195,-9844.739029,3552.988522,-5209.449386
1401.719516,-10362.883188,3404.947333,-4519.963438
1401.719836,-10214.842000,2960.823768,-4826.401637
1401.720157,-10510.924376,3034.844362,-4596.572988
1401.720478,-10362.883188,3034.844362,-4443.353888
1401.720799,-9770.718434,3108.864956,-4366.744339
1401.721119,-9696.697840,2812.782580,-4060.306139
1401.721440,-9474.636058,2960.823768,-4136.915689
1401.721761,-9400.615463,2664.741391,-3294.210641
1401.722082,-9104.533087,2442.679609,-3447.429741
1401.722402,-9104.533087,2960.823768,-3524.039291
1401.722723,-9252.574275,2812.782580,-3217.601092
1401.723044,-8586.388927,3034.844362,-2987.772442
1401.723365,-9104.533087,3627.009116,-2451.505594
1401.723685,-8956.491898,3775.050304,-3753.867940
1401.724006,-9548.656652,4145.153275,-1225.752797
1401.724327,-9992.780217,3923.091493,-229.828649
1401.724647,-9992.780217,3997.112087,612.876398
1401.724968,-10510.924376,2960.823768,2145.067394
1401.725289,-10510.924376,2294.638420,2987.772442
1401.725610,-10214.842000,888.247130,2834.553343
1401.725930,-9548.656652,444.123565,3294.210641
1401.726251,-9178.553681,-222.061783,2528.115143
1401.726572,-8660.409521,0.000000,1838.629195
1401.726893,-8364.327145,962.267725,842.705048
1401.727213,-8512.368333,2664.741391,1302.362347
1401.727534,-8734.430116,4589.276840,459.657299
1401.727855,-9770.718434,4737.318029,919.314598
1401.728176,-10288.862594,4441.235652,995.924147
1401.728496,-10732.986159,2960.823768,842.705048
1401.728817,-11399.171507,3404.947333,-459.657299
1401.729138,-10807.006753,3108.864956,995.924147
1401.729458,-11399.171507,2368.659014,1838.629195
1401.729779,-10066.800811,2664.741391,1838.629195
1401.730100,-10066.800811,1332.370696,2145.067394
1401.730421,-10288.862594,74.020594,2221.676944
1401.730741,-9030.512492,-1850.514855,1378.971896
1401.731062,-9548.656652,-2664.741391,995.924147
1401.731383,-9252.574275,-2442.679609,0.000000
1401.731704,-8216.285956,-2368.659014,-2528.115143
1401.732024,-8956.491898,0.000000,-1838.629195
1401.732345,-8586.388927,1776.494261,-3447.429741
1401.732666,-9696.697840,3478.967927,-4213.525239
1401.732987,-10214.842000,4441.235652,-4519.963438
1401.733307,-9918.759623,5033.400406,-5669.106685
1401.733628,-10732.986159,4589.276840,-5745.716235
1401.733949,-10584.944971,5033.400406,-4673.182538
1401.734270,-10436.903782,2886.803174,-2911.162892
1401.734590,-9770.718434,1110.308913,-1762.019645
1401.734911,-9918.759623,-1850.514855,-1378.971896
1401.735232,-10140.821405,-4367.215058,-2374.896044
1401.735552,-7328.038826,-2960.823768,-1991.848295
1401.735873,-9844.739029,-2368.659014,-2221.676944
1401.736194,-7846.182985,518.144159,-612.876398
1401.736515,-7920.203579,0.000000,-3447.429741
1401.736835,-8142.265362,1258.350101,-3064.381992
1401.737156,-8216.285956,444.123565,-5515.887586
1401.737477,-9622.677246,2516.700203,-4290.134789
1401.737798,-10658.965565,5033.400406,-2374.896044
1401.738118,-10732.986159,5255.462188,-2221.676944
1401.738439,-11399.171507,4145.153275,-2451.505594
1401.738760,-10955.047942,2664.741391,-2374.896044
1401.739081,-10288.862594,2442.679609,-2757.943793
1401.739401,-11695.253884,1628.453072,-229.828649
1401.739722,-10066.800811,740.205942,689.485948
1401.740043,-9030.512492,0.000000,-229.828649
1401.740363,-9104.533087,0.000000,-306.438199
1401.740684,-8364.327145,1258.350101,1378.971896
1401.741005,-9622.677246,888.247130,3830.477490
1401.741326,-10140.821405,-888.247130,4136.915689
1401.741646,-8290.306550,-1924.535449,1762.019645
1401.741967,-8068.244768,-1554.432478,1302.362347
1401.742288,-9030.512492,1628.453072,766.095498
1401.742609,-10288.862594,4441.235652,2451.505594
1401.742929,-9918.759623,4663.297435,1455.581446
1401.743250,-9992.780217,4885.359217,-766.095498
1401.743571,-9770.718434,5477.523971,-1378.971896
1401.743892,-11325.150913,4737.318029,383.047749
1401.744212,-11547.212695,3108.864956,2757.943793
1401.744533,-10584.944971,1258.350101,1838.629195
1401.744854,-9104.533087,296.082377,0.000000
1401.745175,-9474.636058,888.247130,-919.314598
1401.745495,-9548.656652,1406.391290,459.657299
1401.745816,-9178.553681,1332.370696,0.000000
1401.746137,-8734.430116,2072.576638,-1302.362347
1401.746457,-8068.244768,2886.803174,-2374.896044
1401.746778,-9400.615463,2368.659014,-1532.190996
1401.747099,-9326.594869,1776.494261,-1532.190996
1401.747420,-9548.656652,1554.432478,-2221.676944
1401.747740,-9622.677246,4219.173869,-2987.772442
1401.748061,-10214.842000,4219.173869,-2834.553343
1401.748382,-9548.656652,3997.112087,-3370.820191
1401.748703,-9844.739029,4589.276840,-3677.258390
1401.749023,-10510.924376,5033.400406,-2681.334243
1401.749344,-10658.965565,4145.153275,-2221.676944
1401.749665,-9622.677246,1998.556043,-2987.772442
1401.749986,-8882.471304,148.041188,-3524.039291
1401.750306,-9548.656652,-1332.370696,-2911.162892
1401.750627,-8660.409521,-1332.370696,-2374.896044
1401.750948,-8660.409521,1110.308913,-1991.848295
1401.751268,-9844.739029,2294.638420,-1608.800546
1401.751589,-10066.800811,2886.803174,-1991.848295
1401.751910,-9992.780217,2368.659014,-1685.410096
1401.752231,-9252.574275,2294.638420,-3064.381992
1401.752551,-9992.780217,2812.782580,-2451.505594
1401.752872,-10510.924376,2442.679609,-995.924147
1401.753193,-9474.636058,1924.535449,-995.924147
1401.753514,-10955.047942,1554.432478,536.266849
1401.753834,-11251.130318,2368.659014,306.438199
1401.754155,-10066.800811,2220.617826,229.828649
1401.754476,-11103.089130,1702.473667,229.828649
1401.754797,-9104.533087,1258.350101,-919.314598
1401.755117,-8068.244768,1554.432478,-1685.410096
1401.755438,-8290.306550,1184.329507,-153.219100
1401.755759,-7698.141797,370.102971,-612.876398
1401.756080,-8068.244768,0.000000,-153.219100
1401.756400,-7920.203579,-1554.432478,153.219100
1401.756721,-9400.615463,1110.308913,0.000000
1401.757042,-11695.253884,2220.617826,1149.143247
1401.757362,-10362.883188,3627.009116,1225.752797
1401.757683,-10510.924376,4219.173869,1225.752797
1401.758004,-10362.883188,2738.761985,153.219100
1401.758325,-9474.636058,1036.288319,-612.876398
1401.758645,-10214.842000,0.000000,-919.314598
1401.758966,-8956.491898,1406.391290,-1225.752797
1401.759287,-10881.027347,1998.556043,306.438199
1401.759608,-9622.677246,1332.370696,1608.800546
1401.759928,-9178.553681,148.041188,766.095498
1401.760249,-10436.903782,-518.144159,0.000000
1401.760570,-9178.553681,1628.453072,-612.876398
1401.760891,-9696.697840,2368.659014,153.219100
1401.761211,-9474.636058,2072.576638,229.828649
1401.761532,-9252.574275,1036.288319,-1149.143247
1401.761853,-9104.533087,222.061783,-2528.115143
1401.762174,-8068.244768,888.247130,-3217.601092
1401.762492,-10510.924376,666.185348,-2911.162892
1401.762813,-9252.574275,4367.215058,-842.705048
1401.763133,-11695.253884,2812.782580,-689.485948
1401.763454,-9992.780217,2664.741391,-612.876398
1401.763775,-10584.944971,-148.041188,-2451.505594
1401.764095,-10436.903782,-1184.329507,-2451.505594
1401.764416,-9030.512492,148.041188,-3370.820191
1401.764737,-9770.718434,2072.576638,-1378.971896
1401.765057,-10436.903782,1406.391290,689.485948
1401.765378,-7179.997637,1036.288319,-3524.039291
1401.765699,-9252.574275,888.247130,-2681.334243
1401.766019,-9030.512492,814.226536,-3064.381992
1401.766340,-8364.327145,3404.947333,-1225.752797
1401.766661,-11843.295072,1406.391290,-612.876398
1401.766981,-8068.244768,1850.514855,-1915.238745
1401.767302,-8364.327145,1406.391290,-2834.553343
1401.767623,-10807.006753,1332.370696,0.000000
1401.767943,-8882.471304,1776.494261,-919.314598
1401.768264,-10214.842000,2146.597232,-766.095498
1401.768585,-9622.677246,1702.473667,-1685.410096
1401.768905,-7550.100608,3404.947333,-3370.820191
1401.769226,-10658.965565,2072.576638,-995.924147
1401.769547,-9400.615463,3552.988522,1072.533697
1401.769867,-10658.965565,2960.823768,1685.410096
1401.770188,-12213.398043,296.082377,2528.115143
1401.770509,-10584.944971,592.164754,1378.971896
1401.770829,-11103.089130,1110.308913,2068.457845
1401.771150,-10732.986159,2738.761985,2451.505594
1401.771471,-9992.780217,3701.029710,3753.867940
1401.771791,-8956.491898,370.102971,919.314598
1401.772112,-7698.141797,518.144159,-1225.752797
1401.772433,-9474.636058,148.041188,-1762.019645
1401.772753,-8734.430116,888.247130,0.000000
1401.773074,-10140.821405,2812.782580,2911.162892
1401.773395,-10140.821405,814.226536,2757.943793
1401.773715,-7476.080014,666.185348,689.485948
1401.774036,-11251.130318,-1480.411884,1991.848295
1401.774357,-9474.636058,1184.329507,1991.848295
1401.774677,-11029.068536,74.020594,2757.943793
1401.774998,-9400.615463,-1406.391290,2451.505594
1401.775319,-7402.059420,-962.267725,-383.047749
1401.775639,-9400.615463,222.061783,-612.876398
1401.775960,-9474.636058,2886.803174,1915.238745
1401.776281,-10510.924376,1924.535449,2834.553343
1401.776601,-10881.027347,-888.247130,2451.505594
1401.776922,-8068.244768,-2738.761985,-1685.410096
1401.777243,-9548.656652,-2368.659014,-1532.190996
1401.777563,-9252.574275,-740.205942,1302.362347
1401.777884,-11399.171507,-1924.535449,3064.381992
1401.778205,-8808.450710,0.000000,842.705048
1401.778525,-8438.347739,-666.185348,-766.095498
1401.778846,-9474.636058,-666.185348,-842.705048
1401.779166,-9844.739029,1110.308913,76.609550
1401.779487,-10510.924376,-2442.679609,-1685.410096
1401.779808,-6439.791695,222.061783,-3140.991542
1401.780128,-8068.244768,814.226536,-2987.772442
1401.780449,-10436.903782,222.061783,229.828649
1401.780770,-10658.965565,-1406.391290,1072.533697
1401.781090,-11473.192101,-2442.679609,383.047749
1401.781411,-9844.739029,-2516.700203,-383.047749
1401.781732,-10288.862594,-1036.288319,-766.095498
1401.782052,-10140.821405,2368.659014,3524.039291
1401.782373,-12509.480420,-666.185348,4290.134789
1401.782694,-8660.409521,-2294.638420,1302.362347
1401.783014,-8882.471304,-3552.988522,-1225.752797
1401.783335,-8734.430116,-1998.556043,-153.219100
1401.783656,-10214.842000,0.000000,2604.724693
1401.783976,-11399.171507,-444.123565,4136.915689
1401.784297,-8660.409521,888.247130,842.705048
1401.784618,-9030.512492,1406.391290,-306.438199
1401.784938,-9474.636058,1258.350101,1532.190996
1401.785259,-10436.903782,222.061783,3217.601092
1401.785580,-10436.903782,-3034.844362,2145.067394
1401.785900,-8882.471304,-2072.576638,-153.219100
1401.786221,-9030.512492,-148.041188,842.705048
1401.786542,-9770.718434,666.185348,2604.724693
1401.786862,-10955.047942,1184.329507,5669.106685
1401.787183,-9770.718434,-814.226536,3983.696590
1401.787504,-8956.491898,-2960.823768,306.438199
1401.787824,-9104.533087,-1702.473667,1915.238745
1401.788145,-10658.965565,-1998.556043,5209.449386
1401.788466,-9992.780217,-2516.700203,5132.839837
1401.788786,-8586.388927,-2368.659014,2528.115143
1401.789107,-6957.935855,-1184.329507,0.000000
1401.789428,-7254.018232,296.082377,612.876398
1401.789748,-10214.842000,1332.370696,3447.429741
1401.790069,-9474.636058,-370.102971,2604.724693
1401.790390,-9992.780217,-1332.370696,-689.485948
1401.790710,-8216.285956,1776.494261,-536.266849
1401.791031,-9400.615463,2516.700203,919.314598
1401.791352,-11473.192101,1332.370696,3294.210641
1401.791672,-10881.027347,666.185348,3447.429741
1401.791993,-9696.697840,-666.185348,612.876398
1401.792314,-10288.862594,74.020594,229.828649
1401.792634,-10436.903782,296.082377,1149.143247
1401.792955,-9474.636058,222.061783,1149.143247
1401.793276,-8438.347739,-1702.473667,-1225.752797
1401.793596,-6291.750507,814.226536,-4213.525239
1401.793917,-8216.285956,1628.453072,-1225.752797
1401.794238,-9548.656652,-888.247130,1225.752797
1401.794558,-10214.842000,-1110.308913,919.314598
1401.794879,-10807.006753,-2072.576638,-689.485948
1401.795200,-9770.718434,518.144159,-1302.362347
1401.795520,-11399.171507,1554.432478,536.266849
1401.795841,-11177.109724,2812.782580,2834.553343
1401.796162,-12657.521608,-3997.112087,2068.457845
1401.796482,-6957.935855,-2886.803174,-3370.820191
1401.796803,-9104.533087,-518.144159,-3064.381992
1401.797123,-11029.068536,1628.453072,-766.095498
1401.797444,-8142.265362,1110.308913,2221.676944
1401.797765,-9992.780217,-2146.597232,306.438199
1401.798085,-9252.574275,0.000000,383.047749
1401.798406,-7550.100608,-2072.576638,-1608.800546
1401.798727,-13619.789333,-370.102971,5132.839837
1401.799047,-9030.512492,-2294.638420,3600.648841
1401.799368,-10584.944971,-2072.576638,229.828649
1401.799689,-8882.471304,222.061783,1762.019645
1401.800009,-7624.121203,888.247130,-842.705048
1401.800330,-9696.697840,2442.679609,2528.115143
1401.800651,-11029.068536,296.082377,3907.087040
1401.800971,-7031.956449,0.000000,229.828649
1401.801292,-10732.986159,-1258.350101,842.705048
1401.801613,-9918.759623,444.123565,3294.210641
1401.801933,-9400.615463,0.000000,4596.572988
1401.802254,-11251.130318,-3923.091493,3677.258390
1401.802575,-7994.224174,-888.247130,766.095498
1401.802895,-8364.327145,-518.144159,383.047749
1401.803216,-8364.327145,74.020594,1378.971896
1401.803537,-8586.388927,-888.247130,3370.820191
1401.803857,-9918.759623,-2368.659014,2068.457845
1401.804178,-8512.368333,-1480.411884,766.095498
1401.804499,-9992.780217,-370.102971,2528.115143
1401.804819,-10732.986159,-296.082377,4366.744339
1401.805140,-12065.356855,-2590.720797,4290.134789
1401.805461,-9474.636058,-1776.494261,1225.752797
1401.805781,-8290.306550,1258.350101,-1685.410096
1401.806102,-9474.636058,2072.576638,459.657299
1401.806423,-10288.862594,888.247130,2298.286494
1401.806743,-9918.759623,-2368.659014,536.266849
1401.807064,-9252.574275,-1332.370696,-1532.190996
1401.807385,-8808.450710,296.082377,-383.047749
1401.807705,-10881.027347,-740.205942,1302.362347
1401.808026,-11103.089130,-1036.288319,2987.772442
1401.808347,-9548.656652,-1332.370696,383.047749
1401.808667,-10732.986159,74.020594,-2068.457845
1401.808988,-8660.409521,2072.576638,-766.095498
1401.809309,-9844.739029,2220.617826,1225.752797
1401.809629,-10066.800811,-888.247130,919.314598
1401.809950,-8364.327145,-2220.617826,-2221.676944
1401.810271,-9030.512492,-962.267725,-1532.190996
1401.810591,-7920.203579,592.164754,-1455.581446
1401.810912,-10288.862594,1406.391290,766.095498
1401.811233,-10584.944971,-740.205942,2145.067394
1401.811553,-9104.533087,-1554.432478,-2068.457845
1401.811874,-9844.739029,1110.308913,-689.485948
1401.812195,-11177.109724,1702.473667,1915.238745
1401.812515,-12435.459826,370.102971,4136.915689
1401.812836,-11029.068536,-1110.308913,2145.067394
1401.813157,-9548.656652,-592.164754,-919.314598
1401.813477,-8512.368333,1110.308913,-1072.533697
1401.813798,-9548.656652,1406.391290,689.485948
1401.814119,-9770.718434,-148.041188,995.924147
1401.814439,-7624.121203,-666.185348,-1532.190996
1401.814760,-7846.182985,1258.350101,-1378.971896
1401.815081,-9474.636058,1406.391290,842.705048
1401.815401,-10658.965565,592.164754,3907.087040
1401.815722,-10510.924376,-2368.659014,2221.676944
1401.816042,-9474.636058,-2368.659014,1302.362347
1401.816363,-9918.759623,-518.144159,919.314598
1401.816684,-9992.780217,2072.576638,3677.258390
1401.817004,-9696.697840,370.102971,4290.134789
1401.817325,-8438.347739,-1480.411884,1149.143247
1401.817646,-8290.306550,-444.123565,-306.438199
1401.817966,-8586.388927,1332.370696,842.705048
1401.818287,-9844.739029,1036.288319,3370.820191
1401.818608,-9844.739029,-3108.864956,6358.592633
1401.818928,-8290.306550,-5995.668130,383.047749
1401.819249,-6217.729913,-1332.370696,-995.924147
1401.819570,-10584.944971,-1924.535449,1608.800546
1401.819890,-8512.368333,1480.411884,3600.648841
1401.820211,-10436.903782,-518.144159,4213.525239
1401.820532,-8512.368333,-740.205942,153.219100
1401.820852,-8512.368333,1332.370696,306.438199
1401.821173,-10955.047942,740.205942,3064.381992
1401.821494,-10288.862594,-1110.308913,4290.134789
1401.821814,-9696.697840,-2812.782580,1455.581446
1401.822135,-9326.594869,-1184.329507,-383.047749
1401.822456,-9326.594869,444.123565,0.000000
1401.822776,-10732.986159,2294.638420,1608.800546
1401.823097,-10214.842000,0.000000,2145.067394
1401.823418,-8216.285956,-518.144159,-1072.533697
1401.823738,-10140.821405,-740.205942,-2068.457845
1401.824059,-8956.491898,1258.350101,-766.095498
1401.824380,-11843.295072,666.185348,1532.190996
1401.824700,-10807.006753,-1998.556043,1149.143247
1401.825021,-9548.656652,-1480.411884,-1455.581446
1401.825342,-11769.274478,-296.082377,-612.876398
1401.825662,-11399.171507,888.247130,1762.019645
1401.825983,-12139.377449,148.041188,3370.820191
1401.826304,-11177.109724,-3404.947333,1685.410096
1401.826624,-7772.162391,-3552.988522,-3753.867940
1401.826945,-8216.285956,-592.164754,-4290.134789
1401.827266,-8956.491898,1924.535449,-1532.190996
1401.827586,-8956.491898,1480.411884,612.876398
1401.827907,-8586.388927,-1036.288319,-229.828649
1401.828228,-8808.450710,-1332.370696,-1302.362347
1401.828548,-9770.718434,666.185348,-306.438199
1401.828869,-12509.480420,1554.432478,4366.744339
1401.829190,-11325.150913,-666.185348,4673.182538
1401.829510,-8882.471304,-666.185348,612.876398
1401.829831,-8882.471304,814.226536,-612.876398
1401.830152,-8882.471304,1628.453072,2221.676944
1401.830472,-8882.471304,-1184.329507,3140.991542
1401.830793,-8734.430116,-3478.967927,1072.533697
1401.831114,-7328.038826,-1036.288319,-689.485948
1401.831434,-9400.615463,296.082377,459.657299
1401.831755,-8364.327145,1332.370696,5592.497135
1401.832076,-10288.862594,-222.061783,6052.154434
1401.832396,-9622.677246,-2590.720797,2757.943793
1401.832717,-8586.388927,-518.144159,842.705048
1401.833038,-9030.512492,-370.102971,2451.505594
1401.833358,-10214.842000,-370.102971,4213.525239
1401.833679,-10288.862594,-2220.617826,3830.477490
1401.833999,-8734.430116,-1924.535449,1072.533697
1401.834320,-7994.224174,0.000000,-229.828649
1401.834641,-9844.739029,962.267725,1915.238745
1401.834961,-10140.821405,1776.494261,2987.772442
1401.835282,-10881.027347,-1036.288319,2834.553343
1401.835603,-9178.553681,-740.205942,153.219100
1401.835923,-9474.636058,-148.041188,383.047749
1401.836244,-11103.089130,-962.267725,1991.848295
1401.836565,-10955.047942,-962.267725,2145.067394
1401.836885,-8882.471304,-2294.638420,-612.876398
1401.837206,-8216.285956,-592.164754,-2681.334243
1401.837527,-7772.162391,2072.576638,-1915.238745
1401.837847,-10436.903782,2886.803174,2068.457845
1401.838168,-12509.480420,0.000000,3524.039291
1401.838489,-10881.027347,-1184.329507,1225.752797
1401.838809,-11769.274478,-1036.288319,306.438199
1401.839130,-10214.842000,888.247130,536.266849
1401.839451,-12139.377449,1036.288319,2757.943793
1401.839771,-11177.109724,-814.226536,1991.848295
1401.840092,-8068.244768,-962.267725,-2681.334243
1401.840413,-7550.100608,0.000000,-4749.792088
1401.840733,-8438.347739,1702.473667,-1915.238745
1401.841054,-9622.677246,222.061783,612.876398
1401.841375,-9548.656652,-1554.432478,919.314598
1401.841695,-9030.512492,-1258.350101,-1149.143247
1401.842016,-9918.759623,888.247130,153.219100
1401.842337,-12361.439231,148.041188,3983.696590
1401.842657,-12065.356855,-1110.308913,6052.154434
1401.842978,-10214.842000,-2738.761985,2987.772442
1401.843299,-9474.636058,-1258.350101,0.000000
1401.843619,-7994.224174,-370.102971,-995.924147
1401.843940,-8364.327145,0.000000,-1149.143247
1401.844261,-7254.018232,-888.247130,-306.438199
1401.844581,-6069.688724,-1554.432478,-2911.162892
1401.844902,-6957.935855,296.082377,-3064.381992
1401.845223,-9030.512492,0.000000,995.924147
1401.845543,-10955.047942,-518.144159,4443.353888
1401.845864,-11399.171507,-2590.720797,5056.230287
1401.846185,-11621.233289,-1998.556043,3907.087040
1401.846505,-9696.697840,-370.102971,3677.258390
1401.846826,-10510.924376,-370.102971,4213.525239
1401.847147,-9474.636058,-592.164754,3677.258390
1401.847467,-7476.080014,-962.267725,766.095498
1401.847788,-7254.018232,0.000000,-459.657299
1401.848109,-7550.100608,1628.453072,153.219100
1401.848429,-9548.656652,888.247130,2298.286494
1401.848750,-9474.636058,-1184.329507,2834.553343
1401.849071,-9992.780217,-1036.288319,1532.190996
1401.849391,-11399.171507,740.205942,2604.724693
1401.849712,-10584.944971,2146.597232,3370.820191
1401.850033,-11695.253884,666.185348,6511.811733
1401.850353,-11103.089130,-3256.906145,3294.210641
1401.850674,-9474.636058,-1332.370696,612.876398
1401.850995,-9548.656652,-2072.576638,919.314598
1401.851315,-8956.491898,-1110.308913,536.266849
1401.851636,-8512.368333,-370.102971,1072.533697
1401.851957,-8882.471304,-1776.494261,-612.876398
1401.852277,-8586.388927,888.247130,-2451.505594
1401.852598,-9770.718434,1702.473667,-306.438199
1401.852918,-11399.171507,370.102971,2374.896044
1401.853239,-10732.986159,-2294.638420,1225.752797
1401.853560,-9548.656652,-4589.276840,-459.657299
1401.853880,-9252.574275,-1184.329507,-689.485948
1401.854201,-8734.430116,1776.494261,229.828649
1401.854522,-10732.986159,444.123565,919.314598
1401.854842,-9104.533087,518.144159,0.000000
1401.855163,-8808.450710,-222.061783,-3217.601092
1401.855484,-8586.388927,74.020594,-2221.676944
1401.855804,-9030.512492,888.247130,612.876398
1401.856125,-11251.130318,-3108.864956,1072.533697
1401.856446,-8586.388927,-1776.494261,-536.266849
1401.856766,-9030.512492,-1480.411884,-1685.410096
1401.857087,-8364.327145,1628.453072,153.219100
1401.857408,-11695.253884,2146.597232,3447.429741
1401.857728,-11103.089130,-370.102971,3753.867940
1401.858049,-8364.327145,-1998.556043,-612.876398
1401.858370,-9178.553681,1406.391290,-1149.143247
1401.858690,-9474.636058,3108.864956,842.705048
1401.859011,-10140.821405,2738.761985,2528.115143
1401.859332,-8438.347739,444.123565,1532.190996
1401.859652,-7031.956449,-962.267725,-1685.410096
1401.859973,-10214.842000,-814.226536,-1302.362347
1401.860294,-11029.068536,888.247130,3294.210641
1401.860614,-11917.315666,-1702.473667,4290.134789
1401.860935,-11029.068536,-740.205942,3907.087040
1401.861256,-9548.656652,814.226536,2221.676944
1401.861576,-11103.089130,-518.144159,2068.457845
1401.861897,-10584.944971,0.000000,3600.648841
1401.862218,-9252.574275,-2960.823768,0.000000
1401.862539,-7476.080014,0.000000,-995.924147
1401.862859,-8512.368333,74.020594,-2604.724693
1401.863180,-8438.347739,2812.782580,1225.752797
1401.863501,-9918.759623,1036.288319,2528.115143
1401.863822,-10658.965565,-2368.659014,2528.115143
1401.864142,-9400.615463,-2516.700203,1838.629195
1401.864463,-10288.862594,-2590.720797,1302.362347
1401.864784,-11547.212695,148.041188,4060.306139
1401.865105,-9844.739029,-814.226536,4366.744339
1401.865425,-8512.368333,-1332.370696,1762.019645
1401.865746,-8808.450710,0.000000,-842.705048
1401.866067,-7920.203579,1998.556043,-229.828649
1401.866388,-9918.759623,1776.494261,3140.991542
1401.866708,-9844.739029,-1702.473667,2451.505594
1401.867029,-9178.553681,-2960.823768,153.219100
1401.867350,-9844.739029,-2072.576638,-612.876398
1401.867671,-8438.347739,-444.123565,612.876398
1401.867991,-10732.986159,0.000000,2604.724693
1401.868312,-10732.986159,-1406.391290,3064.381992
1401.868633,-10140.821405,-1924.535449,536.266849
1401.868954,-9252.574275,-1998.556043,-3677.258390
1401.869274,-6439.791695,2294.638420,0.000000
1401.869595,-13767.830521,2368.659014,1685.410096
1401.869916,-8364.327145,222.061783,2145.067394
1401.870237,-8660.409521,-3330.926739,-3524.039291
1401.870557,-10584.944971,370.102971,76.609550
1401.870878,-7920.203579,-2442.679609,-3217.601092
1401.871199,-11325.150913,-1850.514855,1608.800546
1401.871520,-8142.265362,-740.205942,229.828649
1401.871840,-9474.636058,-222.061783,-2987.772442
1401.872161,-9622.677246,1924.535449,1608.800546
1401.872482,-10510.924376,-740.205942,2757.943793
1401.872803,-10510.924376,-2442.679609,2374.896044
1401.873123,-12139.377449,-3330.926739,1608.800546
1401.873444,-8956.491898,0.000000,383.047749
1401.873765,-9178.553681,1554.432478,153.219100
1401.874086,-10881.027347,1850.514855,1915.238745
1401.874406,-7920.203579,1036.288319,842.705048
1401.874727,-8290.306550,-962.267725,-1915.238745
1401.875048,-8290.306550,1184.329507,-536.266849
1401.875369,-9770.718434,1258.350101,2451.505594
1401.875689,-11399.171507,-1480.411884,5056.230287
1401.876010,-9918.759623,-2368.659014,4060.306139
1401.876331,-10362.883188,-666.185348,3524.039291
1401.876652,-8512.368333,962.267725,2451.505594
1401.876972,-10288.862594,1110.308913,3677.258390
1401.877293,-8956.491898,-814.226536,1685.410096
1401.877614,-8068.244768,-1850.514855,-1991.848295
1401.877935,-6883.915261,2072.576638,-842.705048
1401.878255,-8882.471304,2294.638420,766.095498
1401.878576,-9770.718434,1258.350101,3677.258390
1401.878897,-10584.944971,-2072.576638,3140.991542
1401.879218,-9400.615463,-2146.597232,919.314598
1401.879538,-11399.171507,-2146.597232,1149.143247
1401.879859,-9474.636058,666.185348,3830.477490
1401.880180,-11251.130318,-740.205942,4903.011187
1401.880500,-8882.471304,-2368.659014,1532.190996
1401.880821,-7772.162391,-444.123565,-459.657299
1401.881142,-8290.306550,0.000000,-766.095498
1401.881463,-9030.512492,-1036.288319,536.266849
1401.881783,-8734.430116,-740.205942,689.485948
1401.882104,-8882.471304,-1332.370696,0.000000
1401.882425,-8438.347739,-222.061783,-1838.629195
1401.882746,-10140.821405,1850.514855,2451.505594
1401.883066,-12213.398043,-1628.453072,2911.162892
1401.883387,-9696.697840,-1702.473667,1762.019645
1401.883708,-12065.356855,-74.020594,2451.505594
