#time,accel_x,accel_y,accel_z
766.841483,-10288.862594,-592.164754,-1149.143247
766.841804,-10066.800811,74.020594,0.000000
766.842124,-10436.903782,0.000000,0.000000
766.842445,-10066.800811,592.164754,766.095498
766.842766,-9992.780217,-518.144159,1225.752797
766.843086,-9474.636058,-1110.308913,3983.696590
766.843407,-9474.636058,-2072.576638,1149.143247
766.843727,-9326.594869,-1776.494261,766.095498
766.844048,-9178.553681,-1406.391290,919.314598
766.844369,-8882.471304,-1184.329507,689.485948
766.844689,-8808.450710,-1184.329507,1149.143247
766.845010,-9622.677246,-1480.411884,459.657299
766.845330,-9770.718434,-740.205942,1302.362347
766.845651,-10362.883188,-1184.329507,1225.752797
766.845972,-9474.636058,-1110.308913,1455.581446
766.846292,-9770.718434,-1332.370696,1149.143247
766.846613,-9474.636058,-518.144159,1072.533697
766.846934,-9474.636058,-518.144159,536.266849
766.847254,-9400.615463,-518.144159,2451.505594
766.847575,-8956.491898,-518.144159,1072.533697
766.847895,-9252.574275,-666.185348,842.705048
766.848216,-9104.533087,-1184.329507,383.047749
766.848537,-9178.553681,-962.267725,383.047749
766.848857,-9178.553681,-1184.329507,306.438199
766.849178,-9400.615463,-1480.411884,383.047749
766.849498,-9474.636058,-1776.494261,-76.609550
766.849819,-9548.656652,-2072.576638,-383.047749
766.850140,-9252.574275,-2220.617826,-1608.800546
766.850460,-9474.636058,-2220.617826,-1225.752797
766.850781,-9548.656652,-2516.700203,-1762.019645
766.851101,-9474.636058,-2368.659014,-2145.067394
766.851422,-9622.677246,-2738.761985,-2834.553343
766.851743,-9844.739029,-2220.617826,-2221.676944
766.852063,-9696.697840,-2442.679609,-1915.238745
766.852384,-9770.718434,-2368.659014,-1685.410096
766.852705,-10140.821405,-2220.617826,-1685.410096
766.853025,-9918.759623,-1776.494261,-1378.971896
766.853346,-9770.718434,-2294.638420,-1685.410096
766.853666,-9474.636058,-2146.597232,-1608.800546
766.853987,-9696.697840,-2368.659014,-1762.019645
766.854308,-9178.553681,-2368.659014,-1532.190996
766.854628,-9326.594869,-1554.432478,-2451.505594
766.854949,-9474.636058,-1776.494261,-2221.676944
766.855269,-9918.759623,-1628.453072,-2145.067394
766.855590,-8956.491898,-444.123565,-1302.362347
766.855911,-9918.759623,-1258.350101,-2145.067394
766.856231,-9770.718434,-1258.350101,-1685.410096
766.856552,-9992.780217,-1628.453072,-1455.581446
766.856873,-9918.759623,-1850.514855,-919.314598
766.857193,-9918.759623,-1776.494261,-689.485948
766.857514,-9770.718434,-2146.597232,-383.047749
766.857834,-9474.636058,-1924.535449,-153.219100
766.858155,-9178.553681,-2220.617826,0.000000
766.858476,-9030.512492,-2146.597232,536.266849
766.858796,-9104.533087,-1776.494261,612.876398
766.859117,-9030.512492,-1554.432478,842.705048
766.859437,-9326.594869,-1480.411884,1378.971896
766.859758,-9474.636058,-1776.494261,1685.410096
766.860079,-9474.636058,-962.267725,2298.286494
766.860399,-9622.677246,-666.185348,2451.505594
766.860720,-9770.718434,-740.205942,3064.381992
766.861040,-9548.656652,-888.247130,2834.553343
766.861361,-9474.636058,-1184.329507,2911.162892
766.861682,-9770.718434,-888.247130,3677.258390
766.862002,-9770.718434,-592.164754,3294.210641
766.862323,-9400.615463,-814.226536,3447.429741
766.862644,-8882.471304,-296.082377,3370.820191
766.862964,-9548.656652,0.000000,3524.039291
766.863285,-9548.656652,74.020594,3140.991542
766.863605,-9474.636058,296.082377,3447.429741
766.863926,-9474.636058,962.267725,3677.258390
766.864247,-9992.780217,888.247130,3753.867940
766.864567,-10140.821405,1406.391290,3830.477490
766.864888,-10288.862594,1406.391290,3753.867940
766.865209,-10066.800811,1702.473667,3600.648841
766.865530,-10066.800811,1554.432478,2987.772442
766.865851,-9992.780217,1628.453072,2681.334243
766.866172,-9548.656652,1628.453072,2298.286494
766.866493,-9622.677246,1406.391290,1685.410096
766.866813,-8882.471304,814.226536,2068.457845
766.867134,-9474.636058,1184.329507,1149.143247
766.867455,-9696.697840,1110.308913,459.657299
766.867776,-9770.718434,1332.370696,229.828649
766.868097,-9770.718434,1110.308913,-995.924147
766.868418,-9770.718434,962.267725,-536.266849
766.868739,-9770.718434,888.247130,-919.314598
766.869059,-9918.759623,740.205942,-995.924147
766.869380,-10066.800811,888.247130,-1378.971896
766.869701,-9548.656652,592.164754,-1072.533697
766.870022,-9548.656652,518.144159,-1225.752797
766.870343,-9326.594869,444.123565,-1302.362347
766.870664,-9326.594869,518.144159,-1225.752797
766.870985,-8956.491898,592.164754,-1225.752797
766.871305,-9326.594869,148.041188,-1225.752797
766.871626,-9326.594869,74.020594,-76.609550
766.871947,-9326.594869,148.041188,-536.266849
766.872268,-9474.636058,222.061783,-229.828649
766.872589,-9400.615463,74.020594,-153.219100
766.872910,-9178.553681,0.000000,-383.047749
766.873231,-9474.636058,0.000000,0.000000
766.873551,-9400.615463,-296.082377,153.219100
766.873872,-9696.697840,-740.205942,76.609550
766.874193,-9622.677246,-1110.308913,612.876398
766.874514,-9622.677246,-1110.308913,1149.143247
766.874835,-9844.739029,-1184.329507,1762.019645
766.875156,-10140.821405,-1036.288319,1302.362347
766.875477,-9844.739029,-1480.411884,1991.848295
766.875797,-9844.739029,-1332.370696,2374.896044
766.876118,-9918.759623,-1554.432478,2451.505594
766.876439,-9696.697840,-1258.350101,2757.943793
766.876760,-10066.800811,-1258.350101,3294.210641
766.877081,-9474.636058,-1184.329507,3524.039291
766.877402,-9696.697840,-1036.288319,3370.820191
766.877723,-9622.677246,-1184.329507,3753.867940
766.878043,-9474.636058,-1332.370696,3677.258390
766.878364,-10066.800811,-1258.350101,3600.648841
766.878685,-9992.780217,-1480.411884,3447.429741
766.879006,-9770.718434,-1480.411884,3140.991542
766.879327,-9696.697840,-888.247130,4366.744339
766.879648,-9696.697840,-1406.391290,2374.896044
766.879969,-9474.636058,-1480.411884,1915.238745
766.880289,-9474.636058,-1406.391290,1149.143247
766.880610,-9252.574275,-1184.329507,842.705048
766.880931,-9474.636058,-1554.432478,383.047749
766.881252,-9326.594869,-1480.411884,306.438199
766.881573,-9326.594869,-1110.308913,153.219100
766.881894,-9548.656652,-888.247130,0.000000
766.882215,-9770.718434,-666.185348,0.000000
766.882535,-9474.636058,-592.164754,229.828649
766.882856,-9474.636058,-370.102971,153.219100
766.883177,-9474.636058,-444.123565,229.828649
766.883498,-9474.636058,-666.185348,1225.752797
766.883819,-9326.594869,-444.123565,383.047749
766.884140,-9104.533087,-518.144159,-229.828649
766.884461,-9252.574275,-370.102971,-153.219100
766.884782,-9252.574275,-296.082377,-306.438199
766.885102,-9178.553681,-444.123565,-689.485948
766.885423,-9400.615463,0.000000,-536.266849
766.885744,-9474.636058,0.000000,-766.095498
766.886065,-9548.656652,0.000000,-383.047749
766.886386,-9474.636058,0.000000,0.000000
766.886707,-9918.759623,74.020594,0.000000
766.887028,-9992.780217,0.000000,153.219100
766.887348,-10066.800811,222.061783,459.657299
766.887669,-9548.656652,814.226536,2068.457845
766.887990,-9918.759623,1110.308913,1302.362347
766.888311,-10214.842000,1184.329507,1991.848295
766.888632,-9844.739029,1554.432478,1915.238745
766.888953,-10066.800811,1702.473667,2374.896044
766.889274,-9918.759623,1332.370696,2451.505594
766.889594,-9844.739029,1184.329507,2604.724693
766.889915,-9770.718434,1184.329507,2298.286494
766.890236,-9696.697840,888.247130,2451.505594
766.890557,-10362.883188,1258.350101,2145.067394
766.890878,-9992.780217,740.205942,2145.067394
766.891199,-9696.697840,444.123565,2298.286494
766.891520,-9548.656652,74.020594,1608.800546
766.891840,-9696.697840,74.020594,3753.867940
766.892161,-9622.677246,-74.020594,1915.238745
766.892482,-9548.656652,-444.123565,1991.848295
766.892803,-9548.656652,-666.185348,1378.971896
766.893124,-9474.636058,-666.185348,1762.019645
766.893445,-9474.636058,-740.205942,1838.629195
766.893766,-9400.615463,-888.247130,1685.410096
766.894086,-9400.615463,-592.164754,1685.410096
766.894407,-9030.512492,-592.164754,1608.800546
766.894728,-9252.574275,0.000000,1685.410096
766.895049,-9252.574275,-370.102971,1532.190996
766.895370,-9400.615463,-370.102971,1455.581446
766.895691,-9178.553681,-370.102971,1302.362347
766.896012,-9104.533087,-592.164754,1762.019645
766.896332,-9178.553681,-148.041188,612.876398
766.896653,-9400.615463,-148.041188,153.219100
766.896974,-9622.677246,-74.020594,459.657299
766.897295,-9474.636058,-222.061783,0.000000
766.897616,-9548.656652,-518.144159,-153.219100
766.897937,-9696.697840,-666.185348,0.000000
766.898258,-9844.739029,-888.247130,229.828649
766.898578,-9474.636058,-1036.288319,459.657299
766.898899,-9474.636058,-1258.350101,0.000000
766.899220,-9622.677246,-1332.370696,229.828649
766.899541,-9770.718434,-1258.350101,76.609550
766.899862,-9770.718434,-962.267725,536.266849
766.900183,-9696.697840,-1036.288319,1072.533697
766.900504,-9770.718434,-592.164754,766.095498
766.900824,-9696.697840,-740.205942,919.314598
766.901145,-9992.780217,-814.226536,1225.752797
766.901466,-9918.759623,-888.247130,1072.533697
766.901787,-9844.739029,-1036.288319,1225.752797
766.902108,-9548.656652,-1110.308913,919.314598
766.902429,-9622.677246,-814.226536,1072.533697
766.902750,-9548.656652,-814.226536,1072.533697
766.903070,-9474.636058,-962.267725,459.657299
766.903391,-9474.636058,-1036.288319,536.266849
766.903712,-9252.574275,-814.226536,536.266849
766.904033,-9474.636058,-1110.308913,536.266849
766.904354,-9696.697840,-962.267725,766.095498
766.904675,-9474.636058,-1406.391290,306.438199
766.904996,-9474.636058,-962.267725,229.828649
766.905316,-9474.636058,-1332.370696,153.219100
766.905637,-9400.615463,-1036.288319,919.314598
766.905958,-9474.636058,-1036.288319,766.095498
766.906279,-9400.615463,-962.267725,995.924147
766.906600,-9548.656652,-740.205942,1225.752797
766.906921,-9400.615463,-592.164754,1378.971896
766.907242,-10066.800811,222.061783,1838.629195
766.907562,-9474.636058,-370.102971,1838.629195
766.907883,-9326.594869,-148.041188,1838.629195
766.908204,-9326.594869,-296.082377,1302.362347
766.908525,-9474.636058,-222.061783,842.705048
766.908846,-9326.594869,-814.226536,766.095498
766.909167,-9474.636058,-666.185348,536.266849
766.909488,-9400.615463,-444.123565,459.657299
766.909808,-9622.677246,-666.185348,536.266849
766.910129,-9622.677246,-518.144159,1378.971896
766.910450,-9992.780217,-444.123565,995.924147
766.910771,-10066.800811,-222.061783,919.314598
766.911092,-10436.903782,0.000000,1302.362347
766.911413,-9252.574275,-518.144159,1149.143247
766.911734,-10066.800811,0.000000,1762.019645
766.912054,-10066.800811,296.082377,2068.457845
766.912375,-9770.718434,296.082377,1915.238745
766.912696,-9918.759623,296.082377,3140.991542
766.913017,-9770.718434,444.123565,1915.238745
766.913338,-9770.718434,592.164754,1838.629195
766.913659,-9622.677246,518.144159,1455.581446
766.913980,-9622.677246,740.205942,1225.752797
766.914300,-9474.636058,444.123565,919.314598
766.914621,-9770.718434,222.061783,919.314598
766.914942,-9844.739029,0.000000,842.705048
766.915263,-9918.759623,0.000000,383.047749
766.915584,-9844.739029,0.000000,536.266849
766.915905,-9918.759623,0.000000,306.438199
766.916226,-9696.697840,0.000000,766.095498
766.916546,-9622.677246,-296.082377,842.705048
766.916867,-9178.553681,-666.185348,306.438199
766.917188,-9474.636058,-444.123565,306.438199
766.917509,-9400.615463,-370.102971,689.485948
766.917830,-9474.636058,-370.102971,689.485948
766.918151,-9178.553681,-370.102971,689.485948
766.918472,-9030.512492,-148.041188,612.876398
766.918792,-9252.574275,0.000000,842.705048
766.919113,-9326.594869,0.000000,919.314598
766.919434,-9400.615463,0.000000,842.705048
766.919755,-9252.574275,-592.164754,76.609550
766.920076,-9474.636058,-296.082377,689.485948
766.920397,-9474.636058,-370.102971,612.876398
766.920718,-9548.656652,-444.123565,459.657299
766.921038,-9474.636058,-518.144159,919.314598
766.921359,-9696.697840,-518.144159,689.485948
766.921680,-9474.636058,-888.247130,766.095498
766.922001,-9400.615463,-592.164754,1225.752797
766.922322,-9548.656652,-740.205942,1378.971896
766.922643,-9474.636058,-740.205942,1225.752797
766.922964,-9548.656652,-444.123565,1608.800546
766.923284,-9622.677246,-740.205942,1608.800546
766.923605,-9696.697840,-518.144159,1991.848295
766.923926,-9844.739029,-740.205942,2068.457845
766.924247,-10066.800811,-370.102971,2528.115143
766.924568,-9622.677246,-222.061783,2681.334243
766.924889,-9918.759623,-592.164754,2681.334243
766.925210,-9548.656652,-666.185348,1915.238745
766.925530,-9696.697840,0.000000,2451.505594
766.925851,-9770.718434,-296.082377,2451.505594
766.926172,-9474.636058,-296.082377,1991.848295
766.926493,-9622.677246,-592.164754,1838.629195
766.926814,-9474.636058,-666.185348,1225.752797
766.927135,-9474.636058,-592.164754,1072.533697
766.927456,-9400.615463,-740.205942,995.924147
766.927776,-9400.615463,-814.226536,229.828649
766.928097,-9696.697840,-1184.329507,-306.438199
766.928418,-9474.636058,-592.164754,229.828649
766.928739,-9696.697840,-666.185348,229.828649
766.929060,-9622.677246,-666.185348,306.438199
766.929381,-9622.677246,-1776.494261,306.438199
766.929702,-9770.718434,-296.082377,383.047749
766.930022,-9622.677246,-296.082377,766.095498
766.930343,-9474.636058,0.000000,919.314598
766.930664,-9474.636058,148.041188,766.095498
766.930985,-9400.615463,74.020594,919.314598
766.931306,-9474.636058,0.000000,536.266849
766.931627,-9252.574275,148.041188,459.657299
766.931948,-9474.636058,0.000000,306.438199
766.932268,-9400.615463,0.000000,153.219100
766.932589,-9252.574275,-296.082377,0.000000
766.932910,-9326.594869,-296.082377,-76.609550
766.933231,-9696.697840,-370.102971,0.000000
766.933552,-9252.574275,0.000000,1225.752797
766.933873,-9918.759623,-814.226536,459.657299
766.934194,-9844.739029,-666.185348,766.095498
766.934514,-9992.780217,-444.123565,1149.143247
766.934835,-9844.739029,-296.082377,1532.190996
766.935156,-9992.780217,-444.123565,1838.629195
766.935477,-9992.780217,-222.061783,1915.238745
766.935798,-9844.739029,0.000000,2374.896044
766.936119,-9696.697840,0.000000,2451.505594
766.936440,-9844.739029,0.000000,2604.724693
766.936760,-9770.718434,518.144159,2451.505594
766.937081,-9696.697840,370.102971,2451.505594
766.937402,-9548.656652,518.144159,2145.067394
766.937723,-9918.759623,444.123565,1225.752797
766.938044,-9696.697840,74.020594,1762.019645
766.938365,-10066.800811,0.000000,1838.629195
766.938686,-9622.677246,-370.102971,1532.190996
766.939006,-9622.677246,-518.144159,1378.971896
766.939327,-9992.780217,-222.061783,1302.362347
766.939648,-9770.718434,-518.144159,1072.533697
766.939969,-9548.656652,-740.205942,919.314598
766.940290,-9474.636058,-592.164754,536.266849
766.940611,-8956.491898,-518.144159,1685.410096
766.940932,-9326.594869,-592.164754,1225.752797
766.941253,-9178.553681,-592.164754,1072.533697
766.941573,-9400.615463,-666.185348,1532.190996
766.941894,-9400.615463,518.144159,536.266849
766.942215,-9326.594869,-518.144159,842.705048
766.942536,-9474.636058,-296.082377,1225.752797
766.942857,-9474.636058,-296.082377,612.876398
766.943178,-9474.636058,-222.061783,689.485948
766.943499,-9326.594869,0.000000,612.876398
766.943819,-9400.615463,-222.061783,229.828649
766.944140,-9400.615463,-222.061783,229.828649
766.944461,-9474.636058,-148.041188,0.000000
766.944782,-9696.697840,-444.123565,306.438199
766.945103,-9474.636058,-370.102971,0.000000
766.945424,-9474.636058,-592.164754,153.219100
766.945745,-9770.718434,-444.123565,229.828649
766.946065,-9696.697840,-592.164754,-306.438199
766.946386,-9770.718434,-814.226536,306.438199
766.946707,-9622.677246,-518.144159,766.095498
766.947028,-9770.718434,-592.164754,1225.752797
766.947349,-9548.656652,-444.123565,1532.190996
766.947670,-9844.739029,-370.102971,1532.190996
766.947991,-9622.677246,-296.082377,1685.410096
766.948311,-9696.697840,-74.020594,1838.629195
766.948632,-9770.718434,0.000000,2221.676944
766.948953,-9770.718434,0.000000,2834.553343
766.949274,-9696.697840,0.000000,1762.019645
766.949595,-9622.677246,0.000000,1915.238745
766.949916,-9622.677246,0.000000,1685.410096
766.950237,-9474.636058,-444.123565,1685.410096
766.950557,-9696.697840,-370.102971,1455.581446
766.950878,-9696.697840,-518.144159,1225.752797
766.951199,-9474.636058,-740.205942,1072.533697
766.951520,-9548.656652,-888.247130,919.314598
766.951841,-9548.656652,-814.226536,995.924147
766.952162,-9474.636058,-740.205942,995.924147
766.952483,-9474.636058,-740.205942,766.095498
766.952803,-9548.656652,-370.102971,919.314598
766.953124,-9918.759623,-518.144159,1532.190996
766.953445,-9770.718434,-518.144159,1378.971896
766.953766,-9770.718434,-148.041188,1378.971896
766.954087,-9474.636058,0.000000,1302.362347
766.954408,-9474.636058,74.020594,2145.067394
766.954729,-9400.615463,0.000000,1302.362347
766.955049,-9548.656652,0.000000,1072.533697
766.955370,-9252.574275,0.000000,1072.533697
766.955691,-9252.574275,-222.061783,383.047749
766.956012,-9252.574275,-370.102971,0.000000
766.956333,-9400.615463,-592.164754,-153.219100
766.956654,-9400.615463,-666.185348,0.000000
766.956975,-9696.697840,-592.164754,383.047749
766.957295,-9844.739029,-1258.350101,229.828649
766.957616,-9918.759623,-814.226536,229.828649
766.957937,-10288.862594,-740.205942,766.095498
766.958258,-10066.800811,-592.164754,1072.533697
766.958579,-9844.739029,-222.061783,1685.410096
766.958900,-9770.718434,-148.041188,1302.362347
766.959221,-9622.677246,0.000000,1455.581446
766.959541,-9696.697840,148.041188,1608.800546
766.959862,-9474.636058,444.123565,1838.629195
766.960183,-9326.594869,74.020594,1991.848295
766.960504,-9548.656652,370.102971,1838.629195
766.960825,-9474.636058,74.020594,1685.410096
766.961146,-9548.656652,222.061783,1532.190996
766.961467,-8808.450710,740.205942,2145.067394
766.961787,-9844.739029,0.000000,1149.143247
766.962108,-9622.677246,-222.061783,1072.533697
766.962429,-9474.636058,-296.082377,459.657299
766.962750,-9844.739029,-518.144159,766.095498
766.963071,-9622.677246,-370.102971,766.095498
766.963392,-9548.656652,-296.082377,842.705048
766.963713,-9844.739029,-518.144159,842.705048
766.964033,-9548.656652,-814.226536,995.924147
766.964354,-9252.574275,-888.247130,383.047749
766.964675,-9622.677246,-814.226536,842.705048
766.964996,-9326.594869,-740.205942,612.876398
766.965316,-9622.677246,-666.185348,766.095498
766.965637,-9252.574275,-296.082377,1455.581446
766.965958,-9178.553681,-370.102971,1685.410096
766.966278,-9474.636058,-518.144159,1149.143247
766.966599,-9400.615463,-296.082377,1302.362347
766.966920,-9400.615463,-740.205942,995.924147
766.967241,-9474.636058,-444.123565,919.314598
766.967561,-9474.636058,-444.123565,842.705048
766.967882,-9326.594869,-296.082377,766.095498
766.968203,-9474.636058,-814.226536,766.095498
766.968524,-8734.430116,-444.123565,536.266849
766.968844,-9178.553681,-814.226536,536.266849
766.969165,-9400.615463,-592.164754,459.657299
766.969486,-9474.636058,-740.205942,766.095498
766.969807,-9770.718434,-296.082377,2221.676944
766.970127,-9918.759623,-370.102971,1455.581446
766.970448,-9844.739029,-444.123565,1455.581446
766.970769,-9918.759623,-296.082377,1532.190996
766.971090,-9918.759623,0.000000,2145.067394
766.971410,-9770.718434,74.020594,2145.067394
766.971731,-9918.759623,0.000000,2221.676944
766.972052,-9844.739029,0.000000,1991.848295
766.972373,-9770.718434,296.082377,2068.457845
766.972693,-8142.265362,0.000000,3370.820191
766.973014,-9474.636058,148.041188,1762.019645
766.973335,-9548.656652,222.061783,1532.190996
766.973655,-9622.677246,148.041188,1302.362347
766.973976,-9400.615463,74.020594,-689.485948
766.974297,-9548.656652,0.000000,1149.143247
766.974618,-9548.656652,-296.082377,1072.533697
766.974938,-9770.718434,-370.102971,689.485948
766.975259,-9622.677246,-1110.308913,536.266849
766.975580,-9918.759623,-962.267725,459.657299
766.975901,-9622.677246,-592.164754,383.047749
766.976221,-9622.677246,-592.164754,536.266849
766.976542,-9326.594869,-592.164754,842.705048
766.976863,-9252.574275,-1332.370696,2145.067394
766.977184,-9622.677246,-814.226536,1149.143247
766.977504,-9474.636058,-592.164754,842.705048
766.977825,-9400.615463,-740.205942,1225.752797
766.978146,-9548.656652,-222.061783,459.657299
766.978467,-9252.574275,-518.144159,1072.533697
766.978787,-9252.574275,-222.061783,995.924147
766.979108,-9326.594869,-370.102971,612.876398
766.979429,-9030.512492,-296.082377,306.438199
766.979750,-9548.656652,-518.144159,-153.219100
766.980070,-9400.615463,-296.082377,229.828649
766.980391,-9326.594869,-370.102971,383.047749
766.980712,-9474.636058,-666.185348,306.438199
766.981032,-9844.739029,0.000000,2451.505594
766.981353,-9770.718434,-296.082377,842.705048
766.981674,-9992.780217,-370.102971,1455.581446
766.981995,-9844.739029,-370.102971,1532.190996
766.982315,-9918.759623,-74.020594,1915.238745
766.982636,-9844.739029,0.000000,2068.457845
766.982957,-9622.677246,0.000000,1915.238745
766.983278,-10066.800811,148.041188,2145.067394
766.983598,-9918.759623,518.144159,2451.505594
766.983919,-10362.883188,666.185348,2145.067394
766.984240,-9696.697840,444.123565,1762.019645
766.984561,-9474.636058,296.082377,1685.410096
766.984881,-9696.697840,222.061783,1915.238745
766.985202,-9622.677246,74.020594,2987.772442
766.985523,-9622.677246,-148.041188,1378.971896
766.985844,-9548.656652,-592.164754,1072.533697
766.986164,-9844.739029,-370.102971,1072.533697
766.986485,-9844.739029,-592.164754,1455.581446
766.986806,-9548.656652,-888.247130,842.705048
766.987127,-9548.656652,-1110.308913,689.485948
766.987447,-9474.636058,-814.226536,919.314598
766.987768,-9622.677246,-740.205942,842.705048
766.988089,-9252.574275,-1184.329507,995.924147
766.988409,-9474.636058,-814.226536,1072.533697
766.988730,-9400.615463,-740.205942,766.095498
766.989051,-9474.636058,-518.144159,919.314598
766.989372,-9178.553681,0.000000,689.485948
766.989692,-9474.636058,-222.061783,995.924147
766.990013,-9400.615463,-222.061783,1149.143247
766.990334,-9474.636058,-518.144159,919.314598
766.990655,-9178.553681,-518.144159,-995.924147
766.990975,-9326.594869,-518.144159,229.828649
766.991296,-9400.615463,0.000000,459.657299
766.991617,-9252.574275,-148.041188,229.828649
766.991938,-9622.677246,0.000000,383.047749
766.992258,-9326.594869,-296.082377,76.609550
766.992579,-9474.636058,-592.164754,0.000000
766.992900,-9844.739029,-370.102971,919.314598
766.993221,-9474.636058,-518.144159,689.485948
766.993541,-10140.821405,-296.082377,459.657299
766.993862,-9844.739029,-148.041188,1225.752797
766.994183,-9622.677246,-148.041188,1302.362347
766.994503,-9992.780217,222.061783,1762.019645
766.994824,-9992.780217,0.000000,1685.410096
766.995145,-9696.697840,0.000000,2068.457845
766.995466,-10066.800811,296.082377,1838.629195
766.995786,-9622.677246,444.123565,2145.067394
766.996107,-9696.697840,444.123565,1838.629195
766.996428,-9548.656652,370.102971,1685.410096
766.996749,-9622.677246,222.061783,1685.410096
766.997069,-9844.739029,0.000000,1302.362347
766.997390,-9770.718434,-148.041188,1378.971896
766.997711,-8660.409521,0.000000,1991.848295
766.998032,-9622.677246,-444.123565,1532.190996
766.998352,-9548.656652,-592.164754,1225.752797
766.998673,-9474.636058,-666.185348,919.314598
766.998994,-9770.718434,-1184.329507,1532.190996
766.999315,-9474.636058,-1184.329507,689.485948
766.999635,-9474.636058,-888.247130,919.314598
766.999956,-9548.656652,-1036.288319,1149.143247
767.000277,-9474.636058,-740.205942,1225.752797
767.000598,-9696.697840,0.000000,1455.581446
767.000918,-9622.677246,-518.144159,1455.581446
767.001239,-9474.636058,-666.185348,1455.581446
767.001560,-9474.636058,-296.082377,1072.533697
767.001880,-9474.636058,518.144159,2298.286494
767.002201,-9030.512492,0.000000,766.095498
767.002522,-9030.512492,148.041188,919.314598
767.002843,-9104.533087,-296.082377,229.828649
767.003163,-9326.594869,-370.102971,76.609550
767.003484,-9104.533087,-592.164754,0.000000
767.003805,-9474.636058,-518.144159,76.609550
767.004126,-9770.718434,-592.164754,76.609550
767.004446,-9696.697840,-444.123565,306.438199
767.004767,-9696.697840,-666.185348,306.438199
767.005088,-9548.656652,-518.144159,766.095498
767.005409,-9770.718434,-592.164754,919.314598
767.005729,-9992.780217,-370.102971,842.705048
767.006050,-10140.821405,-666.185348,2451.505594
767.006371,-9918.759623,-370.102971,1072.533697
767.006692,-9696.697840,0.000000,1225.752797
767.007012,-9918.759623,0.000000,1378.971896
767.007333,-9844.739029,148.041188,1762.019645
767.007654,-9548.656652,0.000000,1455.581446
767.007975,-9548.656652,-296.082377,842.705048
767.008295,-9696.697840,0.000000,995.924147
767.008616,-9918.759623,-296.082377,919.314598
767.008937,-9992.780217,-148.041188,842.705048
767.009257,-9918.759623,-296.082377,842.705048
767.009578,-9844.739029,-592.164754,766.095498
767.009899,-9770.718434,-222.061783,689.485948
767.010220,-9918.759623,0.000000,-459.657299
767.010540,-9844.739029,-814.226536,919.314598
767.010861,-9474.636058,-740.205942,842.705048
767.011182,-9622.677246,-666.185348,689.485948
767.011503,-9474.636058,-740.205942,1608.800546
767.011823,-9844.739029,-592.164754,995.924147
767.012144,-9474.636058,-518.144159,1072.533697
767.012465,-9474.636058,-444.123565,1225.752797
767.012786,-9400.615463,-444.123565,1378.971896
767.013106,-9474.636058,-444.123565,1302.362347
767.013427,-9326.594869,-444.123565,1608.800546
767.013748,-9474.636058,-296.082377,1455.581446
767.014069,-9400.615463,-370.102971,1532.190996
767.014389,-9252.574275,-962.267725,995.924147
767.014710,-9400.615463,-444.123565,1378.971896
767.015031,-9474.636058,-444.123565,1455.581446
767.015352,-9474.636058,-518.144159,1302.362347
767.015672,-9252.574275,-592.164754,459.657299
767.015993,-9326.594869,-740.205942,1225.752797
767.016314,-9474.636058,-888.247130,1149.143247
767.016634,-9474.636058,-962.267725,1149.143247
767.016955,-9622.677246,-888.247130,1072.533697
767.017276,-9696.697840,-962.267725,1072.533697
767.017597,-9770.718434,-740.205942,1225.752797
767.017917,-9844.739029,-592.164754,1532.190996
767.018238,-9844.739029,-518.144159,1991.848295
767.018559,-9548.656652,-370.102971,3064.381992
767.018880,-9622.677246,-222.061783,2221.676944
767.019200,-9770.718434,0.000000,1915.238745
767.019521,-9622.677246,0.000000,1991.848295
767.019842,-9696.697840,222.061783,2911.162892
767.020163,-9622.677246,296.082377,1608.800546
767.020483,-9474.636058,370.102971,1378.971896
767.020804,-9622.677246,74.020594,1072.533697
767.021125,-9844.739029,0.000000,536.266849
767.021446,-9622.677246,148.041188,842.705048
767.021766,-9992.780217,0.000000,76.609550
767.022087,-9696.697840,-222.061783,0.000000
767.022408,-9770.718434,-296.082377,0.000000
767.022729,-10066.800811,-296.082377,153.219100
767.023049,-9696.697840,-518.144159,-153.219100
767.023370,-9770.718434,-592.164754,0.000000
767.023691,-9696.697840,-296.082377,0.000000
767.024011,-9548.656652,-370.102971,0.000000
767.024332,-9770.718434,-296.082377,766.095498
767.024653,-9696.697840,0.000000,1072.533697
767.024974,-9622.677246,-296.082377,842.705048
767.025294,-9400.615463,0.000000,919.314598
767.025615,-9178.553681,-296.082377,1072.533697
767.025936,-9030.512492,0.000000,689.485948
767.026257,-9326.594869,0.000000,1072.533697
767.026577,-9030.512492,148.041188,306.438199
767.026898,-9400.615463,-518.144159,-536.266849
767.027219,-9474.636058,-592.164754,383.047749
767.027540,-9474.636058,-592.164754,689.485948
767.027860,-9770.718434,-740.205942,612.876398
767.028181,-9770.718434,-666.185348,306.438199
767.028502,-9622.677246,-740.205942,1302.362347
767.028823,-9770.718434,-518.144159,1378.971896
767.029143,-9770.718434,-370.102971,1991.848295
767.029464,-9844.739029,-74.020594,2298.286494
767.029785,-9844.739029,-296.082377,2145.067394
767.030106,-9770.718434,0.000000,2451.505594
767.030426,-9696.697840,0.000000,2374.896044
767.030747,-9474.636058,444.123565,2681.334243
767.031068,-9770.718434,0.000000,2374.896044
767.031388,-9474.636058,222.061783,2451.505594
767.031709,-9474.636058,-148.041188,2221.676944
767.032030,-9548.656652,74.020594,2068.457845
767.032351,-9696.697840,0.000000,2221.676944
767.032671,-9918.759623,-148.041188,1608.800546
767.032992,-9770.718434,-592.164754,1455.581446
767.033313,-9622.677246,-296.082377,1302.362347
767.033634,-10066.800811,-592.164754,919.314598
767.033954,-9918.759623,-666.185348,995.924147
767.034275,-9844.739029,-814.226536,842.705048
767.034596,-9474.636058,-962.267725,689.485948
767.034917,-9622.677246,-962.267725,612.876398
767.035237,-9844.739029,-592.164754,-689.485948
767.035558,-9622.677246,-666.185348,842.705048
767.035879,-9326.594869,-666.185348,919.314598
767.036200,-9474.636058,-740.205942,766.095498
767.036520,-9474.636058,-518.144159,1608.800546
767.036841,-9474.636058,-518.144159,919.314598
767.037162,-9474.636058,-296.082377,306.438199
767.037483,-9400.615463,-370.102971,536.266849
767.037803,-9400.615463,0.000000,459.657299
767.038124,-9696.697840,0.000000,153.219100
767.038445,-9474.636058,-74.020594,459.657299
767.038765,-9622.677246,-666.185348,0.000000
767.039086,-9474.636058,-592.164754,-76.609550
767.039407,-9400.615463,-222.061783,842.705048
767.039728,-9474.636058,-518.144159,76.609550
767.040048,-9622.677246,-740.205942,153.219100
767.040369,-9474.636058,-814.226536,383.047749
767.040690,-9770.718434,-518.144159,2068.457845
767.041011,-9844.739029,-444.123565,1149.143247
767.041331,-9696.697840,-222.061783,1378.971896
767.041652,-9770.718434,0.000000,1225.752797
767.041973,-9770.718434,148.041188,1532.190996
767.042294,-9844.739029,370.102971,1685.410096
767.042614,-9918.759623,74.020594,2068.457845
767.042935,-9918.759623,444.123565,2145.067394
767.043256,-9770.718434,222.061783,2298.286494
767.043577,-9178.553681,592.164754,1915.238745
767.043897,-9622.677246,148.041188,2145.067394
767.044218,-9622.677246,0.000000,1838.629195
767.044539,-9474.636058,-222.061783,1455.581446
767.044860,-9622.677246,444.123565,2528.115143
767.045180,-9844.739029,-518.144159,1378.971896
767.045501,-9770.718434,-814.226536,1378.971896
767.045822,-9770.718434,-814.226536,842.705048
767.046142,-9548.656652,-740.205942,459.657299
767.046463,-9252.574275,-888.247130,306.438199
767.046784,-9770.718434,-888.247130,536.266849
767.047105,-9548.656652,-518.144159,1302.362347
767.047425,-9696.697840,-518.144159,995.924147
767.047746,-9252.574275,-444.123565,1685.410096
767.048067,-9622.677246,-444.123565,1685.410096
767.048388,-9696.697840,0.000000,1685.410096
767.048708,-9474.636058,-148.041188,1378.971896
767.049029,-9400.615463,0.000000,229.828649
767.049350,-9400.615463,74.020594,1072.533697
767.049671,-9104.533087,0.000000,766.095498
767.049991,-8956.491898,0.000000,536.266849
767.050312,-9252.574275,-296.082377,229.828649
767.050633,-9326.594869,-296.082377,229.828649
767.050954,-9326.594869,-444.123565,0.000000
767.051274,-9622.677246,-148.041188,153.219100
767.051595,-9770.718434,-296.082377,153.219100
767.051916,-9474.636058,-444.123565,153.219100
767.052236,-10066.800811,-370.102971,842.705048
767.052557,-9844.739029,-222.061783,1532.190996
767.052878,-9844.739029,-222.061783,1608.800546
767.053199,-9696.697840,148.041188,1608.800546
767.053519,-9548.656652,-296.082377,1762.019645
767.053840,-9622.677246,0.000000,1532.190996
767.054161,-9474.636058,0.000000,1915.238745
767.054482,-9474.636058,0.000000,1991.848295
767.054802,-9548.656652,0.000000,1685.410096
767.055123,-9326.594869,0.000000,1532.190996
767.055444,-9548.656652,0.000000,1302.362347
767.055765,-9696.697840,-74.020594,1532.190996
767.056085,-10436.903782,-222.061783,1455.581446
767.056406,-9770.718434,0.000000,1455.581446
767.056727,-9992.780217,-666.185348,1072.533697
767.057048,-9770.718434,-444.123565,995.924147
767.057368,-9696.697840,-444.123565,1915.238745
767.057689,-9548.656652,-444.123565,459.657299
767.058010,-9548.656652,-814.226536,612.876398
767.058331,-9400.615463,-666.185348,689.485948
767.058651,-9474.636058,-1036.288319,689.485948
767.058972,-9400.615463,-740.205942,536.266849
767.059293,-9474.636058,-740.205942,995.924147
767.059613,-9548.656652,-222.061783,1072.533697
767.059934,-9844.739029,0.000000,1685.410096
767.060255,-9178.553681,-444.123565,1455.581446
767.060576,-9696.697840,-222.061783,1302.362347
767.060896,-9474.636058,-444.123565,689.485948
767.061217,-9474.636058,-222.061783,689.485948
767.061538,-9030.512492,-296.082377,689.485948
767.061859,-9548.656652,148.041188,459.657299
767.062179,-9474.636058,0.000000,689.485948
767.062500,-9400.615463,-222.061783,229.828649
767.062821,-9474.636058,-592.164754,76.609550
767.063142,-9400.615463,-814.226536,153.219100
767.063462,-9770.718434,-296.082377,766.095498
767.063783,-9696.697840,-814.226536,842.705048
767.064103,-9622.677246,-740.205942,919.314598
767.064424,-9030.512492,-296.082377,689.485948
767.064745,-9770.718434,-592.164754,1455.581446
767.065065,-9918.759623,-518.144159,1225.752797
767.065386,-9696.697840,-296.082377,1685.410096
767.065707,-9770.718434,-518.144159,2834.553343
767.066027,-9992.780217,0.000000,1915.238745
767.066348,-9918.759623,0.000000,1838.629195
767.066668,-9844.739029,0.000000,1915.238745
767.066989,-9474.636058,-296.082377,1762.019645
767.067310,-9474.636058,0.000000,1532.190996
767.067630,-9548.656652,0.000000,1149.143247
767.067951,-9548.656652,-370.102971,995.924147
767.068272,-9696.697840,-370.102971,995.924147
767.068592,-9474.636058,-1036.288319,-229.828649
767.068913,-9474.636058,-1036.288319,842.705048
767.069233,-9622.677246,-888.247130,919.314598
767.069554,-9548.656652,-1110.308913,766.095498
767.069875,-9548.656652,-1258.350101,153.219100
767.070195,-9474.636058,-888.247130,612.876398
767.070516,-9474.636058,-740.205942,842.705048
767.070837,-9474.636058,-592.164754,1072.533697
767.071157,-9844.739029,-518.144159,842.705048
767.071478,-9252.574275,-666.185348,1225.752797
767.071798,-9622.677246,-370.102971,1378.971896
767.072119,-9622.677246,-222.061783,1532.190996
767.072440,-9696.697840,0.000000,1762.019645
767.072760,-9474.636058,-222.061783,1072.533697
767.073081,-9252.574275,148.041188,1455.581446
767.073402,-9326.594869,0.000000,919.314598
767.073722,-9178.553681,0.000000,842.705048
767.074043,-9474.636058,74.020594,306.438199
767.074363,-9770.718434,962.267725,536.266849
767.074684,-9770.718434,0.000000,383.047749
767.075005,-9770.718434,-444.123565,919.314598
767.075325,-9992.780217,-444.123565,536.266849
767.075646,-9918.759623,-444.123565,612.876398
767.075967,-10066.800811,148.041188,1378.971896
767.076287,-9918.759623,0.000000,1455.581446
767.076608,-9992.780217,0.000000,1762.019645
767.076928,-9844.739029,148.041188,1838.629195
767.077249,-10510.924376,888.247130,1685.410096
767.077570,-9696.697840,296.082377,1915.238745
767.077890,-9548.656652,296.082377,1915.238745
767.078211,-9474.636058,74.020594,2221.676944
767.078532,-9474.636058,296.082377,1762.019645
767.078852,-9104.533087,0.000000,2068.457845
767.079173,-9474.636058,148.041188,1838.629195
767.079493,-9770.718434,-148.041188,1302.362347
767.079814,-9548.656652,-148.041188,1149.143247
767.080135,-9918.759623,-1628.453072,919.314598
767.080455,-9474.636058,-814.226536,536.266849
767.080776,-9918.759623,-962.267725,842.705048
767.081097,-9548.656652,-592.164754,689.485948
767.081417,-9622.677246,-740.205942,612.876398
767.081738,-9252.574275,-1184.329507,153.219100
767.082058,-9252.574275,-666.185348,153.219100
767.082379,-9474.636058,-296.082377,689.485948
767.082700,-9474.636058,-444.123565,612.876398
767.083020,-8956.491898,-148.041188,459.657299
767.083341,-9326.594869,-296.082377,919.314598
767.083662,-9326.594869,-222.061783,919.314598
767.083982,-9474.636058,-444.123565,766.095498
767.084303,-9474.636058,-148.041188,842.705048
767.084623,-9992.780217,-666.185348,1302.362347
767.084944,-9622.677246,0.000000,842.705048
767.085265,-9696.697840,-222.061783,612.876398
767.085585,-9474.636058,-370.102971,459.657299
767.085906,-9622.677246,-592.164754,459.657299
767.086226,-9400.615463,-740.205942,306.438199
767.086547,-9548.656652,-1036.288319,306.438199
767.086868,-9622.677246,-962.267725,383.047749
767.087188,-9400.615463,-1184.329507,612.876398
767.087509,-9696.697840,-444.123565,1072.533697
767.087830,-9770.718434,-1036.288319,1072.533697
767.088150,-9992.780217,-1110.308913,1762.019645
767.088471,-9844.739029,-962.267725,2068.457845
767.088791,-9918.759623,-148.041188,1838.629195
767.089112,-9844.739029,-1036.288319,2221.676944
767.089433,-9918.759623,-444.123565,2374.896044
767.089753,-10066.800811,0.000000,2681.334243
767.090074,-9770.718434,0.000000,2374.896044
767.090395,-9252.574275,296.082377,2145.067394
767.090715,-9474.636058,74.020594,1685.410096
767.091036,-9474.636058,296.082377,1838.629195
767.091356,-9548.656652,222.061783,1378.971896
767.091677,-9104.533087,740.205942,1455.581446
767.091998,-9474.636058,-222.061783,1302.362347
767.092318,-9548.656652,-148.041188,842.705048
767.092639,-9622.677246,-518.144159,1072.533697
767.092960,-9696.697840,-444.123565,2298.286494
767.093280,-9474.636058,-666.185348,536.266849
767.093601,-9474.636058,-592.164754,306.438199
767.093921,-9548.656652,-518.144159,383.047749
767.094242,-9548.656652,-296.082377,459.657299
767.094563,-9548.656652,-148.041188,842.705048
767.094883,-9622.677246,-444.123565,919.314598
767.095204,-9474.636058,-518.144159,612.876398
767.095525,-9474.636058,-222.061783,842.705048
767.095845,-9770.718434,0.000000,1149.143247
767.096166,-9474.636058,74.020594,1149.143247
767.096486,-9326.594869,0.000000,919.314598
767.096807,-9400.615463,148.041188,536.266849
767.097128,-9474.636058,222.061783,1149.143247
767.097448,-9326.594869,-148.041188,306.438199
767.097769,-9400.615463,0.000000,0.000000
767.098090,-9474.636058,-148.041188,0.000000
767.098410,-9474.636058,-296.082377,0.000000
767.098731,-9918.759623,-444.123565,383.047749
767.099051,-9844.739029,-222.061783,612.876398
767.099372,-9844.739029,-444.123565,919.314598
767.099693,-10066.800811,74.020594,1532.190996
767.100013,-10881.027347,222.061783,1302.362347
767.100334,-9992.780217,0.000000,2528.115143
767.100655,-9918.759623,74.020594,2298.286494
767.100975,-9770.718434,74.020594,2374.896044
767.101296,-9622.677246,-296.082377,1608.800546
767.101616,-9696.697840,222.061783,2221.676944
767.101937,-9400.615463,148.041188,1991.848295
767.102258,-9474.636058,148.041188,1608.800546
767.102578,-9400.615463,148.041188,1532.190996
767.102899,-9548.656652,74.020594,1838.629195
767.103220,-9696.697840,0.000000,1608.800546
767.103540,-9770.718434,-370.102971,1455.581446
767.103861,-9696.697840,-592.164754,1225.752797
767.104181,-9918.759623,-888.247130,1608.800546
767.104502,-9992.780217,-592.164754,1302.362347
767.104823,-9548.656652,-814.226536,612.876398
767.105143,-9400.615463,-962.267725,612.876398
767.105464,-9474.636058,-814.226536,1685.410096
767.105785,-9474.636058,-962.267725,919.314598
767.106105,-9400.615463,-888.247130,612.876398
767.106426,-9326.594869,-814.226536,536.266849
767.106746,-9252.574275,-740.205942,842.705048
767.107067,-9178.553681,-592.164754,995.924147
767.107388,-9252.574275,-592.164754,842.705048
767.107708,-9474.636058,-370.102971,919.314598
767.108029,-9474.636058,-592.164754,995.924147
767.108350,-9548.656652,-74.020594,919.314598
767.108670,-9474.636058,-518.144159,612.876398
767.108991,-9622.677246,-444.123565,306.438199
767.109311,-9474.636058,0.000000,76.609550
767.109632,-9474.636058,-222.061783,-612.876398
767.109953,-9326.594869,-592.164754,0.000000
767.110273,-9770.718434,-444.123565,0.000000
767.110594,-9474.636058,-518.144159,-76.609550
767.110914,-9770.718434,-592.164754,153.219100
767.111235,-9696.697840,-592.164754,1072.533697
767.111556,-9918.759623,-666.185348,766.095498
767.111876,-9918.759623,-518.144159,842.705048
767.112197,-9844.739029,-592.164754,1378.971896
767.112518,-10658.965565,444.123565,1149.143247
767.112838,-10140.821405,-370.102971,1608.800546
767.113159,-9770.718434,-148.041188,1838.629195
767.113479,-9992.780217,0.000000,1915.238745
767.113800,-9622.677246,0.000000,1762.019645
767.114121,-9918.759623,-296.082377,1685.410096
767.114441,-9474.636058,-222.061783,1762.019645
767.114762,-9474.636058,-592.164754,1532.190996
767.115083,-9770.718434,-666.185348,1455.581446
767.115403,-9548.656652,-518.144159,1532.190996
767.115724,-9474.636058,-592.164754,1302.362347
767.116044,-9474.636058,-814.226536,1072.533697
767.116365,-9474.636058,-592.164754,842.705048
767.116686,-9696.697840,0.000000,229.828649
767.117006,-9844.739029,-518.144159,612.876398
767.117327,-9696.697840,-592.164754,919.314598
767.117648,-9696.697840,-444.123565,842.705048
767.117968,-9696.697840,-222.061783,766.095498
767.118289,-9474.636058,-148.041188,995.924147
767.118609,-9400.615463,0.000000,1378.971896
767.118930,-9400.615463,0.000000,1378.971896
767.119251,-9474.636058,74.020594,1608.800546
767.119571,-9326.594869,518.144159,1302.362347
767.119892,-9326.594869,296.082377,842.705048
767.120213,-9326.594869,296.082377,842.705048
767.120533,-9252.574275,0.000000,919.314598
767.120854,-8956.491898,296.082377,-536.266849
767.121174,-9400.615463,0.000000,153.219100
767.121495,-9474.636058,-370.102971,306.438199
767.121816,-9622.677246,-296.082377,153.219100
767.122136,-9770.718434,-444.123565,536.266849
767.122457,-9770.718434,-518.144159,995.924147
767.122778,-9622.677246,-592.164754,689.485948
767.123098,-9844.739029,-222.061783,919.314598
767.123419,-9992.780217,-148.041188,1838.629195
767.123739,-9622.677246,-370.102971,1302.362347
767.124060,-9918.759623,0.000000,2221.676944
767.124381,-9770.718434,0.000000,1991.848295
767.124701,-9474.636058,0.000000,2145.067394
767.125022,-9622.677246,74.020594,2911.162892
767.125343,-9474.636058,0.000000,1762.019645
767.125663,-9326.594869,0.000000,1991.848295
767.125984,-9548.656652,-148.041188,1991.848295
767.126304,-9770.718434,-222.061783,1608.800546
767.126625,-9622.677246,-370.102971,1608.800546
767.126946,-9918.759623,74.020594,995.924147
767.127266,-9844.739029,0.000000,1149.143247
767.127587,-9844.739029,0.000000,1225.752797
767.127908,-9474.636058,-592.164754,383.047749
767.128228,-9474.636058,-666.185348,995.924147
767.128549,-9622.677246,-666.185348,306.438199
767.128869,-9474.636058,-296.082377,766.095498
767.129190,-9918.759623,0.000000,0.000000
767.129511,-9622.677246,0.000000,842.705048
767.129831,-9622.677246,-370.102971,919.314598
767.130152,-9326.594869,-444.123565,995.924147
767.130473,-9770.718434,-518.144159,1302.362347
767.130793,-9474.636058,-296.082377,1302.362347
767.131114,-9548.656652,-222.061783,1149.143247
767.131434,-9474.636058,-74.020594,766.095498
767.131755,-9474.636058,-222.061783,919.314598
767.132076,-9474.636058,-444.123565,536.266849
767.132396,-9622.677246,-222.061783,612.876398
767.132717,-9474.636058,-222.061783,306.438199
767.133037,-9474.636058,-592.164754,76.609550
767.133358,-8438.347739,-222.061783,1072.533697
767.133679,-9400.615463,-888.247130,153.219100
767.133999,-9474.636058,-962.267725,766.095498
767.134320,-9400.615463,-1110.308913,612.876398
767.134641,-9474.636058,-1258.350101,766.095498
767.134961,-9548.656652,-1036.288319,689.485948
767.135282,-9622.677246,-444.123565,995.924147
767.135602,-9770.718434,-592.164754,1532.190996
767.135923,-9622.677246,-222.061783,2145.067394
767.136244,-9918.759623,74.020594,2221.676944
767.136564,-9770.718434,-296.082377,2221.676944
767.136885,-9770.718434,-148.041188,2374.896044
767.137206,-9844.739029,0.000000,2681.334243
767.137526,-9400.615463,-370.102971,1378.971896
767.137847,-9548.656652,0.000000,2145.067394
767.138167,-9622.677246,222.061783,2145.067394
767.138488,-9326.594869,0.000000,1608.800546
767.138809,-9622.677246,-74.020594,1302.362347
767.139129,-9622.677246,-148.041188,1378.971896
767.139450,-9844.739029,-296.082377,689.485948
767.139771,-9844.739029,-444.123565,459.657299
767.140091,-9844.739029,-444.123565,459.657299
767.140412,-9770.718434,0.000000,536.266849
767.140732,-9696.697840,-888.247130,229.828649
767.141053,-9770.718434,-888.247130,76.609550
767.141374,-9548.656652,-814.226536,306.438199
767.141694,-10288.862594,148.041188,306.438199
767.142015,-9696.697840,-666.185348,842.705048
767.142336,-9548.656652,-592.164754,766.095498
767.142656,-9474.636058,-370.102971,919.314598
767.142977,-9474.636058,-222.061783,919.314598
767.143297,-9474.636058,222.061783,1225.752797
767.143618,-9474.636058,0.000000,689.485948
767.143939,-9474.636058,74.020594,612.876398
767.144259,-9474.636058,-148.041188,306.438199
767.144580,-8956.491898,-666.185348,-612.876398
767.144901,-9326.594869,-370.102971,0.000000
767.145221,-9622.677246,-222.061783,459.657299
767.145542,-9696.697840,-518.144159,536.266849
767.145862,-9548.656652,0.000000,1225.752797
767.146183,-9918.759623,-592.164754,1072.533697
767.146504,-9622.677246,-592.164754,1302.362347
767.146824,-9770.718434,-518.144159,1838.629195
767.147145,-9622.677246,-518.144159,2145.067394
767.147466,-9622.677246,-370.102971,1838.629195
767.147786,-9770.718434,-148.041188,2145.067394
767.148107,-9622.677246,-148.041188,2374.896044
767.148427,-9770.718434,0.000000,2528.115143
767.148748,-9696.697840,0.000000,2145.067394
767.149069,-9474.636058,0.000000,2451.505594
767.149389,-9474.636058,-74.020594,2145.067394
767.149710,-9474.636058,-370.102971,2145.067394
767.150031,-10066.800811,444.123565,1685.410096
767.150351,-9770.718434,-296.082377,1762.019645
767.150672,-9622.677246,0.000000,1532.190996
767.150992,-9770.718434,-370.102971,919.314598
767.151313,-9696.697840,0.000000,1378.971896
767.151634,-9918.759623,-148.041188,995.924147
767.151954,-9548.656652,-444.123565,459.657299
767.152275,-9770.718434,-74.020594,919.314598
767.152596,-9548.656652,-740.205942,689.485948
767.152916,-9400.615463,-444.123565,1225.752797
767.153237,-9770.718434,-592.164754,842.705048
767.153557,-9548.656652,0.000000,612.876398
767.153878,-9622.677246,-296.082377,766.095498
767.154199,-9400.615463,-222.061783,2911.162892
767.154519,-9474.636058,-296.082377,153.219100
767.154840,-9474.636058,0.000000,306.438199
767.155161,-9474.636058,-148.041188,383.047749
767.155481,-9474.636058,-222.061783,153.219100
767.155802,-9474.636058,-592.164754,536.266849
767.156122,-9548.656652,-370.102971,0.000000
767.156443,-9548.656652,-222.061783,153.219100
767.156764,-9548.656652,-148.041188,306.438199
767.157084,-9326.594869,-370.102971,-306.438199
767.157405,-9474.636058,-592.164754,0.000000
767.157725,-9474.636058,-740.205942,306.438199
767.158046,-9548.656652,-888.247130,153.219100
767.158367,-10066.800811,74.020594,1378.971896
767.158687,-9622.677246,-592.164754,842.705048
767.159008,-9696.697840,-518.144159,1072.533697
767.159329,-9622.677246,-370.102971,1532.190996
767.159649,-9918.759623,0.000000,1838.629195
767.159970,-9992.780217,74.020594,2451.505594
767.160290,-9400.615463,-148.041188,1915.238745
767.160611,-9622.677246,-444.123565,2451.505594
767.160932,-9696.697840,-148.041188,2298.286494
767.161252,-9918.759623,-222.061783,2987.772442
767.161573,-9548.656652,-296.082377,2221.676944
767.161894,-9474.636058,-296.082377,1838.629195
767.162214,-9474.636058,-444.123565,1762.019645
767.162535,-9252.574275,-518.144159,2145.067394
767.162855,-9548.656652,-444.123565,1149.143247
767.163176,-9696.697840,-888.247130,1072.533697
767.163497,-9696.697840,-962.267725,842.705048
767.163817,-9992.780217,-888.247130,766.095498
767.164138,-9696.697840,-962.267725,766.095498
767.164459,-9622.677246,-740.205942,459.657299
767.164779,-9844.739029,-740.205942,459.657299
767.165100,-9622.677246,-518.144159,689.485948
767.165420,-9844.739029,-666.185348,612.876398
767.165741,-9770.718434,-370.102971,995.924147
767.166066,-9548.656652,-370.102971,1149.143247
767.166386,-9622.677246,-370.102971,919.314598
767.166707,-9474.636058,0.000000,459.657299
767.167028,-9474.636058,222.061783,1072.533697
767.167349,-9252.574275,0.000000,842.705048
767.167669,-8956.491898,-148.041188,689.485948
767.167990,-9474.636058,-370.102971,76.609550
767.168311,-9178.553681,-444.123565,0.000000
767.168632,-9548.656652,-666.185348,0.000000
767.168952,-9548.656652,-592.164754,0.000000
767.169273,-9474.636058,-518.144159,76.609550
767.169594,-9918.759623,0.000000,689.485948
767.169915,-9918.759623,-666.185348,536.266849
767.170235,-9770.718434,-592.164754,1149.143247
767.170556,-9844.739029,-518.144159,1149.143247
767.170877,-9918.759623,-296.082377,1225.752797
767.171198,-9696.697840,-222.061783,1608.800546
767.171519,-9622.677246,-74.020594,1762.019645
767.171839,-9770.718434,0.000000,2145.067394
767.172160,-9622.677246,0.000000,2451.505594
767.172481,-9474.636058,222.061783,2221.676944
767.172802,-9474.636058,148.041188,1915.238745
767.173122,-9474.636058,148.041188,1378.971896
767.173443,-9548.656652,222.061783,2068.457845
767.173764,-9474.636058,0.000000,1685.410096
767.174085,-9622.677246,-148.041188,1532.190996
767.174405,-9992.780217,-148.041188,1378.971896
767.174726,-9770.718434,-370.102971,1302.362347
767.175047,-9696.697840,-148.041188,1378.971896
767.175368,-10066.800811,-518.144159,1302.362347
767.175688,-9622.677246,-444.123565,842.705048
767.176009,-9622.677246,-518.144159,689.485948
767.176330,-9548.656652,-592.164754,1072.533697
767.176651,-9474.636058,-592.164754,842.705048
767.176972,-9474.636058,-444.123565,1302.362347
767.177292,-9474.636058,-222.061783,1378.971896
767.177613,-9696.697840,-444.123565,1225.752797
767.177934,-9178.553681,-666.185348,766.095498
767.178255,-9474.636058,0.000000,1455.581446
767.178575,-9474.636058,0.000000,1225.752797
767.178896,-9548.656652,-74.020594,766.095498
767.179217,-9474.636058,0.000000,536.266849
767.179538,-9474.636058,-518.144159,536.266849
767.179858,-9474.636058,-444.123565,536.266849
767.180179,-9474.636058,-370.102971,229.828649
767.180500,-9474.636058,-296.082377,0.000000
767.180821,-9326.594869,0.000000,689.485948
767.181141,-9548.656652,-444.123565,229.828649
767.181462,-9548.656652,-592.164754,536.266849
767.181783,-9548.656652,-518.144159,536.266849
767.182104,-9918.759623,222.061783,689.485948
767.182424,-9844.739029,-296.082377,995.924147
767.182745,-9844.739029,-148.041188,1378.971896
767.183066,-9770.718434,0.000000,1302.362347
767.183387,-10066.800811,148.041188,612.876398
767.183708,-9918.759623,296.082377,1838.629195
767.184028,-9992.780217,296.082377,2068.457845
767.184349,-9844.739029,74.020594,1991.848295
767.184670,-9770.718434,0.000000,1762.019645
767.184991,-9770.718434,74.020594,1608.800546
767.185311,-9548.656652,0.000000,1532.190996
767.185632,-9548.656652,-222.061783,1378.971896
767.185953,-9548.656652,-370.102971,1378.971896
767.186274,-9326.594869,0.000000,1149.143247
767.186594,-9474.636058,-444.123565,995.924147
767.186915,-9622.677246,-740.205942,842.705048
767.187236,-9696.697840,-740.205942,612.876398
767.187557,-9696.697840,-814.226536,612.876398
767.187877,-9548.656652,-814.226536,306.438199
767.188198,-9474.636058,-666.185348,612.876398
767.188519,-9548.656652,-962.267725,689.485948
767.188840,-9696.697840,-666.185348,1072.533697
767.189161,-9474.636058,-444.123565,1072.533697
767.189481,-9696.697840,-518.144159,1225.752797
767.189802,-9400.615463,0.000000,1455.581446
767.190123,-9622.677246,0.000000,1608.800546
767.190444,-9992.780217,-222.061783,2604.724693
767.190764,-9178.553681,0.000000,1608.800546
767.191085,-9252.574275,0.000000,995.924147
767.191406,-9252.574275,-148.041188,842.705048
767.191727,-9400.615463,-444.123565,2451.505594
767.192047,-9400.615463,-518.144159,459.657299
767.192368,-9400.615463,-592.164754,383.047749
767.192689,-9548.656652,-740.205942,229.828649
767.193010,-9548.656652,-740.205942,766.095498
767.193330,-9770.718434,-518.144159,612.876398
767.193651,-9770.718434,-666.185348,1302.362347
767.193972,-9844.739029,-666.185348,1455.581446
767.194293,-9918.759623,-518.144159,1762.019645
767.194614,-9474.636058,370.102971,2145.067394
767.194934,-9918.759623,-222.061783,1991.848295
767.195255,-9622.677246,74.020594,2298.286494
767.195576,-9696.697840,74.020594,2374.896044
767.195897,-9548.656652,-888.247130,2374.896044
767.196217,-9474.636058,0.000000,2298.286494
767.196538,-9474.636058,0.000000,1915.238745
767.196859,-9474.636058,0.000000,1838.629195
767.197180,-9400.615463,0.000000,1225.752797
767.197500,-9548.656652,0.000000,766.095498
767.197821,-9622.677246,0.000000,1072.533697
767.198142,-9770.718434,0.000000,995.924147
767.198463,-9474.636058,-222.061783,689.485948
767.198783,-10140.821405,296.082377,459.657299
767.199104,-9696.697840,-370.102971,459.657299
767.199425,-9844.739029,-370.102971,383.047749
767.199746,-9474.636058,-296.082377,612.876398
767.200066,-9548.656652,-222.061783,2528.115143
767.200387,-9474.636058,-444.123565,766.095498
767.200708,-9474.636058,0.000000,842.705048
767.201029,-9622.677246,-74.020594,842.705048
767.201350,-9400.615463,-222.061783,919.314598
767.201670,-9400.615463,-148.041188,612.876398
767.201991,-9400.615463,0.000000,612.876398
767.202312,-9622.677246,0.000000,842.705048
767.202633,-9326.594869,-148.041188,612.876398
767.202953,-9474.636058,-814.226536,0.000000
767.203274,-9548.656652,-370.102971,383.047749
767.203595,-9696.697840,-444.123565,536.266849
767.203916,-9474.636058,-888.247130,766.095498
767.204236,-9548.656652,-666.185348,306.438199
767.204557,-9400.615463,-962.267725,536.266849
767.204878,-9548.656652,-962.267725,459.657299
767.205199,-9400.615463,-1036.288319,842.705048
767.205519,-9474.636058,-962.267725,842.705048
767.205840,-8882.471304,-1332.370696,229.828649
767.206161,-9696.697840,-740.205942,1455.581446
767.206482,-9770.718434,-740.205942,1608.800546
767.206803,-9844.739029,-148.041188,2068.457845
767.207123,-9844.739029,-148.041188,1991.848295
767.207444,-9696.697840,-296.082377,2298.286494
767.207765,-9770.718434,-518.144159,2298.286494
767.208086,-9844.739029,0.000000,2221.676944
767.208406,-10066.800811,0.000000,2374.896044
767.208727,-9918.759623,518.144159,2221.676944
767.209048,-9474.636058,0.000000,1378.971896
767.209369,-9400.615463,0.000000,1608.800546
767.209689,-9622.677246,-592.164754,1072.533697
767.210010,-9104.533087,-296.082377,2145.067394
767.210331,-9622.677246,-888.247130,612.876398
767.210652,-9548.656652,-740.205942,612.876398
767.210972,-9622.677246,-1110.308913,459.657299
767.211293,-9548.656652,-1036.288319,459.657299
767.211614,-9548.656652,-1110.308913,229.828649
767.211935,-9622.677246,-740.205942,76.609550
767.212255,-9770.718434,-814.226536,383.047749
767.212576,-9548.656652,-962.267725,612.876398
767.212897,-9622.677246,-370.102971,153.219100
767.213218,-9696.697840,-296.082377,842.705048
767.213539,-9770.718434,148.041188,919.314598
767.213859,-9696.697840,-148.041188,1149.143247
767.214180,-9474.636058,0.000000,1991.848295
767.214501,-9474.636058,0.000000,536.266849
767.214822,-9252.574275,0.000000,306.438199
767.215142,-9326.594869,-148.041188,383.047749
767.215463,-9252.574275,-370.102971,-153.219100
767.215784,-9474.636058,-296.082377,-153.219100
767.216105,-9696.697840,-296.082377,0.000000
767.216425,-9696.697840,-518.144159,0.000000
767.216746,-9770.718434,-740.205942,536.266849
767.217067,-9030.512492,296.082377,1149.143247
767.217388,-9992.780217,-592.164754,1149.143247
767.217708,-9918.759623,-74.020594,1608.800546
767.218029,-9918.759623,-370.102971,1915.238745
767.218350,-9696.697840,-222.061783,1302.362347
767.218671,-9548.656652,-148.041188,2451.505594
767.218992,-9474.636058,74.020594,2451.505594
767.219312,-9696.697840,74.020594,2604.724693
767.219633,-9548.656652,296.082377,2451.505594
767.219954,-9622.677246,444.123565,2757.943793
767.220275,-9474.636058,370.102971,2145.067394
767.220595,-9474.636058,148.041188,2145.067394
767.220916,-9548.656652,-222.061783,1838.629195
767.221237,-9326.594869,-296.082377,2911.162892
767.221558,-9622.677246,-296.082377,1915.238745
767.221878,-9696.697840,0.000000,1532.190996
767.222199,-9622.677246,74.020594,1378.971896
767.222520,-9696.697840,-74.020594,1532.190996
767.222841,-9770.718434,-592.164754,1302.362347
767.223161,-9548.656652,-518.144159,1378.971896
767.223482,-9474.636058,-592.164754,1378.971896
767.223803,-9474.636058,-222.061783,919.314598
767.224124,-9030.512492,-518.144159,1072.533697
767.224445,-9400.615463,0.000000,1225.752797
767.224765,-9474.636058,0.000000,1225.752797
767.225086,-9252.574275,0.000000,919.314598
767.225407,-9844.739029,-222.061783,-766.095498
767.225728,-9400.615463,0.000000,766.095498
767.226048,-9474.636058,-222.061783,229.828649
767.226369,-9548.656652,0.000000,0.000000
767.226690,-9474.636058,-222.061783,0.000000
767.227011,-9548.656652,0.000000,-153.219100
767.227331,-9548.656652,-222.061783,76.609550
767.227652,-9474.636058,-518.144159,-229.828649
767.227973,-9696.697840,-444.123565,-383.047749
767.228294,-9252.574275,-666.185348,0.000000
767.228614,-9474.636058,-888.247130,-306.438199
767.228935,-9622.677246,-814.226536,-153.219100
767.229256,-9474.636058,-814.226536,153.219100
767.229577,-9992.780217,0.000000,1225.752797
767.229897,-9844.739029,-592.164754,842.705048
767.230218,-9548.656652,-518.144159,1072.533697
767.230539,-9918.759623,-370.102971,1378.971896
767.230860,-9844.739029,-148.041188,1608.800546
767.231181,-10066.800811,222.061783,1532.190996
767.231501,-9770.718434,148.041188,1762.019645
767.231822,-9622.677246,0.000000,1915.238745
767.232143,-9696.697840,0.000000,2145.067394
767.232464,-8956.491898,-222.061783,1685.410096
767.232784,-9474.636058,-148.041188,1608.800546
767.233105,-9622.677246,-148.041188,1455.581446
767.233426,-9770.718434,-518.144159,1532.190996
767.233747,-9474.636058,444.123565,1225.752797
767.234067,-9474.636058,-962.267725,995.924147
767.234388,-9548.656652,-1332.370696,1072.533697
767.234709,-9474.636058,-1554.432478,1378.971896
767.235030,-9474.636058,-1258.350101,1072.533697
767.235350,-9622.677246,-1110.308913,919.314598
767.235671,-9474.636058,-1036.288319,1072.533697
767.235992,-9622.677246,-740.205942,995.924147
767.236313,-9696.697840,-1036.288319,1149.143247
767.236634,-9474.636058,-740.205942,1762.019645
767.236954,-9622.677246,-740.205942,1532.190996
767.237275,-9622.677246,-370.102971,1915.238745
767.237596,-9548.656652,-444.123565,2068.457845
767.237917,-9474.636058,0.000000,1225.752797
767.238237,-9326.594869,-518.144159,1225.752797
767.238558,-9104.533087,-296.082377,766.095498
767.238879,-9252.574275,-444.123565,612.876398
767.239200,-9474.636058,-222.061783,612.876398
767.239520,-9474.636058,-148.041188,229.828649
767.239841,-9474.636058,-444.123565,229.828649
767.240162,-9844.739029,-592.164754,766.095498
767.240483,-9844.739029,-370.102971,459.657299
767.240803,-9844.739029,-666.185348,459.657299
767.241124,-9770.718434,-444.123565,1378.971896
767.241445,-9992.780217,-370.102971,919.314598
767.241766,-9918.759623,-222.061783,1608.800546
767.242087,-9770.718434,0.000000,1378.971896
767.242407,-9696.697840,0.000000,1685.410096
767.242728,-9770.718434,148.041188,2145.067394
767.243049,-9548.656652,0.000000,1915.238745
767.243370,-9474.636058,0.000000,1455.581446
767.243690,-9326.594869,0.000000,1302.362347
767.244011,-9474.636058,0.000000,919.314598
767.244332,-9474.636058,370.102971,1225.752797
767.244653,-9474.636058,222.061783,842.705048
767.244973,-9474.636058,0.000000,459.657299
767.245294,-9696.697840,0.000000,536.266849
767.245615,-9770.718434,-148.041188,842.705048
767.245936,-9992.780217,-222.061783,536.266849
767.246256,-9400.615463,-296.082377,2298.286494
767.246577,-9548.656652,0.000000,612.876398
767.246898,-9474.636058,-296.082377,536.266849
767.247219,-9548.656652,-222.061783,995.924147
767.247539,-9474.636058,0.000000,2451.505594
767.247860,-9400.615463,0.000000,1225.752797
767.248181,-9622.677246,222.061783,1225.752797
767.248502,-9400.615463,74.020594,1225.752797
767.248823,-9622.677246,222.061783,1455.581446
767.249143,-9400.615463,296.082377,1762.019645
767.249464,-9548.656652,370.102971,1608.800546
767.249785,-9548.656652,0.000000,1608.800546
767.250106,-9622.677246,74.020594,1072.533697
767.250426,-9844.739029,296.082377,995.924147
767.250747,-9474.636058,0.000000,766.095498
767.251068,-9548.656652,0.000000,536.266849
767.251389,-9474.636058,0.000000,689.485948
767.251709,-9474.636058,-370.102971,689.485948
767.252030,-9474.636058,-740.205942,919.314598
767.252351,-9696.697840,-1110.308913,766.095498
767.252672,-9622.677246,-814.226536,689.485948
767.252992,-9474.636058,-962.267725,1225.752797
767.253313,-9992.780217,-296.082377,1225.752797
767.253634,-9696.697840,-740.205942,1685.410096
767.253955,-9696.697840,-592.164754,1915.238745
767.254276,-9992.780217,-592.164754,1455.581446
767.254596,-9400.615463,-444.123565,2451.505594
767.254917,-9844.739029,-370.102971,1915.238745
767.255238,-9474.636058,0.000000,1915.238745
767.255559,-9696.697840,148.041188,1762.019645
767.255879,-9622.677246,0.000000,1685.410096
767.256200,-9696.697840,-296.082377,1149.143247
767.256521,-9622.677246,-444.123565,919.314598
767.256842,-9548.656652,-666.185348,689.485948
767.257162,-9474.636058,-592.164754,766.095498
767.257483,-9252.574275,-740.205942,995.924147
767.257804,-9474.636058,-666.185348,76.609550
767.258125,-9474.636058,-740.205942,153.219100
767.258445,-9548.656652,-962.267725,0.000000
767.258766,-9474.636058,-888.247130,0.000000
767.259087,-9770.718434,-740.205942,229.828649
767.259408,-9696.697840,-740.205942,153.219100
767.259728,-9918.759623,-740.205942,229.828649
767.260049,-9844.739029,-666.185348,1072.533697
767.260370,-9770.718434,-592.164754,1072.533697
767.260691,-9474.636058,-444.123565,1378.971896
767.261012,-9474.636058,-370.102971,919.314598
767.261332,-9252.574275,-592.164754,842.705048
767.261653,-9696.697840,0.000000,842.705048
767.261974,-9252.574275,-296.082377,919.314598
767.262295,-9474.636058,-296.082377,612.876398
767.262615,-9030.512492,-666.185348,536.266849
767.262936,-9918.759623,444.123565,306.438199
767.263257,-9548.656652,-740.205942,612.876398
767.263578,-9918.759623,-666.185348,689.485948
767.263898,-9918.759623,-814.226536,1072.533697
767.264219,-9918.759623,-814.226536,1149.143247
767.264540,-9992.780217,-592.164754,1608.800546
767.264861,-9992.780217,-518.144159,1532.190996
767.265181,-9918.759623,-666.185348,1838.629195
767.265502,-9622.677246,-518.144159,2298.286494
767.265823,-9622.677246,-296.082377,2681.334243
767.266144,-9548.656652,0.000000,2681.334243
767.266465,-9622.677246,74.020594,2451.505594
767.266785,-9400.615463,370.102971,2145.067394
767.267106,-9622.677246,-222.061783,2528.115143
767.267427,-9622.677246,296.082377,2068.457845
767.267748,-9474.636058,0.000000,1838.629195
767.268069,-9770.718434,0.000000,919.314598
767.268390,-9770.718434,-148.041188,1378.971896
767.268710,-9696.697840,0.000000,1302.362347
767.269031,-9770.718434,-296.082377,1149.143247
767.269352,-9548.656652,-370.102971,459.657299
767.269673,-9696.697840,-74.020594,306.438199
767.269994,-9474.636058,0.000000,153.219100
767.270314,-9474.636058,0.000000,153.219100
767.270635,-9622.677246,-222.061783,306.438199
767.270956,-9474.636058,-74.020594,306.438199
767.271277,-9326.594869,-592.164754,-689.485948
767.271598,-9622.677246,74.020594,536.266849
767.271918,-9474.636058,0.000000,383.047749
767.272239,-9622.677246,0.000000,536.266849
767.272560,-9622.677246,74.020594,536.266849
767.272881,-9326.594869,0.000000,76.609550
767.273202,-9548.656652,0.000000,153.219100
767.273522,-9474.636058,0.000000,306.438199
767.273843,-9474.636058,148.041188,306.438199
767.274164,-9252.574275,74.020594,-766.095498
767.274485,-9474.636058,0.000000,-306.438199
767.274806,-9474.636058,0.000000,0.000000
767.275126,-9622.677246,-296.082377,0.000000
767.275447,-9622.677246,0.000000,-919.314598
767.275768,-9474.636058,-148.041188,612.876398
767.276089,-9696.697840,-296.082377,612.876398
767.276410,-9770.718434,-296.082377,919.314598
767.276730,-9548.656652,-444.123565,1455.581446
767.277051,-9918.759623,-222.061783,1991.848295
767.277372,-10066.800811,-296.082377,2221.676944
767.277693,-9918.759623,-370.102971,2068.457845
767.278014,-9770.718434,-370.102971,2834.553343
767.278334,-9474.636058,-592.164754,3677.258390
767.278655,-9844.739029,-444.123565,2834.553343
767.278976,-9696.697840,-296.082377,2604.724693
767.279297,-9474.636058,-370.102971,2528.115143
767.279618,-9474.636058,-1332.370696,3064.381992
767.279939,-9474.636058,-592.164754,2221.676944
767.280259,-9474.636058,-592.164754,1838.629195
767.280580,-9622.677246,-592.164754,1838.629195
767.280901,-9696.697840,-962.267725,1762.019645
767.281222,-9474.636058,-740.205942,1685.410096
767.281543,-9548.656652,-1184.329507,1455.581446
767.281863,-9474.636058,-1184.329507,766.095498
767.282184,-9474.636058,-1406.391290,612.876398
767.282505,-9474.636058,-1258.350101,689.485948
767.282826,-9622.677246,-814.226536,536.266849
767.283147,-9474.636058,-814.226536,919.314598
767.283467,-9770.718434,-444.123565,1072.533697
767.283788,-9696.697840,-444.123565,1225.752797
767.284109,-9844.739029,-444.123565,1608.800546
767.284430,-9548.656652,-296.082377,1149.143247
767.284751,-9474.636058,-370.102971,536.266849
767.285071,-9622.677246,0.000000,229.828649
767.285392,-9474.636058,0.000000,229.828649
767.285713,-9474.636058,0.000000,-229.828649
767.286034,-9474.636058,-296.082377,-612.876398
767.286355,-9474.636058,-370.102971,-689.485948
767.286675,-9992.780217,-444.123565,-689.485948
767.286996,-9770.718434,-518.144159,-459.657299
767.287317,-9992.780217,-296.082377,0.000000
767.287638,-9992.780217,-222.061783,689.485948
767.287959,-10066.800811,296.082377,0.000000
767.288279,-9992.780217,-370.102971,995.924147
767.288600,-10066.800811,-296.082377,1302.362347
767.288921,-9844.739029,-148.041188,1532.190996
767.289242,-9844.739029,0.000000,1762.019645
767.289563,-9548.656652,-148.041188,1762.019645
767.289883,-9548.656652,0.000000,1838.629195
767.290204,-9548.656652,-148.041188,1915.238745
767.290525,-9474.636058,148.041188,1838.629195
767.290846,-9178.553681,0.000000,1149.143247
767.291167,-9548.656652,444.123565,1762.019645
767.291488,-9474.636058,0.000000,1915.238745
767.291808,-9548.656652,0.000000,1685.410096
767.292129,-9622.677246,148.041188,2451.505594
767.292450,-9548.656652,-222.061783,1532.190996
767.292771,-9474.636058,-296.082377,1532.190996
767.293092,-9622.677246,-296.082377,1532.190996
767.293412,-9696.697840,-444.123565,1378.971896
767.293733,-9400.615463,-592.164754,1302.362347
767.294054,-9474.636058,-444.123565,995.924147
767.294375,-9400.615463,-370.102971,1532.190996
767.294696,-9548.656652,-74.020594,1225.752797
767.295016,-9474.636058,0.000000,1302.362347
767.295337,-9474.636058,-148.041188,1378.971896
767.295658,-9474.636058,0.000000,1302.362347
767.295979,-9548.656652,74.020594,1455.581446
767.296300,-9474.636058,148.041188,842.705048
767.296620,-9548.656652,296.082377,1378.971896
767.296941,-9696.697840,148.041188,1149.143247
767.297262,-9770.718434,0.000000,995.924147
767.297583,-9474.636058,-148.041188,842.705048
767.297904,-9400.615463,-296.082377,153.219100
767.298224,-9622.677246,-296.082377,306.438199
767.298545,-9400.615463,-296.082377,0.000000
767.298866,-9474.636058,-592.164754,153.219100
767.299187,-9548.656652,-740.205942,306.438199
767.299508,-9622.677246,-740.205942,153.219100
767.299828,-9622.677246,-592.164754,536.266849
767.300149,-9770.718434,-740.205942,459.657299
767.300470,-9770.718434,-444.123565,1072.533697
767.300791,-9844.739029,-444.123565,995.924147
767.301112,-9770.718434,-296.082377,1225.752797
767.301432,-9844.739029,0.000000,1455.581446
767.301753,-9696.697840,0.000000,1762.019645
767.302074,-9770.718434,0.000000,1302.362347
767.302395,-9474.636058,0.000000,1455.581446
767.302716,-9474.636058,-74.020594,1225.752797
767.303036,-9326.594869,-148.041188,1608.800546
767.303357,-9030.512492,-296.082377,1072.533697
767.303678,-9474.636058,-296.082377,919.314598
767.303999,-9474.636058,-592.164754,536.266849
767.304320,-9474.636058,-740.205942,536.266849
767.304641,-9474.636058,-518.144159,-306.438199
767.304961,-9548.656652,-740.205942,306.438199
767.305282,-9622.677246,-1110.308913,459.657299
767.305603,-9474.636058,-1036.288319,383.047749
767.305924,-9548.656652,-962.267725,306.438199
767.306245,-9770.718434,-740.205942,689.485948
767.306565,-9770.718434,-592.164754,766.095498
767.306886,-9696.697840,-666.185348,766.095498
767.307207,-9622.677246,-666.185348,1149.143247
767.307528,-9252.574275,-370.102971,2374.896044
767.307849,-9622.677246,-518.144159,1685.410096
767.308169,-9474.636058,-148.041188,1685.410096
767.308490,-9326.594869,-222.061783,1532.190996
767.308811,-9474.636058,444.123565,2451.505594
767.309132,-9252.574275,0.000000,995.924147
767.309453,-9252.574275,-370.102971,459.657299
767.309773,-9474.636058,-666.185348,612.876398
767.310094,-9252.574275,-592.164754,842.705048
767.310415,-9696.697840,-666.185348,766.095498
767.310736,-9844.739029,-592.164754,766.095498
767.311057,-9992.780217,-518.144159,1225.752797
767.311377,-9770.718434,-592.164754,1225.752797
767.311698,-9992.780217,-888.247130,612.876398
767.312019,-9992.780217,0.000000,1991.848295
767.312340,-10066.800811,-296.082377,2068.457845
767.312661,-9622.677246,-296.082377,2298.286494
767.312981,-9696.697840,0.000000,2145.067394
767.313302,-9474.636058,-222.061783,2068.457845
767.313623,-9548.656652,74.020594,2145.067394
767.313944,-9326.594869,-148.041188,1532.190996
767.314265,-9252.574275,0.000000,1608.800546
767.314585,-9030.512492,-148.041188,1455.581446
767.314906,-9474.636058,74.020594,1532.190996
767.315227,-9622.677246,-148.041188,1455.581446
767.315548,-9770.718434,-148.041188,1378.971896
767.315869,-9918.759623,-888.247130,1072.533697
767.316190,-9622.677246,-740.205942,459.657299
767.316510,-9622.677246,-740.205942,536.266849
767.316831,-9548.656652,-814.226536,306.438199
767.317152,-9622.677246,-592.164754,459.657299
767.317473,-9104.533087,-888.247130,153.219100
767.317794,-9474.636058,-592.164754,306.438199
767.318114,-9252.574275,-444.123565,306.438199
767.318435,-9474.636058,0.000000,689.485948
767.318756,-9030.512492,-296.082377,842.705048
767.319077,-9474.636058,0.000000,612.876398
767.319398,-9474.636058,-148.041188,459.657299
767.319718,-9622.677246,0.000000,995.924147
767.320039,-9622.677246,0.000000,1149.143247
767.320360,-9770.718434,-148.041188,689.485948
767.320681,-9548.656652,0.000000,842.705048
767.321002,-9548.656652,74.020594,766.095498
767.321322,-9548.656652,370.102971,1685.410096
767.321643,-9548.656652,296.082377,229.828649
767.321964,-9622.677246,0.000000,612.876398
767.322285,-9696.697840,0.000000,766.095498
767.322606,-9622.677246,-592.164754,612.876398
767.322926,-9992.780217,222.061783,459.657299
767.323247,-9770.718434,-592.164754,919.314598
767.323568,-9548.656652,-148.041188,1072.533697
767.323889,-10066.800811,-370.102971,1685.410096
767.324210,-9844.739029,-370.102971,1685.410096
767.324530,-9992.780217,-444.123565,1762.019645
767.324851,-10214.842000,-370.102971,2374.896044
767.325172,-9770.718434,-370.102971,2528.115143
767.325493,-9696.697840,0.000000,2604.724693
767.325814,-10066.800811,-296.082377,2987.772442
767.326134,-9400.615463,0.000000,2145.067394
767.326455,-9474.636058,74.020594,1991.848295
767.326776,-9548.656652,0.000000,2145.067394
767.327097,-9326.594869,-296.082377,1685.410096
767.327418,-9400.615463,370.102971,1455.581446
767.327738,-9474.636058,-296.082377,1072.533697
767.328059,-9474.636058,-592.164754,1149.143247
767.328380,-9474.636058,-666.185348,995.924147
767.328701,-9400.615463,-888.247130,689.485948
767.329022,-9474.636058,-814.226536,306.438199
767.329343,-9548.656652,-814.226536,459.657299
767.329663,-9326.594869,-666.185348,459.657299
767.329984,-9474.636058,-740.205942,459.657299
767.330305,-8216.285956,-666.185348,229.828649
767.330626,-9474.636058,-666.185348,919.314598
767.330947,-9474.636058,-518.144159,1072.533697
767.331267,-9844.739029,-444.123565,1225.752797
767.331588,-9548.656652,-444.123565,1302.362347
767.331909,-9770.718434,0.000000,1072.533697
767.332230,-9548.656652,0.000000,1149.143247
767.332551,-9326.594869,0.000000,919.314598
767.332871,-9326.594869,-222.061783,536.266849
767.333192,-9696.697840,-296.082377,1455.581446
767.333513,-9326.594869,-592.164754,0.000000
767.333834,-9548.656652,-888.247130,0.000000
767.334155,-9696.697840,-740.205942,0.000000
767.334475,-9918.759623,-962.267725,536.266849
767.334796,-10140.821405,-1110.308913,0.000000
767.335117,-9844.739029,-962.267725,995.924147
767.335438,-10140.821405,-888.247130,995.924147
767.335759,-10140.821405,-740.205942,1378.971896
767.336079,-10214.842000,-148.041188,3064.381992
767.336400,-9622.677246,-444.123565,1838.629195
767.336721,-9548.656652,-296.082377,1685.410096
767.337042,-9548.656652,0.000000,1915.238745
767.337363,-9918.759623,0.000000,1991.848295
767.337683,-9400.615463,-740.205942,2451.505594
767.338004,-9548.656652,0.000000,1838.629195
767.338325,-9474.636058,0.000000,1608.800546
767.338646,-9474.636058,0.000000,1685.410096
767.338967,-9770.718434,0.000000,1532.190996
767.339287,-9474.636058,148.041188,766.095498
767.339608,-9696.697840,-370.102971,919.314598
767.339929,-9622.677246,-296.082377,229.828649
767.340250,-9622.677246,-444.123565,383.047749
767.340571,-9104.533087,-666.185348,1608.800546
767.340892,-9474.636058,-444.123565,612.876398
767.341212,-9474.636058,-592.164754,536.266849
767.341533,-9622.677246,-592.164754,919.314598
767.341854,-9548.656652,-888.247130,919.314598
767.342175,-9474.636058,-518.144159,919.314598
767.342496,-9400.615463,-518.144159,919.314598
767.342816,-9474.636058,-444.123565,766.095498
767.343137,-9474.636058,74.020594,1072.533697
767.343458,-9622.677246,518.144159,2451.505594
767.343779,-9622.677246,0.000000,1455.581446
767.344100,-9474.636058,0.000000,842.705048
767.344420,-9474.636058,148.041188,766.095498
767.344741,-9622.677246,0.000000,459.657299
767.345062,-9622.677246,148.041188,919.314598
767.345383,-9696.697840,-148.041188,612.876398
767.345704,-9474.636058,-296.082377,612.876398
767.346024,-9696.697840,-370.102971,76.609550
767.346345,-9474.636058,-296.082377,1149.143247
767.346666,-9918.759623,-444.123565,842.705048
767.346987,-9696.697840,-148.041188,1149.143247
767.347308,-10066.800811,0.000000,1455.581446
767.347628,-10362.883188,-222.061783,1685.410096
767.347949,-10066.800811,-444.123565,2298.286494
767.348270,-10066.800811,-222.061783,2068.457845
767.348591,-9992.780217,0.000000,2451.505594
767.348912,-9770.718434,148.041188,1455.581446
767.349232,-9770.718434,148.041188,2604.724693
767.349553,-9622.677246,74.020594,2374.896044
767.349874,-9252.574275,0.000000,1991.848295
767.350195,-9474.636058,74.020594,1608.800546
767.350516,-9548.656652,0.000000,1762.019645
767.350836,-9474.636058,0.000000,1302.362347
767.351157,-9474.636058,0.000000,1225.752797
767.351478,-9622.677246,-370.102971,919.314598
767.351799,-8882.471304,0.000000,689.485948
767.352120,-9622.677246,-814.226536,689.485948
767.352440,-9548.656652,-962.267725,229.828649
767.352761,-9474.636058,-814.226536,0.000000
767.353082,-9474.636058,-296.082377,-766.095498
767.353403,-9326.594869,-962.267725,229.828649
767.353724,-9474.636058,-1110.308913,383.047749
767.354045,-9474.636058,-962.267725,689.485948
767.354365,-9474.636058,-1036.288319,689.485948
767.354686,-9326.594869,-444.123565,689.485948
767.355007,-9770.718434,-296.082377,1225.752797
767.355328,-9548.656652,-444.123565,1149.143247
767.355649,-9326.594869,-296.082377,689.485948
767.355969,-9178.553681,-592.164754,-229.828649
767.356290,-9178.553681,-740.205942,536.266849
767.356611,-9252.574275,-814.226536,612.876398
767.356932,-9400.615463,-740.205942,0.000000
767.357253,-9326.594869,-962.267725,0.000000
767.357573,-9326.594869,-962.267725,153.219100
767.357894,-9770.718434,-1110.308913,459.657299
767.358215,-9992.780217,-888.247130,459.657299
767.358536,-9992.780217,-666.185348,995.924147
767.358857,-9918.759623,-370.102971,995.924147
767.359177,-10066.800811,-444.123565,1302.362347
767.359498,-10214.842000,-296.082377,1532.190996
767.359819,-10214.842000,0.000000,2298.286494
767.360140,-10214.842000,222.061783,2451.505594
767.360461,-9918.759623,74.020594,2451.505594
767.360781,-10066.800811,0.000000,2374.896044
767.361102,-9918.759623,74.020594,2298.286494
767.361423,-9696.697840,444.123565,3140.991542
767.361744,-9622.677246,74.020594,2145.067394
767.362065,-9474.636058,148.041188,1762.019645
767.362385,-9696.697840,0.000000,1455.581446
767.362706,-9622.677246,0.000000,1455.581446
767.363027,-9770.718434,0.000000,1532.190996
767.363348,-9622.677246,-296.082377,1302.362347
767.363669,-9622.677246,-222.061783,995.924147
767.363989,-9622.677246,-444.123565,995.924147
767.364310,-9104.533087,74.020594,995.924147
767.364631,-9474.636058,-888.247130,842.705048
767.364952,-9326.594869,-740.205942,459.657299
767.365273,-9252.574275,-518.144159,766.095498
767.365594,-9326.594869,222.061783,0.000000
767.365914,-9104.533087,-222.061783,995.924147
767.366235,-9326.594869,-370.102971,842.705048
767.366556,-9178.553681,-296.082377,766.095498
767.366877,-9400.615463,-148.041188,1072.533697
767.367198,-9252.574275,0.000000,1149.143247
767.367518,-9474.636058,0.000000,919.314598
767.367839,-9474.636058,222.061783,766.095498
767.368160,-9474.636058,74.020594,153.219100
767.368481,-9622.677246,-370.102971,383.047749
767.368801,-9474.636058,-444.123565,842.705048
767.369122,-9474.636058,-74.020594,153.219100
767.369443,-9548.656652,-444.123565,229.828649
767.369764,-9622.677246,-222.061783,536.266849
767.370084,-9696.697840,-518.144159,536.266849
767.370405,-9622.677246,-444.123565,766.095498
767.370726,-9844.739029,-518.144159,1072.533697
767.371046,-9844.739029,-444.123565,1149.143247
767.371367,-10362.883188,0.000000,1685.410096
767.371688,-10066.800811,0.000000,1838.629195
767.372009,-10214.842000,222.061783,2221.676944
767.372329,-10066.800811,370.102971,2298.286494
767.372650,-10510.924376,0.000000,1991.848295
767.372971,-9918.759623,222.061783,2145.067394
767.373292,-9696.697840,0.000000,2298.286494
767.373612,-9622.677246,0.000000,1685.410096
767.373933,-9696.697840,0.000000,1685.410096
767.374254,-9696.697840,0.000000,1378.971896
767.374574,-9474.636058,-444.123565,1378.971896
767.374895,-9548.656652,-592.164754,842.705048
767.375216,-9622.677246,-666.185348,995.924147
767.375537,-9326.594869,-962.267725,1532.190996
767.375857,-9474.636058,-1110.308913,306.438199
767.376178,-9474.636058,-1036.288319,306.438199
767.376499,-9474.636058,-1184.329507,153.219100
767.376820,-9474.636058,-1554.432478,995.924147
767.377140,-9474.636058,-740.205942,383.047749
767.377461,-9474.636058,-1184.329507,919.314598
767.377782,-9326.594869,-888.247130,612.876398
767.378102,-9474.636058,-814.226536,995.924147
767.378423,-9252.574275,-592.164754,1302.362347
767.378744,-9326.594869,-518.144159,1225.752797
767.379065,-9252.574275,-296.082377,995.924147
767.379385,-9252.574275,-444.123565,612.876398
767.379706,-9548.656652,-222.061783,536.266849
767.380027,-9252.574275,-148.041188,306.438199
767.380348,-9252.574275,-370.102971,-76.609550
767.380668,-9474.636058,-222.061783,459.657299
767.380989,-9474.636058,148.041188,-383.047749
767.381310,-9474.636058,-518.144159,229.828649
767.381630,-9770.718434,-592.164754,612.876398
767.381951,-10066.800811,-518.144159,766.095498
767.382272,-9992.780217,-444.123565,1225.752797
767.382593,-9770.718434,-370.102971,1762.019645
767.382913,-10066.800811,-296.082377,1455.581446
767.383234,-10066.800811,-222.061783,1838.629195
767.383555,-9844.739029,-370.102971,2068.457845
767.383876,-9474.636058,-296.082377,2145.067394
767.384196,-9992.780217,0.000000,2451.505594
767.384517,-9770.718434,0.000000,2145.067394
767.384838,-9622.677246,74.020594,2451.505594
767.385158,-9992.780217,370.102971,1225.752797
767.385479,-9474.636058,74.020594,1838.629195
767.385800,-9844.739029,74.020594,1532.190996
767.386121,-9622.677246,-148.041188,1532.190996
767.386441,-9696.697840,-148.041188,1225.752797
767.386762,-9992.780217,-592.164754,842.705048
767.387083,-9770.718434,-148.041188,1225.752797
767.387404,-9770.718434,0.000000,1072.533697
767.387724,-9548.656652,-222.061783,1072.533697
767.388045,-9548.656652,0.000000,995.924147
767.388366,-9474.636058,-666.185348,1302.362347
767.388687,-9474.636058,-666.185348,995.924147
767.389007,-9252.574275,-592.164754,1302.362347
767.389328,-9178.553681,-666.185348,536.266849
767.389649,-9252.574275,0.000000,1302.362347
767.389969,-9400.615463,-222.061783,1072.533697
767.390290,-9030.512492,-222.061783,1149.143247
767.390611,-9474.636058,-74.020594,919.314598
767.390932,-9474.636058,222.061783,919.314598
767.391252,-9474.636058,-148.041188,766.095498
767.391573,-9326.594869,-74.020594,842.705048
767.391894,-9400.615463,-222.061783,229.828649
767.392215,-9474.636058,-296.082377,919.314598
767.392535,-9474.636058,-518.144159,229.828649
767.392856,-9474.636058,-222.061783,153.219100
767.393177,-9474.636058,-444.123565,0.000000
767.393497,-9474.636058,222.061783,-229.828649
767.393818,-9548.656652,-370.102971,383.047749
767.394139,-9844.739029,-148.041188,842.705048
767.394460,-9770.718434,-370.102971,842.705048
767.394780,-10214.842000,-296.082377,1378.971896
767.395101,-9992.780217,0.000000,1532.190996
767.395422,-9992.780217,0.000000,1762.019645
767.395743,-10066.800811,0.000000,2068.457845
767.396063,-9918.759623,148.041188,2374.896044
767.396384,-10288.862594,444.123565,2068.457845
767.396705,-9770.718434,-148.041188,2145.067394
767.397025,-9770.718434,-148.041188,1915.238745
767.397346,-9622.677246,-74.020594,1762.019645
767.397667,-9770.718434,0.000000,2221.676944
767.397988,-9622.677246,0.000000,1915.238745
767.398308,-9548.656652,-296.082377,1455.581446
767.398629,-9622.677246,-518.144159,1225.752797
767.398950,-9548.656652,-666.185348,1072.533697
767.399271,-9474.636058,-888.247130,919.314598
767.399591,-9474.636058,-962.267725,536.266849
767.399912,-9474.636058,-1184.329507,306.438199
767.400233,-9696.697840,-888.247130,383.047749
767.400553,-9844.739029,-296.082377,1225.752797
767.400874,-9548.656652,-962.267725,612.876398
767.401195,-9474.636058,-1110.308913,689.485948
767.401516,-9696.697840,-962.267725,536.266849
767.401836,-9178.553681,-74.020594,2221.676944
767.402157,-9474.636058,-888.247130,1072.533697
767.402478,-9326.594869,-740.205942,766.095498
767.402799,-9252.574275,-518.144159,689.485948
767.403119,-9326.594869,-518.144159,766.095498
767.403440,-9326.594869,-148.041188,766.095498
767.403761,-9400.615463,-444.123565,229.828649
767.404081,-9400.615463,-740.205942,306.438199
767.404402,-9326.594869,-592.164754,229.828649
767.404723,-9622.677246,-148.041188,0.000000
767.405044,-9696.697840,-592.164754,306.438199
767.405364,-9696.697840,-740.205942,689.485948
767.405685,-10066.800811,-592.164754,842.705048
767.406006,-9844.739029,-370.102971,842.705048
767.406327,-9992.780217,-296.082377,1225.752797
767.406647,-9770.718434,-296.082377,1762.019645
767.406968,-10214.842000,74.020594,1991.848295
767.407289,-9918.759623,296.082377,2145.067394
767.407610,-10140.821405,148.041188,2221.676944
767.407930,-9770.718434,74.020594,2681.334243
767.408251,-9844.739029,74.020594,2221.676944
767.408572,-9622.677246,0.000000,2221.676944
767.408892,-9696.697840,0.000000,1532.190996
767.409213,-9696.697840,148.041188,1762.019645
767.409534,-9548.656652,74.020594,1532.190996
767.409855,-9622.677246,0.000000,1762.019645
767.410175,-9844.739029,-518.144159,383.047749
767.410496,-9770.718434,-222.061783,1072.533697
767.410817,-9844.739029,-148.041188,1149.143247
767.411138,-9844.739029,-444.123565,612.876398
767.411458,-9548.656652,-592.164754,842.705048
767.411779,-9696.697840,-296.082377,919.314598
767.412100,-9474.636058,-444.123565,689.485948
767.412420,-9474.636058,-296.082377,842.705048
767.412741,-9474.636058,-296.082377,842.705048
767.413062,-8734.430116,-518.144159,919.314598
767.413383,-9252.574275,-296.082377,842.705048
767.413703,-9326.594869,-148.041188,995.924147
767.414024,-9178.553681,0.000000,766.095498
767.414345,-9918.759623,518.144159,383.047749
767.414666,-9548.656652,74.020594,459.657299
767.414986,-9474.636058,296.082377,536.266849
767.415307,-9474.636058,148.041188,153.219100
767.415628,-9400.615463,74.020594,153.219100
767.415948,-9548.656652,74.020594,383.047749
767.416269,-9326.594869,0.000000,0.000000
767.416590,-9326.594869,-222.061783,-153.219100
767.416911,-9622.677246,0.000000,0.000000
767.417231,-9474.636058,-666.185348,995.924147
767.417552,-9622.677246,-444.123565,689.485948
767.417873,-9696.697840,-296.082377,689.485948
767.418194,-9770.718434,-296.082377,766.095498
767.418514,-10066.800811,370.102971,1225.752797
767.418835,-9770.718434,-148.041188,1685.410096
767.419156,-10214.842000,148.041188,1838.629195
767.419476,-9844.739029,0.000000,1991.848295
767.419797,-9992.780217,0.000000,1991.848295
767.420118,-9844.739029,0.000000,1991.848295
767.420439,-9918.759623,0.000000,1838.629195
767.420759,-9844.739029,-74.020594,1915.238745
767.421080,-9622.677246,-222.061783,1532.190996
767.421401,-8882.471304,-740.205942,2221.676944
767.421722,-9548.656652,-444.123565,1225.752797
767.422042,-9474.636058,-1184.329507,1225.752797
767.422363,-9326.594869,-962.267725,919.314598
767.422684,-9622.677246,-740.205942,459.657299
767.423004,-9622.677246,-1036.288319,766.095498
767.423325,-9548.656652,-1184.329507,842.705048
767.423646,-9622.677246,-1184.329507,842.705048
767.423967,-9622.677246,-962.267725,689.485948
767.424287,-9474.636058,-962.267725,612.876398
767.424608,-9548.656652,-1036.288319,1149.143247
767.424929,-9474.636058,-962.267725,1455.581446
767.425250,-9474.636058,-888.247130,1378.971896
767.425570,-8734.430116,-814.226536,1532.190996
767.425891,-9474.636058,-444.123565,1302.362347
767.426212,-9474.636058,-296.082377,1072.533697
767.426532,-9326.594869,-592.164754,1072.533697
767.426853,-8438.347739,-962.267725,536.266849
767.427174,-9252.574275,-370.102971,459.657299
767.427495,-9326.594869,-740.205942,153.219100
767.427815,-9474.636058,-518.144159,229.828649
767.428136,-9622.677246,-814.226536,153.219100
767.428457,-9622.677246,-740.205942,383.047749
767.428778,-9918.759623,-814.226536,689.485948
767.429098,-9918.759623,-370.102971,766.095498
767.429419,-9918.759623,-222.061783,995.924147
767.429740,-9992.780217,0.000000,1991.848295
767.430061,-9918.759623,-370.102971,1455.581446
767.430381,-9992.780217,-666.185348,1378.971896
767.430702,-9770.718434,-814.226536,1685.410096
767.431023,-9770.718434,0.000000,2681.334243
767.431343,-9918.759623,74.020594,2068.457845
767.431664,-9622.677246,74.020594,1915.238745
767.431985,-9326.594869,592.164754,1915.238745
767.432306,-9696.697840,74.020594,1225.752797
767.432626,-9844.739029,370.102971,1608.800546
767.432947,-9622.677246,148.041188,1302.362347
767.433268,-9918.759623,296.082377,1149.143247
767.433589,-9622.677246,0.000000,1149.143247
767.433909,-9104.533087,-518.144159,536.266849
767.434230,-9770.718434,0.000000,1072.533697
767.434551,-9696.697840,-74.020594,766.095498
767.434871,-9548.656652,-296.082377,766.095498
767.435192,-9696.697840,444.123565,229.828649
767.435513,-9400.615463,-296.082377,842.705048
767.435834,-9548.656652,0.000000,766.095498
767.436154,-9622.677246,0.000000,919.314598
767.436475,-9326.594869,-148.041188,1072.533697
767.436796,-9400.615463,74.020594,766.095498
767.437117,-9252.574275,148.041188,995.924147
767.437437,-9474.636058,148.041188,1225.752797
767.437758,-9474.636058,222.061783,1072.533697
767.438079,-8956.491898,0.000000,1072.533697
767.438399,-9326.594869,-148.041188,995.924147
767.438720,-9474.636058,-74.020594,766.095498
767.439041,-9474.636058,-222.061783,689.485948
767.439362,-9474.636058,0.000000,1072.533697
767.439682,-9400.615463,-666.185348,689.485948
767.440003,-9474.636058,-370.102971,536.266849
767.440324,-9474.636058,-592.164754,766.095498
767.440645,-9622.677246,-592.164754,536.266849
767.440965,-9696.697840,-666.185348,766.095498
767.441286,-9770.718434,-444.123565,536.266849
767.441607,-9770.718434,-592.164754,1072.533697
767.441927,-9696.697840,-444.123565,1455.581446
767.442248,-9992.780217,-148.041188,2145.067394
767.442569,-9844.739029,-222.061783,2145.067394
767.442890,-9992.780217,-222.061783,2221.676944
767.443210,-9844.739029,0.000000,2451.505594
767.443531,-9992.780217,444.123565,3217.601092
767.443852,-9548.656652,0.000000,2451.505594
767.444173,-9548.656652,0.000000,2145.067394
767.444493,-9548.656652,0.000000,1915.238745
767.444814,-9474.636058,-222.061783,1455.581446
767.445135,-9548.656652,-296.082377,1149.143247
767.445455,-9548.656652,-444.123565,919.314598
767.445776,-9548.656652,-740.205942,689.485948
767.446097,-9696.697840,-814.226536,536.266849
767.446418,-9992.780217,-592.164754,0.000000
767.446738,-9548.656652,-1110.308913,306.438199
767.447059,-9548.656652,-1258.350101,0.000000
767.447380,-9474.636058,-1184.329507,76.609550
767.447701,-9252.574275,-518.144159,1991.848295
767.448021,-9622.677246,-962.267725,612.876398
767.448342,-9474.636058,-1110.308913,536.266849
767.448663,-9474.636058,-888.247130,383.047749
767.448984,-9548.656652,-666.185348,919.314598
767.449304,-9252.574275,-296.082377,1455.581446
767.449625,-9622.677246,-444.123565,995.924147
767.449946,-9178.553681,-148.041188,919.314598
767.450266,-9252.574275,-296.082377,459.657299
767.450587,-9474.636058,-148.041188,612.876398
767.450908,-9178.553681,-370.102971,536.266849
767.451229,-9326.594869,-518.144159,306.438199
767.451549,-9252.574275,-444.123565,229.828649
767.451870,-9400.615463,-222.061783,-153.219100
767.452191,-9770.718434,-592.164754,536.266849
767.452512,-9770.718434,-666.185348,689.485948
767.452832,-10066.800811,-518.144159,1072.533697
767.453153,-10066.800811,-370.102971,1149.143247
767.453474,-9844.739029,0.000000,2068.457845
767.453794,-9918.759623,-222.061783,2451.505594
767.454115,-9844.739029,0.000000,2298.286494
767.454436,-9992.780217,0.000000,2528.115143
767.454757,-9474.636058,-74.020594,2911.162892
767.455077,-9844.739029,0.000000,2451.505594
767.455398,-9400.615463,222.061783,2451.505594
767.455719,-9770.718434,222.061783,2374.896044
767.456040,-9844.739029,222.061783,1838.629195
767.456360,-9696.697840,0.000000,1915.238745
767.456681,-9770.718434,-222.061783,1072.533697
767.457002,-9770.718434,-370.102971,1378.971896
767.457322,-9696.697840,-592.164754,919.314598
767.457643,-9770.718434,-296.082377,766.095498
767.457964,-9622.677246,-370.102971,842.705048
767.458285,-9696.697840,-222.061783,842.705048
767.458605,-9622.677246,-370.102971,919.314598
767.458926,-9918.759623,-148.041188,383.047749
767.459247,-9622.677246,0.000000,842.705048
767.459568,-9178.553681,74.020594,689.485948
767.459888,-9474.636058,0.000000,612.876398
767.460209,-9030.512492,74.020594,1685.410096
767.460530,-9400.615463,0.000000,536.266849
767.460850,-9252.574275,0.000000,842.705048
767.461171,-9474.636058,74.020594,1072.533697
767.461492,-9326.594869,0.000000,689.485948
767.461813,-9252.574275,-148.041188,536.266849
767.462133,-9474.636058,148.041188,459.657299
767.462454,-9548.656652,0.000000,459.657299
767.462775,-9474.636058,0.000000,306.438199
767.463096,-9548.656652,-370.102971,-383.047749
767.463416,-9622.677246,-592.164754,0.000000
767.463737,-9474.636058,-740.205942,0.000000
767.464058,-9622.677246,-666.185348,76.609550
767.464378,-9474.636058,-888.247130,0.000000
767.464699,-9622.677246,-740.205942,459.657299
767.465020,-9696.697840,-666.185348,842.705048
767.465341,-9770.718434,-740.205942,1302.362347
767.465661,-9622.677246,-592.164754,1685.410096
767.465982,-9918.759623,-666.185348,1838.629195
767.466303,-9622.677246,-222.061783,2145.067394
767.466624,-9770.718434,-222.061783,2068.457845
767.466944,-10066.800811,222.061783,2451.505594
767.467265,-9770.718434,0.000000,2451.505594
767.467586,-9548.656652,0.000000,1915.238745
767.467906,-9770.718434,74.020594,2298.286494
767.468227,-9622.677246,0.000000,1991.848295
767.468548,-9474.636058,0.000000,2145.067394
767.468869,-9400.615463,-370.102971,1532.190996
767.469189,-9474.636058,-296.082377,1149.143247
767.469510,-9696.697840,-444.123565,1072.533697
767.469831,-9770.718434,-592.164754,1378.971896
767.470151,-9474.636058,-962.267725,1149.143247
767.470472,-9622.677246,-962.267725,766.095498
767.470793,-9696.697840,-888.247130,689.485948
767.471114,-9770.718434,-740.205942,842.705048
767.471434,-9918.759623,-518.144159,1685.410096
767.471755,-9770.718434,-740.205942,766.095498
767.472076,-9548.656652,-592.164754,919.314598
767.472396,-9622.677246,-740.205942,1225.752797
767.472717,-9178.553681,-444.123565,1685.410096
767.473038,-9400.615463,-592.164754,1302.362347
767.473358,-9326.594869,-222.061783,1225.752797
767.473679,-9104.533087,-148.041188,459.657299
767.474000,-9400.615463,-296.082377,766.095498
767.474321,-9030.512492,-444.123565,919.314598
767.474641,-9326.594869,-962.267725,0.000000
767.474962,-9252.574275,-592.164754,-306.438199
767.475283,-9622.677246,-1036.288319,76.609550
767.475603,-9400.615463,-814.226536,689.485948
767.475924,-9770.718434,-444.123565,306.438199
767.476245,-9770.718434,-444.123565,536.266849
767.476566,-9992.780217,-518.144159,612.876398
767.476886,-9918.759623,-296.082377,1072.533697
767.477207,-10066.800811,-444.123565,1915.238745
767.477528,-9844.739029,0.000000,1685.410096
767.477848,-9770.718434,222.061783,1915.238745
767.478169,-9548.656652,74.020594,2145.067394
767.478490,-8956.491898,0.000000,2757.943793
767.478810,-9474.636058,0.000000,1915.238745
767.479131,-9548.656652,0.000000,1608.800546
767.479452,-9474.636058,0.000000,1838.629195
767.479773,-9548.656652,0.000000,1225.752797
767.480093,-9622.677246,0.000000,1762.019645
767.480414,-9918.759623,-74.020594,1455.581446
767.480735,-9770.718434,-148.041188,1302.362347
767.481055,-9918.759623,-222.061783,1302.362347
767.481376,-9918.759623,0.000000,995.924147
767.481697,-9992.780217,0.000000,1072.533697
767.482017,-9696.697840,0.000000,1072.533697
767.482338,-9622.677246,-518.144159,766.095498
767.482659,-9474.636058,-222.061783,1072.533697
767.482980,-9770.718434,-370.102971,1302.362347
767.483300,-9622.677246,-148.041188,1302.362347
767.483621,-9474.636058,-148.041188,1072.533697
767.483942,-8956.491898,-370.102971,2145.067394
767.484262,-9400.615463,0.000000,1608.800546
767.484583,-9474.636058,-74.020594,1455.581446
767.484904,-9474.636058,0.000000,1225.752797
767.485225,-9326.594869,0.000000,919.314598
767.485545,-9474.636058,-296.082377,919.314598
767.485866,-9474.636058,0.000000,1455.581446
767.486187,-9474.636058,-222.061783,689.485948
767.486507,-9474.636058,-222.061783,306.438199
767.486828,-8364.327145,-814.226536,-153.219100
767.487149,-9252.574275,-592.164754,153.219100
767.487469,-9326.594869,-666.185348,536.266849
767.487790,-9474.636058,-888.247130,459.657299
767.488111,-8882.471304,-888.247130,536.266849
767.488432,-9400.615463,-888.247130,689.485948
767.488752,-9474.636058,-518.144159,995.924147
767.489073,-9770.718434,-666.185348,919.314598
767.489394,-9844.739029,-518.144159,1302.362347
767.489714,-9992.780217,0.000000,1915.238745
767.490035,-9992.780217,-296.082377,1762.019645
767.490356,-9918.759623,0.000000,2068.457845
767.490677,-10066.800811,222.061783,1991.848295
767.490997,-9548.656652,296.082377,3370.820191
767.491318,-9622.677246,0.000000,1532.190996
767.491639,-9474.636058,-148.041188,1455.581446
767.491959,-9844.739029,0.000000,1225.752797
767.492280,-9844.739029,74.020594,1532.190996
767.492601,-9474.636058,-444.123565,612.876398
767.492921,-9622.677246,-592.164754,919.314598
767.493242,-9622.677246,-592.164754,842.705048
767.493563,-9770.718434,-888.247130,612.876398
767.493884,-9622.677246,-740.205942,0.000000
767.494204,-9696.697840,-1036.288319,689.485948
767.494525,-9548.656652,-888.247130,612.876398
767.494846,-9770.718434,-740.205942,536.266849
767.495166,-9992.780217,-592.164754,459.657299
767.495487,-9918.759623,-444.123565,1072.533697
767.495808,-9548.656652,-666.185348,1225.752797
767.496129,-9770.718434,-222.061783,1455.581446
767.496449,-8882.471304,-1036.288319,2451.505594
767.496770,-9474.636058,0.000000,1685.410096
767.497091,-9326.594869,-222.061783,1225.752797
767.497411,-9326.594869,222.061783,1149.143247
767.497732,-9252.574275,-148.041188,995.924147
767.498053,-9326.594869,-148.041188,306.438199
767.498373,-9326.594869,-592.164754,306.438199
767.498694,-9252.574275,-592.164754,76.609550
767.499015,-9474.636058,-666.185348,459.657299
767.499336,-9104.533087,-888.247130,919.314598
767.499656,-9696.697840,-962.267725,536.266849
767.499977,-9844.739029,-666.185348,536.266849
767.500298,-9770.718434,-888.247130,766.095498
767.500618,-10066.800811,0.000000,1608.800546
767.500939,-9918.759623,0.000000,1915.238745
767.501260,-9844.739029,0.000000,1915.238745
767.501581,-9918.759623,0.000000,2374.896044
767.501901,-9400.615463,0.000000,1991.848295
767.502222,-9474.636058,0.000000,1762.019645
767.502543,-9474.636058,148.041188,1838.629195
767.502863,-9474.636058,0.000000,1532.190996
767.503184,-9400.615463,222.061783,1302.362347
767.503505,-9030.512492,-148.041188,1608.800546
767.503825,-9548.656652,222.061783,1302.362347
767.504146,-9918.759623,0.000000,1149.143247
767.504467,-9696.697840,0.000000,1149.143247
767.504788,-10066.800811,0.000000,1991.848295
767.505108,-9770.718434,-296.082377,1149.143247
767.505429,-9992.780217,-518.144159,842.705048
767.505750,-9474.636058,-444.123565,919.314598
767.506070,-9696.697840,-592.164754,766.095498
767.506391,-9696.697840,-370.102971,842.705048
767.506712,-9474.636058,-592.164754,1149.143247
767.507033,-9474.636058,-444.123565,1302.362347
767.507353,-9474.636058,-518.144159,1455.581446
767.507674,-9770.718434,-148.041188,766.095498
767.507995,-9548.656652,-148.041188,919.314598
767.508315,-9474.636058,0.000000,1225.752797
767.508636,-9474.636058,0.000000,919.314598
767.508957,-9326.594869,370.102971,536.266849
767.509277,-9622.677246,0.000000,842.705048
767.509598,-9622.677246,0.000000,536.266849
767.509919,-9844.739029,0.000000,766.095498
767.510240,-9474.636058,-296.082377,536.266849
767.510560,-9400.615463,-518.144159,0.000000
767.510881,-9548.656652,-444.123565,536.266849
767.511202,-9326.594869,-740.205942,766.095498
767.511522,-9474.636058,-740.205942,612.876398
767.511843,-9548.656652,-592.164754,766.095498
767.512164,-9770.718434,-518.144159,1072.533697
767.512485,-9696.697840,-296.082377,1532.190996
767.512805,-9844.739029,-518.144159,1762.019645
767.513126,-9770.718434,-814.226536,2451.505594
767.513447,-9770.718434,-518.144159,2145.067394
767.513767,-9622.677246,-518.144159,1991.848295
767.514088,-9770.718434,-518.144159,2145.067394
767.514409,-9622.677246,-370.102971,2145.067394
767.514729,-9548.656652,-222.061783,2068.457845
767.515050,-9400.615463,0.000000,1608.800546
767.515371,-9474.636058,-518.144159,1302.362347
767.515692,-9474.636058,-370.102971,1072.533697
767.516012,-9622.677246,-296.082377,536.266849
767.516333,-9696.697840,-370.102971,689.485948
767.516654,-9474.636058,-444.123565,842.705048
767.516974,-9622.677246,-666.185348,383.047749
767.517295,-8660.409521,-1258.350101,1302.362347
767.517616,-9696.697840,-888.247130,229.828649
767.517937,-9770.718434,-592.164754,76.609550
767.518257,-9548.656652,-740.205942,0.000000
767.518578,-9696.697840,-888.247130,229.828649
767.518899,-9696.697840,-518.144159,536.266849
767.519219,-9696.697840,-666.185348,689.485948
767.519540,-9548.656652,-370.102971,689.485948
767.519861,-9844.739029,-370.102971,919.314598
767.520181,-10066.800811,-148.041188,842.705048
767.520502,-9548.656652,-296.082377,995.924147
767.520823,-9326.594869,-592.164754,766.095498
767.521144,-9326.594869,-444.123565,459.657299
767.521464,-9326.594869,-740.205942,612.876398
767.521785,-9326.594869,-444.123565,383.047749
767.522106,-9474.636058,-740.205942,229.828649
767.522426,-9474.636058,-888.247130,306.438199
767.522747,-9622.677246,-962.267725,689.485948
767.523068,-9622.677246,-814.226536,612.876398
767.523389,-9696.697840,-962.267725,1225.752797
767.523709,-9622.677246,-666.185348,1225.752797
767.524030,-9770.718434,-814.226536,1762.019645
767.524351,-9918.759623,-740.205942,1302.362347
767.524671,-9918.759623,-444.123565,1915.238745
767.524992,-9548.656652,-74.020594,2374.896044
767.525313,-9696.697840,0.000000,2528.115143
767.525633,-9548.656652,740.205942,2911.162892
767.525954,-9844.739029,370.102971,2451.505594
767.526275,-9474.636058,592.164754,2451.505594
767.526596,-9474.636058,74.020594,2221.676944
767.526916,-9622.677246,222.061783,1838.629195
767.527237,-9474.636058,370.102971,1915.238745
767.527558,-9622.677246,0.000000,1762.019645
767.527878,-9474.636058,-148.041188,1149.143247
767.528199,-9696.697840,0.000000,1302.362347
767.528520,-10140.821405,222.061783,689.485948
767.528841,-9918.759623,-296.082377,536.266849
767.529161,-9696.697840,-222.061783,306.438199
767.529482,-9474.636058,-444.123565,229.828649
767.529803,-9548.656652,-370.102971,995.924147
767.530123,-9548.656652,-296.082377,766.095498
767.530444,-9696.697840,-296.082377,612.876398
767.530765,-9400.615463,0.000000,919.314598
767.531085,-9548.656652,0.000000,995.924147
767.531406,-9474.636058,296.082377,1149.143247
767.531727,-9548.656652,0.000000,612.876398
767.532048,-9326.594869,0.000000,536.266849
767.532368,-9178.553681,-148.041188,0.000000
767.532689,-8586.388927,444.123565,153.219100
767.533010,-9474.636058,0.000000,229.828649
767.533330,-9622.677246,0.000000,-153.219100
767.533651,-9474.636058,0.000000,0.000000
767.533972,-9474.636058,-222.061783,1608.800546
767.534293,-9326.594869,-296.082377,0.000000
767.534613,-9770.718434,-666.185348,306.438199
767.534934,-9326.594869,-666.185348,766.095498
767.535255,-9548.656652,-814.226536,536.266849
767.535575,-9548.656652,-370.102971,995.924147
767.535896,-9844.739029,-444.123565,1072.533697
767.536217,-9622.677246,0.000000,1608.800546
767.536537,-9918.759623,-222.061783,1455.581446
767.536858,-9178.553681,-222.061783,1915.238745
767.537179,-9770.718434,0.000000,2221.676944
767.537500,-9696.697840,148.041188,2374.896044
767.537820,-9770.718434,-74.020594,2681.334243
767.538141,-9622.677246,-148.041188,2604.724693
767.538462,-9548.656652,-222.061783,2374.896044
767.538782,-9696.697840,-222.061783,2145.067394
767.539103,-9696.697840,-296.082377,2451.505594
767.539424,-9548.656652,-370.102971,1915.238745
767.539745,-9252.574275,-740.205942,1532.190996
767.540065,-9474.636058,-888.247130,1608.800546
767.540386,-9548.656652,-592.164754,1072.533697
767.540707,-9770.718434,-1036.288319,1608.800546
767.541027,-8808.450710,-1258.350101,1149.143247
767.541348,-9474.636058,-1258.350101,1149.143247
767.541669,-9548.656652,-962.267725,766.095498
767.541989,-9770.718434,-1184.329507,1072.533697
767.542310,-9548.656652,-962.267725,1608.800546
767.542631,-9770.718434,-592.164754,1455.581446
767.542952,-9474.636058,-814.226536,1302.362347
767.543272,-9474.636058,-666.185348,842.705048
767.543593,-9696.697840,-296.082377,1149.143247
767.543914,-9770.718434,74.020594,766.095498
767.544234,-9474.636058,0.000000,459.657299
767.544555,-9474.636058,0.000000,229.828649
767.544876,-9474.636058,74.020594,0.000000
767.545197,-9474.636058,-222.061783,0.000000
767.545517,-9770.718434,-444.123565,306.438199
767.545838,-9400.615463,-592.164754,-689.485948
767.546159,-9548.656652,-740.205942,0.000000
767.546479,-9622.677246,-666.185348,153.219100
767.546800,-10214.842000,-592.164754,-383.047749
767.547121,-9844.739029,-518.144159,153.219100
767.547441,-9770.718434,-444.123565,459.657299
767.547762,-9770.718434,-296.082377,766.095498
767.548083,-10066.800811,-74.020594,-842.705048
767.548404,-9622.677246,296.082377,1302.362347
767.548724,-9770.718434,0.000000,1685.410096
767.549045,-9770.718434,74.020594,1685.410096
767.549366,-9622.677246,0.000000,1608.800546
767.549686,-9844.739029,962.267725,1991.848295
767.550007,-9474.636058,518.144159,1455.581446
767.550328,-9548.656652,370.102971,1685.410096
767.550649,-9474.636058,370.102971,1685.410096
767.550969,-9770.718434,74.020594,1762.019645
767.551290,-9474.636058,0.000000,1455.581446
767.551611,-9696.697840,0.000000,1608.800546
767.551931,-9696.697840,0.000000,1455.581446
767.552252,-9844.739029,0.000000,1225.752797
767.552573,-9548.656652,0.000000,1072.533697
767.552893,-9696.697840,-444.123565,1378.971896
767.553214,-9474.636058,-666.185348,1302.362347
767.553535,-9622.677246,-592.164754,1532.190996
767.553856,-9474.636058,-592.164754,1378.971896
767.554176,-9104.533087,-592.164754,1685.410096
767.554497,-9548.656652,-370.102971,1532.190996
767.554818,-9474.636058,-518.144159,1378.971896
767.555138,-9326.594869,-518.144159,1762.019645
767.555459,-9918.759623,74.020594,689.485948
767.555780,-9252.574275,-296.082377,1532.190996
767.556100,-9474.636058,-222.061783,1302.362347
767.556421,-9326.594869,-296.082377,1072.533697
767.556742,-9474.636058,-444.123565,1072.533697
767.557063,-9474.636058,-370.102971,1532.190996
767.557383,-9474.636058,-592.164754,536.266849
767.557704,-9326.594869,-592.164754,459.657299
767.558025,-9474.636058,-814.226536,536.266849
767.558345,-9474.636058,-444.123565,842.705048
767.558666,-9696.697840,-444.123565,0.000000
767.558987,-9622.677246,-518.144159,612.876398
767.559308,-9474.636058,-740.205942,306.438199
767.559628,-9696.697840,-592.164754,842.705048
767.559949,-10066.800811,-296.082377,689.485948
767.560270,-9992.780217,-370.102971,1225.752797
767.560590,-9844.739029,-370.102971,1225.752797
767.560911,-9696.697840,-148.041188,1455.581446
767.561232,-9992.780217,-444.123565,1302.362347
767.561552,-9770.718434,0.000000,1532.190996
767.561873,-9696.697840,0.000000,1532.190996
767.562194,-9474.636058,-222.061783,919.314598
767.562515,-9548.656652,-444.123565,2834.553343
767.562835,-9474.636058,-222.061783,995.924147
767.563156,-9696.697840,-74.020594,842.705048
767.563477,-9474.636058,-370.102971,689.485948
767.563797,-9548.656652,-444.123565,689.485948
767.564118,-9918.759623,-740.205942,76.609550
767.564439,-9696.697840,-592.164754,612.876398
767.564760,-9770.718434,-814.226536,153.219100
767.565080,-9770.718434,-592.164754,459.657299
767.565401,-9622.677246,-1480.411884,383.047749
767.565722,-9474.636058,-962.267725,689.485948
767.566042,-9474.636058,-962.267725,536.266849
767.566363,-9622.677246,-370.102971,1072.533697
767.566684,-9622.677246,-666.185348,1378.971896
767.567004,-9474.636058,-740.205942,1302.362347
767.567325,-9548.656652,-518.144159,1608.800546
767.567646,-9474.636058,0.000000,1302.362347
767.567967,-9252.574275,-296.082377,1532.190996
767.568287,-9326.594869,-1110.308913,1072.533697
767.568608,-9326.594869,-222.061783,1378.971896
767.568929,-9400.615463,-148.041188,612.876398
767.569249,-9474.636058,0.000000,995.924147
767.569570,-9548.656652,-296.082377,842.705048
767.569891,-8882.471304,296.082377,842.705048
767.570211,-9548.656652,-444.123565,1149.143247
767.570532,-9992.780217,-444.123565,1302.362347
767.570853,-9696.697840,-518.144159,1532.190996
767.571174,-9918.759623,-370.102971,1838.629195
767.571494,-9918.759623,-74.020594,2145.067394
767.571815,-10066.800811,74.020594,1991.848295
767.572136,-9770.718434,222.061783,1915.238745
767.572456,-9770.718434,296.082377,1991.848295
767.572777,-9474.636058,592.164754,2987.772442
767.573098,-9696.697840,148.041188,1991.848295
767.573419,-9622.677246,148.041188,1915.238745
767.573739,-9622.677246,148.041188,2068.457845
767.574060,-9474.636058,0.000000,1532.190996
767.574381,-9696.697840,-148.041188,1378.971896
767.574701,-9474.636058,-148.041188,1302.362347
767.575022,-9696.697840,-296.082377,995.924147
767.575343,-9474.636058,-296.082377,766.095498
767.575663,-9992.780217,-222.061783,919.314598
767.575984,-9770.718434,-518.144159,612.876398
767.576305,-9548.656652,-444.123565,459.657299
767.576626,-9622.677246,-370.102971,689.485948
767.576946,-9548.656652,-518.144159,459.657299
767.577267,-9178.553681,-518.144159,536.266849
767.577588,-9548.656652,-444.123565,689.485948
767.577908,-9400.615463,-222.061783,612.876398
767.578229,-9474.636058,-148.041188,612.876398
767.578550,-9474.636058,-222.061783,612.876398
767.578870,-9252.574275,-148.041188,689.485948
767.579191,-9474.636058,0.000000,995.924147
767.579512,-9400.615463,0.000000,842.705048
767.579833,-9548.656652,0.000000,919.314598
767.580153,-9252.574275,-222.061783,689.485948
767.580474,-9474.636058,0.000000,153.219100
767.580795,-9474.636058,-148.041188,306.438199
767.581115,-9696.697840,-370.102971,383.047749
767.581436,-9474.636058,-518.144159,459.657299
767.581757,-9178.553681,-74.020594,919.314598
767.582077,-9474.636058,-962.267725,766.095498
767.582398,-9548.656652,-666.185348,766.095498
767.582719,-9770.718434,-740.205942,842.705048
767.583040,-9770.718434,-888.247130,995.924147
767.583360,-10214.842000,-518.144159,1685.410096
767.583681,-9696.697840,-592.164754,2068.457845
767.584002,-10066.800811,-370.102971,2374.896044
767.584322,-9770.718434,-370.102971,2374.896044
767.584643,-9844.739029,-444.123565,1991.848295
767.584964,-9844.739029,0.000000,2604.724693
767.585284,-9622.677246,-148.041188,2221.676944
767.585605,-9548.656652,0.000000,2298.286494
767.585926,-9770.718434,0.000000,1838.629195
767.586247,-9474.636058,-962.267725,1532.190996
767.586567,-9696.697840,-444.123565,1762.019645
767.586888,-9622.677246,-592.164754,1378.971896
767.587209,-9622.677246,-888.247130,1302.362347
767.587529,-9326.594869,-888.247130,1072.533697
767.587850,-9622.677246,-962.267725,919.314598
767.588171,-9548.656652,-1258.350101,689.485948
767.588491,-9622.677246,-1110.308913,459.657299
767.588812,-9622.677246,-740.205942,689.485948
767.589133,-10140.821405,-666.185348,-153.219100
767.589454,-9844.739029,-518.144159,383.047749
767.589774,-9622.677246,-370.102971,153.219100
767.590095,-9622.677246,-444.123565,612.876398
767.590416,-9548.656652,-370.102971,1072.533697
767.590736,-9400.615463,-370.102971,2298.286494
767.591057,-9474.636058,0.000000,1072.533697
767.591378,-9474.636058,0.000000,612.876398
767.591698,-9400.615463,0.000000,842.705048
767.592019,-9252.574275,0.000000,459.657299
767.592340,-9104.533087,-370.102971,229.828649
767.592661,-9474.636058,-222.061783,229.828649
767.592981,-9474.636058,-370.102971,0.000000
767.593302,-9548.656652,-592.164754,153.219100
767.593623,-9770.718434,-888.247130,1302.362347
767.593943,-9770.718434,-518.144159,1072.533697
767.594264,-9770.718434,-592.164754,919.314598
767.594585,-9918.759623,-296.082377,1378.971896
767.594905,-9992.780217,-518.144159,1685.410096
767.595226,-9844.739029,-296.082377,1685.410096
767.595547,-9844.739029,0.000000,1838.629195
767.595868,-9844.739029,148.041188,2068.457845
767.596188,-9622.677246,148.041188,2068.457845
767.596509,-9696.697840,222.061783,2298.286494
767.596830,-9622.677246,296.082377,2145.067394
767.597150,-9548.656652,444.123565,2068.457845
767.597471,-9622.677246,222.061783,1838.629195
767.597792,-9474.636058,148.041188,1532.190996
767.598113,-10066.800811,296.082377,1378.971896
767.598433,-9622.677246,148.041188,919.314598
767.598754,-9770.718434,0.000000,919.314598
767.599075,-9696.697840,-296.082377,766.095498
767.599395,-9770.718434,0.000000,842.705048
767.599716,-9178.553681,-814.226536,1378.971896
767.600037,-9548.656652,-296.082377,612.876398
767.600357,-9474.636058,-296.082377,689.485948
767.600678,-9474.636058,-518.144159,842.705048
767.600999,-9400.615463,-370.102971,995.924147
767.601320,-9400.615463,-814.226536,1072.533697
767.601640,-9474.636058,-444.123565,842.705048
767.601961,-9474.636058,-370.102971,1072.533697
767.602282,-9400.615463,-370.102971,1072.533697
767.602602,-9474.636058,-148.041188,536.266849
767.602923,-9474.636058,-148.041188,1072.533697
767.603244,-9696.697840,-222.061783,766.095498
767.603564,-9474.636058,-444.123565,842.705048
767.603885,-9548.656652,-444.123565,842.705048
767.604206,-9622.677246,-370.102971,306.438199
767.604527,-9548.656652,-518.144159,306.438199
767.604847,-9474.636058,-518.144159,459.657299
767.605168,-9474.636058,-592.164754,76.609550
767.605489,-9474.636058,74.020594,0.000000
767.605809,-9548.656652,-888.247130,459.657299
767.606130,-9548.656652,-518.144159,153.219100
767.606451,-9696.697840,-814.226536,459.657299
767.606771,-9844.739029,-518.144159,995.924147
767.607092,-9918.759623,-444.123565,1762.019645
767.607413,-10066.800811,-222.061783,1915.238745
767.607734,-9992.780217,-222.061783,1762.019645
767.608054,-9992.780217,0.000000,1991.848295
767.608375,-10066.800811,0.000000,2068.457845
767.608696,-9844.739029,0.000000,2221.676944
767.609016,-9844.739029,74.020594,2374.896044
767.609337,-9474.636058,0.000000,1838.629195
767.609658,-9474.636058,444.123565,2987.772442
767.609978,-9474.636058,0.000000,1532.190996
767.610299,-9548.656652,0.000000,1532.190996
767.610620,-9696.697840,-222.061783,1455.581446
767.610941,-9548.656652,-296.082377,919.314598
767.611261,-9548.656652,-666.185348,689.485948
767.611582,-9548.656652,-1184.329507,612.876398
767.611903,-9622.677246,-1258.350101,153.219100
767.612223,-9474.636058,-1036.288319,0.000000
767.612544,-9252.574275,-1036.288319,0.000000
767.612865,-9474.636058,-740.205942,153.219100
767.613185,-9548.656652,-814.226536,612.876398
767.613506,-9548.656652,-518.144159,842.705048
767.613827,-9622.677246,-296.082377,1225.752797
767.614148,-9548.656652,-296.082377,1302.362347
767.614468,-9770.718434,-222.061783,1378.971896
767.614789,-9474.636058,0.000000,995.924147
767.615110,-9252.574275,-296.082377,1149.143247
767.615430,-8956.491898,0.000000,1455.581446
767.615751,-9178.553681,0.000000,919.314598
767.616072,-9178.553681,-296.082377,612.876398
767.616392,-9252.574275,-518.144159,229.828649
767.616713,-9252.574275,0.000000,0.000000
767.617034,-9622.677246,-296.082377,612.876398
767.617355,-9918.759623,-444.123565,689.485948
767.617675,-10066.800811,-592.164754,995.924147
767.617996,-9992.780217,-444.123565,229.828649
767.618317,-9918.759623,-222.061783,1072.533697
767.618637,-9992.780217,-296.082377,1608.800546
767.618958,-10288.862594,0.000000,2068.457845
767.619279,-10066.800811,-148.041188,2068.457845
767.619599,-9992.780217,74.020594,2068.457845
767.619920,-9844.739029,-74.020594,1838.629195
767.620241,-9548.656652,0.000000,1991.848295
767.620562,-9622.677246,222.061783,2221.676944
767.620882,-9400.615463,0.000000,1532.190996
767.621203,-9622.677246,74.020594,2068.457845
767.621524,-9548.656652,0.000000,1455.581446
767.621844,-9474.636058,0.000000,1378.971896
767.622165,-9548.656652,370.102971,766.095498
767.622486,-9696.697840,-148.041188,919.314598
767.622806,-9770.718434,-296.082377,842.705048
767.623127,-9622.677246,-666.185348,536.266849
767.623448,-9770.718434,-962.267725,842.705048
767.623769,-9622.677246,-814.226536,919.314598
767.624089,-9400.615463,-962.267725,612.876398
767.624410,-9252.574275,-814.226536,459.657299
767.624731,-9400.615463,-814.226536,689.485948
767.625051,-9622.677246,-222.061783,459.657299
767.625372,-9548.656652,-666.185348,1149.143247
767.625693,-9400.615463,-74.020594,612.876398
767.626014,-9400.615463,-444.123565,1149.143247
767.626334,-9474.636058,222.061783,2374.896044
767.626655,-9474.636058,-296.082377,1302.362347
767.626976,-9474.636058,-148.041188,919.314598
767.627296,-9474.636058,-370.102971,612.876398
767.627617,-9474.636058,-296.082377,229.828649
767.627938,-9252.574275,-296.082377,383.047749
767.628258,-9474.636058,-518.144159,536.266849
767.628579,-9400.615463,-444.123565,0.000000
767.628900,-9474.636058,-1110.308913,-153.219100
767.629221,-9696.697840,-592.164754,459.657299
767.629541,-9696.697840,-1184.329507,229.828649
767.629862,-9696.697840,-1036.288319,459.657299
767.630183,-9918.759623,-740.205942,1072.533697
767.630503,-10140.821405,-1184.329507,2374.896044
767.630824,-10066.800811,-296.082377,1532.190996
767.631145,-9992.780217,0.000000,1991.848295
767.631465,-9844.739029,0.000000,2298.286494
767.631786,-9992.780217,0.000000,2451.505594
767.632107,-9844.739029,148.041188,2298.286494
767.632428,-9770.718434,74.020594,2221.676944
767.632748,-9696.697840,148.041188,2068.457845
767.633069,-9474.636058,0.000000,1915.238745
767.633390,-9252.574275,0.000000,1532.190996
767.633710,-9326.594869,74.020594,995.924147
767.634031,-9474.636058,-222.061783,1072.533697
767.634352,-9548.656652,0.000000,1225.752797
767.634672,-9548.656652,0.000000,536.266849
767.634993,-9622.677246,-296.082377,689.485948
767.635314,-9548.656652,-740.205942,612.876398
767.635635,-9548.656652,-740.205942,536.266849
767.635955,-9622.677246,-814.226536,612.876398
767.636276,-9252.574275,-666.185348,612.876398
767.636597,-9474.636058,-1110.308913,995.924147
767.636917,-9474.636058,-518.144159,1302.362347
767.637238,-9548.656652,-370.102971,1149.143247
767.637559,-9326.594869,-444.123565,2068.457845
767.637879,-9474.636058,-222.061783,1685.410096
767.638200,-9178.553681,-370.102971,1455.581446
767.638521,-9178.553681,0.000000,1149.143247
767.638842,-8882.471304,-222.061783,306.438199
767.639162,-9252.574275,-74.020594,919.314598
767.639483,-9252.574275,-148.041188,536.266849
767.639804,-9326.594869,0.000000,306.438199
767.640124,-9474.636058,-370.102971,536.266849
767.640445,-9622.677246,-370.102971,153.219100
767.640766,-9622.677246,-592.164754,612.876398
767.641086,-9548.656652,-592.164754,383.047749
767.641407,-9770.718434,-518.144159,383.047749
767.641728,-9474.636058,-518.144159,689.485948
767.642049,-9770.718434,-222.061783,1378.971896
767.642369,-9992.780217,0.000000,1532.190996
767.642690,-9770.718434,0.000000,1838.629195
767.643011,-9918.759623,0.000000,1838.629195
767.643331,-9696.697840,74.020594,1915.238745
767.643652,-9696.697840,222.061783,1838.629195
767.643973,-9770.718434,370.102971,1991.848295
767.644293,-9696.697840,74.020594,1455.581446
767.644614,-9696.697840,222.061783,1532.190996
767.644935,-9918.759623,0.000000,1225.752797
767.645256,-9622.677246,-148.041188,1072.533697
767.645576,-9770.718434,0.000000,1072.533697
767.645897,-9548.656652,0.000000,1455.581446
767.646218,-10066.800811,0.000000,1225.752797
767.646538,-9548.656652,-370.102971,1072.533697
767.646859,-9696.697840,-666.185348,689.485948
767.647180,-9548.656652,-1332.370696,536.266849
767.647500,-9770.718434,-888.247130,689.485948
767.647821,-9474.636058,-962.267725,612.876398
767.648142,-9474.636058,-740.205942,919.314598
767.648463,-9400.615463,-1110.308913,842.705048
767.648783,-9474.636058,-518.144159,612.876398
767.649104,-9474.636058,-518.144159,1225.752797
767.649425,-9474.636058,-296.082377,842.705048
767.649745,-9474.636058,-370.102971,1149.143247
767.650066,-8956.491898,-296.082377,612.876398
767.650387,-9400.615463,-370.102971,995.924147
767.650707,-9326.594869,0.000000,919.314598
767.651028,-9474.636058,-370.102971,612.876398
767.651349,-9844.739029,74.020594,612.876398
767.651670,-9474.636058,-296.082377,689.485948
767.651990,-9474.636058,-666.185348,306.438199
767.652311,-9252.574275,-666.185348,229.828649
767.652632,-9252.574275,-592.164754,306.438199
767.652952,-9474.636058,-814.226536,459.657299
767.653273,-9548.656652,-666.185348,459.657299
767.653594,-9770.718434,-962.267725,1302.362347
767.653915,-9770.718434,-666.185348,1225.752797
767.654235,-10288.862594,-444.123565,1532.190996
767.654556,-9918.759623,-222.061783,1838.629195
767.654877,-10066.800811,-148.041188,2757.943793
767.655197,-9992.780217,-148.041188,2528.115143
767.655518,-9696.697840,0.000000,1608.800546
767.655839,-9844.739029,-148.041188,2221.676944
767.656159,-9622.677246,0.000000,2298.286494
767.656480,-9474.636058,0.000000,2145.067394
767.656801,-9548.656652,0.000000,1532.190996
767.657122,-9326.594869,-222.061783,1149.143247
767.657442,-9622.677246,-148.041188,766.095498
767.657763,-9474.636058,-370.102971,689.485948
767.658084,-9696.697840,-592.164754,306.438199
767.658404,-10066.800811,-592.164754,383.047749
767.658725,-9770.718434,-888.247130,0.000000
767.659046,-9474.636058,-592.164754,-76.609550
767.659366,-9696.697840,-518.144159,0.000000
767.659687,-9252.574275,0.000000,536.266849
767.660008,-9696.697840,-592.164754,383.047749
767.660329,-9548.656652,-592.164754,612.876398
767.660649,-9622.677246,-592.164754,612.876398
767.660970,-9474.636058,-444.123565,995.924147
767.661291,-9474.636058,74.020594,1378.971896
767.661611,-9400.615463,0.000000,1455.581446
767.661932,-9400.615463,296.082377,1302.362347
767.662253,-9474.636058,148.041188,766.095498
