#time,accel_x,accel_y,accel_z
906.519846,-9548.656652,-222.061783,842.705048
906.520167,-9548.656652,-370.102971,1072.533697
906.520488,-9622.677246,-444.123565,919.314598
906.520809,-9474.636058,-148.041188,995.924147
906.521129,-9400.615463,-444.123565,1149.143247
906.521450,-9622.677246,-296.082377,919.314598
906.521771,-9474.636058,-518.144159,842.705048
906.522092,-9548.656652,-518.144159,1072.533697
906.522412,-9770.718434,-222.061783,919.314598
906.522733,-9474.636058,-444.123565,1072.533697
906.523054,-9918.759623,-370.102971,306.438199
906.523375,-9548.656652,-222.061783,919.314598
906.523695,-9474.636058,-370.102971,536.266849
906.524016,-9474.636058,-444.123565,919.314598
906.524337,-9548.656652,-222.061783,1302.362347
906.524658,-9474.636058,-444.123565,689.485948
906.524978,-9622.677246,-296.082377,689.485948
906.525299,-9622.677246,-592.164754,842.705048
906.525620,-9622.677246,-222.061783,995.924147
906.525941,-9992.780217,0.000000,1302.362347
906.526261,-9918.759623,-518.144159,1149.143247
906.526582,-9696.697840,-740.205942,919.314598
906.526903,-9770.718434,-518.144159,1072.533697
906.527224,-9622.677246,-518.144159,1532.190996
906.527544,-9474.636058,0.000000,1072.533697
906.527865,-9844.739029,-370.102971,1225.752797
906.528186,-9696.697840,-666.185348,995.924147
906.528507,-9178.553681,-1332.370696,842.705048
906.528827,-9326.594869,-1480.411884,76.609550
906.529148,-9622.677246,-962.267725,306.438199
906.529469,-9696.697840,-592.164754,536.266849
906.529790,-9622.677246,-962.267725,536.266849
906.530110,-9400.615463,-962.267725,0.000000
906.530431,-9770.718434,-962.267725,-153.219100
906.530752,-9696.697840,-740.205942,0.000000
906.531073,-9770.718434,-740.205942,0.000000
906.531393,-10955.047942,148.041188,-612.876398
906.531714,-9622.677246,-1184.329507,-766.095498
906.532035,-9474.636058,-1258.350101,-689.485948
906.532356,-9474.636058,-2072.576638,-919.314598
906.532676,-9252.574275,-2738.761985,-2221.676944
906.532997,-9030.512492,-2738.761985,-1608.800546
906.533318,-9252.574275,-2664.741391,-2145.067394
906.533639,-9400.615463,-2738.761985,-2528.115143
906.533959,-9474.636058,-2294.638420,-2451.505594
906.534280,-9622.677246,-2664.741391,-3064.381992
906.534601,-9400.615463,-2960.823768,-3600.648841
906.534922,-9548.656652,-3404.947333,-4213.525239
906.535242,-9622.677246,-3627.009116,-4213.525239
906.535563,-10140.821405,-3108.864956,-4136.915689
906.535884,-9474.636058,-3701.029710,-3447.429741
906.536205,-9548.656652,-4145.153275,-3370.820191
906.536525,-9326.594869,-4145.153275,-2987.772442
906.536846,-9770.718434,-4515.256246,-2451.505594
906.537167,-9252.574275,-5033.400406,-2298.286494
906.537488,-9548.656652,-5403.503377,-2221.676944
906.537808,-9326.594869,-4663.297435,-2298.286494
906.538129,-9178.553681,-4071.132681,-2221.676944
906.538450,-9252.574275,-3775.050304,-2298.286494
906.538771,-9474.636058,-3552.988522,-2221.676944
906.539091,-9400.615463,-3701.029710,-2528.115143
906.539412,-9622.677246,-3552.988522,-2528.115143
906.539733,-10214.842000,-3552.988522,-2451.505594
906.540054,-9918.759623,-3034.844362,-1608.800546
906.540374,-10214.842000,-3108.864956,-995.924147
906.540695,-9992.780217,-3330.926739,-383.047749
906.541016,-10288.862594,-3701.029710,306.438199
906.541336,-10288.862594,-3256.906145,919.314598
906.541657,-10214.842000,-3182.885551,1608.800546
906.541978,-9770.718434,-3256.906145,1378.971896
906.542299,-9474.636058,-2960.823768,842.705048
906.542619,-9178.553681,-2812.782580,153.219100
906.542940,-9030.512492,-3182.885551,-76.609550
906.543261,-9030.512492,-3404.947333,-919.314598
906.543582,-8660.409521,-3182.885551,-1378.971896
906.543902,-8882.471304,-2442.679609,-995.924147
906.544223,-9548.656652,-2220.617826,-459.657299
906.544544,-10214.842000,-2368.659014,0.000000
906.544865,-10436.903782,-2664.741391,0.000000
906.545185,-10436.903782,-3478.967927,-842.705048
906.545506,-10214.842000,-3478.967927,-306.438199
906.545827,-10066.800811,-3256.906145,842.705048
906.546148,-9770.718434,-2664.741391,995.924147
906.546468,-9252.574275,-1924.535449,1072.533697
906.546789,-9326.594869,-1184.329507,689.485948
906.547110,-9030.512492,-740.205942,1149.143247
906.547431,-9326.594869,-888.247130,919.314598
906.547751,-8956.491898,-1036.288319,0.000000
906.548072,-9326.594869,-1924.535449,-1072.533697
906.548393,-8586.388927,-1554.432478,-2145.067394
906.548714,-8290.306550,-1554.432478,-3064.381992
906.549034,-9104.533087,-1628.453072,-3140.991542
906.549355,-9548.656652,-1554.432478,-3447.429741
906.549676,-10140.821405,-1702.473667,-4290.134789
906.549997,-10510.924376,-1554.432478,-3983.696590
906.550317,-10436.903782,-1702.473667,-3753.867940
906.550638,-10214.842000,-1332.370696,-2834.553343
906.550959,-10584.944971,-148.041188,-1455.581446
906.551280,-10066.800811,-1628.453072,-919.314598
906.551600,-10214.842000,-1850.514855,-612.876398
906.551921,-9178.553681,-1406.391290,-1149.143247
906.552242,-9252.574275,-888.247130,-1608.800546
906.552563,-8956.491898,518.144159,-1991.848295
906.552883,-8364.327145,222.061783,-2298.286494
906.553204,-8364.327145,0.000000,-3140.991542
906.553525,-8438.347739,-1110.308913,-3447.429741
906.553846,-9400.615463,-2664.741391,-3370.820191
906.554166,-10214.842000,-2812.782580,-2757.943793
906.554487,-10807.006753,-2590.720797,-1762.019645
906.554808,-10955.047942,-1702.473667,-153.219100
906.555129,-10881.027347,-1480.411884,229.828649
906.555449,-11621.233289,-2368.659014,0.000000
906.555770,-10658.965565,-2738.761985,0.000000
906.556091,-9696.697840,-2960.823768,-689.485948
906.556412,-9178.553681,-3330.926739,-459.657299
906.556732,-8808.450710,-2812.782580,-229.828649
906.557053,-8586.388927,-3256.906145,-842.705048
906.557374,-7920.203579,-2960.823768,-1991.848295
906.557695,-8290.306550,-2812.782580,-1915.238745
906.558015,-8956.491898,-2220.617826,-153.219100
906.558336,-9918.759623,-2072.576638,1608.800546
906.558657,-10881.027347,-2664.741391,1991.848295
906.558978,-10288.862594,-3404.947333,1225.752797
906.559298,-10214.842000,-3701.029710,919.314598
906.559619,-10658.965565,-2590.720797,1225.752797
906.559940,-9770.718434,-3552.988522,1149.143247
906.560261,-9178.553681,-3108.864956,-383.047749
906.560581,-8364.327145,-2442.679609,-1532.190996
906.560902,-8438.347739,-814.226536,-1225.752797
906.561223,-9252.574275,-666.185348,1608.800546
906.561544,-10140.821405,-2072.576638,2451.505594
906.561864,-9400.615463,-3034.844362,612.876398
906.562185,-9252.574275,-2886.803174,0.000000
906.562506,-8660.409521,-2442.679609,0.000000
906.562827,-9992.780217,-2294.638420,1302.362347
906.563147,-9770.718434,-2812.782580,76.609550
906.563468,-9030.512492,-3478.967927,-2604.724693
906.563789,-8956.491898,-2960.823768,-3600.648841
906.564110,-9474.636058,-1776.494261,-2374.896044
906.564430,-10510.924376,-888.247130,-1149.143247
906.564751,-11103.089130,-962.267725,-1455.581446
906.565072,-9696.697840,296.082377,-3447.429741
906.565393,-9474.636058,-888.247130,-3217.601092
906.565713,-9548.656652,-1184.329507,-1915.238745
906.566034,-9918.759623,-1628.453072,-689.485948
906.566355,-10140.821405,-370.102971,459.657299
906.566676,-9622.677246,-296.082377,842.705048
906.566996,-10066.800811,0.000000,1685.410096
906.567317,-10510.924376,-888.247130,1685.410096
906.567638,-9474.636058,-148.041188,689.485948
906.567959,-9326.594869,370.102971,153.219100
906.568279,-9030.512492,592.164754,459.657299
906.568600,-8808.450710,74.020594,-306.438199
906.568921,-8956.491898,0.000000,-766.095498
906.569242,-8882.471304,888.247130,689.485948
906.569562,-10214.842000,1628.453072,1149.143247
906.569883,-11399.171507,2294.638420,2451.505594
906.570204,-11695.253884,1406.391290,2298.286494
906.570525,-10955.047942,814.226536,3907.087040
906.570845,-10214.842000,0.000000,2757.943793
906.571166,-9844.739029,-1110.308913,2834.553343
906.571487,-8882.471304,-740.205942,2221.676944
906.571808,-8586.388927,-444.123565,2757.943793
906.572128,-8216.285956,-518.144159,3447.429741
906.572449,-8882.471304,296.082377,2834.553343
906.572770,-9474.636058,370.102971,2068.457845
906.573091,-8808.450710,0.000000,1072.533697
906.573411,-8956.491898,-222.061783,2911.162892
906.573732,-8882.471304,-740.205942,1608.800546
906.574053,-9548.656652,-1628.453072,766.095498
906.574374,-9474.636058,-592.164754,306.438199
906.574694,-10214.842000,740.205942,1225.752797
906.575015,-10288.862594,1406.391290,2451.505594
906.575336,-10436.903782,592.164754,2451.505594
906.575656,-10436.903782,666.185348,2145.067394
906.575977,-9548.656652,370.102971,1302.362347
906.576298,-8364.327145,0.000000,1302.362347
906.576618,-9030.512492,-444.123565,1838.629195
906.576939,-8882.471304,444.123565,2681.334243
906.577260,-9252.574275,814.226536,2987.772442
906.577580,-9252.574275,518.144159,4826.401637
906.577901,-9252.574275,-592.164754,1838.629195
906.578222,-9696.697840,-296.082377,1149.143247
906.578542,-9992.780217,-148.041188,1149.143247
906.578863,-9548.656652,0.000000,842.705048
906.579184,-9548.656652,-1480.411884,-153.219100
906.579504,-9178.553681,-1480.411884,-1378.971896
906.579825,-9696.697840,-1110.308913,-842.705048
906.580146,-10732.986159,-666.185348,1072.533697
906.580466,-11177.109724,-296.082377,229.828649
906.580787,-10732.986159,592.164754,0.000000
906.581108,-10436.903782,222.061783,0.000000
906.581428,-9474.636058,-666.185348,76.609550
906.581749,-8660.409521,-1036.288319,-229.828649
906.582070,-8734.430116,-1850.514855,-153.219100
906.582390,-7846.182985,-666.185348,0.000000
906.582711,-8882.471304,-518.144159,689.485948
906.583032,-9696.697840,-444.123565,1302.362347
906.583352,-9474.636058,-370.102971,536.266849
906.583673,-10214.842000,0.000000,612.876398
906.583994,-9622.677246,-296.082377,536.266849
906.584314,-9622.677246,-1924.535449,76.609550
906.584635,-10807.006753,-3775.050304,-612.876398
906.584956,-9622.677246,-2368.659014,0.000000
906.585276,-9474.636058,-1258.350101,383.047749
906.585597,-10288.862594,-888.247130,1149.143247
906.585918,-9474.636058,-222.061783,689.485948
906.586238,-9696.697840,0.000000,612.876398
906.586559,-9548.656652,-888.247130,1072.533697
906.586880,-9400.615463,-1554.432478,2298.286494
906.587200,-9696.697840,-2960.823768,2604.724693
906.587521,-9030.512492,-2072.576638,2834.553343
906.587842,-10066.800811,-1184.329507,3830.477490
906.588162,-10955.047942,-222.061783,4749.792088
906.588483,-10510.924376,740.205942,3217.601092
906.588804,-10658.965565,1998.556043,1149.143247
906.589124,-9030.512492,-518.144159,-306.438199
906.589445,-7254.018232,-1924.535449,-1225.752797
906.589766,-8216.285956,-2812.782580,-1378.971896
906.590086,-7994.224174,-1702.473667,-1225.752797
906.590407,-9252.574275,-1036.288319,306.438199
906.590728,-10510.924376,-222.061783,2681.334243
906.591048,-10881.027347,0.000000,2451.505594
906.591369,-11103.089130,444.123565,2451.505594
906.591689,-11029.068536,148.041188,4366.744339
906.592010,-9548.656652,-592.164754,1991.848295
906.592331,-9178.553681,-1480.411884,1608.800546
906.592651,-8290.306550,-444.123565,1532.190996
906.592972,-8364.327145,592.164754,1991.848295
906.593293,-9844.739029,962.267725,2757.943793
906.593613,-9844.739029,962.267725,1378.971896
906.593934,-9770.718434,1776.494261,-153.219100
906.594255,-9992.780217,1998.556043,-536.266849
906.594575,-10658.965565,2146.597232,0.000000
906.594896,-10214.842000,1924.535449,689.485948
906.595217,-10658.965565,1258.350101,76.609550
906.595537,-10214.842000,1702.473667,459.657299
906.595858,-10510.924376,518.144159,2528.115143
906.596179,-11325.150913,222.061783,1532.190996
906.596499,-10436.903782,74.020594,-76.609550
906.596820,-9178.553681,888.247130,-689.485948
906.597141,-8956.491898,592.164754,-689.485948
906.597461,-7994.224174,74.020594,0.000000
906.597782,-8586.388927,-518.144159,-229.828649
906.598103,-8438.347739,148.041188,1225.752797
906.598423,-9770.718434,-296.082377,2528.115143
906.598744,-10955.047942,-370.102971,3294.210641
906.599065,-11325.150913,-518.144159,2757.943793
906.599385,-10362.883188,666.185348,2451.505594
906.599706,-9992.780217,-444.123565,2298.286494
906.600027,-9548.656652,-666.185348,995.924147
906.600347,-8956.491898,-2368.659014,-153.219100
906.600668,-8586.388927,-1258.350101,-536.266849
906.600989,-8364.327145,0.000000,76.609550
906.601309,-9178.553681,518.144159,995.924147
906.601630,-9696.697840,148.041188,689.485948
906.601951,-9252.574275,962.267725,1149.143247
906.602271,-9474.636058,0.000000,2068.457845
906.602592,-9400.615463,-1554.432478,2834.553343
906.602913,-8808.450710,-2220.617826,2145.067394
906.603233,-9104.533087,-962.267725,3140.991542
906.603554,-9474.636058,0.000000,3753.867940
906.603875,-9252.574275,0.000000,3370.820191
906.604195,-8956.491898,-518.144159,-153.219100
906.604516,-9474.636058,-370.102971,-459.657299
906.604837,-9178.553681,0.000000,-689.485948
906.605157,-9474.636058,-814.226536,536.266849
906.605478,-9400.615463,-1850.514855,0.000000
906.605799,-9252.574275,-1258.350101,76.609550
906.606119,-10584.944971,-1258.350101,995.924147
906.606440,-10658.965565,-666.185348,2298.286494
906.606761,-11769.274478,-1184.329507,2374.896044
906.607081,-10807.006753,0.000000,1608.800546
906.607402,-9992.780217,296.082377,689.485948
906.607722,-9622.677246,-148.041188,842.705048
906.608043,-9104.533087,-1554.432478,1302.362347
906.608364,-8290.306550,-1628.453072,612.876398
906.608684,-9326.594869,-2072.576638,995.924147
906.609005,-10362.883188,-1776.494261,919.314598
906.609326,-9400.615463,-814.226536,459.657299
906.609646,-10510.924376,-518.144159,-76.609550
906.609967,-9696.697840,814.226536,-306.438199
906.610288,-9252.574275,-592.164754,-229.828649
906.610608,-10362.883188,-1110.308913,0.000000
906.610929,-9622.677246,-1998.556043,-306.438199
906.611250,-10436.903782,-1702.473667,0.000000
906.611570,-10510.924376,-1702.473667,2068.457845
906.611891,-9104.533087,-1110.308913,459.657299
906.612212,-9992.780217,-296.082377,229.828649
906.612532,-9326.594869,0.000000,-229.828649
906.612853,-8660.409521,-222.061783,383.047749
906.613174,-8216.285956,-962.267725,689.485948
906.613494,-8808.450710,-1776.494261,153.219100
906.613815,-7994.224174,-1332.370696,919.314598
906.614136,-9696.697840,-1776.494261,1532.190996
906.614456,-9622.677246,-962.267725,1608.800546
906.614777,-9474.636058,148.041188,0.000000
906.615098,-10140.821405,666.185348,0.000000
906.615418,-9474.636058,1258.350101,76.609550
906.615739,-9400.615463,0.000000,153.219100
906.616060,-9104.533087,-1850.514855,76.609550
906.616380,-9252.574275,-1554.432478,536.266849
906.616701,-10214.842000,-2146.597232,2145.067394
906.617022,-11177.109724,-740.205942,3370.820191
906.617342,-11029.068536,148.041188,2987.772442
906.617663,-10584.944971,1702.473667,2911.162892
906.617984,-10288.862594,1258.350101,2911.162892
906.618304,-9844.739029,592.164754,3064.381992
906.618625,-9400.615463,-592.164754,1762.019645
906.618946,-8882.471304,-518.144159,1225.752797
906.619266,-8808.450710,-222.061783,1302.362347
906.619587,-10362.883188,222.061783,842.705048
906.619908,-9622.677246,148.041188,306.438199
906.620228,-9474.636058,1702.473667,-306.438199
906.620549,-9622.677246,1702.473667,153.219100
906.620870,-8586.388927,666.185348,919.314598
906.621190,-10732.986159,-222.061783,1455.581446
906.621511,-10140.821405,-740.205942,1302.362347
906.621832,-10214.842000,-592.164754,2221.676944
906.622152,-10288.862594,-370.102971,2374.896044
906.622473,-9992.780217,148.041188,1915.238745
906.622794,-9400.615463,1480.411884,689.485948
906.623114,-8808.450710,1480.411884,766.095498
906.623435,-8364.327145,-222.061783,536.266849
906.623755,-8364.327145,-1036.288319,76.609550
906.624076,-8808.450710,-1628.453072,76.609550
906.624397,-9252.574275,-1036.288319,842.705048
906.624717,-9918.759623,-296.082377,2145.067394
906.625038,-10288.862594,-740.205942,2298.286494
906.625359,-9918.759623,1628.453072,1532.190996
906.625679,-11029.068536,518.144159,-536.266849
906.626000,-7179.997637,-296.082377,306.438199
906.626321,-9474.636058,-2072.576638,-766.095498
906.626641,-8216.285956,-962.267725,229.828649
906.626962,-8808.450710,-1036.288319,-612.876398
906.627283,-10584.944971,740.205942,2757.943793
906.627603,-9030.512492,0.000000,1225.752797
906.627924,-9622.677246,-370.102971,1762.019645
906.628245,-9474.636058,518.144159,1762.019645
906.628565,-10214.842000,-444.123565,1532.190996
906.628886,-9104.533087,-1480.411884,2221.676944
906.629207,-8364.327145,148.041188,2374.896044
906.629527,-9104.533087,-296.082377,1225.752797
906.629848,-9770.718434,0.000000,2145.067394
906.630169,-9548.656652,0.000000,1685.410096
906.630489,-10140.821405,74.020594,536.266849
906.630810,-9918.759623,-370.102971,-766.095498
906.631131,-9326.594869,0.000000,-383.047749
906.631451,-9992.780217,-444.123565,536.266849
906.631772,-10288.862594,-962.267725,536.266849
906.632093,-9474.636058,-814.226536,1991.848295
906.632413,-10362.883188,-1628.453072,2145.067394
906.632734,-9548.656652,148.041188,2068.457845
906.633055,-11103.089130,518.144159,2528.115143
906.633375,-9770.718434,222.061783,-995.924147
906.633696,-9178.553681,962.267725,1302.362347
906.634017,-7698.141797,-518.144159,766.095498
906.634337,-9252.574275,-2368.659014,0.000000
906.634658,-8956.491898,-1332.370696,1532.190996
906.634979,-9474.636058,-2220.617826,2068.457845
906.635299,-9474.636058,-1850.514855,1685.410096
906.635620,-10214.842000,-1406.391290,536.266849
906.635941,-9622.677246,-592.164754,-306.438199
906.636261,-10436.903782,370.102971,0.000000
906.636582,-9252.574275,-296.082377,536.266849
906.636903,-9178.553681,-2072.576638,842.705048
906.637223,-9252.574275,-2220.617826,0.000000
906.637544,-9548.656652,-1480.411884,842.705048
906.637865,-9844.739029,-444.123565,2374.896044
906.638185,-9992.780217,-444.123565,2374.896044
906.638506,-9474.636058,1110.308913,1149.143247
906.638827,-9622.677246,1036.288319,1608.800546
906.639147,-8956.491898,0.000000,1378.971896
906.639468,-9104.533087,-518.144159,1455.581446
906.639788,-9548.656652,-814.226536,1302.362347
906.640109,-8956.491898,-666.185348,919.314598
906.640430,-9770.718434,-666.185348,2145.067394
906.640750,-10288.862594,-518.144159,1762.019645
906.641071,-10288.862594,-148.041188,-383.047749
906.641392,-10288.862594,888.247130,-153.219100
906.641712,-9844.739029,148.041188,536.266849
906.642033,-9548.656652,-444.123565,0.000000
906.642354,-10214.842000,-518.144159,919.314598
906.642674,-10362.883188,-740.205942,1149.143247
906.642995,-9622.677246,-592.164754,1915.238745
906.643316,-10214.842000,-888.247130,2068.457845
906.643636,-10214.842000,148.041188,1685.410096
906.643957,-9844.739029,222.061783,1149.143247
906.644278,-9326.594869,444.123565,1072.533697
906.644598,-9326.594869,666.185348,536.266849
906.644919,-8956.491898,-296.082377,536.266849
906.645240,-9326.594869,-296.082377,2451.505594
906.645560,-9844.739029,-518.144159,2528.115143
906.645881,-9992.780217,-1184.329507,2374.896044
906.646202,-10066.800811,-740.205942,1378.971896
906.646522,-9992.780217,592.164754,919.314598
906.646843,-9474.636058,1110.308913,1072.533697
906.647164,-9178.553681,518.144159,1455.581446
906.647484,-8142.265362,-666.185348,689.485948
906.647805,-8808.450710,-962.267725,0.000000
906.648126,-9326.594869,-370.102971,919.314598
906.648446,-9474.636058,148.041188,1378.971896
906.648767,-10510.924376,296.082377,1378.971896
906.649088,-9030.512492,1628.453072,1378.971896
906.649408,-9178.553681,888.247130,1378.971896
906.649729,-8512.368333,-592.164754,1455.581446
906.650050,-9104.533087,-1184.329507,1608.800546
906.650370,-9474.636058,-740.205942,1608.800546
906.650691,-9770.718434,0.000000,2145.067394
906.651012,-10214.842000,444.123565,2298.286494
906.651332,-10510.924376,-518.144159,919.314598
906.651653,-9844.739029,444.123565,0.000000
906.651974,-9918.759623,296.082377,-153.219100
906.652294,-9474.636058,-814.226536,-459.657299
906.652615,-9178.553681,-2146.597232,-383.047749
906.652936,-9844.739029,-1998.556043,-766.095498
906.653256,-9844.739029,-740.205942,383.047749
906.653577,-10584.944971,-518.144159,1991.848295
906.653898,-10436.903782,0.000000,2528.115143
906.654218,-10140.821405,814.226536,1378.971896
906.654539,-10288.862594,814.226536,1915.238745
906.654860,-8956.491898,0.000000,1378.971896
906.655180,-8882.471304,-1184.329507,919.314598
906.655501,-9030.512492,-1110.308913,689.485948
906.655821,-9104.533087,-888.247130,1302.362347
906.656142,-9844.739029,-962.267725,2374.896044
906.656463,-9918.759623,-1258.350101,1455.581446
906.656783,-9992.780217,-1110.308913,0.000000
906.657104,-8734.430116,-444.123565,-1762.019645
906.657425,-9400.615463,-518.144159,0.000000
906.657745,-9474.636058,-296.082377,229.828649
906.658066,-9622.677246,-370.102971,153.219100
906.658387,-9400.615463,-296.082377,842.705048
906.658707,-9770.718434,-888.247130,1915.238745
906.659028,-10140.821405,-666.185348,1532.190996
906.659349,-9474.636058,592.164754,1225.752797
906.659669,-9844.739029,1406.391290,1378.971896
906.659990,-8068.244768,148.041188,995.924147
906.660311,-8438.347739,-666.185348,1455.581446
906.660631,-8808.450710,-1924.535449,689.485948
906.660952,-8808.450710,-1850.514855,1378.971896
906.661273,-9400.615463,-1776.494261,2221.676944
906.661593,-9992.780217,-1850.514855,1378.971896
906.661914,-9918.759623,-1332.370696,-536.266849
906.662235,-9400.615463,0.000000,-1149.143247
906.662555,-8586.388927,0.000000,-612.876398
906.662876,-9178.553681,-740.205942,0.000000
906.663197,-9474.636058,-1776.494261,76.609550
906.663517,-9844.739029,-1998.556043,153.219100
906.663838,-10214.842000,-1924.535449,1225.752797
906.664159,-9252.574275,-2146.597232,2451.505594
906.664479,-10955.047942,-148.041188,2528.115143
906.664800,-10362.883188,1036.288319,2834.553343
906.665121,-10140.821405,296.082377,2145.067394
906.665441,-8586.388927,-444.123565,1532.190996
906.665762,-8882.471304,-1776.494261,536.266849
906.666083,-8808.450710,-592.164754,1225.752797
906.666403,-9770.718434,-148.041188,1685.410096
906.666724,-9400.615463,148.041188,1302.362347
906.667045,-9696.697840,1184.329507,612.876398
906.667365,-10066.800811,1480.411884,0.000000
906.667686,-9844.739029,1184.329507,612.876398
906.668007,-10066.800811,0.000000,995.924147
906.668327,-10584.944971,-222.061783,2068.457845
906.668648,-9474.636058,-962.267725,689.485948
906.668969,-9992.780217,-814.226536,1072.533697
906.669289,-9992.780217,74.020594,2145.067394
906.669610,-10066.800811,814.226536,2221.676944
906.669931,-9326.594869,1480.411884,1225.752797
906.670251,-9326.594869,1258.350101,1225.752797
906.670572,-8956.491898,74.020594,2298.286494
906.670893,-9400.615463,-1628.453072,1762.019645
906.671213,-8586.388927,-1332.370696,1685.410096
906.671534,-9030.512492,-444.123565,1915.238745
906.671854,-9548.656652,-222.061783,2451.505594
906.672175,-9918.759623,370.102971,1838.629195
906.672496,-10214.842000,740.205942,0.000000
906.672816,-9030.512492,2294.638420,-383.047749
906.673137,-8660.409521,1036.288319,-229.828649
906.673458,-8956.491898,-592.164754,0.000000
906.673778,-9474.636058,-1036.288319,-229.828649
906.674099,-9474.636058,-1332.370696,536.266849
906.674420,-9696.697840,-814.226536,1762.019645
906.674740,-11103.089130,-1480.411884,2911.162892
906.675061,-10732.986159,-1036.288319,2298.286494
906.675382,-10140.821405,0.000000,1685.410096
906.675703,-9474.636058,0.000000,2068.457845
906.676024,-9178.553681,-222.061783,1455.581446
906.676345,-9030.512492,-592.164754,1608.800546
906.676665,-9030.512492,-1110.308913,1532.190996
906.676986,-8882.471304,-666.185348,1225.752797
906.677307,-9696.697840,-888.247130,612.876398
906.677628,-9474.636058,-74.020594,-612.876398
906.677949,-9992.780217,1036.288319,-1072.533697
906.678270,-9992.780217,1480.411884,153.219100
906.678591,-10732.986159,740.205942,383.047749
906.678911,-10584.944971,0.000000,612.876398
906.679232,-10955.047942,-1184.329507,689.485948
906.679553,-9696.697840,-1776.494261,1149.143247
906.679874,-10140.821405,-2368.659014,766.095498
906.680195,-9178.553681,0.000000,229.828649
906.680516,-9474.636058,518.144159,-306.438199
906.680836,-7402.059420,1184.329507,1455.581446
906.681157,-8512.368333,-518.144159,612.876398
906.681478,-9178.553681,-1184.329507,1302.362347
906.681799,-8290.306550,-962.267725,2221.676944
906.682120,-10288.862594,-1776.494261,2987.772442
906.682441,-10732.986159,-1702.473667,3907.087040
906.682762,-9252.574275,-2072.576638,1608.800546
906.683082,-9770.718434,-740.205942,919.314598
906.683403,-7994.224174,370.102971,0.000000
906.683724,-8216.285956,296.082377,-766.095498
906.684045,-8808.450710,-592.164754,153.219100
906.684366,-8734.430116,-740.205942,0.000000
906.684687,-9400.615463,-1480.411884,842.705048
906.685007,-10436.903782,-1924.535449,2145.067394
906.685328,-10288.862594,-1480.411884,1991.848295
906.685649,-9992.780217,-148.041188,2145.067394
906.685970,-9770.718434,148.041188,2298.286494
906.686291,-9178.553681,296.082377,2298.286494
906.686612,-9548.656652,222.061783,2757.943793
906.686933,-9030.512492,296.082377,1608.800546
906.687253,-8956.491898,74.020594,2145.067394
906.687574,-9474.636058,-592.164754,2374.896044
906.687895,-8882.471304,-148.041188,383.047749
906.688216,-9844.739029,518.144159,76.609550
906.688537,-9770.718434,1406.391290,153.219100
906.688858,-9770.718434,74.020594,459.657299
906.689178,-9474.636058,-1628.453072,-459.657299
906.689499,-10066.800811,-1998.556043,-1072.533697
906.689820,-10288.862594,-962.267725,0.000000
906.690141,-10436.903782,-888.247130,1072.533697
906.690462,-11029.068536,-962.267725,2068.457845
906.690783,-9992.780217,0.000000,76.609550
906.691103,-10066.800811,888.247130,229.828649
906.691424,-9918.759623,666.185348,919.314598
906.691745,-9696.697840,-296.082377,1225.752797
906.692066,-9474.636058,-296.082377,1149.143247
906.692387,-9178.553681,0.000000,995.924147
906.692708,-9400.615463,0.000000,1302.362347
906.693029,-9844.739029,0.000000,1225.752797
906.693349,-9326.594869,222.061783,0.000000
906.693670,-9104.533087,1258.350101,-536.266849
906.693991,-8660.409521,888.247130,-689.485948
906.694312,-9252.574275,0.000000,-383.047749
906.694633,-9474.636058,-1110.308913,-306.438199
906.694954,-9474.636058,-962.267725,-383.047749
906.695274,-9548.656652,-1110.308913,995.924147
906.695595,-10436.903782,-740.205942,2298.286494
906.695916,-10510.924376,-222.061783,2298.286494
906.696237,-9548.656652,296.082377,1762.019645
906.696558,-8956.491898,666.185348,1838.629195
906.696879,-8808.450710,-148.041188,1915.238745
906.697200,-8438.347739,-518.144159,1915.238745
906.697520,-8512.368333,-962.267725,1838.629195
906.697841,-8068.244768,-296.082377,3140.991542
906.698162,-8512.368333,0.000000,2681.334243
906.698483,-9474.636058,0.000000,1685.410096
906.698804,-9548.656652,1184.329507,1302.362347
906.699125,-9918.759623,962.267725,1378.971896
906.699445,-9474.636058,-592.164754,1302.362347
906.699766,-9474.636058,-1850.514855,459.657299
906.700087,-9918.759623,-1258.350101,229.828649
906.700408,-10658.965565,-296.082377,1455.581446
906.700729,-10881.027347,592.164754,2681.334243
906.701050,-10658.965565,74.020594,2528.115143
906.701370,-10436.903782,-370.102971,1378.971896
906.701691,-10066.800811,0.000000,1532.190996
906.702012,-9474.636058,-1332.370696,612.876398
906.702333,-9400.615463,-888.247130,1685.410096
906.702654,-9252.574275,-518.144159,1608.800546
906.702975,-9326.594869,0.000000,2068.457845
906.703296,-9696.697840,-148.041188,2451.505594
906.703616,-9474.636058,0.000000,1532.190996
906.703937,-9770.718434,0.000000,0.000000
906.704258,-9918.759623,888.247130,153.219100
906.704579,-9992.780217,592.164754,919.314598
906.704900,-10436.903782,-814.226536,1072.533697
906.705221,-9992.780217,-1332.370696,153.219100
906.705541,-10362.883188,-2516.700203,766.095498
906.705862,-9474.636058,-1776.494261,842.705048
906.706183,-10807.006753,-814.226536,2604.724693
906.706504,-9548.656652,-592.164754,612.876398
906.706825,-8512.368333,592.164754,-383.047749
906.707146,-8808.450710,-592.164754,459.657299
906.707467,-7920.203579,-1406.391290,306.438199
906.707787,-8290.306550,-1776.494261,459.657299
906.708108,-8216.285956,-444.123565,1225.752797
906.708429,-8956.491898,74.020594,2298.286494
906.708750,-10140.821405,74.020594,2987.772442
906.709071,-10584.944971,74.020594,995.924147
906.709392,-9474.636058,1036.288319,76.609550
906.709712,-9400.615463,0.000000,0.000000
906.710033,-8808.450710,-962.267725,0.000000
906.710354,-9474.636058,-962.267725,76.609550
906.710675,-9104.533087,-1406.391290,-1149.143247
906.710996,-9104.533087,-296.082377,383.047749
906.711317,-10436.903782,-444.123565,1455.581446
906.711638,-10362.883188,-444.123565,1685.410096
906.711958,-10658.965565,0.000000,1915.238745
906.712279,-10066.800811,148.041188,1838.629195
906.712600,-9400.615463,-666.185348,1915.238745
906.712921,-9696.697840,-1036.288319,1685.410096
906.713242,-8734.430116,-370.102971,1302.362347
906.713563,-9400.615463,-370.102971,2221.676944
906.713883,-9548.656652,-814.226536,2068.457845
906.714204,-9326.594869,-296.082377,153.219100
906.714525,-10436.903782,1554.432478,0.000000
906.714846,-9770.718434,1480.411884,612.876398
906.715167,-9844.739029,370.102971,1378.971896
906.715488,-9918.759623,-1332.370696,459.657299
906.715808,-9696.697840,-1702.473667,536.266849
906.716129,-10436.903782,-2294.638420,689.485948
906.716450,-10955.047942,-1184.329507,2528.115143
906.716771,-11029.068536,-814.226536,2298.286494
906.717092,-9844.739029,444.123565,995.924147
906.717413,-9400.615463,74.020594,766.095498
906.717734,-8956.491898,74.020594,1072.533697
906.718054,-9104.533087,-444.123565,995.924147
906.718375,-9178.553681,-592.164754,919.314598
906.718696,-9104.533087,740.205942,3370.820191
906.719017,-9178.553681,-518.144159,2145.067394
906.719338,-9770.718434,-1332.370696,842.705048
906.719659,-8808.450710,-296.082377,-383.047749
906.719979,-8734.430116,740.205942,-995.924147
906.720300,-8586.388927,962.267725,0.000000
906.720621,-9326.594869,296.082377,76.609550
906.720942,-9326.594869,-444.123565,612.876398
906.721263,-10214.842000,-888.247130,1455.581446
906.721584,-9844.739029,-1480.411884,2451.505594
906.721905,-11103.089130,-1850.514855,2834.553343
906.722225,-10436.903782,-962.267725,2145.067394
906.722546,-9474.636058,444.123565,919.314598
906.722867,-9252.574275,222.061783,919.314598
906.723188,-8660.409521,0.000000,1302.362347
906.723509,-8512.368333,-666.185348,459.657299
906.723830,-8586.388927,74.020594,1225.752797
906.724150,-9770.718434,0.000000,2528.115143
906.724471,-9770.718434,0.000000,3370.820191
906.724792,-10140.821405,74.020594,1608.800546
906.725113,-9918.759623,1036.288319,1378.971896
906.725434,-9548.656652,1036.288319,1378.971896
906.725755,-9622.677246,296.082377,1149.143247
906.726076,-9696.697840,-1332.370696,612.876398
906.726396,-9030.512492,-888.247130,-306.438199
906.726717,-10066.800811,-518.144159,1149.143247
906.727038,-10140.821405,-592.164754,1608.800546
906.727359,-10510.924376,0.000000,995.924147
906.727680,-10066.800811,962.267725,995.924147
906.728001,-9770.718434,518.144159,1455.581446
906.728321,-9918.759623,-444.123565,2145.067394
906.728642,-10732.986159,-666.185348,1915.238745
906.728963,-9844.739029,0.000000,2068.457845
906.729284,-9844.739029,1036.288319,2451.505594
906.729605,-9548.656652,888.247130,2681.334243
906.729926,-9400.615463,814.226536,1072.533697
906.730246,-8808.450710,518.144159,-383.047749
906.730567,-8586.388927,222.061783,-766.095498
906.730888,-8882.471304,-814.226536,-306.438199
906.731209,-9030.512492,-1258.350101,-383.047749
906.731530,-9474.636058,-962.267725,-306.438199
906.731851,-9622.677246,-148.041188,1225.752797
906.732172,-9918.759623,-1036.288319,1991.848295
906.732492,-10436.903782,-1110.308913,1685.410096
906.732813,-10288.862594,-1406.391290,612.876398
906.733134,-9474.636058,-888.247130,995.924147
906.733455,-9252.574275,-1110.308913,1455.581446
906.733776,-9400.615463,-1702.473667,1685.410096
906.734097,-8956.491898,74.020594,2068.457845
906.734417,-9252.574275,888.247130,2911.162892
906.734738,-9918.759623,-74.020594,2911.162892
906.735059,-8956.491898,222.061783,2068.457845
906.735380,-9548.656652,-148.041188,0.000000
906.735701,-8882.471304,296.082377,-229.828649
906.736022,-8882.471304,0.000000,0.000000
906.736343,-8882.471304,-1184.329507,0.000000
906.736663,-9326.594869,-1554.432478,153.219100
906.736984,-10362.883188,-1184.329507,1608.800546
906.737305,-10584.944971,-740.205942,2451.505594
906.737626,-10288.862594,-962.267725,1532.190996
906.737947,-11325.150913,814.226536,2221.676944
906.738268,-10066.800811,1776.494261,2604.724693
906.738588,-8586.388927,-814.226536,1302.362347
906.738909,-8290.306550,-296.082377,536.266849
906.739230,-8734.430116,-1332.370696,536.266849
906.739551,-8586.388927,-1258.350101,1072.533697
906.739872,-10510.924376,-370.102971,2681.334243
906.740193,-9992.780217,-740.205942,2374.896044
906.740513,-10362.883188,0.000000,1302.362347
906.740834,-9474.636058,518.144159,766.095498
906.741155,-10288.862594,666.185348,536.266849
906.741476,-10214.842000,-666.185348,1225.752797
906.741797,-9918.759623,-1554.432478,383.047749
906.742118,-9178.553681,-1332.370696,0.000000
906.742439,-10362.883188,-962.267725,-306.438199
906.742759,-10288.862594,-666.185348,1685.410096
906.743080,-10436.903782,-148.041188,995.924147
906.743401,-10140.821405,814.226536,459.657299
906.743722,-9770.718434,518.144159,612.876398
906.744043,-9252.574275,-296.082377,1149.143247
906.744364,-9474.636058,-1702.473667,153.219100
906.744684,-8882.471304,-592.164754,612.876398
906.745005,-9474.636058,-296.082377,1225.752797
906.745326,-9252.574275,-592.164754,1072.533697
906.745647,-9622.677246,-444.123565,229.828649
906.745968,-9844.739029,370.102971,-1072.533697
906.746289,-9178.553681,1036.288319,-612.876398
906.746610,-9400.615463,814.226536,153.219100
906.746930,-9622.677246,-740.205942,229.828649
906.747251,-9252.574275,-1628.453072,-153.219100
906.747572,-9622.677246,-1406.391290,689.485948
906.747893,-9992.780217,-1406.391290,1685.410096
906.748214,-9918.759623,-888.247130,1608.800546
906.748535,-9474.636058,666.185348,1608.800546
906.748855,-9474.636058,1406.391290,1225.752797
906.749176,-8660.409521,1036.288319,1915.238745
906.749497,-8882.471304,-444.123565,689.485948
906.749818,-8660.409521,-296.082377,919.314598
906.750139,-9326.594869,-296.082377,1608.800546
906.750460,-9474.636058,-222.061783,2374.896044
906.750781,-9548.656652,-296.082377,1532.190996
906.751101,-9622.677246,148.041188,995.924147
906.751422,-9548.656652,1036.288319,459.657299
906.751743,-9770.718434,1036.288319,1072.533697
906.752064,-9844.739029,-148.041188,1455.581446
906.752385,-9696.697840,-666.185348,766.095498
906.752706,-9770.718434,0.000000,995.924147
906.753026,-10214.842000,0.000000,2068.457845
906.753347,-10436.903782,-740.205942,2528.115143
906.753668,-9918.759623,74.020594,2911.162892
906.753989,-9770.718434,370.102971,1532.190996
906.754310,-9474.636058,296.082377,1762.019645
906.754631,-9622.677246,-444.123565,2068.457845
906.754951,-9400.615463,-444.123565,1225.752797
906.755272,-9474.636058,-888.247130,2145.067394
906.755593,-9918.759623,-962.267725,2068.457845
906.755914,-9400.615463,-888.247130,1838.629195
906.756235,-9918.759623,-222.061783,229.828649
906.756556,-9474.636058,1628.453072,0.000000
906.756877,-9474.636058,1850.514855,689.485948
906.757197,-9474.636058,-148.041188,842.705048
906.757518,-9474.636058,-1998.556043,229.828649
906.757839,-8956.491898,-2146.597232,0.000000
906.758160,-9622.677246,-1554.432478,1532.190996
906.758481,-10807.006753,-1258.350101,3140.991542
906.758802,-10214.842000,-296.082377,2451.505594
906.759122,-9474.636058,814.226536,2068.457845
906.759443,-9178.553681,222.061783,1455.581446
906.759764,-8808.450710,-740.205942,1072.533697
906.760085,-9252.574275,-1628.453072,1149.143247
906.760406,-8956.491898,-888.247130,995.924147
906.760727,-9252.574275,-518.144159,1608.800546
906.761048,-9474.636058,-888.247130,1762.019645
906.761368,-9474.636058,-888.247130,229.828649
906.761689,-9696.697840,1110.308913,-612.876398
906.762010,-9326.594869,1850.514855,0.000000
906.762331,-9400.615463,888.247130,306.438199
906.762652,-10066.800811,-592.164754,689.485948
906.762973,-9474.636058,-2294.638420,536.266849
906.763293,-9696.697840,-1258.350101,1378.971896
906.763614,-10436.903782,-2368.659014,2221.676944
906.763935,-9622.677246,-1480.411884,1455.581446
906.764256,-9844.739029,518.144159,766.095498
906.764577,-8882.471304,1406.391290,383.047749
906.764898,-8734.430116,1406.391290,76.609550
906.765219,-9178.553681,0.000000,306.438199
906.765539,-9104.533087,-1258.350101,0.000000
906.765860,-9030.512492,-962.267725,919.314598
906.766181,-8956.491898,-666.185348,1072.533697
906.766502,-10214.842000,-1110.308913,1838.629195
906.766823,-10362.883188,-444.123565,612.876398
906.767144,-9548.656652,592.164754,229.828649
906.767464,-9918.759623,370.102971,536.266849
906.767785,-9548.656652,-740.205942,459.657299
906.768106,-9844.739029,-1406.391290,0.000000
906.768427,-9622.677246,-1332.370696,459.657299
906.768748,-9696.697840,-666.185348,1072.533697
906.769069,-10066.800811,-962.267725,2757.943793
906.769389,-9770.718434,-444.123565,1455.581446
906.769710,-9992.780217,740.205942,1225.752797
906.770031,-9992.780217,888.247130,1685.410096
906.770352,-8660.409521,-592.164754,2068.457845
906.770673,-9400.615463,-666.185348,1532.190996
906.770994,-9474.636058,-370.102971,1838.629195
906.771315,-9104.533087,-962.267725,1915.238745
906.771635,-9770.718434,-1184.329507,1915.238745
906.771956,-9474.636058,-1258.350101,-383.047749
906.772277,-9178.553681,444.123565,-536.266849
906.772598,-9400.615463,888.247130,-306.438199
906.772919,-9326.594869,296.082377,459.657299
906.773240,-10066.800811,0.000000,306.438199
906.773560,-9474.636058,-666.185348,153.219100
906.773881,-9918.759623,-518.144159,1762.019645
906.774202,-10807.006753,-1258.350101,2987.772442
906.774523,-10214.842000,-962.267725,3140.991542
906.774844,-9622.677246,370.102971,1838.629195
906.775165,-9622.677246,888.247130,1455.581446
906.775486,-8734.430116,518.144159,1838.629195
906.775806,-9030.512492,0.000000,1838.629195
906.776127,-8956.491898,-222.061783,1532.190996
906.776448,-9030.512492,-444.123565,1378.971896
906.776769,-9326.594869,-666.185348,1838.629195
906.777090,-9622.677246,-1036.288319,1149.143247
906.777411,-9918.759623,1184.329507,612.876398
906.777731,-9918.759623,222.061783,383.047749
906.778052,-8956.491898,-222.061783,459.657299
906.778373,-9622.677246,-1776.494261,-306.438199
906.778694,-9252.574275,-1850.514855,-153.219100
906.779015,-9844.739029,-1036.288319,383.047749
906.779336,-10288.862594,0.000000,2145.067394
906.779657,-9918.759623,-296.082377,1149.143247
906.779977,-9474.636058,592.164754,612.876398
906.780298,-9696.697840,1406.391290,1225.752797
906.780619,-9696.697840,666.185348,1991.848295
906.780940,-10436.903782,-148.041188,1991.848295
906.781261,-9770.718434,-222.061783,2068.457845
906.781582,-9252.574275,1332.370696,2451.505594
906.781902,-10658.965565,592.164754,2834.553343
906.782223,-10066.800811,-296.082377,1838.629195
906.782544,-9696.697840,-222.061783,0.000000
906.782865,-9474.636058,518.144159,842.705048
906.783186,-8512.368333,592.164754,-536.266849
906.783507,-9696.697840,-962.267725,-229.828649
906.783828,-9622.677246,-1184.329507,-229.828649
906.784148,-10066.800811,-1110.308913,1072.533697
906.784469,-10510.924376,-740.205942,2145.067394
906.784790,-10658.965565,-1258.350101,2681.334243
906.785111,-10288.862594,222.061783,3140.991542
906.785432,-10066.800811,296.082377,2451.505594
906.785753,-8290.306550,74.020594,2451.505594
906.786073,-8142.265362,-962.267725,1378.971896
906.786394,-8290.306550,-1110.308913,383.047749
906.786715,-8216.285956,-518.144159,1072.533697
906.787036,-8734.430116,-148.041188,1225.752797
906.787357,-9474.636058,-888.247130,1072.533697
906.787678,-9178.553681,-444.123565,76.609550
906.787999,-9992.780217,0.000000,0.000000
906.788319,-10436.903782,74.020594,766.095498
906.788640,-10510.924376,-370.102971,1225.752797
906.788961,-9252.574275,-370.102971,1149.143247
906.789282,-9918.759623,-1628.453072,229.828649
906.789603,-8808.450710,-518.144159,1072.533697
906.789924,-9696.697840,-1258.350101,1532.190996
906.790244,-9548.656652,-444.123565,1072.533697
906.790565,-9252.574275,888.247130,1532.190996
906.790886,-9474.636058,444.123565,1378.971896
906.791207,-8512.368333,370.102971,2145.067394
906.791528,-9474.636058,-888.247130,919.314598
906.791849,-9104.533087,-444.123565,1302.362347
906.792170,-9548.656652,-740.205942,1302.362347
906.792490,-9548.656652,-1110.308913,1762.019645
906.792811,-10214.842000,-1480.411884,842.705048
906.793132,-9548.656652,0.000000,-919.314598
906.793453,-9844.739029,148.041188,-1149.143247
906.793774,-9992.780217,222.061783,-153.219100
906.794095,-9770.718434,-518.144159,-1072.533697
906.794415,-10066.800811,-1332.370696,0.000000
906.794736,-11177.109724,-1332.370696,995.924147
906.795057,-10436.903782,-1628.453072,1915.238745
906.795378,-11177.109724,-1702.473667,2604.724693
906.795699,-10584.944971,444.123565,2451.505594
906.796020,-9770.718434,814.226536,1685.410096
906.796341,-8364.327145,888.247130,536.266849
906.796661,-7402.059420,-518.144159,-153.219100
906.796982,-6809.894666,-1110.308913,-2068.457845
906.797303,-8142.265362,-740.205942,-612.876398
906.797624,-8290.306550,-1036.288319,153.219100
906.797945,-9696.697840,-1332.370696,995.924147
906.798266,-10658.965565,-1258.350101,536.266849
906.798586,-11473.192101,-222.061783,2298.286494
906.798907,-10881.027347,222.061783,2451.505594
906.799228,-11325.150913,296.082377,2757.943793
906.799549,-10510.924376,-148.041188,2451.505594
906.799870,-9030.512492,-962.267725,1378.971896
906.800191,-9178.553681,-1702.473667,2221.676944
906.800512,-9104.533087,-1998.556043,1302.362347
906.800832,-7994.224174,-296.082377,153.219100
906.801153,-8956.491898,1480.411884,689.485948
906.801474,-8438.347739,1850.514855,1762.019645
906.801795,-8808.450710,888.247130,2145.067394
906.802116,-9474.636058,296.082377,2145.067394
906.802437,-9844.739029,370.102971,2604.724693
906.802757,-9474.636058,-518.144159,3524.039291
906.803078,-10436.903782,-370.102971,3447.429741
906.803399,-9622.677246,-74.020594,1225.752797
906.803720,-9104.533087,962.267725,-383.047749
906.804041,-8956.491898,1406.391290,1072.533697
906.804362,-9252.574275,370.102971,76.609550
906.804683,-9474.636058,-1036.288319,-153.219100
906.805003,-10066.800811,-740.205942,306.438199
906.805324,-10584.944971,-666.185348,1455.581446
906.805645,-11177.109724,-444.123565,2451.505594
906.805966,-11177.109724,-444.123565,2451.505594
906.806287,-9918.759623,74.020594,1685.410096
906.806608,-9696.697840,666.185348,1378.971896
906.806928,-9326.594869,74.020594,1225.752797
906.807249,-8808.450710,-296.082377,383.047749
906.807570,-9104.533087,666.185348,689.485948
906.807891,-9770.718434,740.205942,1532.190996
906.808212,-9844.739029,-444.123565,1762.019645
906.808533,-10288.862594,-1702.473667,306.438199
906.808854,-9474.636058,-1332.370696,-1072.533697
906.809174,-9474.636058,-592.164754,-919.314598
906.809495,-9622.677246,-1258.350101,0.000000
906.809816,-9474.636058,-1332.370696,-306.438199
906.810137,-9918.759623,-1184.329507,306.438199
906.810458,-10362.883188,-1184.329507,1915.238745
906.810779,-10066.800811,-2146.597232,1532.190996
906.811099,-9104.533087,-1036.288319,2298.286494
906.811420,-11103.089130,888.247130,1532.190996
906.811741,-9326.594869,1776.494261,2068.457845
906.812062,-8660.409521,0.000000,1149.143247
906.812383,-9474.636058,-592.164754,1838.629195
906.812704,-7254.018232,-1850.514855,-383.047749
906.813025,-9770.718434,-1406.391290,2298.286494
906.813345,-8512.368333,-962.267725,2451.505594
906.813666,-9178.553681,-1702.473667,459.657299
906.813987,-8882.471304,-888.247130,153.219100
906.814308,-8660.409521,74.020594,-536.266849
906.814629,-8808.450710,814.226536,0.000000
906.814950,-11325.150913,-444.123565,1225.752797
906.815270,-7254.018232,-1554.432478,612.876398
906.815591,-9992.780217,-1184.329507,459.657299
906.815912,-10732.986159,-1628.453072,1685.410096
906.816233,-10214.842000,-814.226536,2221.676944
906.816554,-10510.924376,-888.247130,1762.019645
906.816875,-9474.636058,148.041188,383.047749
906.817196,-8882.471304,1258.350101,842.705048
906.817516,-8956.491898,-296.082377,842.705048
906.817837,-9474.636058,0.000000,2068.457845
906.818158,-9918.759623,222.061783,2374.896044
906.818479,-9326.594869,-1258.350101,1915.238745
906.818800,-10362.883188,-1036.288319,2068.457845
906.819121,-10214.842000,-592.164754,229.828649
906.819441,-10214.842000,-1480.411884,-536.266849
906.819762,-9918.759623,444.123565,536.266849
906.820083,-9326.594869,-444.123565,-153.219100
906.820404,-10510.924376,-1554.432478,-383.047749
906.820725,-9918.759623,-1184.329507,76.609550
906.821046,-10436.903782,-1998.556043,1455.581446
906.821367,-11177.109724,-1110.308913,2834.553343
906.821687,-10288.862594,-370.102971,1455.581446
906.822008,-9548.656652,740.205942,1685.410096
906.822329,-10066.800811,814.226536,1455.581446
906.822650,-8068.244768,740.205942,1149.143247
906.822971,-8364.327145,-1110.308913,0.000000
906.823292,-7846.182985,-444.123565,0.000000
906.823612,-8290.306550,148.041188,1608.800546
906.823933,-8882.471304,74.020594,1685.410096
906.824254,-9326.594869,74.020594,1455.581446
906.824575,-9548.656652,962.267725,612.876398
906.824896,-10140.821405,666.185348,1149.143247
906.825217,-9770.718434,-148.041188,766.095498
906.825538,-10214.842000,-888.247130,612.876398
906.825858,-9622.677246,-888.247130,383.047749
906.826179,-9548.656652,-296.082377,766.095498
906.826500,-10066.800811,0.000000,1838.629195
906.826821,-9844.739029,-740.205942,1378.971896
906.827142,-9474.636058,74.020594,459.657299
906.827463,-9474.636058,592.164754,919.314598
906.827783,-7994.224174,0.000000,1225.752797
906.828104,-9326.594869,0.000000,2145.067394
906.828425,-9252.574275,74.020594,2604.724693
906.828746,-9474.636058,0.000000,2604.724693
906.829067,-9474.636058,-370.102971,2987.772442
906.829388,-10066.800811,-666.185348,2221.676944
906.829709,-9844.739029,0.000000,536.266849
906.830029,-9400.615463,1036.288319,0.000000
906.830350,-9400.615463,888.247130,306.438199
906.830671,-9770.718434,222.061783,306.438199
906.830992,-10066.800811,-1776.494261,-306.438199
906.831313,-9474.636058,-1184.329507,306.438199
906.831634,-10881.027347,-1924.535449,1455.581446
906.831954,-10436.903782,-1184.329507,3447.429741
906.832275,-10955.047942,-518.144159,2068.457845
906.832596,-9696.697840,814.226536,1685.410096
906.832917,-9252.574275,518.144159,1302.362347
906.833238,-8882.471304,0.000000,1532.190996
906.833559,-8660.409521,-814.226536,1072.533697
906.833880,-8660.409521,-666.185348,1072.533697
906.834200,-9622.677246,-444.123565,2221.676944
906.834521,-9326.594869,-740.205942,1685.410096
906.834842,-10066.800811,-962.267725,1072.533697
906.835163,-9474.636058,1184.329507,0.000000
906.835484,-10584.944971,1184.329507,689.485948
906.835805,-9918.759623,518.144159,995.924147
906.836125,-10214.842000,-74.020594,-1302.362347
906.836446,-9844.739029,-1258.350101,-536.266849
906.836767,-9992.780217,-444.123565,76.609550
906.837088,-10510.924376,-592.164754,1149.143247
906.837409,-10214.842000,-666.185348,1072.533697
906.837730,-9104.533087,518.144159,459.657299
906.838051,-9474.636058,74.020594,1378.971896
906.838371,-9474.636058,-370.102971,1838.629195
906.838692,-8882.471304,-962.267725,1915.238745
906.839013,-9474.636058,-740.205942,2451.505594
906.839334,-8808.450710,-740.205942,1225.752797
906.839655,-8808.450710,-740.205942,1455.581446
906.839976,-8808.450710,-1036.288319,-229.828649
906.840296,-8216.285956,0.000000,-919.314598
906.840617,-8882.471304,518.144159,-1532.190996
906.840938,-8808.450710,592.164754,-383.047749
906.841259,-9548.656652,-1036.288319,0.000000
906.841580,-10214.842000,-1628.453072,1072.533697
906.841901,-10955.047942,-1998.556043,2374.896044
906.842222,-11029.068536,-1998.556043,3370.820191
906.842542,-11547.212695,-2368.659014,3294.210641
906.842863,-10140.821405,-1036.288319,2221.676944
906.843184,-9548.656652,0.000000,1915.238745
906.843505,-8586.388927,592.164754,1455.581446
906.843826,-8216.285956,0.000000,1072.533697
906.844147,-8068.244768,370.102971,383.047749
906.844467,-9178.553681,0.000000,1991.848295
906.844788,-8512.368333,-888.247130,2298.286494
906.845109,-10436.903782,-2072.576638,1455.581446
906.845430,-9770.718434,-296.082377,612.876398
906.845751,-10732.986159,962.267725,689.485948
906.846072,-9326.594869,2368.659014,1455.581446
906.846393,-11103.089130,296.082377,1072.533697
906.846713,-9548.656652,222.061783,76.609550
906.847034,-10214.842000,-1258.350101,0.000000
906.847355,-9548.656652,-2146.597232,919.314598
906.847676,-9844.739029,-1702.473667,1455.581446
906.847997,-10436.903782,-1406.391290,536.266849
906.848318,-9548.656652,222.061783,459.657299
906.848638,-9844.739029,148.041188,459.657299
906.848959,-9622.677246,-814.226536,1762.019645
906.849280,-9548.656652,-1110.308913,1532.190996
906.849601,-9622.677246,-592.164754,2068.457845
906.849922,-9548.656652,-222.061783,1838.629195
906.850243,-9474.636058,-444.123565,2145.067394
906.850564,-9770.718434,0.000000,229.828649
906.850884,-9400.615463,296.082377,0.000000
906.851205,-9104.533087,592.164754,-306.438199
906.851526,-8956.491898,-148.041188,-229.828649
906.851847,-9548.656652,-1036.288319,-459.657299
906.852168,-9326.594869,-444.123565,-612.876398
906.852489,-10214.842000,0.000000,919.314598
906.852809,-9992.780217,222.061783,3064.381992
906.853130,-10066.800811,0.000000,1532.190996
906.853451,-10140.821405,518.144159,1302.362347
906.853772,-9548.656652,518.144159,1378.971896
906.854093,-8956.491898,-370.102971,1149.143247
906.854414,-8956.491898,-1110.308913,1072.533697
906.854735,-8660.409521,-370.102971,919.314598
906.855055,-9178.553681,666.185348,1225.752797
906.855376,-9178.553681,888.247130,2528.115143
906.855697,-9400.615463,370.102971,995.924147
906.856018,-9030.512492,962.267725,-383.047749
906.856339,-9030.512492,1184.329507,-766.095498
906.856660,-8956.491898,666.185348,536.266849
906.856980,-9548.656652,-1332.370696,1302.362347
906.857301,-9918.759623,-1850.514855,766.095498
906.857622,-10066.800811,-1702.473667,1072.533697
906.857943,-10807.006753,-1036.288319,2298.286494
906.858264,-11547.212695,-1110.308913,2681.334243
906.858585,-10510.924376,0.000000,2681.334243
906.858906,-10066.800811,0.000000,1838.629195
906.859226,-9252.574275,-592.164754,1225.752797
906.859547,-8364.327145,-1480.411884,536.266849
906.859868,-8438.347739,-1110.308913,1149.143247
906.860189,-8808.450710,-370.102971,1532.190996
906.860510,-9030.512492,-222.061783,2451.505594
906.860831,-9696.697840,-740.205942,2298.286494
906.861151,-9400.615463,-666.185348,1532.190996
906.861472,-10214.842000,0.000000,1149.143247
906.861793,-10214.842000,0.000000,2068.457845
906.862114,-9622.677246,-740.205942,1225.752797
906.862435,-9548.656652,0.000000,612.876398
906.862756,-10214.842000,-518.144159,766.095498
906.863077,-9770.718434,-814.226536,1378.971896
906.863397,-10362.883188,-1258.350101,1915.238745
906.863718,-9622.677246,-1332.370696,842.705048
906.864039,-9030.512492,296.082377,689.485948
906.864360,-10288.862594,518.144159,1685.410096
906.864681,-9400.615463,-74.020594,2145.067394
906.865002,-9400.615463,-740.205942,1838.629195
906.865322,-9696.697840,148.041188,2145.067394
906.865643,-9622.677246,-1406.391290,2145.067394
906.865964,-9770.718434,-1702.473667,1838.629195
906.866285,-9474.636058,-1480.411884,536.266849
906.866606,-9474.636058,518.144159,0.000000
906.866927,-9548.656652,962.267725,0.000000
906.867248,-9844.739029,-74.020594,153.219100
906.867568,-9104.533087,0.000000,-306.438199
906.867889,-9696.697840,-1110.308913,-1149.143247
906.868210,-9104.533087,0.000000,76.609550
906.868531,-9992.780217,-962.267725,1149.143247
906.868852,-10214.842000,-1110.308913,306.438199
906.869173,-8882.471304,296.082377,0.000000
906.869493,-9474.636058,-444.123565,-459.657299
906.869814,-9326.594869,-296.082377,1685.410096
906.870135,-9474.636058,-962.267725,1608.800546
906.870456,-9622.677246,0.000000,2145.067394
906.870777,-9474.636058,-444.123565,2068.457845
906.871098,-9474.636058,-888.247130,1762.019645
906.871419,-10214.842000,-1184.329507,536.266849
906.871739,-9326.594869,666.185348,-229.828649
906.872060,-9326.594869,1258.350101,-229.828649
906.872381,-9178.553681,222.061783,1225.752797
906.872702,-9252.574275,-1036.288319,-766.095498
906.873023,-10066.800811,-518.144159,-306.438199
906.873344,-10288.862594,-444.123565,1149.143247
906.873664,-9992.780217,222.061783,3217.601092
906.873985,-11325.150913,-888.247130,2451.505594
906.874306,-10066.800811,222.061783,1302.362347
906.874627,-9844.739029,592.164754,1225.752797
906.874948,-9252.574275,370.102971,1915.238745
906.875269,-8586.388927,-666.185348,1838.629195
906.875590,-8660.409521,-592.164754,1455.581446
906.875910,-9474.636058,-222.061783,1838.629195
906.876231,-9104.533087,-370.102971,2068.457845
906.876552,-9844.739029,-1332.370696,1532.190996
906.876873,-9844.739029,-740.205942,612.876398
906.877194,-9474.636058,518.144159,536.266849
906.877514,-9548.656652,296.082377,689.485948
906.877835,-9178.553681,0.000000,-459.657299
906.878156,-9844.739029,-888.247130,919.314598
906.878476,-10140.821405,-296.082377,919.314598
906.878797,-10436.903782,148.041188,2451.505594
906.879118,-10510.924376,0.000000,2221.676944
906.879439,-9622.677246,222.061783,2145.067394
906.879759,-9770.718434,740.205942,995.924147
906.880080,-8734.430116,1258.350101,1149.143247
906.880401,-9178.553681,0.000000,1225.752797
906.880721,-9178.553681,740.205942,689.485948
906.881042,-9400.615463,-444.123565,1072.533697
906.881363,-9474.636058,-148.041188,1378.971896
906.881684,-9770.718434,-666.185348,1378.971896
906.882004,-9400.615463,0.000000,153.219100
906.882325,-9844.739029,962.267725,-306.438199
906.882646,-9326.594869,1406.391290,612.876398
906.882966,-10140.821405,-222.061783,919.314598
906.883287,-9548.656652,-1554.432478,229.828649
906.883608,-9918.759623,-1998.556043,0.000000
906.883929,-9326.594869,-1258.350101,1072.533697
906.884249,-9918.759623,-1406.391290,1915.238745
906.884570,-9622.677246,-666.185348,1302.362347
906.884891,-9252.574275,814.226536,3140.991542
906.885211,-8956.491898,666.185348,536.266849
906.885532,-8956.491898,-222.061783,1378.971896
906.885853,-9104.533087,-2442.679609,1225.752797
906.886173,-9104.533087,-1998.556043,1455.581446
906.886494,-9326.594869,-1998.556043,1608.800546
906.886815,-9770.718434,-1332.370696,2145.067394
906.887136,-10362.883188,-1036.288319,1455.581446
906.887456,-9844.739029,222.061783,-153.219100
906.887777,-9178.553681,888.247130,612.876398
906.888098,-9474.636058,-518.144159,689.485948
906.888418,-9770.718434,-962.267725,306.438199
906.888739,-10288.862594,-1702.473667,919.314598
906.889060,-10510.924376,-1258.350101,1838.629195
906.889381,-10584.944971,-1406.391290,2834.553343
906.889701,-10584.944971,-1924.535449,2987.772442
906.890022,-9696.697840,-1110.308913,995.924147
906.890343,-9548.656652,0.000000,1149.143247
906.890663,-9548.656652,296.082377,1991.848295
906.890984,-9178.553681,-518.144159,1608.800546
906.891305,-9696.697840,-592.164754,1608.800546
906.891626,-9326.594869,-370.102971,1532.190996
906.891946,-10140.821405,74.020594,2145.067394
906.892267,-11029.068536,-296.082377,2451.505594
906.892588,-10807.006753,-296.082377,1455.581446
906.892908,-10066.800811,1036.288319,919.314598
906.893229,-9326.594869,518.144159,0.000000
906.893550,-9474.636058,222.061783,612.876398
906.893870,-9178.553681,-1110.308913,-383.047749
906.894191,-9030.512492,-592.164754,-306.438199
906.894512,-8808.450710,-148.041188,306.438199
906.894833,-9178.553681,-1110.308913,536.266849
906.895153,-9474.636058,-370.102971,842.705048
906.895474,-9178.553681,74.020594,689.485948
906.895795,-9104.533087,-148.041188,842.705048
906.896115,-8882.471304,-1110.308913,1838.629195
906.896436,-9104.533087,-1184.329507,995.924147
906.896757,-9622.677246,-592.164754,1608.800546
906.897078,-9622.677246,0.000000,1915.238745
906.897398,-9770.718434,-518.144159,-153.219100
906.897719,-8808.450710,-370.102971,-306.438199
906.898040,-9548.656652,-296.082377,-1762.019645
906.898360,-8438.347739,592.164754,-612.876398
906.898681,-9326.594869,-592.164754,-306.438199
906.899002,-9326.594869,-1036.288319,-1072.533697
906.899323,-9030.512492,148.041188,-842.705048
906.899643,-9696.697840,0.000000,383.047749
906.899964,-9548.656652,0.000000,1685.410096
906.900285,-10658.965565,-444.123565,536.266849
906.900605,-9474.636058,888.247130,1455.581446
906.900926,-10066.800811,1110.308913,2145.067394
906.901247,-10584.944971,0.000000,2757.943793
906.901567,-10066.800811,-888.247130,3217.601092
906.901888,-10066.800811,518.144159,2374.896044
906.902209,-10214.842000,814.226536,2987.772442
906.902530,-9992.780217,148.041188,2528.115143
906.902850,-10140.821405,-370.102971,919.314598
906.903171,-9252.574275,370.102971,-766.095498
906.903492,-9622.677246,1036.288319,-536.266849
906.903812,-9400.615463,592.164754,842.705048
906.904133,-9548.656652,-1332.370696,766.095498
906.904454,-10140.821405,-444.123565,1149.143247
906.904775,-10140.821405,-1702.473667,2068.457845
906.905095,-10658.965565,-666.185348,3140.991542
906.905416,-10955.047942,-666.185348,3140.991542
906.905737,-9992.780217,888.247130,2374.896044
906.906057,-9178.553681,888.247130,2068.457845
906.906378,-8882.471304,148.041188,2374.896044
906.906699,-8734.430116,-1036.288319,1762.019645
906.907020,-9030.512492,-592.164754,1685.410096
906.907340,-9104.533087,-370.102971,2681.334243
906.907661,-9400.615463,-444.123565,2298.286494
906.907982,-9622.677246,-888.247130,1378.971896
906.908302,-8956.491898,-444.123565,-612.876398
906.908623,-9252.574275,1110.308913,76.609550
906.908944,-9252.574275,814.226536,153.219100
906.909265,-9178.553681,666.185348,536.266849
906.909585,-10140.821405,-296.082377,0.000000
906.909906,-9622.677246,-296.082377,0.000000
906.910227,-9474.636058,-592.164754,1378.971896
906.910547,-9992.780217,-1702.473667,1685.410096
906.910868,-9918.759623,-444.123565,1455.581446
906.911189,-9918.759623,222.061783,1149.143247
906.911509,-9178.553681,222.061783,1225.752797
906.911830,-8808.450710,-592.164754,919.314598
906.912151,-9400.615463,-814.226536,1302.362347
906.912472,-9474.636058,-444.123565,1302.362347
906.912792,-9474.636058,-1036.288319,1838.629195
906.913113,-9400.615463,-1776.494261,689.485948
906.913434,-9696.697840,-2072.576638,-842.705048
906.913754,-9548.656652,-666.185348,-995.924147
906.914075,-9622.677246,0.000000,-229.828649
906.914396,-9770.718434,-222.061783,0.000000
906.914717,-9770.718434,-1406.391290,-689.485948
906.915037,-9918.759623,-1332.370696,0.000000
906.915358,-10510.924376,-1850.514855,1072.533697
906.915679,-10436.903782,-1850.514855,2298.286494
906.915999,-10658.965565,-888.247130,1991.848295
906.916320,-10214.842000,0.000000,2221.676944
906.916641,-9844.739029,74.020594,2298.286494
906.916962,-10732.986159,370.102971,2681.334243
906.917282,-9622.677246,-814.226536,2451.505594
906.917603,-9474.636058,296.082377,2374.896044
906.917924,-9770.718434,-370.102971,2145.067394
906.918244,-9400.615463,-148.041188,1685.410096
906.918565,-9252.574275,-666.185348,76.609550
906.918886,-8882.471304,148.041188,-766.095498
906.919206,-9474.636058,592.164754,-995.924147
906.919527,-9326.594869,666.185348,306.438199
906.919848,-9474.636058,-740.205942,0.000000
906.920169,-9548.656652,-148.041188,459.657299
906.920489,-10732.986159,-148.041188,1838.629195
906.920810,-10288.862594,-444.123565,2757.943793
906.921131,-9770.718434,-1406.391290,2911.162892
906.921451,-9548.656652,-1036.288319,2451.505594
906.921772,-9400.615463,-814.226536,1838.629195
906.922093,-8956.491898,-1184.329507,1762.019645
906.922414,-8290.306550,-1702.473667,1225.752797
906.922734,-7994.224174,0.000000,536.266849
906.923055,-9178.553681,666.185348,1225.752797
906.923376,-9770.718434,814.226536,2451.505594
906.923696,-9992.780217,-148.041188,1225.752797
906.924017,-9400.615463,-444.123565,-536.266849
906.924338,-9770.718434,0.000000,-383.047749
906.924659,-9844.739029,-296.082377,-306.438199
906.924979,-10214.842000,-592.164754,153.219100
906.925300,-10288.862594,222.061783,153.219100
906.925621,-9844.739029,592.164754,76.609550
906.925941,-10362.883188,666.185348,1991.848295
906.926262,-10732.986159,-592.164754,1455.581446
906.926583,-9622.677246,-592.164754,-76.609550
906.926903,-9400.615463,-222.061783,229.828649
906.927224,-8068.244768,1406.391290,612.876398
906.927545,-9252.574275,-222.061783,766.095498
906.927866,-9252.574275,148.041188,1225.752797
906.928186,-9622.677246,1110.308913,1991.848295
906.928507,-9326.594869,0.000000,1915.238745
906.928828,-10807.006753,-296.082377,2451.505594
906.929148,-10658.965565,-666.185348,689.485948
906.929469,-9992.780217,0.000000,-76.609550
906.929790,-9178.553681,962.267725,-229.828649
906.930111,-9326.594869,592.164754,383.047749
906.930431,-9474.636058,-518.144159,76.609550
906.930752,-10214.842000,-740.205942,612.876398
906.931073,-9178.553681,518.144159,2757.943793
906.931393,-11843.295072,-3330.926739,1302.362347
906.931714,-6957.935855,-444.123565,2298.286494
906.932035,-11177.109724,-814.226536,1225.752797
906.932356,-8216.285956,1850.514855,2987.772442
906.932676,-8438.347739,-518.144159,2374.896044
906.932997,-9770.718434,-74.020594,3140.991542
906.933318,-8290.306550,-666.185348,306.438199
906.933638,-9844.739029,814.226536,3370.820191
906.933959,-9918.759623,370.102971,4136.915689
906.934280,-9178.553681,-1554.432478,229.828649
906.934601,-9178.553681,222.061783,76.609550
906.934921,-8808.450710,0.000000,-229.828649
906.935242,-8586.388927,74.020594,-153.219100
906.935563,-10510.924376,-1776.494261,842.705048
906.935883,-9400.615463,-1702.473667,76.609550
906.936204,-9770.718434,-1110.308913,536.266849
906.936525,-11103.089130,-1332.370696,1915.238745
906.936845,-9918.759623,-1110.308913,2298.286494
906.937166,-10066.800811,-592.164754,1838.629195
906.937487,-9770.718434,-1036.288319,1685.410096
906.937808,-8512.368333,-814.226536,1532.190996
906.938128,-9474.636058,-2072.576638,536.266849
906.938449,-9104.533087,-888.247130,1225.752797
906.938770,-9770.718434,0.000000,2145.067394
906.939090,-9622.677246,-370.102971,1685.410096
906.939411,-10436.903782,-1110.308913,612.876398
906.939732,-9252.574275,-296.082377,-612.876398
906.940053,-9844.739029,370.102971,-766.095498
906.940373,-9474.636058,814.226536,612.876398
906.940694,-8808.450710,-740.205942,76.609550
906.941015,-10510.924376,-1702.473667,0.000000
906.941335,-9770.718434,-1184.329507,0.000000
906.941656,-10140.821405,-1184.329507,1455.581446
906.941977,-11325.150913,-1036.288319,2451.505594
906.942298,-10362.883188,296.082377,1685.410096
906.942618,-9548.656652,962.267725,842.705048
906.942939,-9326.594869,888.247130,1149.143247
906.943260,-8956.491898,0.000000,1225.752797
906.943580,-9326.594869,-74.020594,1838.629195
906.943901,-9770.718434,0.000000,1915.238745
906.944222,-9622.677246,740.205942,2604.724693
906.944542,-10066.800811,370.102971,2298.286494
906.944863,-9770.718434,1332.370696,689.485948
906.945184,-9548.656652,1554.432478,383.047749
906.945505,-9178.553681,1110.308913,0.000000
906.945825,-9252.574275,0.000000,153.219100
906.946146,-9548.656652,0.000000,-766.095498
906.946467,-9770.718434,-1776.494261,0.000000
906.946787,-10288.862594,-1258.350101,1838.629195
906.947108,-10436.903782,-1702.473667,2451.505594
906.947429,-9844.739029,-1036.288319,2068.457845
906.947750,-9622.677246,-444.123565,1225.752797
906.948070,-8882.471304,0.000000,1455.581446
906.948391,-8734.430116,-370.102971,1838.629195
906.948712,-8142.265362,-666.185348,1302.362347
906.949032,-8660.409521,74.020594,1915.238745
906.949353,-9400.615463,222.061783,2834.553343
906.949674,-10140.821405,-740.205942,3370.820191
906.949995,-9474.636058,-666.185348,1915.238745
906.950315,-11325.150913,814.226536,995.924147
906.950636,-9474.636058,740.205942,536.266849
906.950957,-9400.615463,1036.288319,1225.752797
906.951277,-9474.636058,-148.041188,-153.219100
906.951598,-8808.450710,148.041188,-766.095498
906.951919,-9844.739029,-518.144159,153.219100
906.952239,-9252.574275,-370.102971,842.705048
906.952560,-10362.883188,-1628.453072,689.485948
906.952881,-9770.718434,-666.185348,0.000000
906.953202,-9770.718434,148.041188,1149.143247
906.953522,-9326.594869,518.144159,1762.019645
906.953843,-9770.718434,-518.144159,1991.848295
906.954164,-9770.718434,-370.102971,2068.457845
906.954484,-9696.697840,0.000000,2145.067394
906.954805,-9474.636058,-222.061783,2145.067394
906.955126,-9844.739029,-962.267725,1378.971896
906.955447,-9178.553681,-814.226536,-229.828649
906.955767,-9178.553681,148.041188,-1225.752797
906.956088,-9178.553681,74.020594,-842.705048
906.956409,-9474.636058,-814.226536,-766.095498
906.956729,-9548.656652,-1480.411884,-1149.143247
906.957050,-10584.944971,-1850.514855,-612.876398
906.957371,-9696.697840,-962.267725,536.266849
906.957692,-10362.883188,-1036.288319,459.657299
906.958012,-9622.677246,0.000000,0.000000
906.958333,-9474.636058,888.247130,459.657299
906.958654,-9326.594869,1110.308913,459.657299
906.958974,-9252.574275,444.123565,1762.019645
906.959295,-9474.636058,296.082377,1838.629195
906.959616,-9992.780217,444.123565,3370.820191
906.959937,-9696.697840,0.000000,4673.182538
906.960257,-10436.903782,-962.267725,3983.696590
906.960578,-9844.739029,-666.185348,1378.971896
906.960899,-8956.491898,888.247130,76.609550
906.961219,-8660.409521,888.247130,-306.438199
906.961540,-8512.368333,518.144159,229.828649
906.961861,-8882.471304,-148.041188,-383.047749
906.962181,-9474.636058,-592.164754,-153.219100
906.962502,-9548.656652,-1110.308913,1149.143247
906.962823,-10732.986159,-1998.556043,4136.915689
906.963144,-10881.027347,-1480.411884,3064.381992
906.963464,-10510.924376,74.020594,2528.115143
906.963785,-10066.800811,518.144159,2911.162892
906.964106,-9252.574275,0.000000,2911.162892
906.964426,-8586.388927,-1110.308913,1608.800546
906.964747,-8586.388927,-962.267725,1608.800546
906.965068,-8660.409521,-740.205942,2221.676944
906.965389,-9252.574275,-1184.329507,2145.067394
906.965709,-8734.430116,-1406.391290,-229.828649
906.966030,-9474.636058,-592.164754,-306.438199
906.966351,-9474.636058,74.020594,306.438199
906.966671,-9844.739029,296.082377,1072.533697
906.966992,-10584.944971,-592.164754,842.705048
906.967313,-10658.965565,-740.205942,306.438199
906.967634,-10510.924376,-740.205942,459.657299
906.967954,-10584.944971,-962.267725,1378.971896
906.968275,-10140.821405,-814.226536,1302.362347
906.968596,-9622.677246,0.000000,0.000000
906.968916,-9252.574275,222.061783,766.095498
906.969237,-8734.430116,222.061783,842.705048
906.969558,-9696.697840,-888.247130,2068.457845
906.969878,-9400.615463,-518.144159,1915.238745
906.970199,-9326.594869,-592.164754,2757.943793
906.970520,-9844.739029,-740.205942,2681.334243
906.970841,-9474.636058,0.000000,1685.410096
906.971161,-9770.718434,222.061783,0.000000
906.971482,-10214.842000,2368.659014,-306.438199
906.971803,-9030.512492,1850.514855,-306.438199
906.972123,-9252.574275,370.102971,-153.219100
906.972444,-9400.615463,-296.082377,-766.095498
906.972765,-10066.800811,-888.247130,-612.876398
906.973086,-9770.718434,-1036.288319,766.095498
906.973406,-10214.842000,-2220.617826,1302.362347
906.973727,-9548.656652,-1998.556043,919.314598
906.974048,-9844.739029,-1258.350101,919.314598
906.974368,-9622.677246,-518.144159,1915.238745
906.974689,-9104.533087,-1184.329507,1838.629195
906.975010,-9400.615463,-518.144159,1838.629195
906.975331,-9992.780217,0.000000,2298.286494
906.975651,-9474.636058,444.123565,3217.601092
906.975972,-9770.718434,-444.123565,2145.067394
906.976293,-9178.553681,-592.164754,0.000000
906.976613,-8956.491898,148.041188,-919.314598
906.976934,-8956.491898,0.000000,-1149.143247
906.977255,-8808.450710,-444.123565,-842.705048
906.977576,-9104.533087,-962.267725,-536.266849
906.977897,-9622.677246,-1332.370696,0.000000
906.978218,-9696.697840,-814.226536,919.314598
906.978538,-10807.006753,-222.061783,1455.581446
906.978859,-10436.903782,-222.061783,1762.019645
906.979180,-9992.780217,370.102971,1302.362347
906.979501,-9326.594869,444.123565,1532.190996
906.979822,-9178.553681,-1184.329507,3677.258390
906.980142,-9104.533087,-1110.308913,1455.581446
906.980463,-9548.656652,-740.205942,1991.848295
906.980784,-9696.697840,-222.061783,2604.724693
906.981105,-9992.780217,0.000000,2987.772442
906.981426,-10214.842000,370.102971,1915.238745
906.981746,-9326.594869,1480.411884,995.924147
906.982067,-9918.759623,1036.288319,459.657299
906.982388,-9326.594869,296.082377,842.705048
906.982709,-10214.842000,444.123565,153.219100
906.983030,-9918.759623,-814.226536,229.828649
906.983351,-10140.821405,-296.082377,1149.143247
906.983671,-10436.903782,0.000000,2451.505594
906.983992,-10436.903782,-962.267725,2681.334243
906.984313,-9844.739029,592.164754,842.705048
906.984634,-10214.842000,1110.308913,1149.143247
906.984955,-9326.594869,888.247130,1991.848295
906.985275,-9548.656652,-1036.288319,1455.581446
906.985596,-8956.491898,-1184.329507,1149.143247
906.985917,-9548.656652,-962.267725,1455.581446
906.986238,-9770.718434,-740.205942,2451.505594
906.986559,-9548.656652,-1110.308913,1685.410096
906.986879,-9474.636058,-148.041188,2757.943793
906.987200,-9622.677246,1184.329507,229.828649
906.987521,-9622.677246,888.247130,842.705048
906.987842,-9548.656652,-518.144159,0.000000
906.988163,-9252.574275,-888.247130,-153.219100
906.988484,-9474.636058,-1924.535449,-383.047749
906.988804,-9326.594869,-1554.432478,612.876398
906.989125,-9400.615463,-1332.370696,1072.533697
906.989446,-9770.718434,-592.164754,766.095498
906.989767,-8660.409521,0.000000,766.095498
906.990088,-9252.574275,-222.061783,1532.190996
906.990408,-9622.677246,-370.102971,2068.457845
906.990729,-9326.594869,-814.226536,1608.800546
906.991050,-9326.594869,-962.267725,2987.772442
906.991371,-9178.553681,-962.267725,3294.210641
906.991692,-9918.759623,-1480.411884,2374.896044
906.992012,-9030.512492,-740.205942,306.438199
906.992333,-8956.491898,0.000000,-153.219100
906.992654,-8586.388927,370.102971,-153.219100
906.992975,-8956.491898,-740.205942,306.438199
906.993296,-9326.594869,-1554.432478,-383.047749
906.993616,-9696.697840,-370.102971,459.657299
906.993937,-10955.047942,-1110.308913,1455.581446
906.994258,-10436.903782,-740.205942,1915.238745
906.994579,-11621.233289,-888.247130,1915.238745
906.994900,-9844.739029,592.164754,536.266849
906.995221,-9918.759623,666.185348,2604.724693
906.995541,-9030.512492,888.247130,1302.362347
906.995862,-9696.697840,592.164754,1225.752797
906.996183,-9770.718434,888.247130,1225.752797
906.996504,-9770.718434,1702.473667,3140.991542
906.996825,-9992.780217,444.123565,2145.067394
906.997145,-9918.759623,-962.267725,766.095498
906.997466,-9030.512492,222.061783,-459.657299
906.997787,-9844.739029,814.226536,0.000000
906.998108,-9104.533087,444.123565,536.266849
906.998429,-9770.718434,0.000000,766.095498
906.998749,-9622.677246,-1110.308913,306.438199
906.999070,-9474.636058,-962.267725,536.266849
906.999391,-10288.862594,-222.061783,1455.581446
906.999712,-10288.862594,-1184.329507,1991.848295
907.000033,-9918.759623,-74.020594,2221.676944
907.000354,-9104.533087,148.041188,1378.971896
907.000674,-8808.450710,-888.247130,1762.019645
907.000995,-8512.368333,-1110.308913,919.314598
907.001316,-8660.409521,-666.185348,1225.752797
907.001637,-9252.574275,-296.082377,1455.581446
907.001958,-8364.327145,962.267725,2145.067394
907.002278,-10066.800811,-296.082377,1455.581446
907.002599,-10066.800811,-592.164754,0.000000
907.002920,-8808.450710,296.082377,-229.828649
907.003241,-9474.636058,-1258.350101,-459.657299
907.003562,-8956.491898,-1036.288319,0.000000
907.003882,-10066.800811,-888.247130,459.657299
907.004203,-10066.800811,-296.082377,1149.143247
907.004524,-9844.739029,296.082377,1991.848295
907.004845,-10436.903782,-888.247130,1685.410096
907.005166,-9918.759623,-74.020594,1149.143247
907.005487,-9696.697840,518.144159,612.876398
907.005807,-9252.574275,222.061783,1378.971896
907.006128,-9400.615463,-592.164754,1455.581446
907.006449,-8734.430116,-148.041188,536.266849
907.006770,-9770.718434,-1332.370696,1302.362347
907.007091,-9918.759623,-1332.370696,1608.800546
907.007411,-9918.759623,-2368.659014,1302.362347
907.007732,-9992.780217,-1480.411884,1072.533697
907.008053,-9844.739029,0.000000,-459.657299
907.008374,-9400.615463,814.226536,-459.657299
907.008695,-10214.842000,592.164754,919.314598
907.009015,-9918.759623,-888.247130,153.219100
907.009336,-9696.697840,-814.226536,1072.533697
907.009657,-10584.944971,-1776.494261,1915.238745
907.009978,-10362.883188,-2072.576638,2374.896044
907.010299,-10510.924376,-1776.494261,1685.410096
907.010620,-9178.553681,-296.082377,919.314598
907.010940,-8808.450710,74.020594,919.314598
907.011261,-8882.471304,74.020594,919.314598
907.011582,-9104.533087,0.000000,1072.533697
907.011903,-9104.533087,74.020594,229.828649
907.012224,-9770.718434,370.102971,2068.457845
907.012544,-10288.862594,0.000000,2681.334243
907.012865,-9918.759623,-666.185348,1838.629195
907.013186,-9474.636058,0.000000,1072.533697
907.013507,-9548.656652,444.123565,842.705048
907.013828,-9326.594869,74.020594,1149.143247
907.014148,-9326.594869,0.000000,459.657299
907.014469,-8882.471304,444.123565,0.000000
907.014790,-9252.574275,0.000000,0.000000
907.015111,-9030.512492,0.000000,1149.143247
907.015432,-9178.553681,-1776.494261,689.485948
907.015753,-8734.430116,-1110.308913,-306.438199
907.016073,-8882.471304,-222.061783,459.657299
907.016394,-9178.553681,296.082377,1685.410096
907.016715,-9474.636058,0.000000,1685.410096
907.017036,-9918.759623,148.041188,1915.238745
907.017357,-9992.780217,296.082377,2221.676944
907.017677,-9918.759623,-592.164754,3294.210641
907.017998,-10658.965565,-2146.597232,2068.457845
907.018319,-9400.615463,-1258.350101,306.438199
907.018640,-9474.636058,-444.123565,-689.485948
907.018961,-9622.677246,0.000000,459.657299
907.019281,-9178.553681,-814.226536,689.485948
907.019602,-9400.615463,-296.082377,459.657299
907.019923,-9622.677246,518.144159,1072.533697
907.020244,-10066.800811,740.205942,2374.896044
907.020565,-11029.068536,222.061783,3524.039291
907.020886,-10362.883188,74.020594,2451.505594
907.021206,-9992.780217,370.102971,1915.238745
907.021527,-9474.636058,0.000000,1685.410096
907.021848,-9474.636058,0.000000,1225.752797
907.022169,-9474.636058,-296.082377,1225.752797
907.022490,-9622.677246,222.061783,1762.019645
907.022810,-9622.677246,222.061783,1608.800546
907.023131,-9844.739029,592.164754,1225.752797
907.023452,-10510.924376,-148.041188,153.219100
907.023773,-9622.677246,222.061783,0.000000
907.024094,-9252.574275,148.041188,689.485948
907.024414,-9474.636058,-1110.308913,995.924147
907.024735,-9548.656652,-888.247130,612.876398
907.025056,-10214.842000,-1184.329507,1225.752797
907.025377,-9548.656652,-444.123565,1455.581446
907.025698,-10214.842000,-666.185348,2374.896044
907.026019,-9992.780217,-592.164754,1455.581446
907.026339,-9548.656652,0.000000,1149.143247
907.026660,-8808.450710,-814.226536,306.438199
907.026981,-8290.306550,-1924.535449,306.438199
907.027302,-8660.409521,-2072.576638,-1072.533697
907.027623,-9104.533087,-740.205942,229.828649
907.027943,-9548.656652,444.123565,1378.971896
907.028264,-10066.800811,0.000000,2221.676944
907.028585,-9918.759623,-962.267725,689.485948
907.028906,-9918.759623,-592.164754,-459.657299
907.029227,-9474.636058,-518.144159,-459.657299
907.029547,-8956.491898,-592.164754,76.609550
907.029868,-9326.594869,-1036.288319,153.219100
907.030189,-8882.471304,-1184.329507,306.438199
907.030510,-9622.677246,-74.020594,842.705048
907.030831,-9918.759623,0.000000,2068.457845
907.031151,-9696.697840,-444.123565,1455.581446
907.031472,-10066.800811,296.082377,1685.410096
907.031793,-9474.636058,444.123565,612.876398
907.032114,-8586.388927,-222.061783,766.095498
907.032435,-9252.574275,-1702.473667,1072.533697
907.032756,-9030.512492,-1332.370696,919.314598
907.033076,-9844.739029,-1258.350101,1455.581446
907.033397,-10658.965565,0.000000,2681.334243
907.033718,-11251.130318,-222.061783,2528.115143
907.034039,-10436.903782,444.123565,1378.971896
907.034360,-10362.883188,1110.308913,76.609550
907.034680,-9770.718434,962.267725,612.876398
907.035001,-9770.718434,-518.144159,689.485948
907.035322,-9696.697840,-1702.473667,153.219100
907.035643,-8734.430116,-1480.411884,-689.485948
907.035964,-9548.656652,-1110.308913,1072.533697
907.036284,-9918.759623,-148.041188,1838.629195
907.036605,-10584.944971,740.205942,2298.286494
907.036926,-10288.862594,1332.370696,2068.457845
907.037247,-9252.574275,740.205942,1838.629195
907.037568,-9622.677246,-370.102971,1608.800546
907.037889,-9474.636058,-148.041188,1378.971896
907.038209,-9770.718434,0.000000,2068.457845
907.038530,-9400.615463,0.000000,2451.505594
907.038851,-9252.574275,-1036.288319,1838.629195
907.039172,-9326.594869,-1332.370696,0.000000
907.039493,-9474.636058,0.000000,0.000000
907.039813,-9474.636058,2368.659014,459.657299
907.040134,-9326.594869,-74.020594,1225.752797
907.040455,-9030.512492,-740.205942,306.438199
907.040776,-9622.677246,-1332.370696,229.828649
907.041097,-9400.615463,-1036.288319,1608.800546
907.041417,-9622.677246,-1258.350101,2528.115143
907.041738,-9770.718434,-1332.370696,1915.238745
907.042059,-9474.636058,444.123565,1455.581446
907.042380,-9474.636058,666.185348,1608.800546
907.042701,-8956.491898,444.123565,1455.581446
907.043022,-9104.533087,148.041188,1378.971896
907.043342,-9178.553681,148.041188,1455.581446
907.043663,-9474.636058,-592.164754,1455.581446
907.043984,-9844.739029,-814.226536,2068.457845
907.044305,-9918.759623,-1776.494261,229.828649
907.044626,-9474.636058,-370.102971,-536.266849
907.044946,-9770.718434,444.123565,76.609550
907.045267,-9622.677246,0.000000,919.314598
907.045588,-9918.759623,-666.185348,919.314598
907.045909,-10436.903782,-1480.411884,919.314598
907.046230,-10510.924376,-1036.288319,1149.143247
907.046550,-10807.006753,-1332.370696,1762.019645
907.046871,-9918.759623,-222.061783,766.095498
907.047192,-9474.636058,1554.432478,995.924147
907.047513,-9844.739029,222.061783,766.095498
907.047834,-7624.121203,1332.370696,459.657299
907.048155,-9696.697840,0.000000,-1685.410096
907.048475,-9474.636058,1110.308913,1455.581446
907.048796,-10140.821405,814.226536,1991.848295
907.049117,-10955.047942,888.247130,3524.039291
907.049438,-10140.821405,-222.061783,1455.581446
907.049759,-9474.636058,740.205942,76.609550
907.050079,-10732.986159,1110.308913,1149.143247
907.050400,-8586.388927,-222.061783,0.000000
907.050721,-9696.697840,-1184.329507,229.828649
907.051042,-8882.471304,-1850.514855,-229.828649
907.051363,-8438.347739,-962.267725,0.000000
907.051683,-9770.718434,-518.144159,2298.286494
907.052004,-10288.862594,-222.061783,2757.943793
907.052325,-9474.636058,296.082377,2068.457845
907.052646,-9326.594869,0.000000,1991.848295
907.052967,-8660.409521,-148.041188,2145.067394
907.053288,-8882.471304,-1554.432478,1838.629195
907.053608,-8734.430116,-1850.514855,1302.362347
907.053929,-8364.327145,-666.185348,1532.190996
907.054250,-8660.409521,-666.185348,1532.190996
907.054571,-9400.615463,-1184.329507,919.314598
907.054892,-9474.636058,-962.267725,-383.047749
907.055212,-9104.533087,0.000000,-1378.971896
907.055533,-9400.615463,296.082377,229.828649
907.055854,-10288.862594,-962.267725,536.266849
907.056175,-9400.615463,-1628.453072,153.219100
907.056496,-9844.739029,-2442.679609,153.219100
907.056816,-9400.615463,-888.247130,1225.752797
907.057137,-10807.006753,-1850.514855,2451.505594
907.057458,-10140.821405,-740.205942,1838.629195
907.057779,-9474.636058,962.267725,1532.190996
907.058100,-9622.677246,592.164754,1072.533697
907.058421,-8660.409521,518.144159,1149.143247
907.058741,-9992.780217,-740.205942,919.314598
907.059062,-9548.656652,-518.144159,1532.190996
907.059383,-10214.842000,-444.123565,2298.286494
907.059704,-10436.903782,-1184.329507,2528.115143
907.060025,-10288.862594,-1776.494261,306.438199
907.060345,-10214.842000,-296.082377,-383.047749
907.060666,-9770.718434,592.164754,-306.438199
907.060987,-9474.636058,740.205942,2604.724693
907.061308,-10214.842000,-740.205942,76.609550
907.061629,-9400.615463,-1258.350101,-612.876398
907.061949,-10140.821405,-1406.391290,76.609550
907.062270,-9844.739029,-1258.350101,1685.410096
907.062591,-10214.842000,-1628.453072,1302.362347
907.062912,-9548.656652,-148.041188,1225.752797
907.063233,-9474.636058,370.102971,842.705048
907.063553,-9474.636058,222.061783,1608.800546
907.063874,-9252.574275,370.102971,1378.971896
907.064195,-8956.491898,222.061783,1225.752797
907.064516,-9622.677246,666.185348,2145.067394
907.064837,-9474.636058,296.082377,2757.943793
907.065158,-9696.697840,-592.164754,459.657299
907.065478,-9178.553681,-222.061783,306.438199
907.065799,-9252.574275,444.123565,0.000000
907.066120,-8882.471304,444.123565,383.047749
907.066441,-8808.450710,814.226536,76.609550
907.066762,-9474.636058,444.123565,0.000000
907.067082,-8956.491898,888.247130,383.047749
907.067403,-10362.883188,0.000000,2451.505594
907.067724,-10288.862594,-1702.473667,2374.896044
907.068045,-10066.800811,-2442.679609,1991.848295
907.068366,-9400.615463,-888.247130,1072.533697
907.068686,-9104.533087,148.041188,2068.457845
907.069007,-9474.636058,518.144159,2451.505594
907.069328,-9104.533087,1406.391290,2451.505594
907.069649,-9400.615463,1258.350101,2145.067394
907.069970,-9548.656652,0.000000,2068.457845
907.070291,-9474.636058,-666.185348,1302.362347
907.070611,-9918.759623,-814.226536,229.828649
907.070932,-8142.265362,592.164754,689.485948
907.071253,-9474.636058,1406.391290,1072.533697
907.071574,-9992.780217,518.144159,1608.800546
907.071895,-10288.862594,-148.041188,919.314598
907.072215,-10436.903782,-1480.411884,1225.752797
907.072536,-9918.759623,-740.205942,1302.362347
907.072857,-10362.883188,-1332.370696,1685.410096
907.073178,-9474.636058,370.102971,0.000000
907.073499,-8882.471304,1184.329507,-306.438199
907.073819,-8364.327145,666.185348,-536.266849
907.074140,-8290.306550,222.061783,0.000000
907.074461,-9326.594869,74.020594,76.609550
907.074782,-9696.697840,370.102971,2221.676944
907.075103,-10288.862594,666.185348,3064.381992
907.075424,-11325.150913,-1184.329507,4519.963438
907.075744,-10510.924376,-1850.514855,2911.162892
907.076065,-10584.944971,-962.267725,919.314598
907.076386,-9474.636058,-962.267725,1915.238745
907.076707,-9326.594869,-1036.288319,-229.828649
907.077028,-8364.327145,-962.267725,-842.705048
907.077348,-9326.594869,-1184.329507,-1762.019645
907.077669,-8734.430116,0.000000,-766.095498
907.077990,-10214.842000,-814.226536,1302.362347
907.078311,-10066.800811,-1406.391290,1225.752797
907.078632,-10436.903782,-666.185348,1991.848295
907.078952,-10214.842000,-1036.288319,2145.067394
907.079273,-9030.512492,-1998.556043,1685.410096
907.079594,-9178.553681,-1850.514855,1685.410096
907.079915,-9252.574275,-962.267725,1685.410096
907.080235,-8956.491898,-592.164754,1915.238745
907.080556,-8734.430116,-740.205942,1532.190996
907.080877,-8734.430116,-1258.350101,306.438199
907.081197,-8882.471304,0.000000,-306.438199
907.081518,-9992.780217,296.082377,383.047749
907.081839,-9548.656652,-370.102971,919.314598
907.082159,-9474.636058,-1998.556043,-229.828649
907.082480,-9474.636058,-2294.638420,-766.095498
907.082801,-9918.759623,-1776.494261,0.000000
907.083122,-10140.821405,-888.247130,1378.971896
907.083442,-10658.965565,-1258.350101,1532.190996
907.083763,-9770.718434,0.000000,459.657299
907.084084,-9474.636058,296.082377,229.828649
907.084404,-9030.512492,592.164754,766.095498
907.084725,-9474.636058,148.041188,1685.410096
907.085046,-9326.594869,-74.020594,1915.238745
907.085366,-9844.739029,-814.226536,2374.896044
907.085687,-9474.636058,-962.267725,2987.772442
907.086008,-10066.800811,-1850.514855,2451.505594
907.086328,-10510.924376,-518.144159,1302.362347
907.086649,-9918.759623,962.267725,689.485948
907.086970,-9252.574275,962.267725,229.828649
907.087291,-9252.574275,0.000000,-612.876398
907.087611,-9104.533087,-518.144159,-1072.533697
907.087932,-10436.903782,-1110.308913,-612.876398
907.088253,-9770.718434,-518.144159,995.924147
907.088573,-10955.047942,-1628.453072,995.924147
907.088894,-9844.739029,0.000000,995.924147
907.089215,-10510.924376,0.000000,842.705048
907.089535,-9178.553681,1184.329507,1149.143247
907.089856,-9474.636058,518.144159,1991.848295
907.090177,-8808.450710,444.123565,1149.143247
907.090498,-8290.306550,962.267725,1072.533697
907.090818,-9104.533087,-296.082377,2604.724693
907.091139,-9030.512492,-740.205942,2298.286494
907.091460,-9474.636058,-888.247130,1685.410096
907.091780,-9918.759623,296.082377,842.705048
907.092101,-9622.677246,1110.308913,1149.143247
907.092422,-10288.862594,74.020594,1685.410096
907.092742,-9622.677246,-222.061783,0.000000
907.093063,-9474.636058,518.144159,-842.705048
907.093384,-10436.903782,444.123565,0.000000
907.093704,-9622.677246,0.000000,1225.752797
907.094025,-10066.800811,-666.185348,1072.533697
907.094346,-9400.615463,-296.082377,383.047749
907.094667,-8808.450710,0.000000,306.438199
907.094987,-8882.471304,-222.061783,1532.190996
907.095308,-9178.553681,0.000000,1838.629195
907.095629,-9474.636058,592.164754,2374.896044
907.095949,-9474.636058,444.123565,2681.334243
907.096270,-9474.636058,444.123565,2987.772442
907.096591,-9918.759623,-962.267725,2068.457845
907.096911,-9104.533087,-740.205942,306.438199
907.097232,-9252.574275,-444.123565,0.000000
907.097553,-8882.471304,222.061783,0.000000
907.097874,-9696.697840,-1036.288319,0.000000
907.098194,-9622.677246,-814.226536,-383.047749
907.098515,-10214.842000,-370.102971,459.657299
907.098836,-10881.027347,-222.061783,1838.629195
907.099156,-10658.965565,-1258.350101,2068.457845
907.099477,-10288.862594,-962.267725,1685.410096
907.099798,-9844.739029,-666.185348,1378.971896
907.100118,-9178.553681,-370.102971,1915.238745
907.100439,-9030.512492,-444.123565,2145.067394
907.100760,-8734.430116,444.123565,1991.848295
907.101080,-9696.697840,1036.288319,2528.115143
907.101401,-9548.656652,1110.308913,3294.210641
907.101722,-10807.006753,222.061783,2298.286494
907.102043,-9844.739029,-740.205942,383.047749
907.102363,-9696.697840,222.061783,-459.657299
907.102684,-9918.759623,1184.329507,0.000000
907.103005,-10214.842000,814.226536,536.266849
907.103325,-9844.739029,0.000000,-459.657299
907.103646,-10214.842000,-296.082377,0.000000
907.103967,-10881.027347,-518.144159,1762.019645
907.104287,-11251.130318,-1776.494261,2757.943793
907.104608,-10066.800811,-2516.700203,1915.238745
907.104929,-9178.553681,-1628.453072,306.438199
907.105250,-7920.203579,74.020594,-306.438199
907.105570,-8068.244768,-148.041188,-766.095498
907.105891,-6513.812290,74.020594,0.000000
907.106212,-7624.121203,0.000000,766.095498
907.106532,-9030.512492,-814.226536,1149.143247
907.106853,-9474.636058,-2442.679609,2068.457845
907.107174,-10288.862594,-2812.782580,0.000000
907.107494,-10658.965565,-592.164754,689.485948
907.107815,-9030.512492,0.000000,689.485948
907.108136,-9474.636058,740.205942,1302.362347
907.108456,-8512.368333,-592.164754,0.000000
907.108777,-9326.594869,-2368.659014,-1532.190996
907.109098,-8438.347739,-1332.370696,-306.438199
907.109419,-9474.636058,-1628.453072,76.609550
907.109739,-9252.574275,-370.102971,383.047749
907.110060,-9844.739029,518.144159,1302.362347
907.110381,-9474.636058,444.123565,1302.362347
907.110701,-9400.615463,74.020594,2681.334243
907.111022,-10510.924376,-1850.514855,2757.943793
907.111343,-9696.697840,-814.226536,2451.505594
907.111663,-10436.903782,-1480.411884,2604.724693
907.111984,-9622.677246,-296.082377,2757.943793
907.112305,-9326.594869,222.061783,995.924147
907.112626,-9548.656652,814.226536,229.828649
907.112946,-9326.594869,888.247130,0.000000
907.113267,-9326.594869,296.082377,0.000000
907.113588,-10288.862594,-888.247130,76.609550
907.113908,-10584.944971,-962.267725,612.876398
907.114229,-10140.821405,-1184.329507,2221.676944
907.114550,-10584.944971,-740.205942,2451.505594
907.114870,-10510.924376,-592.164754,2068.457845
907.115191,-9918.759623,-74.020594,1149.143247
907.115512,-10066.800811,0.000000,766.095498
907.115833,-9326.594869,0.000000,1762.019645
907.116153,-8660.409521,-666.185348,1149.143247
907.116474,-9252.574275,0.000000,1838.629195
907.116795,-9474.636058,0.000000,2298.286494
907.117115,-9252.574275,-370.102971,2757.943793
907.117436,-9770.718434,-296.082377,2451.505594
907.117757,-9252.574275,592.164754,842.705048
907.118077,-9474.636058,1332.370696,383.047749
907.118398,-9474.636058,814.226536,1608.800546
907.118719,-9178.553681,74.020594,612.876398
907.119039,-9400.615463,-444.123565,-383.047749
907.119360,-9474.636058,74.020594,0.000000
907.119681,-9622.677246,1406.391290,1762.019645
907.120002,-10288.862594,370.102971,1608.800546
907.120322,-9622.677246,814.226536,1302.362347
907.120643,-9548.656652,666.185348,1072.533697
907.120964,-9400.615463,-296.082377,1378.971896
907.121284,-9104.533087,-962.267725,1685.410096
907.121605,-9252.574275,-1036.288319,919.314598
907.121926,-9178.553681,0.000000,1455.581446
907.122246,-9400.615463,-222.061783,2145.067394
907.122567,-9030.512492,-296.082377,2221.676944
907.122888,-10288.862594,-1036.288319,459.657299
907.123209,-9252.574275,518.144159,-153.219100
907.123529,-9548.656652,222.061783,76.609550
907.123850,-9474.636058,0.000000,689.485948
907.124171,-9770.718434,-740.205942,76.609550
907.124491,-9918.759623,-814.226536,229.828649
907.124812,-9844.739029,-444.123565,1302.362347
907.125133,-10362.883188,-1554.432478,1838.629195
907.125453,-10658.965565,-1628.453072,1915.238745
907.125774,-9992.780217,-666.185348,1685.410096
907.126095,-9918.759623,-222.061783,1532.190996
907.126415,-9400.615463,222.061783,2298.286494
907.126736,-8734.430116,-518.144159,2451.505594
907.127057,-9030.512492,-148.041188,1532.190996
907.127378,-9474.636058,-148.041188,1685.410096
907.127698,-9548.656652,-592.164754,2451.505594
907.128019,-9696.697840,-1110.308913,2451.505594
907.128340,-9548.656652,-592.164754,-306.438199
907.128660,-9400.615463,962.267725,0.000000
907.128981,-9992.780217,888.247130,1608.800546
907.129302,-10214.842000,-592.164754,1608.800546
907.129622,-9992.780217,-888.247130,1685.410096
907.129943,-10140.821405,-1998.556043,995.924147
907.130264,-10140.821405,-962.267725,2451.505594
907.130585,-10658.965565,-666.185348,2298.286494
907.130905,-9548.656652,370.102971,536.266849
907.131226,-8364.327145,1184.329507,-612.876398
907.131547,-8142.265362,444.123565,-689.485948
907.131867,-7624.121203,-1036.288319,-1225.752797
907.132188,-7994.224174,-1258.350101,-229.828649
907.132509,-9104.533087,-1406.391290,536.266849
907.132829,-9326.594869,-1628.453072,1685.410096
907.133150,-10436.903782,-1776.494261,2681.334243
907.133471,-10807.006753,-1924.535449,1991.848295
907.133791,-10214.842000,-148.041188,1608.800546
907.134112,-10436.903782,0.000000,1225.752797
907.134433,-8808.450710,-296.082377,383.047749
907.134754,-9030.512492,-1110.308913,-612.876398
907.135074,-9474.636058,-444.123565,-919.314598
907.135395,-9252.574275,666.185348,1302.362347
907.135716,-11177.109724,-3034.844362,1915.238745
907.136036,-8882.471304,-1480.411884,689.485948
907.136357,-10066.800811,-1110.308913,0.000000
907.136678,-10436.903782,1258.350101,1762.019645
907.136998,-9030.512492,1036.288319,2451.505594
907.137319,-9400.615463,1184.329507,2068.457845
907.137640,-10214.842000,222.061783,2604.724693
907.137961,-8586.388927,-1184.329507,0.000000
907.138281,-11029.068536,-592.164754,2451.505594
907.138602,-9030.512492,-1924.535449,0.000000
907.138923,-9104.533087,888.247130,-995.924147
907.139243,-9844.739029,962.267725,919.314598
907.139564,-8808.450710,370.102971,153.219100
907.139885,-10436.903782,-518.144159,0.000000
907.140205,-10955.047942,-444.123565,1455.581446
907.140526,-9548.656652,-666.185348,1532.190996
907.140847,-11103.089130,0.000000,2757.943793
907.141167,-11399.171507,-888.247130,2374.896044
907.141488,-8734.430116,1776.494261,1685.410096
907.141809,-9918.759623,740.205942,2068.457845
907.142130,-9030.512492,-592.164754,536.266849
907.142450,-9030.512492,-222.061783,842.705048
907.142771,-9104.533087,-296.082377,1149.143247
907.143092,-9030.512492,740.205942,1838.629195
907.143412,-9918.759623,1036.288319,3524.039291
907.143733,-9992.780217,-666.185348,1762.019645
907.144054,-9474.636058,222.061783,689.485948
907.144374,-10066.800811,-148.041188,689.485948
907.144695,-9326.594869,-1406.391290,1149.143247
907.145016,-9178.553681,-1480.411884,383.047749
907.145337,-9178.553681,-1258.350101,0.000000
907.145657,-9474.636058,74.020594,1302.362347
907.145978,-9844.739029,444.123565,3140.991542
907.146299,-9474.636058,-814.226536,2451.505594
907.146619,-9770.718434,-296.082377,1225.752797
907.146940,-9622.677246,0.000000,842.705048
907.147261,-9326.594869,-148.041188,1532.190996
907.147581,-9104.533087,-1036.288319,1072.533697
907.147902,-8586.388927,-666.185348,383.047749
907.148223,-8808.450710,-148.041188,536.266849
907.148543,-9326.594869,444.123565,1608.800546
907.148864,-9622.677246,0.000000,919.314598
907.149185,-9252.574275,-148.041188,153.219100
907.149506,-9548.656652,0.000000,-229.828649
907.149826,-9770.718434,-148.041188,459.657299
907.150147,-10214.842000,-888.247130,766.095498
907.150468,-9622.677246,-296.082377,1608.800546
907.150788,-10584.944971,-1184.329507,1762.019645
907.151109,-10732.986159,-444.123565,2681.334243
907.151430,-11473.192101,-592.164754,2757.943793
907.151750,-10066.800811,-74.020594,1149.143247
907.152071,-9252.574275,222.061783,766.095498
907.152392,-8660.409521,-666.185348,0.000000
907.152713,-7550.100608,-1332.370696,-689.485948
907.153033,-8808.450710,-1406.391290,-995.924147
907.153354,-8882.471304,0.000000,536.266849
907.153675,-10066.800811,0.000000,1455.581446
907.153995,-10510.924376,-222.061783,2374.896044
907.154316,-11177.109724,-888.247130,995.924147
907.154637,-9770.718434,1036.288319,919.314598
907.154957,-10288.862594,222.061783,536.266849
907.155278,-9178.553681,0.000000,689.485948
907.155599,-9474.636058,-962.267725,-383.047749
907.155919,-9326.594869,-222.061783,-1225.752797
907.156240,-9474.636058,-1036.288319,995.924147
907.156561,-9918.759623,-1332.370696,1608.800546
907.156882,-9770.718434,-1258.350101,1532.190996
907.157202,-9918.759623,0.000000,1378.971896
907.157523,-9622.677246,1036.288319,2145.067394
907.157844,-9548.656652,666.185348,1991.848295
907.158164,-9252.574275,-740.205942,1532.190996
907.158485,-9252.574275,-1036.288319,1608.800546
907.158806,-10066.800811,-814.226536,1532.190996
907.159126,-9326.594869,-1554.432478,1532.190996
907.159447,-9326.594869,-1258.350101,76.609550
907.159768,-8882.471304,296.082377,-383.047749
907.160089,-9400.615463,1036.288319,0.000000
907.160409,-9030.512492,592.164754,612.876398
907.160730,-9030.512492,-74.020594,306.438199
907.161051,-10140.821405,-2146.597232,459.657299
907.161371,-9770.718434,-1480.411884,1225.752797
907.161692,-10140.821405,-1110.308913,2987.772442
907.162013,-10288.862594,-2072.576638,2068.457845
907.162333,-9104.533087,888.247130,1608.800546
907.162654,-9992.780217,740.205942,1608.800546
907.162975,-8290.306550,814.226536,1608.800546
907.163295,-9474.636058,148.041188,1838.629195
907.163616,-9178.553681,-740.205942,1455.581446
907.163937,-9400.615463,296.082377,1608.800546
907.164258,-10066.800811,-296.082377,1762.019645
907.164578,-9622.677246,-888.247130,1378.971896
907.164899,-9548.656652,-518.144159,0.000000
907.165220,-9622.677246,222.061783,-306.438199
907.165540,-9548.656652,592.164754,383.047749
907.165861,-9696.697840,0.000000,229.828649
907.166182,-9252.574275,222.061783,0.000000
907.166502,-10214.842000,0.000000,229.828649
907.166823,-9770.718434,666.185348,1915.238745
907.167144,-11843.295072,-666.185348,2145.067394
907.167465,-10288.862594,-592.164754,1991.848295
907.167785,-10140.821405,-888.247130,1149.143247
907.168106,-9474.636058,74.020594,1455.581446
907.168427,-9252.574275,370.102971,153.219100
907.168747,-9252.574275,888.247130,919.314598
907.169068,-9178.553681,1406.391290,1685.410096
907.169389,-9474.636058,0.000000,2374.896044
907.169709,-9548.656652,-1110.308913,1225.752797
907.170030,-10140.821405,-1702.473667,153.219100
907.170351,-9548.656652,0.000000,0.000000
907.170672,-9844.739029,444.123565,76.609550
907.170992,-9252.574275,518.144159,536.266849
907.171313,-9252.574275,-962.267725,-383.047749
907.171634,-9474.636058,-962.267725,0.000000
907.171954,-9992.780217,-1406.391290,1302.362347
907.172275,-10584.944971,-1332.370696,2374.896044
907.172596,-10288.862594,-1554.432478,1225.752797
907.172916,-9474.636058,0.000000,1532.190996
907.173237,-9030.512492,296.082377,1378.971896
907.173558,-8586.388927,-740.205942,1149.143247
907.173878,-8956.491898,-814.226536,1302.362347
907.174199,-8808.450710,-1184.329507,1072.533697
907.174520,-9252.574275,-444.123565,1532.190996
907.174841,-9474.636058,-888.247130,1838.629195
907.175161,-9622.677246,-1184.329507,766.095498
907.175482,-8882.471304,-666.185348,-1072.533697
907.175803,-9326.594869,370.102971,383.047749
907.176123,-9474.636058,-666.185348,689.485948
907.176444,-8956.491898,-2146.597232,0.000000
907.176765,-9696.697840,-1628.453072,-1532.190996
907.177085,-9474.636058,-1110.308913,612.876398
907.177406,-10066.800811,0.000000,2451.505594
907.177727,-10436.903782,-148.041188,2757.943793
907.178048,-9474.636058,666.185348,1762.019645
907.178368,-9918.759623,518.144159,1455.581446
907.178689,-9326.594869,0.000000,1455.581446
907.179010,-9548.656652,-814.226536,1685.410096
907.179330,-9326.594869,-222.061783,1378.971896
907.179651,-9992.780217,592.164754,4596.572988
907.179972,-9918.759623,0.000000,2374.896044
907.180293,-9992.780217,-666.185348,1455.581446
907.180613,-9844.739029,-592.164754,-229.828649
907.180934,-9992.780217,0.000000,-383.047749
907.181255,-9400.615463,-740.205942,0.000000
907.181575,-9992.780217,-1332.370696,153.219100
907.181896,-9770.718434,-1184.329507,0.000000
907.182217,-9622.677246,-444.123565,229.828649
907.182537,-10510.924376,0.000000,1762.019645
907.182858,-10214.842000,-518.144159,1838.629195
907.183179,-10066.800811,148.041188,1149.143247
907.183500,-9844.739029,1036.288319,1762.019645
907.183820,-9326.594869,0.000000,995.924147
907.184141,-8882.471304,-296.082377,1302.362347
907.184462,-9252.574275,-1184.329507,995.924147
907.184782,-8882.471304,-444.123565,1149.143247
907.185103,-9474.636058,-1184.329507,2528.115143
907.185424,-9030.512492,-2294.638420,1455.581446
907.185744,-8882.471304,-1702.473667,-306.438199
907.186065,-8956.491898,222.061783,-995.924147
907.186386,-9400.615463,740.205942,153.219100
907.186707,-8290.306550,-148.041188,153.219100
907.187027,-9400.615463,-1036.288319,0.000000
907.187348,-9474.636058,-740.205942,76.609550
907.187669,-10140.821405,-666.185348,1149.143247
907.187989,-9474.636058,-962.267725,3447.429741
907.188310,-9844.739029,-666.185348,1532.190996
907.188631,-9326.594869,592.164754,842.705048
907.188951,-9474.636058,740.205942,1455.581446
907.189272,-9104.533087,444.123565,1838.629195
907.189593,-9400.615463,-518.144159,1302.362347
907.189914,-8956.491898,-518.144159,919.314598
907.190234,-9474.636058,0.000000,1302.362347
907.190555,-9548.656652,-1110.308913,1302.362347
907.190876,-9474.636058,-1480.411884,0.000000
907.191196,-9696.697840,148.041188,-995.924147
907.191517,-9622.677246,222.061783,-1149.143247
907.191838,-9770.718434,370.102971,-229.828649
907.192159,-10288.862594,-370.102971,766.095498
907.192479,-10140.821405,-962.267725,0.000000
907.192800,-10362.883188,0.000000,1225.752797
907.193121,-10362.883188,-444.123565,2068.457845
907.193441,-10807.006753,-296.082377,2911.162892
907.193762,-10658.965565,148.041188,2451.505594
907.194083,-9622.677246,1036.288319,2298.286494
907.194403,-9400.615463,-296.082377,1915.238745
907.194724,-9104.533087,-666.185348,1762.019645
907.195045,-9400.615463,222.061783,1838.629195
907.195366,-9474.636058,592.164754,2528.115143
907.195686,-9326.594869,666.185348,2681.334243
907.196007,-9548.656652,0.000000,1915.238745
907.196328,-8956.491898,-222.061783,-766.095498
907.196648,-9622.677246,1036.288319,0.000000
907.196969,-9622.677246,592.164754,1225.752797
907.197290,-8956.491898,-222.061783,1455.581446
907.197610,-9548.656652,-2294.638420,536.266849
907.197931,-9178.553681,-1184.329507,689.485948
907.198252,-10214.842000,-814.226536,2068.457845
907.198573,-9992.780217,-1258.350101,2221.676944
907.198893,-9548.656652,148.041188,1685.410096
907.199214,-9252.574275,518.144159,2068.457845
907.199535,-8586.388927,666.185348,1225.752797
907.199855,-9252.574275,-814.226536,1149.143247
907.200176,-8586.388927,-592.164754,919.314598
907.200497,-8438.347739,-888.247130,2068.457845
907.200818,-9548.656652,74.020594,2374.896044
907.201138,-9622.677246,-814.226536,2145.067394
907.201459,-9696.697840,-1110.308913,76.609550
907.201780,-9326.594869,0.000000,-689.485948
907.202100,-8734.430116,-444.123565,-459.657299
907.202421,-9918.759623,-740.205942,-459.657299
907.202742,-9770.718434,-814.226536,0.000000
907.203062,-9844.739029,-1184.329507,-459.657299
907.203383,-10066.800811,-962.267725,1378.971896
907.203704,-10807.006753,-1850.514855,2145.067394
907.204025,-10658.965565,-1776.494261,1608.800546
907.204345,-10066.800811,-444.123565,1302.362347
907.204666,-9770.718434,-962.267725,1838.629195
907.204987,-8808.450710,-962.267725,1532.190996
907.205307,-9548.656652,-1332.370696,1072.533697
907.205628,-9030.512492,444.123565,1608.800546
907.205949,-9326.594869,518.144159,2221.676944
907.206269,-9178.553681,-740.205942,2145.067394
907.206590,-9622.677246,-888.247130,383.047749
907.206911,-9474.636058,296.082377,-612.876398
907.207232,-9030.512492,1850.514855,-842.705048
907.207552,-9992.780217,1850.514855,-76.609550
907.207873,-10066.800811,740.205942,76.609550
907.208194,-10436.903782,-518.144159,842.705048
907.208514,-10732.986159,-2368.659014,689.485948
907.208835,-10362.883188,-1480.411884,2298.286494
907.209156,-11917.315666,-1480.411884,2604.724693
907.209477,-10436.903782,296.082377,1991.848295
907.209797,-10066.800811,1184.329507,1838.629195
907.210118,-8882.471304,296.082377,1378.971896
907.210439,-8216.285956,0.000000,536.266849
907.210759,-8364.327145,-740.205942,536.266849
907.211080,-8660.409521,-1036.288319,1608.800546
907.211401,-9104.533087,-1184.329507,2374.896044
907.211721,-9844.739029,-1628.453072,1608.800546
907.212042,-9252.574275,-740.205942,689.485948
907.212363,-9400.615463,296.082377,459.657299
907.212684,-9770.718434,222.061783,1149.143247
907.213004,-9326.594869,-666.185348,459.657299
907.213325,-8142.265362,-814.226536,-766.095498
907.213646,-9548.656652,-2368.659014,-1455.581446
907.213966,-7994.224174,-666.185348,919.314598
907.214287,-10066.800811,-1850.514855,1608.800546
907.214608,-9252.574275,74.020594,1762.019645
907.214928,-9992.780217,-74.020594,1762.019645
907.215249,-9696.697840,74.020594,1915.238745
907.215570,-9696.697840,0.000000,2681.334243
907.215891,-9548.656652,-518.144159,2528.115143
907.216211,-8956.491898,444.123565,2374.896044
907.216532,-9770.718434,0.000000,2604.724693
907.216853,-8882.471304,0.000000,1685.410096
907.217173,-9844.739029,0.000000,689.485948
907.217494,-9548.656652,740.205942,459.657299
907.217815,-9918.759623,1036.288319,306.438199
907.218136,-10214.842000,222.061783,383.047749
907.218456,-9622.677246,-740.205942,-1455.581446
907.218777,-9844.739029,370.102971,0.000000
907.219098,-11473.192101,-370.102971,1378.971896
907.219418,-10140.821405,-592.164754,1685.410096
907.219739,-10881.027347,-1850.514855,995.924147
907.220060,-8438.347739,-1406.391290,1302.362347
907.220380,-9474.636058,0.000000,536.266849
907.220701,-9474.636058,296.082377,2068.457845
907.221022,-9030.512492,592.164754,1838.629195
907.221343,-9030.512492,74.020594,2221.676944
907.221663,-9548.656652,-370.102971,3064.381992
907.221984,-9844.739029,-814.226536,3217.601092
907.222305,-10881.027347,-1702.473667,2451.505594
907.222625,-9770.718434,0.000000,612.876398
907.222946,-9474.636058,814.226536,-383.047749
907.223267,-8956.491898,1110.308913,0.000000
907.223587,-9178.553681,296.082377,-689.485948
907.223908,-9474.636058,-444.123565,-459.657299
907.224229,-9696.697840,-1406.391290,-1302.362347
907.224550,-10140.821405,-888.247130,1455.581446
907.224870,-10362.883188,-1628.453072,1685.410096
907.225191,-9844.739029,-222.061783,1838.629195
907.225512,-9918.759623,370.102971,2451.505594
907.225832,-9178.553681,814.226536,2374.896044
907.226153,-8956.491898,-148.041188,2068.457845
907.226474,-8808.450710,-666.185348,1608.800546
907.226795,-8734.430116,-296.082377,2298.286494
907.227115,-9252.574275,-592.164754,2451.505594
907.227436,-9030.512492,-148.041188,2068.457845
907.227757,-9178.553681,-370.102971,-306.438199
907.228077,-8956.491898,370.102971,-689.485948
907.228398,-9770.718434,74.020594,0.000000
907.228719,-9770.718434,-518.144159,0.000000
907.229039,-9992.780217,-1184.329507,-383.047749
907.229360,-10436.903782,-1332.370696,229.828649
907.229681,-10436.903782,-1406.391290,-153.219100
907.230002,-10732.986159,-2220.617826,995.924147
907.230322,-9770.718434,-888.247130,919.314598
907.230643,-9696.697840,444.123565,689.485948
907.230964,-9770.718434,592.164754,1225.752797
907.231284,-9252.574275,888.247130,1685.410096
907.231605,-9474.636058,-296.082377,1762.019645
907.231926,-9474.636058,370.102971,2757.943793
907.232246,-10362.883188,-740.205942,3217.601092
907.232567,-9104.533087,-1258.350101,3217.601092
907.232888,-9474.636058,-1628.453072,0.000000
907.233209,-9326.594869,0.000000,-536.266849
907.233529,-9474.636058,666.185348,76.609550
907.233850,-9622.677246,740.205942,-842.705048
907.234171,-9770.718434,74.020594,-612.876398
907.234491,-9696.697840,-444.123565,-536.266849
907.234812,-11103.089130,-740.205942,1378.971896
907.235133,-10436.903782,-370.102971,2145.067394
907.235454,-10881.027347,-370.102971,1685.410096
907.235774,-9992.780217,296.082377,1838.629195
907.236095,-9474.636058,-296.082377,1302.362347
907.236416,-9178.553681,-1554.432478,1149.143247
907.236736,-9104.533087,-1480.411884,1608.800546
907.237057,-8734.430116,-1184.329507,995.924147
907.237378,-9326.594869,-148.041188,1762.019645
907.237698,-9400.615463,-814.226536,1991.848295
907.238019,-9030.512492,-1258.350101,1991.848295
907.238340,-8734.430116,-370.102971,76.609550
907.238661,-9474.636058,-518.144159,-306.438199
907.238981,-9104.533087,444.123565,153.219100
907.239302,-9918.759623,-370.102971,-306.438199
907.239623,-9178.553681,-296.082377,0.000000
907.239943,-9770.718434,-518.144159,383.047749
907.240264,-9918.759623,-1036.288319,1378.971896
907.240585,-10288.862594,-2146.597232,536.266849
907.240905,-9918.759623,-888.247130,-536.266849
907.241226,-9474.636058,0.000000,306.438199
907.241547,-9030.512492,518.144159,1532.190996
907.241868,-9474.636058,0.000000,1915.238745
907.242188,-9548.656652,222.061783,919.314598
907.242509,-9400.615463,0.000000,2298.286494
907.242830,-9770.718434,-296.082377,2604.724693
907.243150,-10288.862594,-518.144159,2757.943793
907.243471,-9770.718434,-370.102971,995.924147
907.243792,-9178.553681,222.061783,153.219100
907.244112,-9178.553681,0.000000,-306.438199
907.244433,-9030.512492,-222.061783,0.000000
907.244754,-9622.677246,-592.164754,0.000000
907.245075,-9992.780217,-370.102971,459.657299
907.245395,-9992.780217,222.061783,1455.581446
907.245716,-10658.965565,-148.041188,1685.410096
907.246037,-10510.924376,-148.041188,1608.800546
907.246357,-9474.636058,74.020594,1378.971896
907.246678,-9696.697840,-370.102971,1762.019645
907.246999,-8956.491898,0.000000,1225.752797
907.247320,-9252.574275,-888.247130,1762.019645
907.247640,-9548.656652,-444.123565,2145.067394
907.247961,-10140.821405,0.000000,3217.601092
907.248282,-10362.883188,-518.144159,2451.505594
907.248602,-9622.677246,296.082377,995.924147
907.248923,-9622.677246,1628.453072,76.609550
907.249244,-10066.800811,1480.411884,995.924147
907.249564,-9548.656652,666.185348,1302.362347
907.249885,-9844.739029,-1628.453072,-153.219100
907.250206,-8734.430116,-962.267725,-842.705048
907.250527,-9474.636058,0.000000,-842.705048
907.250847,-9844.739029,-666.185348,995.924147
907.251168,-8512.368333,-222.061783,536.266849
907.251489,-9326.594869,148.041188,919.314598
907.251809,-9474.636058,148.041188,1378.971896
907.252130,-9622.677246,-592.164754,2451.505594
907.252451,-11177.109724,-1554.432478,3524.039291
907.252771,-9400.615463,-962.267725,3064.381992
907.253092,-10066.800811,-592.164754,3294.210641
907.253413,-9622.677246,-592.164754,4060.306139
907.253734,-8956.491898,-1406.391290,842.705048
907.254054,-8808.450710,0.000000,-229.828649
907.254375,-8364.327145,0.000000,-383.047749
907.254696,-7550.100608,-740.205942,-1532.190996
907.255016,-9474.636058,-1036.288319,-536.266849
907.255337,-9844.739029,-1110.308913,-459.657299
907.255658,-9622.677246,0.000000,1149.143247
907.255979,-11325.150913,-1258.350101,2451.505594
907.256299,-10436.903782,-1184.329507,1915.238745
907.256620,-10436.903782,-1406.391290,919.314598
907.256941,-9918.759623,-962.267725,383.047749
907.257261,-8956.491898,444.123565,919.314598
907.257582,-8808.450710,-222.061783,76.609550
907.257903,-9030.512492,444.123565,459.657299
907.258223,-9474.636058,148.041188,1072.533697
907.258544,-9474.636058,-518.144159,1608.800546
907.258865,-9918.759623,-1628.453072,1149.143247
907.259186,-9918.759623,-592.164754,459.657299
907.259506,-10362.883188,148.041188,-229.828649
907.259827,-9918.759623,1110.308913,459.657299
907.260148,-10066.800811,740.205942,76.609550
907.260468,-9918.759623,74.020594,-229.828649
907.260789,-10214.842000,-518.144159,0.000000
907.261110,-9622.677246,-1332.370696,459.657299
907.261430,-10214.842000,-1628.453072,612.876398
907.261751,-9918.759623,-370.102971,229.828649
907.262072,-10066.800811,740.205942,919.314598
907.262393,-9844.739029,888.247130,1608.800546
907.262713,-9400.615463,-518.144159,1838.629195
907.263034,-9474.636058,-888.247130,689.485948
907.263355,-9030.512492,-1258.350101,1149.143247
907.263675,-9474.636058,-1406.391290,2451.505594
907.263996,-9252.574275,-1702.473667,1838.629195
907.264317,-9252.574275,-1480.411884,842.705048
907.264638,-8808.450710,0.000000,0.000000
907.264958,-9104.533087,518.144159,-306.438199
907.265279,-8586.388927,1036.288319,612.876398
907.265600,-9548.656652,-1258.350101,0.000000
907.265920,-8734.430116,-444.123565,229.828649
907.266241,-10436.903782,-1258.350101,2374.896044
907.266562,-10066.800811,-2368.659014,2757.943793
907.266882,-10288.862594,-1184.329507,2911.162892
907.267203,-10436.903782,-1110.308913,2604.724693
907.267524,-9326.594869,592.164754,2451.505594
907.267845,-9844.739029,592.164754,2451.505594
907.268165,-8956.491898,-370.102971,1762.019645
907.268486,-8660.409521,0.000000,842.705048
907.268807,-9696.697840,-296.082377,919.314598
907.269127,-8956.491898,0.000000,1072.533697
907.269448,-9548.656652,-962.267725,0.000000
907.269769,-9252.574275,74.020594,-459.657299
907.270089,-9474.636058,1184.329507,842.705048
907.270410,-10584.944971,740.205942,1455.581446
907.270731,-9844.739029,0.000000,1149.143247
907.271052,-10658.965565,-296.082377,995.924147
907.271372,-9918.759623,-222.061783,383.047749
907.271693,-10658.965565,74.020594,2604.724693
907.272014,-10436.903782,148.041188,2451.505594
907.272334,-9622.677246,222.061783,1149.143247
907.272655,-9400.615463,1184.329507,536.266849
907.272976,-9030.512492,666.185348,459.657299
907.273297,-9178.553681,-444.123565,612.876398
907.273617,-9326.594869,-592.164754,919.314598
907.273938,-9548.656652,-296.082377,1378.971896
907.274259,-9252.574275,-74.020594,2451.505594
907.274579,-10140.821405,-370.102971,2681.334243
907.274900,-10510.924376,0.000000,2068.457845
907.275221,-10362.883188,370.102971,1455.581446
907.275541,-9030.512492,-148.041188,689.485948
907.275862,-9252.574275,148.041188,459.657299
907.276183,-9178.553681,74.020594,459.657299
907.276504,-9252.574275,0.000000,306.438199
907.276824,-8882.471304,518.144159,919.314598
907.277145,-9104.533087,-444.123565,536.266849
907.277466,-9474.636058,-592.164754,76.609550
907.277786,-9104.533087,148.041188,612.876398
907.278107,-9622.677246,-222.061783,1225.752797
907.278427,-8512.368333,-518.144159,1608.800546
907.278748,-9252.574275,-1184.329507,1072.533697
907.279069,-9622.677246,-814.226536,1608.800546
907.279389,-9474.636058,-740.205942,2451.505594
907.279710,-9844.739029,-1998.556043,1302.362347
907.280031,-9474.636058,-1184.329507,0.000000
907.280352,-9030.512492,0.000000,-919.314598
907.280672,-9474.636058,296.082377,0.000000
907.280993,-9622.677246,-370.102971,919.314598
907.281314,-10214.842000,-1554.432478,459.657299
907.281635,-9474.636058,-1406.391290,383.047749
907.281955,-10140.821405,-2368.659014,1685.410096
907.282276,-9474.636058,-1776.494261,1991.848295
907.282597,-10066.800811,-1406.391290,2834.553343
907.282918,-9770.718434,0.000000,1302.362347
907.283238,-9400.615463,1480.411884,1302.362347
907.283559,-9770.718434,592.164754,1608.800546
907.283880,-9400.615463,148.041188,-766.095498
907.284201,-9844.739029,-148.041188,842.705048
907.284521,-9474.636058,-296.082377,1302.362347
907.284842,-9548.656652,-962.267725,1455.581446
907.285163,-10510.924376,-1776.494261,459.657299
907.285484,-9548.656652,-962.267725,153.219100
907.285804,-9400.615463,-518.144159,0.000000
907.286125,-9770.718434,0.000000,459.657299
907.286446,-9622.677246,-518.144159,689.485948
907.286767,-9844.739029,-1036.288319,536.266849
907.287087,-9992.780217,-518.144159,1302.362347
907.287408,-9696.697840,-666.185348,2145.067394
907.287729,-10066.800811,-1036.288319,1838.629195
907.288050,-9548.656652,0.000000,1838.629195
907.288370,-9770.718434,222.061783,1455.581446
907.288691,-9326.594869,-444.123565,1302.362347
907.289012,-9178.553681,-1332.370696,689.485948
907.289333,-9178.553681,-962.267725,459.657299
907.289653,-9104.533087,-888.247130,1532.190996
907.289974,-9474.636058,-1258.350101,1991.848295
907.290295,-9474.636058,-2220.617826,1072.533697
907.290616,-9326.594869,-1406.391290,-229.828649
907.290936,-10066.800811,222.061783,-612.876398
907.291257,-9252.574275,518.144159,383.047749
907.291578,-9622.677246,-148.041188,766.095498
907.291898,-9696.697840,-740.205942,229.828649
907.292219,-9770.718434,0.000000,0.000000
907.292540,-10140.821405,-592.164754,2298.286494
907.292861,-10362.883188,-1036.288319,2068.457845
907.293181,-9770.718434,-222.061783,1991.848295
907.293502,-9326.594869,666.185348,1225.752797
907.293823,-8734.430116,1184.329507,1302.362347
907.294144,-9030.512492,222.061783,995.924147
907.294464,-8660.409521,296.082377,919.314598
907.294785,-9252.574275,296.082377,1072.533697
907.295106,-9548.656652,-444.123565,2221.676944
907.295427,-9548.656652,-814.226536,1532.190996
907.295747,-10140.821405,-1332.370696,0.000000
907.296068,-9548.656652,518.144159,-459.657299
907.296389,-10066.800811,666.185348,919.314598
907.296710,-9844.739029,740.205942,1225.752797
907.297030,-9918.759623,0.000000,306.438199
907.297351,-9918.759623,0.000000,689.485948
907.297672,-9918.759623,-222.061783,1455.581446
907.297993,-10214.842000,0.000000,2451.505594
907.298313,-10362.883188,0.000000,1991.848295
907.298634,-9696.697840,814.226536,1302.362347
907.298955,-9326.594869,444.123565,1072.533697
907.299276,-8512.368333,-444.123565,1378.971896
907.299596,-9474.636058,-296.082377,995.924147
907.299917,-9622.677246,444.123565,2451.505594
907.300238,-10214.842000,370.102971,2604.724693
907.300559,-9992.780217,814.226536,2834.553343
907.300879,-10140.821405,-1184.329507,1149.143247
907.301200,-9474.636058,-296.082377,76.609550
907.301521,-9548.656652,222.061783,0.000000
907.301842,-9178.553681,0.000000,306.438199
907.302162,-9178.553681,222.061783,1378.971896
907.302483,-9326.594869,-1036.288319,383.047749
907.302804,-9918.759623,-740.205942,1378.971896
907.303125,-9844.739029,-592.164754,2374.896044
907.303445,-10140.821405,-1110.308913,2145.067394
907.303766,-9622.677246,-370.102971,1838.629195
907.304087,-9622.677246,-148.041188,1455.581446
907.304407,-9400.615463,0.000000,2068.457845
907.304728,-9474.636058,-888.247130,1608.800546
907.305049,-8586.388927,-740.205942,1149.143247
907.305370,-9474.636058,222.061783,1302.362347
907.305690,-9178.553681,148.041188,2068.457845
907.306011,-9474.636058,-1036.288319,766.095498
907.306332,-9622.677246,-1554.432478,-306.438199
907.306653,-9474.636058,-1110.308913,-1302.362347
907.306973,-9326.594869,-1628.453072,-842.705048
907.307294,-9770.718434,-1406.391290,-153.219100
907.307615,-10214.842000,-962.267725,536.266849
907.307936,-11177.109724,-444.123565,1378.971896
907.308256,-10732.986159,-222.061783,1838.629195
907.308577,-10362.883188,-592.164754,2145.067394
907.308898,-10510.924376,-296.082377,766.095498
907.309219,-8956.491898,0.000000,-306.438199
907.309539,-7698.141797,74.020594,-1302.362347
907.309860,-7624.121203,-518.144159,-1532.190996
907.310181,-7476.080014,-148.041188,0.000000
907.310502,-10066.800811,0.000000,2604.724693
907.310822,-10362.883188,-740.205942,3677.258390
907.311143,-11473.192101,-2146.597232,3600.648841
907.311464,-11399.171507,-2220.617826,1455.581446
907.311785,-10955.047942,0.000000,1532.190996
907.312105,-9992.780217,296.082377,919.314598
907.312426,-9474.636058,1332.370696,689.485948
907.312747,-9030.512492,444.123565,-383.047749
907.313068,-8734.430116,0.000000,-689.485948
907.313388,-8512.368333,0.000000,1225.752797
907.313709,-10140.821405,-740.205942,2145.067394
907.314030,-10510.924376,-888.247130,3140.991542
907.314351,-9844.739029,0.000000,2834.553343
907.314671,-9770.718434,-222.061783,4443.353888
907.314992,-9178.553681,-740.205942,2911.162892
907.315313,-9400.615463,-1036.288319,1991.848295
907.315633,-9400.615463,0.000000,2068.457845
907.315954,-9030.512492,0.000000,2068.457845
907.316275,-8068.244768,0.000000,1838.629195
907.316596,-8734.430116,-1036.288319,-306.438199
907.316916,-8882.471304,74.020594,-1225.752797
907.317237,-8882.471304,666.185348,-306.438199
907.317558,-9770.718434,-444.123565,-689.485948
907.317879,-8956.491898,-666.185348,76.609550
907.318199,-9548.656652,-1110.308913,689.485948
907.318520,-10732.986159,-1480.411884,1838.629195
907.318841,-10214.842000,-370.102971,2987.772442
907.319162,-10362.883188,-1258.350101,2374.896044
907.319482,-7994.224174,1480.411884,1225.752797
907.319803,-9918.759623,148.041188,1072.533697
907.320124,-9178.553681,296.082377,1762.019645
907.320445,-8734.430116,-370.102971,1608.800546
907.320765,-9030.512492,-1184.329507,766.095498
907.321086,-9178.553681,0.000000,1225.752797
907.321407,-10288.862594,74.020594,2374.896044
907.321728,-10362.883188,1258.350101,229.828649
907.322048,-10066.800811,296.082377,0.000000
907.322369,-9622.677246,666.185348,-689.485948
907.322690,-9400.615463,518.144159,-689.485948
907.323011,-9770.718434,0.000000,-1149.143247
907.323331,-9178.553681,0.000000,-612.876398
907.323652,-9548.656652,-370.102971,-995.924147
907.323973,-9844.739029,0.000000,995.924147
907.324294,-10584.944971,-1110.308913,1762.019645
907.324614,-10214.842000,-222.061783,1762.019645
907.324935,-10584.944971,444.123565,1991.848295
907.325256,-10807.006753,0.000000,2911.162892
907.325577,-9918.759623,222.061783,2451.505594
907.325897,-10066.800811,444.123565,3524.039291
907.326218,-9992.780217,222.061783,2451.505594
907.326539,-9474.636058,-148.041188,2145.067394
907.326860,-8956.491898,-1480.411884,919.314598
907.327180,-8068.244768,-1480.411884,-1532.190996
907.327501,-8586.388927,518.144159,-1532.190996
907.327822,-9400.615463,962.267725,-306.438199
907.328142,-8956.491898,444.123565,383.047749
907.328463,-9844.739029,-888.247130,459.657299
907.328784,-10288.862594,-1110.308913,1455.581446
907.329105,-10658.965565,-1406.391290,2911.162892
907.329425,-10732.986159,-2072.576638,3140.991542
