#time,accel_x,accel_y,accel_z
864.044696,-9770.718434,-1554.432478,-1225.752797
864.045017,-9696.697840,-1628.453072,-612.876398
864.045337,-9400.615463,-296.082377,-229.828649
864.045658,-9770.718434,-1036.288319,459.657299
864.045979,-9622.677246,-814.226536,1532.190996
864.046300,-9474.636058,-1554.432478,689.485948
864.046621,-9696.697840,-1258.350101,459.657299
864.046942,-9326.594869,-740.205942,689.485948
864.047262,-9622.677246,-814.226536,1072.533697
864.047583,-9474.636058,-888.247130,1455.581446
864.047904,-9400.615463,-1332.370696,-306.438199
864.048225,-9844.739029,-444.123565,383.047749
864.048546,-9400.615463,-148.041188,459.657299
864.048866,-9770.718434,0.000000,536.266849
864.049187,-9770.718434,-296.082377,689.485948
864.049508,-9548.656652,-666.185348,-612.876398
864.049829,-9326.594869,-666.185348,-689.485948
864.050150,-9548.656652,0.000000,0.000000
864.050470,-9548.656652,-370.102971,76.609550
864.050791,-9844.739029,-814.226536,0.000000
864.051112,-9770.718434,-1332.370696,0.000000
864.051433,-9104.533087,-1628.453072,-689.485948
864.051754,-9474.636058,-1924.535449,-1149.143247
864.052074,-9622.677246,-1702.473667,-1072.533697
864.052395,-9400.615463,-1554.432478,-1225.752797
864.052716,-9326.594869,-1184.329507,-1991.848295
864.053037,-9474.636058,-1184.329507,-2681.334243
864.053358,-9400.615463,-814.226536,-2604.724693
864.053678,-9696.697840,-1110.308913,-2834.553343
864.053999,-9622.677246,-1480.411884,-3217.601092
864.054320,-9474.636058,-2220.617826,-3677.258390
864.054641,-9326.594869,-2960.823768,-3753.867940
864.054962,-9548.656652,-3404.947333,-3983.696590
864.055282,-9918.759623,-3627.009116,-3370.820191
864.055603,-10140.821405,-3627.009116,-3140.991542
864.055924,-9696.697840,-3627.009116,-3447.429741
864.056245,-9474.636058,-4219.173869,-3370.820191
864.056566,-9474.636058,-4367.215058,-2987.772442
864.056886,-9474.636058,-4663.297435,-2681.334243
864.057207,-8586.388927,-4885.359217,-2451.505594
864.057528,-9178.553681,-4737.318029,-2451.505594
864.057849,-9030.512492,-4589.276840,-2374.896044
864.058170,-9104.533087,-4441.235652,-1838.629195
864.058490,-9252.574275,-4293.194464,-1762.019645
864.058811,-9178.553681,-4145.153275,-1608.800546
864.059132,-9104.533087,-4293.194464,-2374.896044
864.059453,-9252.574275,-4663.297435,-2757.943793
864.059774,-9326.594869,-4663.297435,-2604.724693
864.060095,-9400.615463,-4515.256246,-2451.505594
864.060415,-9252.574275,-4737.318029,-2221.676944
864.060736,-9622.677246,-4737.318029,-1762.019645
864.061057,-9696.697840,-5033.400406,-1532.190996
864.061378,-10066.800811,-5107.421000,-1072.533697
864.061699,-10140.821405,-4885.359217,-919.314598
864.062019,-9770.718434,-4663.297435,-612.876398
864.062340,-9696.697840,-4737.318029,-536.266849
864.062661,-9696.697840,-4811.338623,-1225.752797
864.062982,-9696.697840,-4811.338623,0.000000
864.063303,-9622.677246,-4515.256246,383.047749
864.063623,-9696.697840,-3552.988522,919.314598
864.063944,-10140.821405,-3108.864956,1991.848295
864.064265,-10584.944971,-3034.844362,2681.334243
864.064586,-9992.780217,-3182.885551,1685.410096
864.064907,-9770.718434,-3330.926739,766.095498
864.065227,-9474.636058,-3627.009116,-153.219100
864.065548,-9992.780217,-4219.173869,-2221.676944
864.065869,-9252.574275,-3552.988522,-1532.190996
864.066190,-9400.615463,-4071.132681,-1762.019645
864.066511,-9326.594869,-3478.967927,-1838.629195
864.066831,-9918.759623,-3701.029710,-1991.848295
864.067152,-10140.821405,-2516.700203,-1762.019645
864.067473,-10510.924376,-1924.535449,-1072.533697
864.067794,-10362.883188,-1480.411884,306.438199
864.068115,-9918.759623,-1184.329507,1149.143247
864.068435,-10066.800811,-1406.391290,1455.581446
864.068756,-9844.739029,-962.267725,2221.676944
864.069077,-9844.739029,-222.061783,1685.410096
864.069397,-9400.615463,296.082377,995.924147
864.069718,-7920.203579,1924.535449,-766.095498
864.070039,-8364.327145,1628.453072,-1302.362347
864.070359,-8290.306550,1110.308913,-1915.238745
864.070680,-8586.388927,148.041188,-2528.115143
864.071001,-9326.594869,-1332.370696,-1072.533697
864.071321,-9178.553681,-1480.411884,-3064.381992
864.071642,-10732.986159,-1924.535449,-2451.505594
864.071963,-10288.862594,-74.020594,-1072.533697
864.072283,-11103.089130,148.041188,153.219100
864.072604,-11029.068536,592.164754,1532.190996
864.072925,-10510.924376,0.000000,306.438199
864.073245,-9696.697840,0.000000,-919.314598
864.073566,-9178.553681,0.000000,-1378.971896
864.073887,-8290.306550,1332.370696,-536.266849
864.074207,-8512.368333,962.267725,-1455.581446
864.074528,-7105.977043,444.123565,-1915.238745
864.074849,-8216.285956,592.164754,-2374.896044
864.075169,-9548.656652,296.082377,-1378.971896
864.075490,-10066.800811,222.061783,-229.828649
864.075811,-10584.944971,518.144159,1149.143247
864.076132,-11547.212695,888.247130,2298.286494
864.076452,-10807.006753,1702.473667,3294.210641
864.076773,-11325.150913,888.247130,3677.258390
864.077094,-10510.924376,592.164754,3064.381992
864.077414,-9992.780217,666.185348,2145.067394
864.077735,-9178.553681,1184.329507,2145.067394
864.078056,-8808.450710,2590.720797,1302.362347
864.078376,-8882.471304,1628.453072,1838.629195
864.078697,-8438.347739,888.247130,1455.581446
864.079018,-8438.347739,-814.226536,995.924147
864.079338,-8512.368333,-1332.370696,1225.752797
864.079659,-9918.759623,-1998.556043,2681.334243
864.079980,-10362.883188,-1480.411884,4290.134789
864.080300,-11547.212695,-1776.494261,4443.353888
864.080621,-11177.109724,-2072.576638,3983.696590
864.080942,-10436.903782,-2368.659014,2528.115143
864.081262,-10066.800811,-2294.638420,1225.752797
864.081583,-9844.739029,-2294.638420,766.095498
864.081904,-8586.388927,-2146.597232,-536.266849
864.082224,-8142.265362,-1702.473667,-1762.019645
864.082545,-7920.203579,-1776.494261,-2604.724693
864.082866,-8068.244768,-1036.288319,-1225.752797
864.083186,-9030.512492,-888.247130,229.828649
864.083507,-9622.677246,-814.226536,1762.019645
864.083828,-9474.636058,-1924.535449,1838.629195
864.084148,-9474.636058,-2220.617826,2068.457845
864.084469,-9252.574275,-2886.803174,1915.238745
864.084790,-9474.636058,-2146.597232,1685.410096
864.085111,-10362.883188,-962.267725,1685.410096
864.085431,-9178.553681,-814.226536,612.876398
864.085752,-8956.491898,-296.082377,-612.876398
864.086073,-9474.636058,-222.061783,-766.095498
864.086393,-9770.718434,370.102971,2145.067394
864.086714,-9548.656652,592.164754,689.485948
864.087035,-10807.006753,296.082377,1762.019645
864.087355,-10362.883188,0.000000,2221.676944
864.087676,-10436.903782,-888.247130,1762.019645
864.087997,-10510.924376,-592.164754,1072.533697
864.088317,-9696.697840,-740.205942,995.924147
864.088638,-9696.697840,0.000000,995.924147
864.088959,-9474.636058,-222.061783,612.876398
864.089279,-8956.491898,-1332.370696,-459.657299
864.089600,-9104.533087,-740.205942,-919.314598
864.089921,-9474.636058,-1110.308913,-766.095498
864.090241,-9326.594869,-148.041188,76.609550
864.090562,-9548.656652,-370.102971,2528.115143
864.090883,-10436.903782,962.267725,1608.800546
864.091203,-10436.903782,222.061783,1608.800546
864.091524,-10584.944971,370.102971,1608.800546
864.091845,-10510.924376,0.000000,1915.238745
864.092165,-9548.656652,148.041188,2528.115143
864.092486,-9548.656652,-148.041188,2298.286494
864.092807,-8956.491898,-222.061783,1072.533697
864.093128,-8808.450710,-370.102971,76.609550
864.093448,-8882.471304,148.041188,612.876398
864.093769,-8882.471304,370.102971,1685.410096
864.094090,-9326.594869,740.205942,2987.772442
864.094410,-10066.800811,592.164754,3294.210641
864.094731,-9474.636058,1332.370696,2374.896044
864.095052,-10288.862594,962.267725,2604.724693
864.095372,-9622.677246,1332.370696,1685.410096
864.095693,-9548.656652,888.247130,1532.190996
864.096014,-8882.471304,370.102971,383.047749
864.096334,-8882.471304,-148.041188,-612.876398
864.096655,-9252.574275,148.041188,-459.657299
864.096976,-9474.636058,518.144159,153.219100
864.097296,-9252.574275,1628.453072,1225.752797
864.097617,-9622.677246,1258.350101,3064.381992
864.097938,-10214.842000,740.205942,2757.943793
864.098258,-10214.842000,-444.123565,2374.896044
864.098579,-9918.759623,-592.164754,1991.848295
864.098900,-9474.636058,-444.123565,2681.334243
864.099220,-9474.636058,-740.205942,1225.752797
864.099541,-9474.636058,0.000000,995.924147
864.099862,-9252.574275,0.000000,-536.266849
864.100182,-8808.450710,518.144159,-919.314598
864.100503,-9326.594869,592.164754,-536.266849
864.100824,-10288.862594,74.020594,612.876398
864.101144,-9918.759623,0.000000,1532.190996
864.101465,-10436.903782,-814.226536,2145.067394
864.101786,-9918.759623,-2294.638420,2145.067394
864.102107,-10066.800811,-1998.556043,1455.581446
864.102427,-10214.842000,-1184.329507,1532.190996
864.102748,-9770.718434,0.000000,1302.362347
864.103069,-8660.409521,-370.102971,383.047749
864.103389,-9104.533087,-370.102971,-536.266849
864.103710,-8956.491898,-1184.329507,-1838.629195
864.104031,-9030.512492,-1332.370696,-1455.581446
864.104351,-9548.656652,-740.205942,0.000000
864.104672,-9696.697840,-518.144159,2145.067394
864.104993,-10362.883188,-518.144159,2911.162892
864.105313,-11029.068536,-666.185348,2834.553343
864.105634,-10510.924376,-1110.308913,2451.505594
864.105955,-10140.821405,-1184.329507,2451.505594
864.106275,-9844.739029,-814.226536,1762.019645
864.106596,-9252.574275,-1110.308913,1225.752797
864.106917,-8660.409521,-1406.391290,0.000000
864.107237,-7994.224174,-1258.350101,-1072.533697
864.107558,-7994.224174,-962.267725,-612.876398
864.107879,-8364.327145,-1036.288319,689.485948
864.108199,-9622.677246,-888.247130,2374.896044
864.108520,-9770.718434,-740.205942,3370.820191
864.108841,-10288.862594,-1628.453072,2834.553343
864.109161,-10362.883188,-1776.494261,2604.724693
864.109482,-10140.821405,-1998.556043,2298.286494
864.109803,-9770.718434,-1110.308913,1991.848295
864.110124,-10066.800811,-296.082377,1225.752797
864.110444,-8438.347739,-888.247130,-383.047749
864.110765,-8660.409521,-888.247130,-1608.800546
864.111086,-8734.430116,0.000000,-1302.362347
864.111406,-9178.553681,666.185348,-383.047749
864.111727,-9992.780217,1036.288319,1302.362347
864.112048,-9844.739029,370.102971,2145.067394
864.112368,-9918.759623,-666.185348,2145.067394
864.112689,-10584.944971,-1258.350101,2145.067394
864.113010,-10807.006753,-666.185348,2298.286494
864.113330,-10214.842000,-296.082377,2145.067394
864.113651,-9696.697840,0.000000,1532.190996
864.113972,-9030.512492,-518.144159,-76.609550
864.114292,-8808.450710,-518.144159,-1455.581446
864.114613,-9030.512492,-222.061783,-842.705048
864.114934,-9252.574275,0.000000,153.219100
864.115254,-9770.718434,148.041188,995.924147
864.115575,-9918.759623,296.082377,1072.533697
864.115896,-10510.924376,0.000000,1991.848295
864.116216,-10732.986159,148.041188,1991.848295
864.116537,-10881.027347,888.247130,2298.286494
864.116858,-10732.986159,1036.288319,1915.238745
864.117178,-10510.924376,1406.391290,1072.533697
864.117499,-9696.697840,222.061783,536.266849
864.117820,-8660.409521,-444.123565,-1608.800546
864.118140,-8438.347739,-370.102971,-1532.190996
864.118461,-8216.285956,-370.102971,0.000000
864.118782,-8734.430116,296.082377,306.438199
864.119103,-9548.656652,370.102971,1225.752797
864.119423,-9474.636058,-222.061783,2068.457845
864.119744,-9844.739029,-1480.411884,536.266849
864.120065,-10658.965565,-814.226536,2528.115143
864.120385,-10214.842000,-592.164754,2834.553343
864.120706,-9844.739029,-962.267725,2298.286494
864.121027,-9474.636058,-1036.288319,1072.533697
864.121347,-8808.450710,-962.267725,-229.828649
864.121668,-8438.347739,-666.185348,-1149.143247
864.121989,-8290.306550,518.144159,0.000000
864.122309,-8956.491898,222.061783,1072.533697
864.122630,-9844.739029,666.185348,1838.629195
864.122951,-9992.780217,-370.102971,2068.457845
864.123271,-9918.759623,-518.144159,1838.629195
864.123592,-10658.965565,-740.205942,2298.286494
864.123913,-9474.636058,-518.144159,2451.505594
864.124233,-9992.780217,-740.205942,2145.067394
864.124554,-9030.512492,-1184.329507,306.438199
864.124875,-9252.574275,-1184.329507,-766.095498
864.125195,-8882.471304,0.000000,-1072.533697
864.125516,-9474.636058,666.185348,536.266849
864.125837,-9474.636058,888.247130,1532.190996
864.126157,-9548.656652,592.164754,1838.629195
864.126478,-10140.821405,-1036.288319,1608.800546
864.126799,-9770.718434,-888.247130,3830.477490
864.127120,-11547.212695,-2664.741391,1915.238745
864.127440,-8512.368333,148.041188,2604.724693
864.127761,-10955.047942,-518.144159,1455.581446
864.128082,-8660.409521,814.226536,459.657299
864.128402,-8438.347739,-592.164754,-766.095498
864.128723,-9474.636058,444.123565,76.609550
864.129044,-8438.347739,518.144159,-383.047749
864.129364,-10066.800811,518.144159,1685.410096
864.129685,-9992.780217,222.061783,2451.505594
864.130006,-9548.656652,-1480.411884,2068.457845
864.130326,-10436.903782,-962.267725,2221.676944
864.130647,-9918.759623,-592.164754,2374.896044
864.130968,-10807.006753,-518.144159,1762.019645
864.131288,-9622.677246,518.144159,1302.362347
864.131609,-9622.677246,-592.164754,-459.657299
864.131930,-8882.471304,-222.061783,-1378.971896
864.132250,-8586.388927,-962.267725,-995.924147
864.132571,-9030.512492,0.000000,-1072.533697
864.132892,-8438.347739,296.082377,689.485948
864.133212,-9696.697840,-740.205942,1532.190996
864.133533,-10510.924376,-814.226536,2604.724693
864.133854,-9474.636058,-1998.556043,1149.143247
864.134174,-10658.965565,-1110.308913,1915.238745
864.134495,-10436.903782,-370.102971,2451.505594
864.134816,-9400.615463,-518.144159,1149.143247
864.135136,-9548.656652,-740.205942,1378.971896
864.135457,-8216.285956,-592.164754,-919.314598
864.135778,-8290.306550,-444.123565,-1302.362347
864.136099,-9400.615463,222.061783,0.000000
864.136419,-9030.512492,814.226536,536.266849
864.136740,-9992.780217,518.144159,2528.115143
864.137061,-10510.924376,-592.164754,2681.334243
864.137381,-10436.903782,-1184.329507,2298.286494
864.137702,-10881.027347,-1110.308913,2374.896044
864.138023,-10658.965565,-592.164754,2451.505594
864.138343,-9844.739029,-370.102971,1991.848295
864.138664,-9400.615463,-888.247130,229.828649
864.138985,-8956.491898,-1036.288319,-919.314598
864.139305,-9622.677246,0.000000,-2145.067394
864.139626,-9252.574275,0.000000,-612.876398
864.139947,-9474.636058,592.164754,1072.533697
864.140267,-10066.800811,74.020594,1838.629195
864.140588,-10288.862594,-1628.453072,2604.724693
864.140909,-10214.842000,-1258.350101,2298.286494
864.141229,-10436.903782,-1110.308913,1991.848295
864.141550,-10214.842000,-444.123565,2221.676944
864.141871,-9918.759623,296.082377,1991.848295
864.142191,-9548.656652,370.102971,689.485948
864.142512,-8956.491898,148.041188,-229.828649
864.142833,-8808.450710,518.144159,-306.438199
864.143153,-9400.615463,592.164754,919.314598
864.143474,-10140.821405,962.267725,3830.477490
864.143795,-10584.944971,592.164754,3447.429741
864.144116,-10807.006753,74.020594,2987.772442
864.144436,-10881.027347,0.000000,2757.943793
864.144757,-10732.986159,370.102971,2451.505594
864.145078,-10288.862594,1036.288319,2298.286494
864.145398,-9548.656652,814.226536,1225.752797
864.145719,-8808.450710,-148.041188,-153.219100
864.146040,-8660.409521,-962.267725,-1455.581446
864.146360,-8438.347739,-444.123565,-1608.800546
864.146681,-8586.388927,-518.144159,-766.095498
864.147002,-8882.471304,740.205942,689.485948
864.147322,-9474.636058,370.102971,1915.238745
864.147643,-9696.697840,-444.123565,1762.019645
864.147964,-10214.842000,-370.102971,2298.286494
864.148284,-9770.718434,-1332.370696,1762.019645
864.148605,-9548.656652,-1258.350101,1991.848295
864.148926,-9252.574275,-1184.329507,1762.019645
864.149246,-8808.450710,-666.185348,2604.724693
864.149567,-8586.388927,-370.102971,-612.876398
864.149888,-7846.182985,-222.061783,-1225.752797
864.150208,-8068.244768,222.061783,-842.705048
864.150529,-9178.553681,740.205942,842.705048
864.150850,-9770.718434,0.000000,1608.800546
864.151170,-9844.739029,-1036.288319,1532.190996
864.151491,-10288.862594,-1036.288319,2145.067394
864.151812,-10658.965565,-1184.329507,1762.019645
864.152132,-10510.924376,-592.164754,1762.019645
864.152453,-9844.739029,0.000000,1762.019645
864.152774,-9252.574275,0.000000,306.438199
864.153095,-9326.594869,-296.082377,-612.876398
864.153415,-9400.615463,-222.061783,0.000000
864.153736,-9622.677246,0.000000,-306.438199
864.154057,-9622.677246,296.082377,995.924147
864.154377,-9992.780217,0.000000,2298.286494
864.154698,-10362.883188,-888.247130,2681.334243
864.155019,-10584.944971,-1480.411884,2528.115143
864.155339,-11103.089130,-1406.391290,2528.115143
864.155660,-10362.883188,-518.144159,2987.772442
864.155981,-10362.883188,-592.164754,2604.724693
864.156301,-9326.594869,-814.226536,1455.581446
864.156622,-9104.533087,-1036.288319,-459.657299
864.156943,-8586.388927,-444.123565,-995.924147
864.157263,-8660.409521,0.000000,0.000000
864.157584,-8956.491898,74.020594,76.609550
864.157905,-10066.800811,0.000000,2451.505594
864.158225,-10288.862594,-1332.370696,2528.115143
864.158546,-10214.842000,-1702.473667,2528.115143
864.158867,-10066.800811,-1924.535449,2145.067394
864.159187,-9770.718434,-1702.473667,2068.457845
864.159508,-9252.574275,-1036.288319,1685.410096
864.159829,-8956.491898,-1110.308913,306.438199
864.160149,-8290.306550,-1110.308913,-766.095498
864.160470,-7920.203579,-1184.329507,-612.876398
864.160791,-8734.430116,0.000000,-766.095498
864.161112,-8808.450710,444.123565,76.609550
864.161432,-9622.677246,740.205942,1302.362347
864.161753,-9474.636058,592.164754,2757.943793
864.162074,-9992.780217,-962.267725,1149.143247
864.162394,-10288.862594,-1258.350101,1378.971896
864.162715,-10066.800811,-740.205942,1378.971896
864.163036,-9696.697840,0.000000,1302.362347
864.163356,-9622.677246,296.082377,919.314598
864.163677,-8808.450710,0.000000,-612.876398
864.163998,-8586.388927,222.061783,-1378.971896
864.164318,-8808.450710,814.226536,-689.485948
864.164639,-8808.450710,888.247130,1149.143247
864.164960,-9918.759623,518.144159,2298.286494
864.165280,-10140.821405,-444.123565,1915.238745
864.165601,-10436.903782,-814.226536,1762.019645
864.165922,-10807.006753,0.000000,2145.067394
864.166242,-10732.986159,296.082377,2374.896044
864.166563,-10288.862594,592.164754,1762.019645
864.166884,-9918.759623,0.000000,766.095498
864.167204,-8956.491898,-296.082377,-536.266849
864.167525,-9104.533087,0.000000,-766.095498
864.167846,-9326.594869,-222.061783,-383.047749
864.168166,-9548.656652,814.226536,995.924147
864.168487,-9548.656652,814.226536,2068.457845
864.168808,-9548.656652,518.144159,1915.238745
864.169128,-10436.903782,-296.082377,2221.676944
864.169449,-10510.924376,-666.185348,3140.991542
864.169770,-10584.944971,-518.144159,2451.505594
864.170090,-9400.615463,-1480.411884,4290.134789
864.170411,-9252.574275,-740.205942,1225.752797
864.170731,-8882.471304,-592.164754,76.609550
864.171052,-8660.409521,-740.205942,-383.047749
864.171373,-8364.327145,-148.041188,0.000000
864.171693,-8956.491898,148.041188,1225.752797
864.172014,-9622.677246,0.000000,2298.286494
864.172335,-9844.739029,-814.226536,2681.334243
864.172655,-9844.739029,-1554.432478,2451.505594
864.172976,-9622.677246,-1036.288319,1762.019645
864.173297,-9844.739029,-1258.350101,2451.505594
864.173617,-9474.636058,-814.226536,1991.848295
864.173938,-9178.553681,-592.164754,766.095498
864.174258,-8512.368333,-740.205942,-153.219100
864.174579,-8438.347739,-1110.308913,-689.485948
864.174900,-8734.430116,-444.123565,-383.047749
864.175220,-9252.574275,-74.020594,306.438199
864.175541,-9696.697840,-148.041188,1532.190996
864.175862,-9844.739029,-740.205942,1991.848295
864.176182,-10066.800811,-1406.391290,1685.410096
864.176503,-10214.842000,-888.247130,1838.629195
864.176824,-10436.903782,-296.082377,2374.896044
864.177144,-10436.903782,0.000000,1838.629195
864.177465,-9474.636058,370.102971,1149.143247
864.177785,-9326.594869,-518.144159,-459.657299
864.178106,-8882.471304,-148.041188,-1302.362347
864.178427,-8956.491898,74.020594,-612.876398
864.178747,-9474.636058,296.082377,1149.143247
864.179068,-9622.677246,148.041188,1838.629195
864.179389,-10362.883188,-444.123565,2298.286494
864.179709,-10732.986159,-740.205942,2145.067394
864.180030,-10881.027347,-1110.308913,1072.533697
864.180351,-10362.883188,-518.144159,1685.410096
864.180671,-9918.759623,0.000000,1149.143247
864.180992,-9474.636058,-296.082377,153.219100
864.181312,-9252.574275,-148.041188,-536.266849
864.181633,-8808.450710,-814.226536,-1532.190996
864.181954,-9178.553681,-296.082377,-1072.533697
864.182274,-9548.656652,0.000000,689.485948
864.182595,-9992.780217,148.041188,1991.848295
864.182916,-9622.677246,-592.164754,1991.848295
864.183236,-10214.842000,-1110.308913,1838.629195
864.183557,-10214.842000,-592.164754,2221.676944
864.183878,-9992.780217,-148.041188,2451.505594
864.184198,-9918.759623,0.000000,2757.943793
864.184519,-8956.491898,-518.144159,995.924147
864.184839,-8734.430116,-1184.329507,-612.876398
864.185160,-8438.347739,-1258.350101,-1225.752797
864.185481,-7920.203579,-222.061783,-919.314598
864.185801,-8882.471304,296.082377,1072.533697
864.186122,-9548.656652,296.082377,2604.724693
864.186443,-9844.739029,-148.041188,2604.724693
864.186763,-10362.883188,-1110.308913,2221.676944
864.187084,-10288.862594,-1110.308913,2374.896044
864.187405,-10140.821405,-370.102971,2451.505594
864.187725,-9622.677246,-296.082377,2374.896044
864.188046,-9326.594869,-296.082377,842.705048
864.188366,-9178.553681,74.020594,0.000000
864.188687,-8808.450710,-370.102971,-1149.143247
864.189008,-8808.450710,0.000000,-306.438199
864.189328,-9548.656652,444.123565,612.876398
864.189649,-9474.636058,444.123565,383.047749
864.189970,-10436.903782,0.000000,1685.410096
864.190290,-9770.718434,-814.226536,2145.067394
864.190611,-10214.842000,-1406.391290,1762.019645
864.190932,-10214.842000,-1036.288319,1685.410096
864.191252,-10214.842000,-666.185348,1762.019645
864.191573,-9770.718434,-148.041188,995.924147
864.191893,-9252.574275,296.082377,-153.219100
864.192214,-9104.533087,0.000000,-766.095498
864.192535,-9252.574275,296.082377,-536.266849
864.192855,-9400.615463,888.247130,1149.143247
864.193176,-9770.718434,518.144159,1915.238745
864.193497,-10214.842000,-370.102971,2451.505594
864.193817,-10214.842000,-1406.391290,1685.410096
864.194138,-10436.903782,-740.205942,1685.410096
864.194459,-10140.821405,0.000000,1685.410096
864.194779,-9622.677246,740.205942,1915.238745
864.195100,-9474.636058,0.000000,1225.752797
864.195421,-9252.574275,-222.061783,-153.219100
864.195741,-9252.574275,-962.267725,-1072.533697
864.196062,-9030.512492,-296.082377,-689.485948
864.196382,-9178.553681,444.123565,306.438199
864.196703,-9474.636058,296.082377,1225.752797
864.197024,-9770.718434,0.000000,1991.848295
864.197344,-10066.800811,-370.102971,1455.581446
864.197665,-10436.903782,-1258.350101,1915.238745
864.197986,-9696.697840,-296.082377,2911.162892
864.198306,-10362.883188,-296.082377,2528.115143
864.198627,-9326.594869,-296.082377,1302.362347
864.198948,-9030.512492,-592.164754,612.876398
864.199268,-8512.368333,-666.185348,-612.876398
864.199589,-8660.409521,-148.041188,-612.876398
864.199909,-9252.574275,740.205942,536.266849
864.200230,-9696.697840,814.226536,1838.629195
864.200551,-10214.842000,74.020594,1991.848295
864.200871,-10066.800811,-222.061783,3140.991542
864.201192,-10658.965565,-1110.308913,2374.896044
864.201513,-10955.047942,-814.226536,2451.505594
864.201833,-10584.944971,-296.082377,2757.943793
864.202154,-9474.636058,-1036.288319,2987.772442
864.202475,-8956.491898,-740.205942,229.828649
864.202795,-8586.388927,-962.267725,-1225.752797
864.203116,-8364.327145,0.000000,-1149.143247
864.203436,-8364.327145,444.123565,-766.095498
864.203757,-8586.388927,1184.329507,383.047749
864.204078,-9622.677246,0.000000,1455.581446
864.204398,-9548.656652,-1332.370696,1072.533697
864.204719,-10140.821405,-2072.576638,1608.800546
864.205040,-9918.759623,-1702.473667,2681.334243
864.205360,-10436.903782,-888.247130,2374.896044
864.205681,-9770.718434,0.000000,1762.019645
864.206002,-9474.636058,0.000000,536.266849
864.206322,-8216.285956,518.144159,995.924147
864.206643,-9030.512492,0.000000,153.219100
864.206963,-9548.656652,0.000000,1532.190996
864.207284,-9696.697840,-444.123565,1991.848295
864.207605,-10288.862594,-1332.370696,2374.896044
864.207925,-9918.759623,-1554.432478,2221.676944
864.208246,-9992.780217,-740.205942,2068.457845
864.208567,-10140.821405,0.000000,2145.067394
864.208887,-9696.697840,74.020594,1608.800546
864.209208,-8808.450710,74.020594,1532.190996
864.209529,-9104.533087,-666.185348,-306.438199
864.209849,-9104.533087,-814.226536,-1072.533697
864.210170,-9400.615463,-296.082377,-612.876398
864.210490,-9104.533087,148.041188,383.047749
864.210811,-9548.656652,370.102971,1762.019645
864.211132,-10436.903782,0.000000,1915.238745
864.211452,-10658.965565,-666.185348,2145.067394
864.211773,-10066.800811,-814.226536,1838.629195
864.212094,-10362.883188,-296.082377,2298.286494
864.212414,-9844.739029,-148.041188,1762.019645
864.212735,-9548.656652,0.000000,1302.362347
864.213056,-9178.553681,-296.082377,0.000000
864.213376,-8438.347739,-518.144159,229.828649
864.213697,-8586.388927,-518.144159,-612.876398
864.214017,-8956.491898,-222.061783,459.657299
864.214338,-9474.636058,0.000000,1532.190996
864.214659,-9992.780217,-444.123565,2221.676944
864.214979,-9992.780217,-740.205942,1762.019645
864.215300,-10362.883188,-592.164754,1915.238745
864.215621,-10066.800811,-148.041188,1838.629195
864.215941,-10066.800811,-370.102971,1991.848295
864.216262,-9104.533087,-666.185348,919.314598
864.216583,-8660.409521,-1184.329507,-536.266849
864.216903,-8512.368333,-1184.329507,-842.705048
864.217224,-8882.471304,-666.185348,-919.314598
864.217544,-8660.409521,0.000000,-153.219100
864.217865,-9474.636058,1110.308913,1608.800546
864.218186,-10066.800811,740.205942,2221.676944
864.218506,-10214.842000,-740.205942,2068.457845
864.218827,-10584.944971,-1480.411884,1532.190996
864.219148,-10214.842000,-1554.432478,1838.629195
864.219468,-9992.780217,-888.247130,1608.800546
864.219789,-9548.656652,-666.185348,1072.533697
864.220110,-9030.512492,-444.123565,-306.438199
864.220430,-8660.409521,74.020594,-1378.971896
864.220751,-8956.491898,444.123565,-995.924147
864.221071,-9104.533087,1036.288319,229.828649
864.221392,-9622.677246,1110.308913,1532.190996
864.221713,-10362.883188,74.020594,2911.162892
864.222033,-10288.862594,-1110.308913,2145.067394
864.222354,-10807.006753,-1480.411884,2298.286494
864.222675,-10140.821405,-1184.329507,2221.676944
864.222995,-9992.780217,-740.205942,1302.362347
864.223316,-9770.718434,-444.123565,1915.238745
864.223637,-9178.553681,-518.144159,459.657299
864.223957,-9474.636058,-518.144159,-459.657299
864.224278,-9104.533087,-148.041188,-383.047749
864.224599,-9474.636058,0.000000,1149.143247
864.224919,-9696.697840,-296.082377,1991.848295
864.225240,-9918.759623,-370.102971,2145.067394
864.225560,-9918.759623,-666.185348,1838.629195
864.225881,-10140.821405,-962.267725,612.876398
864.226202,-10066.800811,-222.061783,1685.410096
864.226522,-9918.759623,518.144159,1455.581446
864.226843,-9474.636058,74.020594,995.924147
864.227164,-8808.450710,0.000000,0.000000
864.227484,-8364.327145,-888.247130,-1149.143247
864.227805,-8290.306550,-444.123565,-842.705048
864.228126,-8660.409521,-592.164754,0.000000
864.228446,-9326.594869,-296.082377,1608.800546
864.228767,-9178.553681,-814.226536,1378.971896
864.229087,-9474.636058,-1554.432478,1608.800546
864.229408,-9696.697840,-1554.432478,995.924147
864.229729,-10140.821405,-740.205942,1915.238745
864.230049,-9548.656652,0.000000,2834.553343
864.230370,-9474.636058,0.000000,1455.581446
864.230691,-9252.574275,-444.123565,229.828649
864.231011,-9252.574275,-666.185348,-459.657299
864.231332,-9252.574275,-370.102971,1302.362347
864.231653,-9030.512492,592.164754,689.485948
864.231973,-9770.718434,1110.308913,1838.629195
864.232294,-9548.656652,1406.391290,2374.896044
864.232614,-10066.800811,518.144159,2145.067394
864.232935,-10214.842000,0.000000,1838.629195
864.233256,-10214.842000,0.000000,2221.676944
864.233576,-10066.800811,-444.123565,2145.067394
864.233897,-10140.821405,-370.102971,1378.971896
864.234218,-9474.636058,0.000000,0.000000
864.234538,-9474.636058,-148.041188,76.609550
864.234859,-9400.615463,0.000000,306.438199
864.235180,-9474.636058,222.061783,1455.581446
864.235500,-10214.842000,888.247130,2374.896044
864.235821,-10658.965565,-444.123565,3370.820191
864.236141,-10807.006753,-1110.308913,2911.162892
864.236462,-10510.924376,-1184.329507,2528.115143
864.236783,-9844.739029,-592.164754,1762.019645
864.237103,-9326.594869,0.000000,1762.019645
864.237424,-9178.553681,-814.226536,1072.533697
864.237745,-8290.306550,-740.205942,-459.657299
864.238065,-8956.491898,-888.247130,-1072.533697
864.238386,-8364.327145,-222.061783,-536.266849
864.238707,-9474.636058,740.205942,536.266849
864.239027,-9770.718434,888.247130,1838.629195
864.239348,-9548.656652,370.102971,2451.505594
864.239668,-10214.842000,-1036.288319,2451.505594
864.239989,-9548.656652,-1110.308913,1838.629195
864.240310,-10658.965565,-2072.576638,2068.457845
864.240630,-9844.739029,-740.205942,1915.238745
864.240951,-9400.615463,-370.102971,1072.533697
864.241272,-8364.327145,-1036.288319,-536.266849
864.241592,-8586.388927,-444.123565,-1608.800546
864.241913,-8808.450710,0.000000,-1608.800546
864.242234,-9178.553681,-222.061783,0.000000
864.242554,-8734.430116,-444.123565,0.000000
864.242875,-10510.924376,-814.226536,1685.410096
864.243195,-10214.842000,-1332.370696,1378.971896
864.243516,-10807.006753,-1036.288319,1455.581446
864.243837,-10140.821405,-518.144159,1762.019645
864.244157,-9844.739029,0.000000,1838.629195
864.244478,-9992.780217,0.000000,995.924147
864.244799,-9178.553681,-222.061783,-306.438199
864.245119,-9326.594869,-592.164754,-919.314598
864.245440,-9252.574275,-296.082377,-842.705048
864.245761,-9104.533087,-222.061783,383.047749
864.246081,-9918.759623,0.000000,1455.581446
864.246402,-10140.821405,0.000000,2451.505594
864.246722,-9696.697840,0.000000,2068.457845
864.247043,-10510.924376,-444.123565,2298.286494
864.247364,-10436.903782,0.000000,2068.457845
864.247684,-10140.821405,444.123565,2298.286494
864.248005,-10214.842000,222.061783,1762.019645
864.248326,-9252.574275,-444.123565,229.828649
864.248646,-8586.388927,-592.164754,-995.924147
864.248967,-8734.430116,-592.164754,-842.705048
864.249288,-8956.491898,-296.082377,459.657299
864.249608,-9252.574275,-370.102971,2528.115143
864.249929,-9770.718434,-740.205942,2528.115143
864.250249,-10066.800811,-740.205942,2451.505594
864.250570,-10362.883188,-518.144159,2451.505594
864.250891,-10510.924376,74.020594,2145.067394
864.251211,-9992.780217,0.000000,2911.162892
864.251532,-9400.615463,-962.267725,1838.629195
864.251853,-8734.430116,-1554.432478,0.000000
864.252173,-8512.368333,-1406.391290,-1072.533697
864.252494,-8808.450710,-666.185348,-842.705048
864.252815,-8808.450710,740.205942,306.438199
864.253135,-9326.594869,1036.288319,1302.362347
864.253456,-9474.636058,222.061783,1608.800546
864.253777,-10362.883188,-666.185348,1762.019645
864.254097,-10362.883188,-1480.411884,2068.457845
864.254418,-10658.965565,-1480.411884,2374.896044
864.254738,-9844.739029,-518.144159,2298.286494
864.255059,-9548.656652,-1628.453072,459.657299
864.255380,-8956.491898,-444.123565,306.438199
864.255700,-8660.409521,-592.164754,-919.314598
864.256021,-8808.450710,-370.102971,-1225.752797
864.256342,-8512.368333,1110.308913,-766.095498
864.256662,-9548.656652,1406.391290,689.485948
864.256983,-9992.780217,888.247130,1838.629195
864.257304,-10362.883188,0.000000,2068.457845
864.257624,-10881.027347,-888.247130,1685.410096
864.257945,-10214.842000,-888.247130,1225.752797
864.258265,-10584.944971,0.000000,1455.581446
864.258586,-10214.842000,592.164754,842.705048
864.258907,-9548.656652,444.123565,-229.828649
864.259227,-9548.656652,222.061783,-1378.971896
864.259548,-9104.533087,0.000000,-1608.800546
864.259869,-9252.574275,74.020594,-919.314598
864.260189,-9696.697840,74.020594,689.485948
864.260510,-9918.759623,-148.041188,1762.019645
864.260831,-10288.862594,-666.185348,2451.505594
864.261151,-10362.883188,-1110.308913,1838.629195
864.261472,-10140.821405,-1110.308913,2145.067394
864.261792,-10066.800811,-740.205942,2604.724693
864.262113,-9844.739029,-370.102971,2528.115143
864.262434,-8882.471304,-592.164754,383.047749
864.262754,-7994.224174,-888.247130,-1149.143247
864.263075,-7772.162391,-370.102971,-1072.533697
864.263396,-8438.347739,0.000000,0.000000
864.263716,-8956.491898,222.061783,1608.800546
864.264037,-9622.677246,-518.144159,2298.286494
864.264358,-9918.759623,-1332.370696,2681.334243
864.264678,-10436.903782,-1850.514855,2374.896044
864.264999,-9844.739029,-1332.370696,1991.848295
864.265319,-9844.739029,-74.020594,2528.115143
864.265640,-9548.656652,-370.102971,1455.581446
864.265961,-8586.388927,74.020594,689.485948
864.266281,-9030.512492,-962.267725,-689.485948
864.266602,-8586.388927,-148.041188,-612.876398
864.266923,-9474.636058,0.000000,689.485948
864.267243,-9400.615463,444.123565,1532.190996
864.267564,-9992.780217,148.041188,1762.019645
864.267885,-10066.800811,-222.061783,2298.286494
864.268205,-10140.821405,-518.144159,2374.896044
864.268526,-10362.883188,-592.164754,2145.067394
864.268846,-10288.862594,444.123565,2681.334243
864.269167,-10288.862594,74.020594,2145.067394
864.269488,-10066.800811,370.102971,1302.362347
864.269808,-9474.636058,-592.164754,-229.828649
864.270130,-8882.471304,222.061783,-689.485948
864.270451,-9326.594869,0.000000,-153.219100
864.270772,-9474.636058,296.082377,1302.362347
864.271093,-9770.718434,-222.061783,1455.581446
864.271414,-10066.800811,-222.061783,1455.581446
864.271735,-10214.842000,518.144159,2068.457845
864.272056,-10732.986159,0.000000,1455.581446
864.272376,-10658.965565,74.020594,1915.238745
864.272697,-9770.718434,-148.041188,1225.752797
864.273018,-9400.615463,-1036.288319,-153.219100
864.273339,-8512.368333,-1110.308913,-919.314598
864.273660,-8882.471304,-1258.350101,-1149.143247
864.273981,-8512.368333,-148.041188,-536.266849
864.274302,-9030.512492,592.164754,995.924147
864.274622,-9844.739029,1036.288319,2068.457845
864.274943,-10066.800811,-518.144159,1762.019645
864.275264,-9844.739029,-888.247130,2145.067394
864.275585,-10214.842000,-1406.391290,2145.067394
864.275906,-9770.718434,-888.247130,3294.210641
864.276227,-9548.656652,-962.267725,2374.896044
864.276547,-8660.409521,-1184.329507,689.485948
864.276868,-8512.368333,-1036.288319,-459.657299
864.277189,-8290.306550,-444.123565,-995.924147
864.277510,-8216.285956,0.000000,-76.609550
864.277831,-9474.636058,296.082377,995.924147
864.278152,-10066.800811,0.000000,1838.629195
864.278473,-10362.883188,-1036.288319,1532.190996
864.278793,-10288.862594,-740.205942,1302.362347
864.279114,-10807.006753,-1258.350101,1378.971896
864.279435,-10584.944971,-222.061783,1685.410096
864.279756,-10140.821405,0.000000,1225.752797
864.280077,-9474.636058,296.082377,76.609550
864.280398,-9474.636058,-444.123565,-536.266849
864.280719,-9030.512492,0.000000,-536.266849
864.281039,-9178.553681,0.000000,-229.828649
864.281360,-8660.409521,888.247130,612.876398
864.281681,-9474.636058,-148.041188,766.095498
864.282002,-9474.636058,666.185348,1915.238745
864.282323,-10436.903782,-666.185348,1685.410096
864.282644,-10288.862594,-296.082377,2451.505594
864.282965,-9918.759623,-518.144159,3140.991542
864.283285,-10658.965565,-370.102971,2834.553343
864.283606,-9548.656652,-370.102971,1302.362347
864.283927,-9252.574275,-444.123565,0.000000
864.284248,-8808.450710,0.000000,-76.609550
864.284569,-8586.388927,74.020594,153.219100
864.284890,-9030.512492,148.041188,1302.362347
864.285211,-9770.718434,-518.144159,2298.286494
864.285531,-10140.821405,-1110.308913,2911.162892
864.285852,-10436.903782,-1628.453072,2604.724693
864.286173,-10362.883188,-1036.288319,2834.553343
864.286494,-10362.883188,-444.123565,2681.334243
864.286815,-9770.718434,222.061783,1915.238745
864.287136,-9030.512492,1110.308913,919.314598
864.287456,-8290.306550,-444.123565,-766.095498
864.287777,-8586.388927,-740.205942,-1225.752797
864.288098,-8438.347739,148.041188,-229.828649
864.288419,-9178.553681,740.205942,-229.828649
864.288740,-8882.471304,888.247130,1991.848295
864.289061,-10066.800811,-740.205942,2298.286494
864.289382,-9548.656652,-1480.411884,2145.067394
864.289702,-10436.903782,-1702.473667,1608.800546
864.290023,-10066.800811,-592.164754,1915.238745
864.290344,-10140.821405,-222.061783,2221.676944
864.290665,-9474.636058,0.000000,1149.143247
864.290986,-9030.512492,-518.144159,-536.266849
864.291307,-9548.656652,222.061783,-1838.629195
864.291628,-9030.512492,148.041188,-689.485948
864.291948,-9474.636058,74.020594,689.485948
864.292269,-9918.759623,0.000000,2298.286494
864.292590,-10214.842000,0.000000,2911.162892
864.292911,-10510.924376,-740.205942,1072.533697
864.293232,-11029.068536,-518.144159,1532.190996
864.293553,-10732.986159,0.000000,1455.581446
864.293874,-10288.862594,0.000000,1149.143247
864.294194,-9178.553681,-592.164754,-612.876398
864.294515,-8956.491898,-1184.329507,-1455.581446
864.294836,-8660.409521,-1110.308913,-1532.190996
864.295157,-9104.533087,-814.226536,-383.047749
864.295478,-8882.471304,0.000000,229.828649
864.295799,-9992.780217,888.247130,1532.190996
864.296120,-10214.842000,518.144159,1685.410096
864.296440,-10362.883188,-444.123565,1838.629195
864.296761,-10214.842000,-592.164754,1072.533697
864.297082,-9844.739029,-962.267725,2145.067394
864.297403,-9622.677246,-1036.288319,1532.190996
864.297724,-9104.533087,-814.226536,536.266849
864.298045,-8882.471304,-962.267725,-229.828649
864.298366,-8586.388927,0.000000,-229.828649
864.298686,-8586.388927,74.020594,0.000000
864.299007,-9104.533087,148.041188,1608.800546
864.299328,-9548.656652,-740.205942,2451.505594
864.299649,-9770.718434,-1184.329507,2068.457845
864.299970,-10066.800811,-1406.391290,2145.067394
864.300291,-10140.821405,-592.164754,2145.067394
864.300611,-9918.759623,148.041188,2451.505594
864.300932,-9622.677246,0.000000,2374.896044
864.301253,-9104.533087,-666.185348,459.657299
864.301574,-8882.471304,-1258.350101,-612.876398
864.301895,-9030.512492,-888.247130,-842.705048
864.302216,-9030.512492,0.000000,-229.828649
864.302537,-9474.636058,1258.350101,1455.581446
864.302857,-9770.718434,1406.391290,2451.505594
864.303178,-9918.759623,592.164754,2451.505594
864.303499,-10362.883188,-296.082377,2298.286494
864.303820,-10807.006753,-444.123565,2298.286494
864.304141,-10362.883188,74.020594,2145.067394
864.304462,-9770.718434,296.082377,1915.238745
864.304783,-9474.636058,-296.082377,1225.752797
864.305103,-8734.430116,-148.041188,2604.724693
864.305424,-8808.450710,0.000000,-689.485948
864.305745,-9104.533087,370.102971,306.438199
864.306066,-9696.697840,1258.350101,1991.848295
864.306387,-10584.944971,444.123565,2911.162892
864.306708,-10955.047942,444.123565,3370.820191
864.307029,-11621.233289,-2220.617826,2757.943793
864.307349,-9992.780217,-1480.411884,2145.067394
864.307670,-10066.800811,-370.102971,1378.971896
864.307991,-9474.636058,592.164754,1072.533697
864.308312,-8660.409521,666.185348,0.000000
864.308633,-9030.512492,-148.041188,-1378.971896
864.308954,-8734.430116,-222.061783,-1532.190996
864.309275,-8290.306550,-444.123565,-1225.752797
864.309595,-10436.903782,444.123565,1225.752797
864.309916,-9252.574275,370.102971,1915.238745
864.310237,-10510.924376,-148.041188,1762.019645
864.310558,-9992.780217,-1036.288319,1991.848295
864.310879,-9178.553681,-1628.453072,766.095498
864.311200,-9992.780217,-666.185348,1072.533697
864.311520,-10214.842000,148.041188,1378.971896
864.311841,-8956.491898,0.000000,229.828649
864.312162,-7994.224174,-666.185348,-76.609550
864.312483,-9030.512492,-814.226536,-995.924147
864.312804,-8586.388927,-296.082377,-383.047749
864.313125,-9326.594869,-296.082377,1608.800546
864.313446,-10140.821405,-518.144159,2757.943793
864.313766,-10584.944971,-888.247130,3524.039291
864.314087,-10732.986159,-1702.473667,2604.724693
864.314408,-10140.821405,-1036.288319,2451.505594
864.314729,-9844.739029,-296.082377,1838.629195
864.315050,-9918.759623,222.061783,1685.410096
864.315371,-8882.471304,-222.061783,612.876398
864.315692,-8290.306550,-592.164754,-1532.190996
864.316012,-8882.471304,-1036.288319,-1762.019645
864.316333,-8586.388927,0.000000,919.314598
864.316654,-9548.656652,-296.082377,536.266849
864.316975,-10066.800811,-592.164754,1455.581446
864.317296,-9844.739029,-888.247130,1838.629195
864.317617,-10362.883188,-1406.391290,2145.067394
864.317938,-10807.006753,-1110.308913,2451.505594
864.318258,-10436.903782,-370.102971,2681.334243
864.318579,-10658.965565,-444.123565,2374.896044
864.318900,-9400.615463,-518.144159,1149.143247
864.319221,-8216.285956,-962.267725,-459.657299
864.319542,-8586.388927,-444.123565,-842.705048
864.319863,-8808.450710,0.000000,0.000000
864.320184,-8882.471304,666.185348,1149.143247
864.320504,-9992.780217,1628.453072,2068.457845
864.320825,-10214.842000,0.000000,2145.067394
864.321146,-10436.903782,-592.164754,2145.067394
864.321467,-10584.944971,-888.247130,2145.067394
864.321788,-10362.883188,-370.102971,2221.676944
864.322109,-9770.718434,-370.102971,1302.362347
864.322429,-9400.615463,-592.164754,459.657299
864.322750,-9030.512492,-962.267725,-306.438199
864.323071,-8956.491898,-962.267725,-612.876398
864.323392,-9030.512492,-592.164754,0.000000
864.323713,-9104.533087,0.000000,689.485948
864.324034,-9770.718434,-222.061783,1455.581446
864.324355,-9844.739029,-740.205942,2068.457845
864.324675,-9326.594869,-740.205942,2757.943793
864.324996,-9844.739029,-1776.494261,1532.190996
864.325317,-9696.697840,-888.247130,1378.971896
864.325638,-9770.718434,-592.164754,1685.410096
864.325959,-9548.656652,-296.082377,1455.581446
864.326280,-8956.491898,-222.061783,-459.657299
864.326601,-8882.471304,0.000000,-995.924147
864.326921,-9104.533087,518.144159,-383.047749
864.327242,-9548.656652,814.226536,842.705048
864.327563,-10362.883188,814.226536,2145.067394
864.327884,-10214.842000,-296.082377,2451.505594
864.328205,-9918.759623,-1258.350101,1838.629195
864.328526,-10510.924376,-962.267725,1762.019645
864.328847,-9770.718434,148.041188,2757.943793
864.329167,-9918.759623,518.144159,1608.800546
864.329488,-9326.594869,1036.288319,459.657299
864.329809,-9326.594869,148.041188,-383.047749
864.330130,-9252.574275,0.000000,-919.314598
864.330451,-9252.574275,-222.061783,-536.266849
864.330772,-9030.512492,-592.164754,0.000000
864.331093,-9474.636058,-222.061783,1455.581446
864.331413,-10214.842000,-370.102971,2451.505594
864.331734,-10807.006753,-740.205942,2451.505594
864.332055,-10214.842000,-592.164754,2451.505594
864.332376,-10214.842000,-444.123565,2604.724693
864.332697,-9622.677246,0.000000,2145.067394
864.333018,-8808.450710,-1480.411884,1149.143247
864.333339,-8364.327145,-1184.329507,0.000000
864.333659,-8290.306550,-814.226536,-995.924147
864.333980,-8512.368333,0.000000,-689.485948
864.334301,-9104.533087,666.185348,1225.752797
864.334622,-9770.718434,888.247130,2145.067394
864.334943,-10066.800811,0.000000,2374.896044
864.335264,-9844.739029,-296.082377,2145.067394
864.335584,-10436.903782,-888.247130,2145.067394
864.335905,-10362.883188,-592.164754,2221.676944
864.336226,-9992.780217,0.000000,2298.286494
864.336547,-9252.574275,-592.164754,919.314598
864.336868,-8808.450710,-740.205942,-766.095498
864.337189,-8586.388927,-370.102971,-1072.533697
864.337510,-9178.553681,148.041188,-306.438199
864.337830,-9104.533087,1110.308913,1302.362347
864.338151,-9992.780217,740.205942,2528.115143
864.338472,-9696.697840,-296.082377,2451.505594
864.338793,-10066.800811,-740.205942,1838.629195
864.339114,-10881.027347,-1332.370696,2145.067394
864.339435,-10362.883188,-666.185348,2528.115143
864.339756,-10066.800811,-148.041188,2145.067394
864.340076,-8882.471304,-962.267725,995.924147
864.340397,-8882.471304,0.000000,-919.314598
864.340718,-9474.636058,74.020594,-536.266849
864.341039,-9178.553681,444.123565,-383.047749
864.341360,-9474.636058,666.185348,459.657299
864.341681,-9844.739029,148.041188,1991.848295
864.342002,-10362.883188,-740.205942,2451.505594
864.342322,-10807.006753,-1036.288319,2221.676944
864.342643,-10658.965565,-962.267725,2068.457845
864.342964,-10066.800811,-518.144159,1608.800546
864.343285,-9548.656652,0.000000,1302.362347
864.343606,-9474.636058,-962.267725,612.876398
864.343927,-8364.327145,-370.102971,-229.828649
864.344248,-8882.471304,-1628.453072,-689.485948
864.344568,-9030.512492,-666.185348,-1378.971896
864.344889,-9326.594869,592.164754,383.047749
864.345210,-9770.718434,148.041188,1915.238745
864.345531,-9844.739029,74.020594,2681.334243
864.345852,-10658.965565,-1110.308913,2911.162892
864.346173,-10288.862594,-1406.391290,2145.067394
864.346493,-9770.718434,-1480.411884,2145.067394
864.346814,-9770.718434,-592.164754,1915.238745
864.347135,-9326.594869,-444.123565,2145.067394
864.347456,-8364.327145,-518.144159,-536.266849
864.347777,-8290.306550,-444.123565,-1149.143247
864.348098,-8734.430116,-296.082377,-229.828649
864.348419,-8882.471304,74.020594,1378.971896
864.348739,-9770.718434,0.000000,2298.286494
864.349060,-9918.759623,-740.205942,2528.115143
864.349381,-10362.883188,-1036.288319,2451.505594
864.349702,-10510.924376,-1110.308913,2374.896044
864.350023,-10214.842000,-666.185348,2451.505594
864.350344,-9918.759623,-1036.288319,1991.848295
864.350665,-9474.636058,-740.205942,919.314598
864.350985,-9178.553681,-1332.370696,-689.485948
864.351306,-8512.368333,-1406.391290,-1225.752797
864.351627,-8660.409521,-888.247130,-689.485948
864.351948,-8956.491898,0.000000,0.000000
864.352269,-9474.636058,74.020594,1532.190996
864.352590,-9918.759623,-592.164754,2145.067394
864.352911,-10140.821405,-814.226536,2298.286494
864.353231,-10881.027347,-1110.308913,2451.505594
864.353552,-10510.924376,-592.164754,2451.505594
864.353873,-10362.883188,222.061783,2298.286494
864.354194,-9400.615463,296.082377,1762.019645
864.354515,-8956.491898,-222.061783,229.828649
864.354836,-8956.491898,0.000000,-689.485948
864.355157,-8808.450710,370.102971,-766.095498
864.355477,-8956.491898,1628.453072,1149.143247
864.355798,-9770.718434,1036.288319,2298.286494
864.356119,-10066.800811,74.020594,2451.505594
864.356440,-9992.780217,-1036.288319,1838.629195
864.356761,-10436.903782,-1184.329507,2068.457845
864.357082,-10066.800811,-592.164754,2068.457845
864.357402,-10140.821405,-444.123565,1838.629195
864.357723,-9622.677246,-222.061783,1072.533697
864.358044,-8808.450710,-444.123565,-306.438199
864.358365,-8438.347739,-962.267725,-459.657299
864.358686,-8660.409521,-370.102971,-766.095498
864.359007,-9104.533087,0.000000,766.095498
864.359328,-9178.553681,-148.041188,1225.752797
864.359648,-8734.430116,370.102971,229.828649
864.359969,-9918.759623,-1628.453072,1302.362347
864.360290,-9770.718434,-1480.411884,1762.019645
864.360611,-9844.739029,-1110.308913,1991.848295
864.360932,-9770.718434,-148.041188,2068.457845
864.361253,-9696.697840,-148.041188,1149.143247
864.361574,-9178.553681,0.000000,0.000000
864.361894,-8734.430116,-148.041188,-842.705048
864.362215,-8734.430116,0.000000,-383.047749
864.362536,-8660.409521,0.000000,842.705048
864.362857,-9400.615463,-148.041188,1532.190996
864.363178,-9770.718434,-444.123565,1532.190996
864.363499,-9844.739029,-296.082377,1072.533697
864.363820,-9474.636058,370.102971,1149.143247
864.364140,-9918.759623,814.226536,766.095498
864.364461,-9918.759623,888.247130,1225.752797
864.364782,-9548.656652,296.082377,612.876398
864.365103,-9474.636058,-592.164754,-229.828649
864.365424,-9622.677246,-1184.329507,-536.266849
864.365745,-9548.656652,-888.247130,0.000000
864.366066,-9622.677246,0.000000,842.705048
864.366386,-10214.842000,74.020594,2298.286494
864.366707,-9770.718434,0.000000,2068.457845
864.367028,-10510.924376,-1406.391290,2451.505594
864.367349,-10510.924376,-1776.494261,2451.505594
864.367670,-10140.821405,-1406.391290,2145.067394
864.367991,-9400.615463,-222.061783,3447.429741
864.368312,-9474.636058,-740.205942,1608.800546
864.368632,-8734.430116,-962.267725,153.219100
864.368953,-8882.471304,-592.164754,-612.876398
864.369274,-8882.471304,0.000000,-459.657299
864.369595,-9030.512492,1332.370696,1072.533697
864.369916,-10066.800811,1036.288319,2221.676944
864.370236,-9918.759623,1110.308913,2834.553343
864.370557,-10140.821405,148.041188,2681.334243
864.370878,-10436.903782,-296.082377,1762.019645
864.371199,-9696.697840,-592.164754,2298.286494
864.371520,-9622.677246,-740.205942,1225.752797
864.371840,-9252.574275,-1036.288319,919.314598
864.372161,-8512.368333,-1702.473667,995.924147
864.372482,-8882.471304,-1332.370696,-842.705048
864.372803,-8956.491898,-1184.329507,-766.095498
864.373123,-8808.450710,0.000000,306.438199
864.373444,-9474.636058,0.000000,1532.190996
864.373765,-10066.800811,-148.041188,1915.238745
864.374086,-10140.821405,-962.267725,1991.848295
864.374407,-10214.842000,-1110.308913,1532.190996
864.374727,-10066.800811,-148.041188,1915.238745
864.375048,-9474.636058,666.185348,1762.019645
864.375369,-9696.697840,444.123565,1302.362347
864.375690,-9030.512492,0.000000,-459.657299
864.376011,-8808.450710,0.000000,-1302.362347
864.376331,-8956.491898,518.144159,-2451.505594
864.376652,-8956.491898,666.185348,153.219100
864.376973,-9474.636058,592.164754,919.314598
864.377294,-10066.800811,444.123565,1685.410096
864.377614,-10288.862594,-222.061783,2068.457845
864.377935,-10214.842000,-592.164754,1225.752797
864.378256,-10732.986159,-370.102971,2068.457845
864.378577,-10066.800811,370.102971,1685.410096
864.378898,-10140.821405,0.000000,1532.190996
864.379218,-8734.430116,-444.123565,1225.752797
864.379539,-8956.491898,-814.226536,-536.266849
864.379860,-8734.430116,-1184.329507,-459.657299
864.380181,-8956.491898,-814.226536,0.000000
864.380501,-9104.533087,-444.123565,919.314598
864.380822,-9474.636058,-962.267725,1915.238745
864.381143,-9474.636058,-1110.308913,1762.019645
864.381464,-10140.821405,-1258.350101,2145.067394
864.381785,-10288.862594,-1332.370696,2451.505594
864.382105,-10584.944971,-666.185348,2911.162892
864.382426,-10362.883188,-444.123565,2451.505594
864.382747,-9696.697840,-1110.308913,1378.971896
864.383068,-9178.553681,-592.164754,0.000000
864.383389,-8586.388927,296.082377,-229.828649
864.383709,-8586.388927,1258.350101,536.266849
864.384030,-8734.430116,888.247130,1455.581446
864.384351,-8956.491898,-518.144159,1762.019645
864.384672,-8882.471304,-1332.370696,383.047749
864.384992,-9474.636058,-1628.453072,995.924147
864.385313,-9770.718434,-962.267725,1915.238745
864.385634,-9992.780217,0.000000,2528.115143
864.385955,-10214.842000,0.000000,2681.334243
864.386276,-9992.780217,222.061783,2221.676944
864.386596,-10066.800811,-888.247130,995.924147
864.386917,-9992.780217,-592.164754,842.705048
864.387238,-9400.615463,-148.041188,1225.752797
864.387559,-9474.636058,296.082377,2528.115143
864.387879,-9474.636058,0.000000,2145.067394
864.388200,-9252.574275,-814.226536,1149.143247
864.388521,-9548.656652,-1110.308913,612.876398
864.388842,-9918.759623,-666.185348,1378.971896
864.389163,-9474.636058,0.000000,1455.581446
864.389483,-9844.739029,74.020594,1072.533697
864.389804,-9474.636058,-296.082377,536.266849
864.390125,-8956.491898,-518.144159,-536.266849
864.390446,-8956.491898,-740.205942,-1072.533697
864.390767,-9474.636058,0.000000,229.828649
864.391087,-9474.636058,222.061783,1378.971896
864.391408,-10140.821405,0.000000,1991.848295
864.391729,-9844.739029,0.000000,2145.067394
864.392050,-10066.800811,-740.205942,842.705048
864.392370,-9918.759623,-296.082377,1149.143247
864.392691,-10140.821405,74.020594,1685.410096
864.393012,-9696.697840,-370.102971,919.314598
864.393333,-9178.553681,-1036.288319,-383.047749
864.393654,-8438.347739,-1480.411884,-1072.533697
864.393974,-9400.615463,-888.247130,-919.314598
864.394295,-9104.533087,444.123565,383.047749
864.394616,-9474.636058,666.185348,1302.362347
864.394937,-9696.697840,592.164754,2068.457845
864.395258,-10140.821405,-814.226536,2298.286494
864.395578,-10140.821405,-1184.329507,1991.848295
864.395899,-10066.800811,-1332.370696,1838.629195
864.396220,-10066.800811,-222.061783,2374.896044
864.396541,-9400.615463,0.000000,1072.533697
864.396861,-9178.553681,-148.041188,76.609550
864.397182,-8882.471304,-148.041188,-766.095498
864.397503,-8882.471304,222.061783,-1225.752797
864.397824,-9252.574275,0.000000,383.047749
864.398145,-9622.677246,74.020594,2145.067394
864.398465,-10362.883188,-370.102971,2681.334243
864.398786,-10214.842000,-962.267725,2528.115143
864.399107,-10288.862594,-1110.308913,1991.848295
864.399428,-9770.718434,-1036.288319,1762.019645
864.399748,-9696.697840,-296.082377,1838.629195
864.400069,-9104.533087,444.123565,995.924147
864.400390,-8882.471304,74.020594,-153.219100
864.400711,-8956.491898,0.000000,-1225.752797
864.401032,-8956.491898,222.061783,-383.047749
864.401352,-9252.574275,-518.144159,383.047749
864.401673,-9474.636058,-740.205942,1915.238745
864.401994,-9992.780217,-592.164754,2374.896044
864.402315,-10436.903782,-1036.288319,2604.724693
864.402636,-10732.986159,-814.226536,2145.067394
864.402956,-10807.006753,0.000000,2221.676944
864.403277,-9992.780217,148.041188,2145.067394
864.403598,-9622.677246,666.185348,1608.800546
864.403919,-9178.553681,0.000000,0.000000
864.404239,-8956.491898,-592.164754,-1149.143247
864.404560,-8438.347739,-1110.308913,-612.876398
864.404881,-8660.409521,0.000000,0.000000
864.405202,-9548.656652,296.082377,1838.629195
864.405523,-9918.759623,666.185348,2221.676944
864.405843,-10658.965565,-370.102971,1762.019645
864.406164,-10288.862594,-518.144159,2068.457845
864.406485,-10362.883188,-1110.308913,1991.848295
864.406806,-9992.780217,-666.185348,1685.410096
864.407126,-9770.718434,-1184.329507,1072.533697
864.407447,-9030.512492,-1184.329507,-536.266849
864.407768,-8586.388927,-1110.308913,-1225.752797
864.408089,-8734.430116,-740.205942,-1072.533697
864.408410,-8956.491898,666.185348,153.219100
864.408730,-9696.697840,1036.288319,2068.457845
864.409051,-9400.615463,1924.535449,2451.505594
864.409372,-10584.944971,-666.185348,2374.896044
864.409693,-9844.739029,-1110.308913,1991.848295
864.410014,-10140.821405,-1332.370696,3370.820191
864.410334,-9696.697840,-962.267725,1991.848295
864.410655,-9474.636058,-370.102971,1532.190996
864.410976,-9178.553681,0.000000,0.000000
864.411297,-8512.368333,148.041188,-1302.362347
864.411617,-9178.553681,888.247130,-1225.752797
864.411938,-9178.553681,962.267725,76.609550
864.412259,-9474.636058,814.226536,1225.752797
864.412580,-9918.759623,0.000000,2068.457845
864.412901,-9474.636058,-1332.370696,3677.258390
864.413221,-10214.842000,-1554.432478,1915.238745
864.413542,-10584.944971,-1258.350101,2298.286494
864.413863,-9992.780217,-222.061783,1608.800546
864.414184,-9918.759623,518.144159,3140.991542
864.414505,-9104.533087,0.000000,153.219100
864.414825,-9178.553681,-444.123565,-612.876398
864.415146,-9104.533087,-222.061783,-536.266849
864.415467,-9400.615463,0.000000,0.000000
864.415788,-9252.574275,222.061783,1072.533697
864.416108,-10362.883188,148.041188,2604.724693
864.416429,-10214.842000,-444.123565,2451.505594
864.416750,-10584.944971,0.000000,3370.820191
864.417071,-10732.986159,-518.144159,2834.553343
864.417392,-10288.862594,0.000000,3140.991542
864.417712,-10362.883188,-1184.329507,2911.162892
864.418033,-8512.368333,-740.205942,689.485948
864.418354,-8808.450710,-444.123565,766.095498
864.418675,-8808.450710,-666.185348,-919.314598
864.418995,-8142.265362,518.144159,0.000000
864.419316,-9030.512492,0.000000,536.266849
864.419637,-9252.574275,74.020594,1302.362347
864.419958,-9844.739029,-444.123565,1838.629195
864.420279,-10436.903782,-1332.370696,1685.410096
864.420599,-10066.800811,-1406.391290,1685.410096
864.420920,-9696.697840,-1110.308913,1378.971896
864.421241,-8882.471304,-962.267725,1608.800546
864.421562,-9400.615463,-1110.308913,0.000000
864.421883,-8956.491898,-1036.288319,-1225.752797
864.422203,-8660.409521,-592.164754,-1302.362347
864.422524,-8734.430116,74.020594,-229.828649
864.422845,-9252.574275,370.102971,1225.752797
864.423166,-9992.780217,814.226536,2221.676944
864.423486,-9844.739029,-74.020594,1991.848295
864.423807,-10140.821405,-814.226536,1915.238745
864.424128,-10732.986159,-962.267725,1838.629195
864.424449,-10288.862594,0.000000,1991.848295
864.424770,-10288.862594,148.041188,1532.190996
864.425090,-9622.677246,148.041188,612.876398
864.425411,-8290.306550,888.247130,-689.485948
864.425732,-8956.491898,74.020594,-766.095498
864.426053,-9474.636058,888.247130,153.219100
864.426373,-9474.636058,518.144159,1532.190996
864.426694,-9696.697840,-74.020594,2145.067394
864.427015,-9992.780217,-888.247130,1762.019645
864.427336,-10288.862594,-1554.432478,1685.410096
864.427657,-10510.924376,-1036.288319,1991.848295
864.427977,-10140.821405,-518.144159,1685.410096
864.428298,-9548.656652,-444.123565,2145.067394
864.428619,-9252.574275,-666.185348,0.000000
864.428940,-9030.512492,-444.123565,-612.876398
864.429261,-9326.594869,-296.082377,-919.314598
864.429581,-7920.203579,888.247130,-306.438199
864.429902,-9326.594869,444.123565,459.657299
864.430223,-9622.677246,592.164754,1532.190996
864.430544,-10140.821405,-444.123565,1838.629195
864.430864,-10362.883188,-222.061783,3064.381992
864.431185,-10288.862594,-1184.329507,2451.505594
864.431506,-9844.739029,-592.164754,2298.286494
864.431827,-9992.780217,-666.185348,2451.505594
864.432148,-9178.553681,-148.041188,1149.143247
864.432468,-8808.450710,-666.185348,153.219100
864.432789,-8660.409521,-592.164754,-766.095498
864.433110,-8438.347739,-222.061783,0.000000
864.433431,-9400.615463,0.000000,1225.752797
864.433752,-9030.512492,296.082377,2911.162892
864.434072,-9992.780217,-592.164754,1915.238745
864.434393,-9918.759623,-222.061783,2068.457845
864.434714,-10510.924376,-814.226536,1608.800546
864.435035,-10214.842000,148.041188,153.219100
864.435355,-10362.883188,-370.102971,1378.971896
864.435676,-9178.553681,-518.144159,383.047749
864.435997,-9252.574275,-962.267725,-229.828649
864.436318,-9030.512492,-592.164754,-689.485948
864.436639,-9178.553681,-222.061783,0.000000
864.436959,-9252.574275,740.205942,1072.533697
864.437280,-9770.718434,74.020594,1915.238745
864.437601,-9918.759623,-370.102971,1915.238745
864.437922,-9770.718434,-1628.453072,2068.457845
864.438242,-10436.903782,-1628.453072,1991.848295
864.438563,-10066.800811,-666.185348,1838.629195
864.438884,-9770.718434,-296.082377,1532.190996
864.439205,-9770.718434,0.000000,76.609550
864.439526,-8734.430116,0.000000,-689.485948
864.439846,-9104.533087,592.164754,-919.314598
864.440167,-9178.553681,1036.288319,76.609550
864.440488,-9474.636058,814.226536,1302.362347
864.440809,-9770.718434,0.000000,2298.286494
864.441130,-9844.739029,-1036.288319,2221.676944
864.441450,-10140.821405,-1850.514855,1455.581446
864.441771,-10066.800811,-1850.514855,1838.629195
864.442092,-9178.553681,-740.205942,1225.752797
864.442413,-9474.636058,-370.102971,995.924147
864.442733,-9178.553681,-222.061783,0.000000
864.443054,-8660.409521,-370.102971,-459.657299
864.443375,-8808.450710,-740.205942,-1149.143247
864.443696,-8660.409521,-518.144159,-383.047749
864.444017,-9326.594869,74.020594,919.314598
864.444337,-9548.656652,148.041188,2145.067394
864.444658,-9770.718434,222.061783,2298.286494
864.444979,-10362.883188,296.082377,2451.505594
864.445300,-10436.903782,518.144159,2604.724693
864.445620,-10881.027347,518.144159,3140.991542
864.445941,-10288.862594,666.185348,2528.115143
864.446262,-8956.491898,-814.226536,1838.629195
864.446583,-8438.347739,-814.226536,383.047749
864.446904,-8364.327145,-888.247130,-229.828649
864.447224,-8734.430116,0.000000,383.047749
864.447545,-8808.450710,444.123565,2221.676944
864.447866,-9400.615463,370.102971,1915.238745
864.448187,-9992.780217,74.020594,2451.505594
864.448508,-10140.821405,-592.164754,2145.067394
864.448828,-10436.903782,-518.144159,2145.067394
864.449149,-9844.739029,-296.082377,1302.362347
864.449470,-9992.780217,-148.041188,1302.362347
864.449791,-9696.697840,-666.185348,536.266849
864.450111,-9178.553681,-962.267725,-689.485948
864.450432,-8882.471304,-518.144159,0.000000
864.450753,-9252.574275,-370.102971,-689.485948
864.451074,-9104.533087,444.123565,1149.143247
864.451395,-9918.759623,444.123565,1838.629195
864.451715,-10066.800811,0.000000,3447.429741
864.452036,-10066.800811,-814.226536,2221.676944
864.452357,-10362.883188,-1184.329507,1991.848295
864.452678,-10214.842000,-962.267725,2451.505594
864.452998,-10362.883188,-296.082377,2145.067394
864.453319,-9548.656652,-148.041188,995.924147
864.453640,-8956.491898,222.061783,-459.657299
864.453961,-8660.409521,148.041188,-995.924147
864.454282,-8512.368333,444.123565,-612.876398
864.454602,-8956.491898,666.185348,153.219100
864.454923,-9844.739029,-666.185348,1762.019645
864.455244,-9844.739029,-1258.350101,1532.190996
864.455565,-10362.883188,-1628.453072,1072.533697
864.455886,-10807.006753,-888.247130,1455.581446
864.456206,-10214.842000,-148.041188,1762.019645
864.456527,-9622.677246,-222.061783,1225.752797
864.456848,-9400.615463,-814.226536,153.219100
864.457169,-8734.430116,-1554.432478,-842.705048
864.457489,-9178.553681,-1184.329507,-1532.190996
864.457810,-9178.553681,-222.061783,0.000000
864.458131,-9400.615463,666.185348,689.485948
864.458452,-9622.677246,888.247130,1608.800546
864.458773,-9474.636058,592.164754,1838.629195
864.459093,-9992.780217,-1332.370696,2374.896044
864.459414,-10362.883188,-1998.556043,1838.629195
864.459735,-10066.800811,-1406.391290,2451.505594
864.460056,-9844.739029,-888.247130,1838.629195
864.460377,-9326.594869,-148.041188,766.095498
864.460697,-9030.512492,-148.041188,0.000000
864.461018,-9252.574275,148.041188,-459.657299
864.461339,-9474.636058,666.185348,536.266849
864.461660,-9770.718434,74.020594,1455.581446
864.461980,-9992.780217,-296.082377,2451.505594
864.462301,-10584.944971,-1184.329507,2757.943793
864.462622,-10584.944971,-1554.432478,2528.115143
864.462943,-9770.718434,-1036.288319,2528.115143
864.463264,-9474.636058,0.000000,1915.238745
864.463584,-9400.615463,0.000000,1302.362347
864.463905,-8956.491898,-666.185348,0.000000
864.464226,-8290.306550,-962.267725,-1762.019645
864.464547,-8660.409521,-296.082377,-1532.190996
864.464867,-8808.450710,0.000000,-383.047749
864.465188,-9474.636058,666.185348,1455.581446
864.465509,-9992.780217,1110.308913,3064.381992
864.465830,-10732.986159,-74.020594,3677.258390
864.466151,-10881.027347,-1850.514855,2911.162892
864.466471,-9918.759623,-1702.473667,3064.381992
864.466792,-11029.068536,-1480.411884,2834.553343
864.467113,-8956.491898,74.020594,4903.011187
864.467434,-9474.636058,-370.102971,1149.143247
864.467755,-8808.450710,0.000000,-383.047749
864.468075,-8438.347739,-592.164754,-1455.581446
864.468396,-8586.388927,0.000000,-689.485948
864.468717,-9178.553681,370.102971,536.266849
864.469038,-9548.656652,0.000000,995.924147
864.469358,-9918.759623,-296.082377,1532.190996
864.469679,-9992.780217,-666.185348,1072.533697
864.470000,-10066.800811,-666.185348,1149.143247
864.470321,-10436.903782,0.000000,1149.143247
864.470642,-9548.656652,0.000000,919.314598
864.470962,-8956.491898,-222.061783,0.000000
864.471283,-9252.574275,-666.185348,-1072.533697
864.471604,-9474.636058,-296.082377,-1608.800546
864.471925,-9474.636058,444.123565,-536.266849
864.472246,-9474.636058,962.267725,919.314598
864.472566,-9474.636058,1406.391290,1685.410096
864.472887,-10214.842000,222.061783,1915.238745
864.473208,-10066.800811,-814.226536,1915.238745
864.473529,-10214.842000,-666.185348,1838.629195
864.473850,-10214.842000,-296.082377,1762.019645
864.474170,-9474.636058,0.000000,1685.410096
864.474491,-9474.636058,148.041188,1149.143247
864.474812,-9178.553681,-370.102971,306.438199
864.475133,-8586.388927,-296.082377,-612.876398
864.475454,-8290.306550,-444.123565,-536.266849
864.475774,-9326.594869,0.000000,1302.362347
864.476095,-9844.739029,148.041188,2451.505594
864.476416,-9696.697840,-814.226536,2528.115143
864.476737,-10288.862594,-1184.329507,2681.334243
864.477058,-10214.842000,-1480.411884,1838.629195
864.477378,-9992.780217,-1406.391290,1532.190996
864.477699,-9770.718434,-370.102971,1762.019645
864.478020,-9252.574275,-148.041188,766.095498
864.478341,-8364.327145,222.061783,-995.924147
864.478662,-8660.409521,740.205942,-459.657299
864.478982,-9326.594869,444.123565,-536.266849
864.479303,-8586.388927,1110.308913,995.924147
864.479624,-9548.656652,-518.144159,2451.505594
864.479945,-9622.677246,-370.102971,1991.848295
864.480266,-10066.800811,-1184.329507,2068.457845
864.480586,-9992.780217,-1110.308913,1915.238745
864.480907,-9696.697840,0.000000,2068.457845
864.481228,-9844.739029,666.185348,2528.115143
864.481549,-9622.677246,666.185348,1455.581446
864.481870,-9474.636058,-222.061783,536.266849
864.482191,-8734.430116,-296.082377,-459.657299
864.482511,-8808.450710,-370.102971,0.000000
864.482832,-9474.636058,-370.102971,1225.752797
864.483153,-9622.677246,-370.102971,1991.848295
864.483474,-9770.718434,-888.247130,1991.848295
864.483795,-10214.842000,-1332.370696,536.266849
864.484115,-10288.862594,-888.247130,1378.971896
864.484436,-10436.903782,-148.041188,1685.410096
864.484757,-9844.739029,-592.164754,1072.533697
864.485078,-9252.574275,-1036.288319,919.314598
864.485399,-9252.574275,-1702.473667,-383.047749
864.485719,-8956.491898,-2072.576638,-1302.362347
864.486040,-9178.553681,-1628.453072,-689.485948
864.486361,-9178.553681,-148.041188,306.438199
864.486682,-9104.533087,148.041188,1378.971896
864.487003,-10140.821405,0.000000,2221.676944
864.487323,-10288.862594,-888.247130,1532.190996
864.487644,-10510.924376,-1258.350101,1838.629195
864.487965,-10140.821405,-1628.453072,1991.848295
864.488286,-9918.759623,-592.164754,1991.848295
864.488607,-10066.800811,-666.185348,1455.581446
864.488927,-9030.512492,0.000000,153.219100
864.489248,-9178.553681,518.144159,-229.828649
864.489569,-8734.430116,444.123565,-536.266849
864.489890,-8808.450710,1110.308913,1302.362347
864.490211,-9844.739029,-666.185348,2374.896044
864.490531,-9326.594869,-296.082377,2604.724693
864.490852,-10288.862594,-2220.617826,3524.039291
864.491173,-9844.739029,-1850.514855,2068.457845
864.491494,-10288.862594,-518.144159,2221.676944
864.491815,-9770.718434,74.020594,1991.848295
864.492135,-9400.615463,-296.082377,689.485948
864.492456,-9104.533087,0.000000,-306.438199
864.492777,-9400.615463,-444.123565,-1149.143247
864.493098,-9030.512492,74.020594,-689.485948
864.493419,-9474.636058,0.000000,536.266849
864.493739,-9474.636058,148.041188,1838.629195
864.494060,-9992.780217,-814.226536,2451.505594
864.494381,-9992.780217,-1110.308913,2451.505594
864.494702,-10658.965565,-962.267725,2757.943793
864.495023,-10288.862594,-592.164754,2911.162892
864.495343,-9918.759623,518.144159,2681.334243
864.495664,-9696.697840,740.205942,1838.629195
864.495985,-8586.388927,296.082377,0.000000
864.496306,-8290.306550,370.102971,-995.924147
864.496627,-8734.430116,74.020594,-306.438199
864.496947,-8364.327145,74.020594,0.000000
864.497268,-9400.615463,0.000000,1302.362347
864.497589,-9548.656652,-444.123565,1532.190996
864.497910,-10214.842000,-370.102971,1378.971896
864.498231,-10362.883188,-592.164754,2068.457845
864.498551,-10066.800811,0.000000,1991.848295
864.498872,-9770.718434,0.000000,1302.362347
864.499193,-9326.594869,-592.164754,76.609550
864.499514,-8956.491898,-814.226536,-1149.143247
864.499835,-9104.533087,-814.226536,-1149.143247
864.500155,-8956.491898,-592.164754,-919.314598
864.500476,-9326.594869,518.144159,306.438199
864.500797,-9844.739029,518.144159,1532.190996
864.501118,-9770.718434,0.000000,1455.581446
864.501439,-9992.780217,-592.164754,1915.238745
864.501759,-10436.903782,-962.267725,1838.629195
864.502080,-10066.800811,-888.247130,1915.238745
864.502401,-10140.821405,-518.144159,1838.629195
864.502722,-9622.677246,-296.082377,919.314598
864.503043,-9474.636058,-222.061783,-306.438199
864.503363,-9400.615463,444.123565,-1455.581446
864.503684,-9252.574275,296.082377,0.000000
864.504005,-9326.594869,814.226536,1149.143247
864.504326,-9918.759623,74.020594,1991.848295
864.504647,-10140.821405,-370.102971,2451.505594
864.504967,-10955.047942,-1332.370696,2528.115143
864.505288,-10436.903782,-1628.453072,2298.286494
864.505609,-10140.821405,-740.205942,2068.457845
864.505930,-9844.739029,-296.082377,1991.848295
864.506251,-9178.553681,-518.144159,1455.581446
864.506571,-9178.553681,-888.247130,0.000000
864.506892,-8882.471304,-666.185348,-689.485948
864.507213,-9030.512492,-1036.288319,-842.705048
864.507534,-8956.491898,444.123565,-536.266849
864.507855,-9622.677246,-518.144159,1762.019645
864.508175,-9622.677246,-888.247130,2451.505594
864.508496,-10436.903782,-1480.411884,1991.848295
864.508817,-10140.821405,-1406.391290,2374.896044
864.509138,-10362.883188,-592.164754,2145.067394
864.509459,-9992.780217,0.000000,2374.896044
864.509779,-9548.656652,444.123565,1455.581446
864.510100,-8882.471304,0.000000,229.828649
864.510421,-7846.182985,-148.041188,-612.876398
864.510742,-8734.430116,-444.123565,-766.095498
864.511063,-8882.471304,74.020594,689.485948
864.511383,-9548.656652,0.000000,1608.800546
864.511704,-9844.739029,-370.102971,4366.744339
864.512025,-9918.759623,-666.185348,1608.800546
864.512346,-10214.842000,-814.226536,1225.752797
864.512667,-10362.883188,-592.164754,1302.362347
864.512987,-9622.677246,0.000000,1072.533697
864.513308,-9622.677246,-592.164754,459.657299
864.513629,-9178.553681,-592.164754,-459.657299
864.513950,-9178.553681,-444.123565,-995.924147
864.514271,-9474.636058,148.041188,-536.266849
864.514591,-9326.594869,1110.308913,689.485948
864.514912,-9844.739029,740.205942,1608.800546
864.515233,-9770.718434,222.061783,2145.067394
864.515554,-9992.780217,0.000000,1838.629195
864.515875,-11177.109724,296.082377,1685.410096
864.516195,-10140.821405,222.061783,2145.067394
864.516516,-9696.697840,962.267725,2374.896044
864.516837,-9770.718434,444.123565,1149.143247
864.517158,-9252.574275,0.000000,0.000000
864.517479,-8882.471304,-222.061783,-612.876398
864.517799,-9252.574275,0.000000,-383.047749
864.518120,-9474.636058,444.123565,919.314598
864.518441,-9918.759623,518.144159,2298.286494
864.518762,-10436.903782,0.000000,2604.724693
864.519083,-10436.903782,-222.061783,2451.505594
864.519403,-10436.903782,-740.205942,2145.067394
864.519724,-9918.759623,-888.247130,2374.896044
864.520045,-10288.862594,-814.226536,2451.505594
864.520366,-9252.574275,-814.226536,536.266849
864.520687,-9030.512492,-888.247130,-153.219100
864.521007,-8660.409521,-592.164754,-919.314598
864.521328,-8956.491898,-296.082377,-536.266849
864.521649,-8660.409521,148.041188,229.828649
864.521970,-8956.491898,0.000000,689.485948
864.522291,-9252.574275,0.000000,995.924147
864.522611,-9622.677246,-1258.350101,1225.752797
864.522932,-9844.739029,-1036.288319,1838.629195
864.523253,-9992.780217,-888.247130,1762.019645
864.523574,-9992.780217,-370.102971,2145.067394
864.523895,-9474.636058,296.082377,2068.457845
864.524215,-9178.553681,0.000000,3294.210641
864.524536,-9030.512492,-370.102971,383.047749
864.524857,-9252.574275,-444.123565,766.095498
864.525178,-9548.656652,-148.041188,1532.190996
864.525499,-9696.697840,-148.041188,2528.115143
864.525819,-10436.903782,-518.144159,3064.381992
864.526140,-9844.739029,-888.247130,2757.943793
864.526461,-10140.821405,-1258.350101,2068.457845
864.526782,-9918.759623,-666.185348,1762.019645
864.527103,-9622.677246,-444.123565,1225.752797
864.527423,-9252.574275,0.000000,536.266849
864.527744,-9474.636058,-444.123565,306.438199
864.528065,-9474.636058,-1036.288319,-766.095498
864.528386,-8142.265362,-888.247130,1455.581446
864.528707,-9548.656652,-740.205942,153.219100
864.529027,-9548.656652,0.000000,1455.581446
864.529348,-10214.842000,-370.102971,2068.457845
864.529669,-10288.862594,-666.185348,1991.848295
864.529990,-9992.780217,-888.247130,1149.143247
864.530311,-10140.821405,-1110.308913,1302.362347
864.530631,-9844.739029,-296.082377,1455.581446
864.530952,-10140.821405,-222.061783,919.314598
864.531273,-9696.697840,-222.061783,-995.924147
864.531594,-8586.388927,-296.082377,-1072.533697
864.531915,-8808.450710,0.000000,-459.657299
864.532235,-9474.636058,296.082377,689.485948
864.532556,-9030.512492,-296.082377,3370.820191
864.532877,-10288.862594,-666.185348,2604.724693
864.533198,-9844.739029,-1110.308913,2145.067394
864.533519,-9992.780217,-888.247130,2068.457845
864.533839,-9770.718434,-296.082377,1608.800546
864.534160,-9622.677246,296.082377,1915.238745
864.534481,-9252.574275,370.102971,1149.143247
864.534802,-9178.553681,-740.205942,-153.219100
864.535123,-8882.471304,-1332.370696,-612.876398
864.535443,-9696.697840,-740.205942,-459.657299
864.535764,-8956.491898,0.000000,76.609550
864.536085,-9696.697840,444.123565,1608.800546
864.536406,-9400.615463,518.144159,2298.286494
864.536727,-10436.903782,0.000000,1608.800546
864.537047,-9992.780217,-962.267725,1915.238745
864.537368,-9992.780217,-1332.370696,1685.410096
864.537689,-9770.718434,-1184.329507,1685.410096
864.538010,-9474.636058,-666.185348,919.314598
864.538331,-9030.512492,-444.123565,0.000000
864.538651,-8734.430116,74.020594,-766.095498
864.538972,-9252.574275,370.102971,-459.657299
864.539293,-9622.677246,74.020594,612.876398
864.539614,-9770.718434,0.000000,1762.019645
864.539935,-10214.842000,-1480.411884,2221.676944
864.540255,-10066.800811,-1554.432478,2221.676944
864.540576,-10807.006753,-1110.308913,2068.457845
864.540897,-11103.089130,740.205942,3600.648841
864.541218,-10362.883188,74.020594,2451.505594
864.541539,-10140.821405,74.020594,1455.581446
864.541859,-9696.697840,-74.020594,76.609550
864.542180,-9622.677246,0.000000,-689.485948
864.542501,-9548.656652,962.267725,-536.266849
864.542822,-9030.512492,1480.411884,-153.219100
864.543143,-9030.512492,1184.329507,459.657299
864.543463,-9178.553681,0.000000,689.485948
864.543784,-9252.574275,-1332.370696,153.219100
864.544105,-9992.780217,-1998.556043,842.705048
864.544426,-9548.656652,-814.226536,1838.629195
864.544747,-10288.862594,222.061783,2681.334243
864.545067,-10807.006753,1628.453072,4519.963438
864.545388,-9548.656652,-296.082377,1685.410096
864.545709,-9622.677246,-888.247130,306.438199
864.546030,-9400.615463,-962.267725,229.828649
864.546351,-8956.491898,-740.205942,536.266849
864.546671,-9548.656652,74.020594,1762.019645
864.546992,-8882.471304,0.000000,1762.019645
864.547313,-9030.512492,-666.185348,919.314598
864.547634,-9696.697840,-666.185348,1378.971896
864.547955,-9400.615463,-370.102971,-383.047749
864.548275,-9474.636058,-148.041188,1302.362347
864.548596,-9696.697840,0.000000,1225.752797
864.548917,-8734.430116,74.020594,306.438199
864.549238,-9474.636058,-370.102971,-689.485948
864.549559,-8882.471304,0.000000,-383.047749
864.549879,-8882.471304,518.144159,76.609550
864.550200,-9548.656652,0.000000,1302.362347
864.550521,-9474.636058,814.226536,1915.238745
864.550842,-10436.903782,222.061783,2221.676944
864.551163,-10436.903782,-814.226536,1762.019645
864.551483,-9696.697840,0.000000,2145.067394
864.551804,-10066.800811,-148.041188,1838.629195
864.552125,-9104.533087,222.061783,2987.772442
864.552446,-10214.842000,-296.082377,1302.362347
864.552767,-9178.553681,-370.102971,0.000000
864.553087,-9252.574275,0.000000,76.609550
864.553408,-9548.656652,370.102971,995.924147
864.553729,-9622.677246,666.185348,1838.629195
864.554050,-10288.862594,-222.061783,2145.067394
864.554371,-9770.718434,-962.267725,2068.457845
864.554691,-10288.862594,-1184.329507,1608.800546
864.555012,-9992.780217,-888.247130,1838.629195
864.555333,-10066.800811,0.000000,2068.457845
864.555654,-9918.759623,0.000000,1455.581446
864.555975,-9252.574275,-814.226536,0.000000
864.556295,-8956.491898,0.000000,0.000000
864.556616,-9252.574275,-1036.288319,-383.047749
864.556937,-9252.574275,-444.123565,842.705048
864.557258,-9770.718434,0.000000,1838.629195
864.557579,-9474.636058,-444.123565,1532.190996
864.557899,-9474.636058,-740.205942,1378.971896
864.558220,-9770.718434,-518.144159,1762.019645
864.558541,-10214.842000,-666.185348,1455.581446
864.558862,-9622.677246,-296.082377,1608.800546
864.559183,-9696.697840,0.000000,1149.143247
864.559503,-8660.409521,-518.144159,0.000000
864.559824,-9030.512492,-1332.370696,-153.219100
864.560145,-8512.368333,-1406.391290,-612.876398
864.560466,-8438.347739,-370.102971,-689.485948
864.560787,-9104.533087,74.020594,1378.971896
864.561107,-9844.739029,148.041188,2451.505594
864.561428,-10214.842000,-814.226536,2681.334243
864.561749,-10362.883188,-1998.556043,1685.410096
864.562070,-9474.636058,-1480.411884,1532.190996
864.562391,-9992.780217,-1258.350101,1915.238745
864.562711,-9770.718434,-962.267725,1302.362347
864.563032,-9252.574275,-444.123565,383.047749
864.563353,-9326.594869,0.000000,-1378.971896
864.563674,-9104.533087,-222.061783,-766.095498
864.563995,-9474.636058,296.082377,0.000000
864.564315,-9918.759623,592.164754,1455.581446
864.564636,-9992.780217,296.082377,1455.581446
864.564957,-10140.821405,-370.102971,2221.676944
864.565278,-9992.780217,-814.226536,1838.629195
864.565599,-10584.944971,-592.164754,1915.238745
864.565919,-10214.842000,0.000000,2528.115143
864.566240,-9844.739029,0.000000,1838.629195
864.566561,-9474.636058,0.000000,459.657299
864.566882,-9548.656652,0.000000,-459.657299
864.567203,-9252.574275,222.061783,-536.266849
864.567523,-8808.450710,814.226536,536.266849
864.567844,-9400.615463,592.164754,1302.362347
864.568165,-9622.677246,0.000000,2451.505594
864.568486,-10436.903782,-1184.329507,2451.505594
864.568807,-10362.883188,-1480.411884,2834.553343
864.569127,-10066.800811,-1332.370696,2221.676944
864.569448,-9770.718434,-222.061783,2068.457845
864.569769,-9474.636058,-148.041188,1685.410096
864.570090,-8808.450710,-148.041188,153.219100
864.570411,-8660.409521,-592.164754,-612.876398
864.570731,-8660.409521,-518.144159,-1378.971896
864.571052,-9178.553681,74.020594,0.000000
864.571373,-9326.594869,222.061783,1149.143247
864.571694,-9030.512492,-592.164754,1762.019645
864.572014,-9844.739029,-666.185348,2221.676944
864.572335,-10066.800811,-1110.308913,1762.019645
864.572656,-10140.821405,-1110.308913,1762.019645
864.572977,-9918.759623,-296.082377,1915.238745
864.573298,-9770.718434,-222.061783,1685.410096
864.573618,-8882.471304,-148.041188,0.000000
864.573939,-8956.491898,-592.164754,-1225.752797
864.574260,-8586.388927,-518.144159,-1302.362347
864.574581,-9178.553681,-148.041188,-459.657299
864.574901,-9400.615463,148.041188,1532.190996
864.575222,-10288.862594,0.000000,2834.553343
864.575543,-11029.068536,-740.205942,2911.162892
864.575864,-10510.924376,-1110.308913,2987.772442
864.576185,-10732.986159,-518.144159,2528.115143
864.576505,-9992.780217,-222.061783,1991.848295
864.576826,-9474.636058,444.123565,1762.019645
864.577147,-9474.636058,0.000000,229.828649
864.577468,-8586.388927,-814.226536,-1455.581446
864.577788,-9030.512492,-814.226536,-1149.143247
864.578109,-9400.615463,0.000000,0.000000
864.578430,-9770.718434,296.082377,1455.581446
864.578751,-9844.739029,370.102971,2451.505594
864.579072,-10732.986159,-296.082377,2604.724693
864.579392,-10881.027347,-1332.370696,1838.629195
864.579713,-10362.883188,-1110.308913,1762.019645
864.580034,-10140.821405,-1036.288319,3600.648841
864.580355,-9252.574275,-148.041188,995.924147
864.580675,-9622.677246,-444.123565,229.828649
864.580996,-8216.285956,518.144159,-1378.971896
864.581317,-8734.430116,740.205942,-766.095498
864.581638,-9252.574275,592.164754,0.000000
864.581959,-9400.615463,370.102971,995.924147
864.582279,-9622.677246,-888.247130,1378.971896
864.582600,-10140.821405,-1702.473667,1838.629195
864.582921,-9844.739029,-1480.411884,1225.752797
864.583242,-10140.821405,-888.247130,1762.019645
864.583563,-9622.677246,74.020594,1608.800546
864.583883,-9252.574275,74.020594,1072.533697
864.584204,-9178.553681,-1036.288319,842.705048
864.584525,-8586.388927,-1332.370696,-1225.752797
864.584846,-8734.430116,-1332.370696,-919.314598
864.585166,-8808.450710,-370.102971,0.000000
864.585487,-9104.533087,518.144159,1532.190996
864.585808,-9252.574275,296.082377,2374.896044
864.586129,-10066.800811,-148.041188,2528.115143
864.586450,-10140.821405,-296.082377,2374.896044
864.586770,-10732.986159,-518.144159,1838.629195
864.587091,-9918.759623,0.000000,1762.019645
864.587412,-9918.759623,0.000000,1302.362347
864.587733,-9178.553681,-518.144159,459.657299
864.588053,-8808.450710,-370.102971,-995.924147
864.588374,-8734.430116,0.000000,-766.095498
864.588695,-9252.574275,888.247130,0.000000
864.589016,-9548.656652,1036.288319,1378.971896
864.589337,-10436.903782,740.205942,2528.115143
864.589657,-10658.965565,-370.102971,2911.162892
864.589978,-10288.862594,-962.267725,2604.724693
864.590299,-10362.883188,-1036.288319,2298.286494
864.590620,-10066.800811,-666.185348,2145.067394
864.590940,-9844.739029,-370.102971,1762.019645
864.591261,-9474.636058,-518.144159,612.876398
864.591582,-9474.636058,-888.247130,-306.438199
864.591903,-9104.533087,-518.144159,-306.438199
864.592224,-9326.594869,222.061783,0.000000
864.592544,-9696.697840,518.144159,1378.971896
864.592865,-9696.697840,444.123565,1915.238745
864.593186,-9918.759623,-888.247130,2221.676944
864.593507,-9918.759623,-1332.370696,2145.067394
864.593827,-9844.739029,-1554.432478,2068.457845
864.594148,-9992.780217,-962.267725,2528.115143
864.594469,-9844.739029,-296.082377,2681.334243
864.594790,-9326.594869,-148.041188,1225.752797
864.595111,-9030.512492,-296.082377,0.000000
864.595431,-7624.121203,222.061783,-612.876398
864.595752,-9104.533087,-518.144159,76.609550
864.596073,-8586.388927,74.020594,842.705048
864.596394,-9326.594869,0.000000,1915.238745
864.596714,-9844.739029,-592.164754,2068.457845
864.597035,-10066.800811,-296.082377,1838.629195
864.597356,-10362.883188,-148.041188,1685.410096
864.597677,-9992.780217,444.123565,1608.800546
864.597998,-10066.800811,444.123565,1455.581446
864.598318,-9252.574275,-666.185348,306.438199
864.598639,-9030.512492,-1332.370696,-612.876398
864.598960,-8956.491898,-1332.370696,-995.924147
864.599281,-8956.491898,-888.247130,-612.876398
864.599602,-8216.285956,-740.205942,1378.971896
864.599922,-9326.594869,74.020594,1378.971896
864.600243,-10066.800811,-592.164754,1915.238745
864.600564,-10066.800811,-1702.473667,1302.362347
864.600885,-10214.842000,-1776.494261,1378.971896
864.601205,-10066.800811,-962.267725,1302.362347
864.601526,-10140.821405,0.000000,1838.629195
864.601847,-9992.780217,370.102971,919.314598
864.602168,-9548.656652,296.082377,0.000000
864.602489,-9326.594869,148.041188,229.828649
864.602809,-9400.615463,0.000000,612.876398
864.603130,-9696.697840,0.000000,1225.752797
864.603451,-10066.800811,-444.123565,1762.019645
864.603772,-10066.800811,-518.144159,2681.334243
864.604092,-9992.780217,-1184.329507,1838.629195
864.604413,-9770.718434,-962.267725,1302.362347
864.604734,-9548.656652,0.000000,1685.410096
864.605055,-10214.842000,518.144159,1685.410096
864.605376,-9400.615463,740.205942,919.314598
864.605696,-9548.656652,0.000000,229.828649
864.606017,-9326.594869,-740.205942,0.000000
864.606338,-9326.594869,-296.082377,229.828649
864.606659,-9474.636058,-296.082377,2145.067394
864.606979,-9474.636058,0.000000,2298.286494
864.607300,-9548.656652,-666.185348,2145.067394
864.607621,-9918.759623,-518.144159,1762.019645
864.607942,-9326.594869,-370.102971,306.438199
864.608263,-9622.677246,0.000000,1762.019645
864.608583,-9548.656652,-74.020594,1762.019645
864.608904,-9326.594869,-666.185348,842.705048
864.609225,-9178.553681,-1480.411884,-306.438199
864.609546,-9030.512492,-1258.350101,-459.657299
864.609866,-9104.533087,-592.164754,-306.438199
864.610187,-9326.594869,74.020594,1378.971896
864.610508,-10066.800811,0.000000,2298.286494
864.610829,-9696.697840,-518.144159,2528.115143
864.611150,-10510.924376,-1332.370696,2068.457845
864.611470,-10066.800811,-1332.370696,1685.410096
864.611791,-9918.759623,-1036.288319,1225.752797
864.612112,-9030.512492,-1258.350101,2221.676944
864.612433,-9252.574275,-666.185348,229.828649
864.612753,-8808.450710,-740.205942,-766.095498
864.613074,-9252.574275,-666.185348,-1378.971896
864.613395,-9474.636058,370.102971,-459.657299
864.613716,-10140.821405,1036.288319,995.924147
864.614037,-10140.821405,1702.473667,1915.238745
864.614357,-10066.800811,962.267725,2068.457845
864.614678,-10362.883188,-222.061783,2145.067394
864.614999,-10510.924376,-444.123565,1532.190996
864.615320,-10214.842000,-370.102971,1762.019645
864.615640,-9844.739029,-222.061783,1608.800546
864.615961,-9400.615463,-148.041188,612.876398
864.616282,-9474.636058,518.144159,-2068.457845
864.616603,-9030.512492,0.000000,-766.095498
864.616924,-9178.553681,444.123565,-76.609550
864.617244,-9326.594869,814.226536,1455.581446
864.617565,-9992.780217,0.000000,2374.896044
864.617886,-9918.759623,-1036.288319,2681.334243
864.618207,-9844.739029,-1924.535449,1532.190996
864.618528,-9992.780217,-1998.556043,1762.019645
864.618848,-9696.697840,-814.226536,1685.410096
864.619169,-9844.739029,-740.205942,1072.533697
864.619490,-8956.491898,0.000000,919.314598
864.619811,-8882.471304,-592.164754,-383.047749
864.620131,-9030.512492,-592.164754,-766.095498
864.620452,-9844.739029,-518.144159,-153.219100
864.620773,-9252.574275,222.061783,1378.971896
864.621094,-9548.656652,74.020594,2374.896044
864.621415,-9770.718434,-148.041188,2834.553343
864.621735,-9696.697840,-814.226536,2451.505594
864.622056,-8808.450710,-148.041188,1225.752797
864.622377,-9548.656652,0.000000,1302.362347
864.622698,-9770.718434,1554.432478,1532.190996
864.623018,-9474.636058,666.185348,1072.533697
864.623339,-8364.327145,-370.102971,-229.828649
864.623660,-8660.409521,222.061783,-383.047749
864.623981,-9400.615463,-148.041188,612.876398
864.624302,-9474.636058,518.144159,2221.676944
864.624622,-10140.821405,0.000000,1838.629195
864.624943,-10140.821405,-148.041188,2911.162892
864.625264,-9992.780217,-740.205942,2528.115143
864.625585,-10510.924376,-1110.308913,1838.629195
864.625905,-9770.718434,-666.185348,2298.286494
864.626226,-10140.821405,-444.123565,1302.362347
864.626547,-9548.656652,-222.061783,536.266849
864.626868,-9326.594869,-1036.288319,-612.876398
864.627189,-9992.780217,-740.205942,-1072.533697
864.627509,-8586.388927,-592.164754,0.000000
864.627830,-9548.656652,-74.020594,229.828649
864.628151,-9844.739029,148.041188,1608.800546
864.628472,-9622.677246,-222.061783,1608.800546
864.628792,-10288.862594,148.041188,2834.553343
864.629113,-9992.780217,-518.144159,1838.629195
864.629434,-9992.780217,-296.082377,2145.067394
864.629755,-9992.780217,-296.082377,1685.410096
864.630076,-9474.636058,-962.267725,689.485948
864.630396,-9178.553681,-1184.329507,-612.876398
864.630717,-8882.471304,-666.185348,-995.924147
864.631038,-9104.533087,-148.041188,-459.657299
864.631359,-9030.512492,888.247130,919.314598
864.631679,-9474.636058,222.061783,2298.286494
864.632000,-10066.800811,-666.185348,1838.629195
864.632321,-9844.739029,-1628.453072,1225.752797
864.632642,-10214.842000,-1924.535449,1378.971896
864.632963,-9548.656652,-1036.288319,1608.800546
864.633283,-9992.780217,0.000000,1915.238745
864.633604,-9696.697840,-888.247130,1149.143247
864.633925,-8512.368333,-962.267725,-153.219100
864.634246,-9104.533087,-1628.453072,-842.705048
864.634567,-8956.491898,-962.267725,-612.876398
864.634887,-9104.533087,0.000000,612.876398
864.635208,-9474.636058,148.041188,1762.019645
864.635529,-9474.636058,0.000000,2145.067394
864.635850,-10214.842000,-1036.288319,2298.286494
864.636170,-10362.883188,-1184.329507,2451.505594
864.636491,-10362.883188,-592.164754,2528.115143
864.636812,-10214.842000,-370.102971,2451.505594
864.637133,-9622.677246,-888.247130,3677.258390
864.637454,-9326.594869,0.000000,229.828649
864.637774,-8882.471304,222.061783,-612.876398
864.638095,-9030.512492,518.144159,-383.047749
864.638416,-9178.553681,888.247130,536.266849
864.638737,-9474.636058,592.164754,1915.238745
864.639057,-10362.883188,-148.041188,2221.676944
864.639378,-10140.821405,-740.205942,2145.067394
864.639699,-10436.903782,-1110.308913,2145.067394
864.640020,-9770.718434,-592.164754,1838.629195
864.640341,-9918.759623,-518.144159,2145.067394
864.640661,-9622.677246,-518.144159,1302.362347
864.640982,-9326.594869,-1036.288319,0.000000
864.641303,-8438.347739,-740.205942,153.219100
864.641624,-9326.594869,0.000000,0.000000
864.641944,-9326.594869,222.061783,689.485948
864.642265,-9326.594869,0.000000,1225.752797
864.642586,-9622.677246,-444.123565,1455.581446
864.642907,-9696.697840,-1332.370696,1915.238745
864.643228,-9992.780217,-1110.308913,1685.410096
864.643548,-9992.780217,-740.205942,1838.629195
864.643869,-9696.697840,74.020594,1915.238745
864.644190,-8882.471304,444.123565,1072.533697
864.644511,-8956.491898,-296.082377,0.000000
864.644831,-9104.533087,-296.082377,-612.876398
864.645152,-9474.636058,0.000000,612.876398
864.645473,-9326.594869,-888.247130,229.828649
864.645794,-7772.162391,-296.082377,1072.533697
864.646115,-10362.883188,-814.226536,1302.362347
864.646435,-9622.677246,-370.102971,2068.457845
864.646756,-9992.780217,-1110.308913,1225.752797
864.647077,-10807.006753,222.061783,2528.115143
864.647398,-9252.574275,370.102971,76.609550
864.647718,-10066.800811,222.061783,766.095498
864.648039,-9252.574275,-592.164754,0.000000
864.648360,-9104.533087,-888.247130,-1455.581446
864.648681,-9178.553681,-740.205942,-1762.019645
864.649002,-8734.430116,148.041188,153.219100
864.649322,-9770.718434,370.102971,995.924147
864.649643,-10510.924376,0.000000,2298.286494
864.649964,-10066.800811,-518.144159,2451.505594
864.650285,-10436.903782,-888.247130,1915.238745
864.650606,-10510.924376,-1110.308913,2145.067394
864.650926,-9844.739029,-740.205942,1838.629195
864.651247,-9622.677246,-740.205942,1378.971896
864.651568,-9474.636058,-370.102971,76.609550
864.651889,-8882.471304,148.041188,-229.828649
864.652209,-8956.491898,444.123565,-383.047749
864.652530,-9474.636058,1036.288319,1685.410096
864.652851,-9992.780217,888.247130,919.314598
864.653172,-10140.821405,518.144159,2757.943793
864.653493,-10436.903782,-1110.308913,2528.115143
864.653813,-9696.697840,-814.226536,2298.286494
864.654134,-10510.924376,-1554.432478,1991.848295
864.654455,-9400.615463,-518.144159,2298.286494
864.654776,-9326.594869,-1258.350101,612.876398
864.655096,-8364.327145,-814.226536,-153.219100
864.655417,-8660.409521,-1110.308913,-995.924147
864.655738,-8512.368333,-740.205942,-459.657299
864.656059,-9474.636058,-222.061783,459.657299
864.656380,-9178.553681,-222.061783,1608.800546
864.656700,-9918.759623,-666.185348,2145.067394
864.657021,-9770.718434,-740.205942,153.219100
864.657342,-10214.842000,-666.185348,1838.629195
864.657663,-9770.718434,74.020594,2068.457845
864.657983,-9548.656652,888.247130,2068.457845
864.658304,-9400.615463,592.164754,995.924147
864.658625,-8808.450710,444.123565,-919.314598
864.658946,-9104.533087,0.000000,-842.705048
864.659267,-9030.512492,148.041188,-689.485948
864.659587,-9252.574275,370.102971,612.876398
864.659908,-9400.615463,0.000000,689.485948
864.660229,-9918.759623,74.020594,1608.800546
864.660550,-10510.924376,-296.082377,2145.067394
864.660870,-10436.903782,-518.144159,2068.457845
864.661191,-10066.800811,0.000000,1532.190996
864.661512,-10362.883188,0.000000,1685.410096
864.661833,-9548.656652,148.041188,1532.190996
864.662154,-9474.636058,-444.123565,229.828649
864.662474,-9178.553681,-888.247130,-612.876398
864.662795,-9474.636058,-814.226536,-612.876398
864.663116,-9400.615463,-518.144159,383.047749
864.663437,-9548.656652,-148.041188,1532.190996
864.663757,-9918.759623,-296.082377,2298.286494
864.664078,-9992.780217,-888.247130,1378.971896
864.664399,-9992.780217,-1258.350101,1685.410096
864.664720,-10066.800811,-814.226536,2451.505594
864.665041,-10436.903782,-740.205942,2374.896044
864.665361,-9770.718434,-888.247130,1685.410096
864.665682,-9178.553681,-666.185348,536.266849
864.666003,-8882.471304,-370.102971,-612.876398
864.666324,-9030.512492,518.144159,-229.828649
864.666645,-9400.615463,814.226536,919.314598
864.666965,-9992.780217,888.247130,1838.629195
864.667286,-9918.759623,-592.164754,2145.067394
864.667607,-9696.697840,-1406.391290,1455.581446
864.667928,-10140.821405,-1554.432478,1608.800546
864.668249,-9992.780217,-592.164754,2451.505594
864.668569,-9992.780217,148.041188,2298.286494
864.668890,-9474.636058,518.144159,1378.971896
864.669211,-9178.553681,-592.164754,-306.438199
864.669532,-8956.491898,-962.267725,-919.314598
864.669853,-8956.491898,-814.226536,-459.657299
864.670174,-9474.636058,-296.082377,76.609550
864.670494,-9400.615463,0.000000,1072.533697
864.670815,-9400.615463,0.000000,1838.629195
864.671136,-9770.718434,-1702.473667,2987.772442
864.671457,-10066.800811,-1184.329507,2145.067394
864.671778,-10140.821405,-1554.432478,1762.019645
864.672099,-9844.739029,-518.144159,1838.629195
864.672419,-9770.718434,-296.082377,1838.629195
864.672740,-9178.553681,-296.082377,612.876398
864.673061,-9104.533087,-148.041188,0.000000
864.673382,-9030.512492,0.000000,0.000000
864.673703,-9252.574275,148.041188,842.705048
864.674024,-9178.553681,-518.144159,1378.971896
864.674344,-10288.862594,-370.102971,2145.067394
864.674665,-10584.944971,-740.205942,2298.286494
864.674986,-10362.883188,-444.123565,1838.629195
864.675307,-9992.780217,-444.123565,1685.410096
864.675628,-10066.800811,-222.061783,1608.800546
864.675949,-9770.718434,0.000000,842.705048
864.676269,-9400.615463,-296.082377,-383.047749
864.676590,-8956.491898,-296.082377,-1149.143247
864.676911,-7920.203579,0.000000,612.876398
864.677232,-9252.574275,518.144159,76.609550
864.677553,-9474.636058,444.123565,1072.533697
864.677874,-9770.718434,-148.041188,1532.190996
864.678194,-9326.594869,-1332.370696,919.314598
864.678515,-9474.636058,-1332.370696,76.609550
864.678836,-9992.780217,-888.247130,1149.143247
864.679157,-9696.697840,370.102971,1302.362347
864.679478,-9474.636058,518.144159,1072.533697
864.679799,-9178.553681,0.000000,383.047749
864.680119,-8882.471304,-222.061783,-766.095498
864.680440,-9326.594869,-370.102971,76.609550
864.680761,-9548.656652,0.000000,1685.410096
864.681082,-10288.862594,-370.102971,2987.772442
864.681403,-9918.759623,-962.267725,3370.820191
864.681724,-10140.821405,-1554.432478,3064.381992
864.682044,-9992.780217,-1258.350101,2221.676944
864.682365,-9992.780217,-1110.308913,2528.115143
864.682686,-9844.739029,0.000000,1302.362347
864.683007,-9104.533087,0.000000,612.876398
864.683328,-8586.388927,-666.185348,-689.485948
864.683649,-8734.430116,-740.205942,-842.705048
864.683969,-9474.636058,-888.247130,-842.705048
864.684290,-9104.533087,-222.061783,153.219100
864.684611,-9918.759623,518.144159,1991.848295
864.684932,-10658.965565,296.082377,2528.115143
864.685253,-10510.924376,0.000000,2604.724693
864.685574,-10732.986159,0.000000,2604.724693
864.685894,-10288.862594,74.020594,2145.067394
864.686215,-9770.718434,518.144159,1455.581446
864.686536,-10066.800811,370.102971,1762.019645
864.686857,-9178.553681,-222.061783,0.000000
864.687178,-8956.491898,-370.102971,-1302.362347
864.687499,-8808.450710,-444.123565,-383.047749
864.687819,-9326.594869,-222.061783,306.438199
864.688140,-8956.491898,-814.226536,1915.238745
864.688461,-10584.944971,-148.041188,2451.505594
864.688782,-10288.862594,-888.247130,1838.629195
864.689103,-10362.883188,-1258.350101,1838.629195
864.689424,-9918.759623,-1406.391290,1302.362347
864.689744,-9400.615463,-370.102971,1762.019645
864.690065,-9474.636058,-518.144159,1149.143247
864.690386,-8808.450710,-1184.329507,0.000000
864.690707,-8660.409521,-962.267725,-1225.752797
864.691028,-9400.615463,-592.164754,-1532.190996
864.691349,-9030.512492,222.061783,0.000000
864.691669,-9326.594869,222.061783,1455.581446
864.691990,-9622.677246,0.000000,1608.800546
864.692311,-8882.471304,0.000000,919.314598
864.692632,-10214.842000,-962.267725,1455.581446
864.692953,-9548.656652,0.000000,1915.238745
864.693274,-10066.800811,222.061783,2221.676944
864.693594,-9474.636058,-444.123565,1225.752797
864.693915,-8512.368333,74.020594,229.828649
864.694236,-9474.636058,0.000000,-459.657299
864.694557,-8808.450710,370.102971,-459.657299
864.694878,-9326.594869,888.247130,383.047749
864.695199,-9548.656652,666.185348,1838.629195
864.695519,-10140.821405,370.102971,2374.896044
864.695840,-10436.903782,0.000000,2374.896044
864.696161,-9844.739029,-592.164754,2298.286494
864.696482,-10066.800811,-296.082377,919.314598
864.696803,-9918.759623,0.000000,2068.457845
864.697124,-9770.718434,-740.205942,1072.533697
864.697444,-9178.553681,-888.247130,153.219100
864.697765,-9252.574275,-888.247130,-842.705048
864.698086,-9622.677246,74.020594,-612.876398
864.698407,-9474.636058,592.164754,306.438199
864.698728,-10362.883188,666.185348,1608.800546
864.699049,-10214.842000,222.061783,2451.505594
864.699369,-10214.842000,-1258.350101,2604.724693
864.699690,-10436.903782,-1258.350101,2451.505594
864.700011,-10510.924376,-1554.432478,2221.676944
864.700332,-10140.821405,-740.205942,2145.067394
864.700653,-8956.491898,-592.164754,2528.115143
864.700974,-9104.533087,-666.185348,229.828649
864.701294,-8882.471304,-740.205942,-612.876398
864.701615,-8882.471304,0.000000,-766.095498
864.701936,-8808.450710,740.205942,229.828649
864.702257,-9326.594869,592.164754,1608.800546
864.702578,-9548.656652,148.041188,2757.943793
864.702899,-9918.759623,-1332.370696,2604.724693
864.703219,-9918.759623,-2368.659014,2298.286494
864.703540,-9474.636058,-2072.576638,2451.505594
864.703861,-9548.656652,-1332.370696,2145.067394
864.704182,-9252.574275,-222.061783,1838.629195
864.704503,-9474.636058,0.000000,1455.581446
864.704824,-9252.574275,-814.226536,-536.266849
864.705144,-9252.574275,-962.267725,-612.876398
864.705465,-8882.471304,-962.267725,0.000000
864.705786,-8956.491898,0.000000,459.657299
864.706107,-9622.677246,74.020594,1302.362347
864.706428,-9844.739029,74.020594,1149.143247
864.706749,-9696.697840,0.000000,842.705048
864.707069,-9992.780217,-296.082377,1072.533697
864.707390,-9770.718434,74.020594,766.095498
864.707711,-10214.842000,-444.123565,383.047749
864.708032,-9474.636058,0.000000,0.000000
864.708353,-9178.553681,-148.041188,-842.705048
864.708674,-9030.512492,-296.082377,-766.095498
864.708994,-8956.491898,74.020594,306.438199
864.709315,-9844.739029,444.123565,1685.410096
864.709636,-9992.780217,222.061783,2145.067394
864.709957,-10140.821405,-888.247130,1915.238745
864.710278,-10436.903782,-1036.288319,1915.238745
864.710599,-9696.697840,-740.205942,1685.410096
864.710920,-10436.903782,296.082377,2145.067394
864.711240,-10140.821405,0.000000,2221.676944
864.711561,-9178.553681,-888.247130,153.219100
864.711882,-9474.636058,-1110.308913,0.000000
864.712203,-9400.615463,-888.247130,-383.047749
864.712524,-9400.615463,296.082377,306.438199
864.712845,-9326.594869,962.267725,1685.410096
864.713165,-9178.553681,592.164754,1378.971896
864.713486,-9696.697840,-148.041188,1991.848295
864.713807,-9844.739029,-962.267725,1762.019645
864.714128,-10288.862594,-962.267725,1915.238745
864.714449,-10214.842000,-370.102971,1915.238745
864.714770,-9622.677246,0.000000,2145.067394
864.715090,-9474.636058,-222.061783,842.705048
864.715411,-9104.533087,-148.041188,-153.219100
864.715732,-8882.471304,0.000000,-383.047749
864.716053,-8438.347739,148.041188,1302.362347
864.716374,-9178.553681,0.000000,1455.581446
864.716695,-9548.656652,-148.041188,2145.067394
864.717015,-9918.759623,-666.185348,2221.676944
864.717336,-9696.697840,-740.205942,919.314598
864.717657,-9622.677246,-592.164754,2145.067394
864.717978,-9622.677246,-296.082377,1915.238745
864.718299,-9548.656652,-518.144159,1378.971896
864.718620,-9104.533087,-592.164754,459.657299
864.718940,-9030.512492,-1036.288319,-766.095498
864.719261,-9474.636058,-740.205942,-459.657299
864.719582,-9474.636058,-592.164754,-229.828649
864.719903,-9474.636058,0.000000,536.266849
864.720224,-9992.780217,-740.205942,153.219100
864.720545,-10066.800811,-592.164754,1991.848295
864.720865,-9844.739029,-1184.329507,1838.629195
864.721186,-10436.903782,-1702.473667,1838.629195
864.721507,-10140.821405,-518.144159,1762.019645
864.721828,-9770.718434,-370.102971,1225.752797
864.722149,-9252.574275,-666.185348,536.266849
864.722470,-8586.388927,-1036.288319,-1608.800546
864.722790,-7920.203579,0.000000,-1762.019645
864.723111,-8734.430116,888.247130,-1072.533697
864.723432,-9474.636058,1998.556043,1532.190996
864.723753,-10584.944971,444.123565,2374.896044
864.724074,-9844.739029,0.000000,1915.238745
864.724395,-9918.759623,-888.247130,1762.019645
864.724715,-10658.965565,-962.267725,2374.896044
864.725036,-9992.780217,-296.082377,2451.505594
864.725357,-10066.800811,-444.123565,1532.190996
864.725678,-9770.718434,-1110.308913,1072.533697
864.725999,-8882.471304,-1258.350101,-689.485948
864.726320,-9400.615463,-1036.288319,0.000000
864.726640,-9252.574275,-1110.308913,153.219100
864.726961,-8808.450710,0.000000,842.705048
864.727282,-9474.636058,0.000000,2145.067394
864.727603,-9918.759623,-814.226536,1838.629195
864.727924,-9918.759623,-1184.329507,1915.238745
864.728245,-10732.986159,-1110.308913,2374.896044
864.728565,-9918.759623,0.000000,2145.067394
864.728886,-10066.800811,370.102971,1838.629195
864.729207,-9844.739029,370.102971,842.705048
864.729528,-8586.388927,222.061783,-383.047749
864.729849,-9252.574275,0.000000,-612.876398
864.730170,-8882.471304,0.000000,0.000000
864.730490,-9400.615463,222.061783,1072.533697
864.730811,-9844.739029,74.020594,2528.115143
864.731132,-10214.842000,-370.102971,2451.505594
864.731453,-10362.883188,-592.164754,2528.115143
864.731774,-10288.862594,-1184.329507,2068.457845
864.732095,-9622.677246,-444.123565,1685.410096
864.732415,-9696.697840,-592.164754,1149.143247
864.732736,-9770.718434,-592.164754,153.219100
864.733057,-9474.636058,-370.102971,-459.657299
864.733378,-8882.471304,-148.041188,-1225.752797
864.733699,-9104.533087,74.020594,-459.657299
864.734020,-9252.574275,0.000000,459.657299
864.734340,-9844.739029,-296.082377,1302.362347
864.734661,-10362.883188,-1258.350101,2298.286494
864.734982,-10140.821405,-1258.350101,1991.848295
864.735303,-10288.862594,-1480.411884,2068.457845
864.735624,-9696.697840,-444.123565,2374.896044
864.735945,-9474.636058,0.000000,1608.800546
864.736265,-9400.615463,-370.102971,229.828649
864.736586,-8438.347739,-666.185348,-689.485948
864.736907,-9104.533087,-444.123565,-1685.410096
864.737228,-8956.491898,-296.082377,0.000000
864.737549,-9918.759623,-370.102971,1225.752797
864.737870,-9400.615463,296.082377,2451.505594
864.738190,-10140.821405,-148.041188,2681.334243
864.738511,-10066.800811,-1036.288319,2298.286494
864.738832,-10066.800811,-370.102971,2068.457845
864.739153,-9918.759623,-740.205942,1762.019645
864.739474,-9400.615463,0.000000,919.314598
864.739795,-9252.574275,-148.041188,1072.533697
864.740115,-9252.574275,-592.164754,0.000000
864.740436,-9030.512492,-740.205942,-306.438199
864.740757,-9326.594869,-518.144159,-229.828649
864.741078,-9770.718434,-370.102971,1608.800546
864.741399,-9918.759623,0.000000,2068.457845
864.741720,-10362.883188,-222.061783,2145.067394
864.742040,-10214.842000,-666.185348,2221.676944
864.742361,-10584.944971,-148.041188,2221.676944
864.742682,-10066.800811,0.000000,2221.676944
864.743003,-10214.842000,-296.082377,1532.190996
864.743324,-9548.656652,-444.123565,919.314598
864.743645,-9400.615463,-962.267725,0.000000
864.743965,-9252.574275,-518.144159,-995.924147
864.744286,-9178.553681,-222.061783,-459.657299
864.744607,-9104.533087,444.123565,1225.752797
864.744928,-9770.718434,740.205942,2298.286494
864.745249,-10732.986159,1924.535449,1762.019645
864.745570,-10288.862594,0.000000,2068.457845
864.745890,-10288.862594,-444.123565,1991.848295
864.746211,-9992.780217,74.020594,1915.238745
864.746532,-9844.739029,-666.185348,1838.629195
864.746853,-8734.430116,-1036.288319,689.485948
864.747174,-8734.430116,-1702.473667,-842.705048
864.747495,-8660.409521,-1184.329507,-995.924147
864.747815,-9178.553681,74.020594,-229.828649
864.748136,-9252.574275,962.267725,536.266849
864.748457,-9474.636058,814.226536,1608.800546
864.748778,-9844.739029,0.000000,1685.410096
864.749099,-10066.800811,-962.267725,1608.800546
864.749420,-10214.842000,-1554.432478,76.609550
864.749740,-9770.718434,-962.267725,1762.019645
864.750061,-10066.800811,-814.226536,1915.238745
864.750382,-9178.553681,-296.082377,536.266849
864.750703,-8956.491898,-592.164754,-612.876398
864.751024,-8956.491898,-518.144159,-766.095498
864.751345,-8882.471304,0.000000,0.000000
864.751665,-9326.594869,0.000000,919.314598
864.751986,-9696.697840,-222.061783,1532.190996
864.752307,-9622.677246,-444.123565,2911.162892
864.752628,-10066.800811,-1554.432478,2068.457845
864.752949,-10140.821405,-1110.308913,1455.581446
864.753270,-9918.759623,-148.041188,1378.971896
864.753590,-9918.759623,0.000000,1532.190996
864.753911,-9844.739029,74.020594,842.705048
864.754232,-9622.677246,-444.123565,153.219100
864.754553,-9844.739029,-888.247130,383.047749
864.754874,-9992.780217,-1036.288319,766.095498
864.755195,-9622.677246,-444.123565,1302.362347
864.755516,-9992.780217,0.000000,2145.067394
864.755836,-9622.677246,222.061783,2145.067394
864.756157,-9548.656652,296.082377,1532.190996
864.756478,-9918.759623,888.247130,1455.581446
864.756799,-9622.677246,1258.350101,1072.533697
864.757120,-9844.739029,1110.308913,536.266849
864.757441,-9326.594869,814.226536,0.000000
864.757761,-9030.512492,0.000000,-1225.752797
864.758082,-8956.491898,-592.164754,-1378.971896
864.758403,-8882.471304,-814.226536,-995.924147
864.758724,-9030.512492,-222.061783,536.266849
864.759045,-9770.718434,-370.102971,1762.019645
864.759366,-10362.883188,-740.205942,2068.457845
864.759686,-10362.883188,-814.226536,2221.676944
864.760007,-10214.842000,-1406.391290,1915.238745
864.760328,-9474.636058,0.000000,2145.067394
864.760649,-9992.780217,-518.144159,1378.971896
864.760970,-9326.594869,-740.205942,1072.533697
864.761291,-8956.491898,-1332.370696,-306.438199
864.761611,-8734.430116,-1184.329507,-153.219100
864.761932,-8586.388927,-1480.411884,76.609550
864.762253,-8660.409521,370.102971,1225.752797
864.762574,-9178.553681,888.247130,1991.848295
864.762895,-9326.594869,592.164754,1991.848295
864.763216,-9696.697840,148.041188,2374.896044
864.763536,-10214.842000,-296.082377,2451.505594
864.763857,-10214.842000,-592.164754,2528.115143
864.764178,-9992.780217,0.000000,2145.067394
864.764499,-10362.883188,-592.164754,1915.238745
864.764820,-9252.574275,-666.185348,-766.095498
864.765141,-9474.636058,148.041188,76.609550
864.765461,-9400.615463,-296.082377,76.609550
864.765782,-8734.430116,1110.308913,919.314598
864.766103,-10436.903782,0.000000,2145.067394
864.766424,-10066.800811,-296.082377,1685.410096
864.766745,-10288.862594,-148.041188,1915.238745
864.767066,-10584.944971,-1110.308913,1685.410096
864.767386,-9474.636058,74.020594,2068.457845
864.767707,-10288.862594,-148.041188,1685.410096
864.768028,-9474.636058,-592.164754,995.924147
864.768349,-9622.677246,-1184.329507,-229.828649
864.768670,-9326.594869,-1332.370696,-229.828649
864.768991,-9326.594869,-592.164754,-842.705048
864.769311,-9770.718434,888.247130,1378.971896
864.769632,-9548.656652,740.205942,1991.848295
864.769953,-9696.697840,-148.041188,2221.676944
864.770274,-9770.718434,-1776.494261,3830.477490
864.770595,-10140.821405,-2146.597232,2145.067394
864.770916,-10066.800811,-962.267725,1838.629195
864.771236,-10140.821405,-222.061783,1915.238745
864.771557,-9770.718434,-222.061783,1532.190996
864.771878,-9474.636058,0.000000,-1685.410096
864.772199,-8808.450710,0.000000,-1302.362347
864.772520,-8808.450710,0.000000,-842.705048
864.772841,-8808.450710,370.102971,766.095498
864.773161,-9400.615463,-370.102971,1762.019645
864.773482,-9622.677246,-370.102971,1685.410096
864.773803,-10362.883188,-962.267725,1608.800546
864.774124,-9770.718434,-888.247130,1685.410096
864.774445,-9548.656652,-370.102971,459.657299
864.774766,-9400.615463,-444.123565,2068.457845
864.775086,-9474.636058,-592.164754,766.095498
864.775407,-9252.574275,-962.267725,0.000000
864.775728,-9030.512492,-1628.453072,-995.924147
864.776049,-9178.553681,-1184.329507,-689.485948
864.776370,-9178.553681,-518.144159,229.828649
864.776691,-9474.636058,0.000000,1455.581446
864.777011,-9918.759623,-370.102971,1915.238745
864.777332,-10214.842000,0.000000,2068.457845
864.777653,-9844.739029,-444.123565,1532.190996
864.777974,-10436.903782,148.041188,2068.457845
864.778295,-10436.903782,592.164754,2145.067394
864.778616,-9622.677246,592.164754,1685.410096
864.778937,-9548.656652,-518.144159,229.828649
864.779257,-8734.430116,-962.267725,-689.485948
864.779578,-9474.636058,-1110.308913,0.000000
864.779899,-9178.553681,-370.102971,919.314598
864.780220,-9918.759623,518.144159,2604.724693
864.780541,-9770.718434,222.061783,2374.896044
864.780862,-9696.697840,222.061783,1685.410096
864.781182,-10214.842000,296.082377,1991.848295
864.781503,-10214.842000,592.164754,2528.115143
864.781824,-9918.759623,-370.102971,2145.067394
864.782145,-9252.574275,-1480.411884,842.705048
864.782466,-9326.594869,-2442.679609,0.000000
864.782787,-9400.615463,-1258.350101,0.000000
864.783107,-9622.677246,-1110.308913,689.485948
864.783428,-9548.656652,222.061783,1762.019645
864.783749,-10066.800811,518.144159,2451.505594
864.784070,-9770.718434,0.000000,1991.848295
864.784391,-9696.697840,-740.205942,2145.067394
864.784712,-9770.718434,-1776.494261,1532.190996
864.785032,-9178.553681,-1554.432478,919.314598
864.785353,-9178.553681,-814.226536,1072.533697
864.785674,-8882.471304,-962.267725,0.000000
864.785995,-8734.430116,0.000000,0.000000
864.786316,-9030.512492,-296.082377,-919.314598
864.786637,-8882.471304,0.000000,-459.657299
864.786957,-9696.697840,296.082377,536.266849
864.787278,-9696.697840,148.041188,1991.848295
864.787599,-9992.780217,-370.102971,2145.067394
864.787920,-9844.739029,-1036.288319,1685.410096
864.788241,-9770.718434,-1776.494261,1225.752797
864.788562,-9474.636058,-814.226536,1072.533697
864.788882,-9696.697840,-222.061783,995.924147
864.789203,-9622.677246,74.020594,689.485948
864.789524,-9474.636058,-592.164754,-153.219100
864.789845,-9104.533087,-1036.288319,-229.828649
864.790166,-9844.739029,-1036.288319,-306.438199
864.790487,-9770.718434,-370.102971,689.485948
864.790808,-9770.718434,148.041188,2221.676944
864.791128,-9992.780217,-296.082377,2374.896044
864.791449,-9992.780217,-296.082377,1762.019645
864.791770,-10066.800811,-444.123565,1532.190996
864.792091,-9696.697840,370.102971,1225.752797
864.792412,-9918.759623,740.205942,1302.362347
864.792733,-9770.718434,888.247130,1302.362347
864.793053,-9474.636058,-740.205942,229.828649
864.793374,-9030.512492,-1110.308913,-229.828649
864.793695,-9696.697840,-1258.350101,-229.828649
864.794016,-9696.697840,-518.144159,2987.772442
864.794337,-9622.677246,0.000000,2145.067394
864.794658,-9992.780217,296.082377,2528.115143
864.794978,-9918.759623,518.144159,2451.505594
864.795299,-9992.780217,518.144159,1762.019645
864.795620,-9918.759623,370.102971,1608.800546
864.795941,-9474.636058,148.041188,1685.410096
864.796262,-9252.574275,-740.205942,1072.533697
864.796583,-8882.471304,-1480.411884,-383.047749
864.796903,-8660.409521,-1480.411884,76.609550
864.797224,-9252.574275,-740.205942,76.609550
864.797545,-9474.636058,444.123565,1532.190996
864.797866,-10140.821405,222.061783,2374.896044
864.798187,-10510.924376,1036.288319,1378.971896
864.798508,-9992.780217,-814.226536,2145.067394
864.798828,-9918.759623,-370.102971,2145.067394
864.799149,-10436.903782,-666.185348,2451.505594
864.799470,-10066.800811,296.082377,2834.553343
864.799791,-9770.718434,74.020594,1608.800546
864.800112,-8882.471304,666.185348,383.047749
864.800433,-9474.636058,0.000000,-689.485948
864.800753,-8882.471304,666.185348,-153.219100
864.801074,-9326.594869,740.205942,536.266849
864.801395,-9104.533087,666.185348,1072.533697
864.801716,-9918.759623,148.041188,2374.896044
864.802037,-10214.842000,-1184.329507,1532.190996
864.802358,-9696.697840,-592.164754,1991.848295
864.802679,-10658.965565,-296.082377,1378.971896
864.802999,-9770.718434,222.061783,1608.800546
864.803320,-9474.636058,-296.082377,689.485948
864.803641,-10066.800811,-296.082377,536.266849
864.803962,-9178.553681,-888.247130,-1225.752797
864.804283,-9622.677246,-518.144159,-612.876398
864.804604,-9326.594869,-222.061783,459.657299
864.804924,-9474.636058,0.000000,1149.143247
864.805245,-9770.718434,-444.123565,2834.553343
864.805566,-9474.636058,-888.247130,2068.457845
864.805887,-9918.759623,-1184.329507,1608.800546
864.806208,-10066.800811,-888.247130,2221.676944
864.806529,-9696.697840,-962.267725,766.095498
864.806849,-9474.636058,0.000000,995.924147
864.807170,-9400.615463,-296.082377,-153.219100
864.807491,-8660.409521,0.000000,-766.095498
864.807812,-9326.594869,-222.061783,-229.828649
864.808133,-9400.615463,-148.041188,383.047749
864.808454,-9844.739029,-296.082377,1532.190996
864.808774,-9844.739029,-518.144159,1991.848295
864.809095,-10510.924376,-1332.370696,2145.067394
864.809416,-10140.821405,-962.267725,2298.286494
864.809737,-9696.697840,-888.247130,1762.019645
864.810058,-9696.697840,-962.267725,1149.143247
864.810379,-9030.512492,-814.226536,229.828649
864.810699,-9696.697840,148.041188,-536.266849
864.811020,-9178.553681,-888.247130,-689.485948
864.811341,-9252.574275,-666.185348,-536.266849
864.811662,-9474.636058,-148.041188,612.876398
864.811983,-9548.656652,370.102971,1838.629195
864.812304,-9918.759623,-370.102971,2528.115143
864.812624,-10140.821405,-740.205942,2145.067394
864.812945,-9918.759623,-888.247130,2145.067394
864.813266,-10066.800811,-592.164754,1915.238745
864.813587,-10436.903782,-74.020594,1762.019645
864.813908,-9474.636058,0.000000,1685.410096
864.814229,-9104.533087,-296.082377,383.047749
864.814550,-9178.553681,-592.164754,-536.266849
864.814870,-8808.450710,-740.205942,-689.485948
864.815191,-9474.636058,296.082377,1225.752797
864.815512,-9918.759623,296.082377,1915.238745
864.815833,-9992.780217,0.000000,2528.115143
864.816154,-10214.842000,-518.144159,2451.505594
864.816475,-10362.883188,-444.123565,1685.410096
864.816795,-9770.718434,-296.082377,1685.410096
864.817116,-9622.677246,-222.061783,1302.362347
864.817437,-9474.636058,-592.164754,536.266849
864.817758,-8512.368333,-1110.308913,-153.219100
864.818079,-9178.553681,-1258.350101,-919.314598
864.818400,-9030.512492,-1036.288319,-612.876398
864.818720,-9104.533087,0.000000,459.657299
864.819041,-10214.842000,1036.288319,1608.800546
864.819362,-9770.718434,222.061783,2145.067394
864.819683,-9992.780217,-296.082377,2145.067394
864.820004,-9844.739029,-962.267725,1762.019645
864.820325,-9474.636058,-814.226536,1378.971896
864.820645,-9844.739029,0.000000,2221.676944
864.820966,-9992.780217,444.123565,1532.190996
864.821287,-8956.491898,222.061783,153.219100
864.821608,-8734.430116,0.000000,-919.314598
864.821929,-8956.491898,-222.061783,0.000000
864.822250,-9030.512492,-148.041188,383.047749
864.822570,-9696.697840,-222.061783,1608.800546
864.822891,-9770.718434,-666.185348,1685.410096
864.823212,-10436.903782,-1184.329507,1685.410096
864.823533,-10362.883188,-1332.370696,1838.629195
864.823854,-9992.780217,-814.226536,1532.190996
864.824175,-9844.739029,0.000000,1608.800546
864.824496,-9548.656652,0.000000,919.314598
864.824816,-9326.594869,-740.205942,76.609550
864.825137,-9326.594869,-888.247130,-383.047749
864.825458,-9400.615463,-888.247130,-536.266849
864.825779,-9252.574275,-222.061783,689.485948
864.826100,-9400.615463,0.000000,1762.019645
864.826421,-9770.718434,-296.082377,1915.238745
864.826741,-10140.821405,-814.226536,2145.067394
864.827062,-9992.780217,-518.144159,1991.848295
864.827383,-10066.800811,0.000000,2451.505594
864.827704,-9622.677246,666.185348,2145.067394
864.828025,-10066.800811,740.205942,1149.143247
864.828346,-9622.677246,370.102971,612.876398
864.828666,-9400.615463,74.020594,0.000000
864.828987,-9548.656652,-666.185348,0.000000
864.829308,-9104.533087,0.000000,842.705048
864.829629,-9696.697840,0.000000,2221.676944
864.829950,-9844.739029,0.000000,2528.115143
864.830271,-9696.697840,0.000000,2298.286494
864.830591,-9844.739029,-666.185348,1532.190996
864.830912,-9992.780217,0.000000,1685.410096
864.831233,-9770.718434,370.102971,1762.019645
864.831554,-10066.800811,296.082377,995.924147
864.831875,-8956.491898,-222.061783,153.219100
864.832196,-9474.636058,-888.247130,-459.657299
864.832516,-9252.574275,-814.226536,0.000000
864.832837,-9548.656652,-296.082377,1072.533697
864.833158,-9548.656652,148.041188,2145.067394
864.833479,-9548.656652,222.061783,2604.724693
864.833800,-9622.677246,-444.123565,2298.286494
864.834121,-9548.656652,-444.123565,2528.115143
864.834441,-9770.718434,-888.247130,1455.581446
864.834762,-8956.491898,-444.123565,1685.410096
864.835083,-9326.594869,-222.061783,842.705048
864.835404,-9252.574275,-740.205942,-383.047749
864.835725,-7550.100608,-1406.391290,-1378.971896
864.836046,-8068.244768,592.164754,-1302.362347
864.836367,-8808.450710,222.061783,-306.438199
864.836687,-8956.491898,1406.391290,689.485948
864.837008,-10510.924376,-222.061783,1915.238745
864.837329,-9548.656652,-962.267725,1072.533697
864.837650,-10288.862594,-592.164754,2145.067394
864.837971,-10732.986159,-740.205942,1915.238745
864.838292,-9696.697840,666.185348,2221.676944
864.838612,-9474.636058,-962.267725,2221.676944
864.838933,-9030.512492,-1184.329507,229.828649
864.839254,-9696.697840,-1480.411884,-383.047749
864.839575,-9474.636058,-1776.494261,-536.266849
864.839896,-9252.574275,-666.185348,-383.047749
864.840217,-9326.594869,1184.329507,1378.971896
864.840537,-9696.697840,1184.329507,2451.505594
864.840858,-9992.780217,444.123565,2374.896044
864.841179,-10436.903782,-666.185348,2298.286494
864.841500,-9770.718434,-1184.329507,2068.457845
864.841821,-10214.842000,-666.185348,2068.457845
864.842142,-9844.739029,-518.144159,1915.238745
864.842462,-9474.636058,-370.102971,995.924147
864.842783,-9178.553681,74.020594,766.095498
864.843104,-9400.615463,-222.061783,459.657299
864.843425,-9474.636058,0.000000,766.095498
864.843746,-9622.677246,0.000000,1685.410096
864.844067,-10658.965565,-814.226536,3064.381992
864.844387,-9992.780217,-1110.308913,2451.505594
864.844708,-10066.800811,-1406.391290,2298.286494
864.845029,-9696.697840,-1036.288319,1532.190996
864.845350,-9474.636058,0.000000,1532.190996
864.845671,-9622.677246,-222.061783,1455.581446
864.845992,-9326.594869,-592.164754,689.485948
864.846312,-9400.615463,-1332.370696,-612.876398
864.846633,-9326.594869,-1258.350101,-536.266849
864.846954,-9104.533087,-370.102971,306.438199
864.847275,-9326.594869,0.000000,1532.190996
864.847596,-9474.636058,-296.082377,1915.238745
864.847917,-9474.636058,-814.226536,1685.410096
864.848238,-9400.615463,-296.082377,1302.362347
864.848558,-10066.800811,-814.226536,1532.190996
864.848879,-9770.718434,222.061783,1991.848295
864.849200,-9918.759623,74.020594,1608.800546
864.849521,-9400.615463,222.061783,689.485948
864.849842,-9622.677246,0.000000,-229.828649
864.850163,-9326.594869,0.000000,-229.828649
864.850483,-9326.594869,-222.061783,689.485948
864.850804,-9696.697840,296.082377,1685.410096
864.851125,-9770.718434,296.082377,2604.724693
864.851446,-9918.759623,0.000000,1532.190996
864.851767,-9844.739029,148.041188,1149.143247
864.852088,-9992.780217,370.102971,1149.143247
864.852408,-10436.903782,1036.288319,1685.410096
864.852729,-9474.636058,666.185348,1149.143247
864.853050,-9400.615463,-814.226536,-383.047749
