#time,accel_x,accel_y,accel_z
1031.331496,-9548.656652,-370.102971,1149.143247
1031.331817,-9622.677246,0.000000,689.485948
1031.332137,-9474.636058,-370.102971,919.314598
1031.332458,-9622.677246,-444.123565,919.314598
1031.332779,-9474.636058,-370.102971,1225.752797
1031.333100,-9474.636058,0.000000,1072.533697
1031.333420,-9104.533087,-222.061783,1302.362347
1031.333741,-9474.636058,-592.164754,919.314598
1031.334062,-9548.656652,-444.123565,1149.143247
1031.334382,-9548.656652,-296.082377,919.314598
1031.334703,-9252.574275,0.000000,-306.438199
1031.335024,-9474.636058,-222.061783,1072.533697
1031.335345,-9696.697840,-370.102971,766.095498
1031.335665,-9696.697840,-296.082377,689.485948
1031.335986,-9474.636058,-444.123565,1225.752797
1031.336307,-9770.718434,-370.102971,1302.362347
1031.336627,-9400.615463,-740.205942,1225.752797
1031.336948,-9770.718434,-518.144159,1072.533697
1031.337269,-9770.718434,-296.082377,1455.581446
1031.337590,-9622.677246,-592.164754,536.266849
1031.337910,-9696.697840,-518.144159,1072.533697
1031.338231,-9400.615463,-518.144159,1072.533697
1031.338552,-9844.739029,-740.205942,1072.533697
1031.338872,-9400.615463,-1036.288319,1072.533697
1031.339193,-9474.636058,-1184.329507,306.438199
1031.339514,-9474.636058,-888.247130,306.438199
1031.339835,-9770.718434,-962.267725,459.657299
1031.340155,-9548.656652,-1110.308913,536.266849
1031.340476,-9326.594869,-962.267725,0.000000
1031.340797,-9770.718434,-740.205942,-229.828649
1031.341117,-9696.697840,-814.226536,0.000000
1031.341438,-9696.697840,-740.205942,229.828649
1031.341759,-9696.697840,-1110.308913,76.609550
1031.342080,-9622.677246,-888.247130,-995.924147
1031.342400,-9400.615463,-962.267725,-689.485948
1031.342721,-9548.656652,-1480.411884,-459.657299
1031.343042,-9326.594869,-1110.308913,-689.485948
1031.343362,-9326.594869,-1554.432478,-1072.533697
1031.343683,-9474.636058,-1850.514855,-1532.190996
1031.344004,-9400.615463,-1998.556043,-2374.896044
1031.344325,-9474.636058,-2294.638420,-2451.505594
1031.344645,-9474.636058,-2516.700203,-3217.601092
1031.344966,-9400.615463,-2442.679609,-3217.601092
1031.345287,-9770.718434,-2664.741391,-3983.696590
1031.345607,-9548.656652,-2220.617826,-3830.477490
1031.345928,-9622.677246,-2590.720797,-4519.963438
1031.346249,-9548.656652,-2812.782580,-3753.867940
1031.346569,-9770.718434,-3404.947333,-3447.429741
1031.346890,-9696.697840,-3923.091493,-2987.772442
1031.347211,-9622.677246,-4959.379811,-2374.896044
1031.347532,-9400.615463,-4959.379811,-2757.943793
1031.347852,-9178.553681,-5107.421000,-2528.115143
1031.348173,-9474.636058,-4885.359217,-2374.896044
1031.348494,-9326.594869,-4441.235652,-3524.039291
1031.348814,-9252.574275,-4145.153275,-2757.943793
1031.349135,-9326.594869,-4071.132681,-2451.505594
1031.349456,-9326.594869,-3849.070898,-2451.505594
1031.349777,-9474.636058,-3997.112087,-2145.067394
1031.350097,-9622.677246,-3923.091493,-1608.800546
1031.350418,-9548.656652,-4071.132681,-1991.848295
1031.350739,-9844.739029,-4071.132681,-1302.362347
1031.351059,-9622.677246,-4071.132681,-459.657299
1031.351380,-9770.718434,-4145.153275,-229.828649
1031.351701,-9992.780217,-3627.009116,1378.971896
1031.352022,-9992.780217,-4071.132681,1838.629195
1031.352342,-9622.677246,-4293.194464,1608.800546
1031.352663,-9474.636058,-3997.112087,995.924147
1031.352984,-9474.636058,-3552.988522,229.828649
1031.353304,-8808.450710,-3330.926739,153.219100
1031.353625,-9030.512492,-2738.761985,-383.047749
1031.353946,-9104.533087,-2738.761985,-842.705048
1031.354267,-9326.594869,-2516.700203,-1149.143247
1031.354587,-10214.842000,-2664.741391,-842.705048
1031.354908,-10510.924376,-2590.720797,-229.828649
1031.355229,-10881.027347,-2886.803174,0.000000
1031.355549,-11029.068536,-2886.803174,0.000000
1031.355870,-10362.883188,-3330.926739,-306.438199
1031.356191,-9918.759623,-3108.864956,-459.657299
1031.356512,-9770.718434,-3034.844362,-306.438199
1031.356832,-9252.574275,-2220.617826,0.000000
1031.357153,-9400.615463,-1628.453072,612.876398
1031.357474,-9474.636058,-962.267725,1149.143247
1031.357794,-9400.615463,-1110.308913,919.314598
1031.358115,-9400.615463,-888.247130,76.609550
1031.358436,-9252.574275,-1110.308913,-612.876398
1031.358756,-8956.491898,-1628.453072,-1532.190996
1031.359077,-8734.430116,-1924.535449,-2451.505594
1031.359398,-8882.471304,-1998.556043,-3140.991542
1031.359719,-9474.636058,-1554.432478,-5056.230287
1031.360039,-9548.656652,-2738.761985,-4213.525239
1031.360360,-9770.718434,-2516.700203,-4060.306139
1031.360681,-10066.800811,-2072.576638,-4366.744339
1031.361001,-9770.718434,-1332.370696,-3064.381992
1031.361322,-10066.800811,-1036.288319,-2374.896044
1031.361643,-10066.800811,-1258.350101,-1225.752797
1031.361964,-9918.759623,-1406.391290,-919.314598
1031.362284,-9770.718434,-1406.391290,-689.485948
1031.362605,-9178.553681,-1776.494261,-1378.971896
1031.362926,-9104.533087,-666.185348,-1685.410096
1031.363246,-8586.388927,-370.102971,-1915.238745
1031.363567,-8068.244768,222.061783,-2604.724693
1031.363888,-8290.306550,0.000000,-3830.477490
1031.364209,-8882.471304,-1258.350101,-2987.772442
1031.364529,-9918.759623,-2072.576638,-2604.724693
1031.364850,-10362.883188,-1998.556043,-1608.800546
1031.365171,-10955.047942,-1628.453072,-306.438199
1031.365491,-11473.192101,-1184.329507,383.047749
1031.365812,-11325.150913,-1332.370696,1302.362347
1031.366133,-11325.150913,-1628.453072,153.219100
1031.366454,-10436.903782,-1184.329507,-306.438199
1031.366774,-9474.636058,-1776.494261,-1149.143247
1031.367095,-9178.553681,-1998.556043,-383.047749
1031.367416,-7994.224174,-2812.782580,-1302.362347
1031.367736,-7994.224174,-3478.967927,-2451.505594
1031.368057,-7698.141797,-3182.885551,-1608.800546
1031.368378,-8586.388927,-2294.638420,-842.705048
1031.368699,-10362.883188,-2146.597232,1455.581446
1031.369019,-11029.068536,-3256.906145,2221.676944
1031.369340,-10732.986159,-4737.318029,1072.533697
1031.369661,-10658.965565,-4737.318029,612.876398
1031.369981,-10288.862594,-4145.153275,459.657299
1031.370302,-10140.821405,-3478.967927,383.047749
1031.370623,-9326.594869,-2812.782580,-842.705048
1031.370944,-8586.388927,-2368.659014,-3064.381992
1031.371264,-7994.224174,-1406.391290,-2068.457845
1031.371585,-9030.512492,-592.164754,153.219100
1031.371906,-10584.944971,-2664.741391,229.828649
1031.372226,-8364.327145,-3330.926739,-842.705048
1031.372547,-9474.636058,-3701.029710,-1378.971896
1031.372868,-7920.203579,-3034.844362,-766.095498
1031.373188,-8660.409521,-4071.132681,-919.314598
1031.373509,-10214.842000,-4737.318029,-612.876398
1031.373830,-8290.306550,-5033.400406,-3753.867940
1031.374151,-9178.553681,-4515.256246,-4060.306139
1031.374471,-10288.862594,-2886.803174,-2451.505594
1031.374792,-10881.027347,-3108.864956,-2068.457845
1031.375113,-11103.089130,-2664.741391,-1838.629195
1031.375433,-10362.883188,-2590.720797,-2681.334243
1031.375754,-9326.594869,-2368.659014,-2987.772442
1031.376075,-9844.739029,-2146.597232,-1991.848295
1031.376396,-10436.903782,-962.267725,-1685.410096
1031.376716,-9178.553681,-888.247130,-1685.410096
1031.377037,-8734.430116,-444.123565,-1915.238745
1031.377358,-9030.512492,-1110.308913,-2681.334243
1031.377678,-8734.430116,-1036.288319,-995.924147
1031.377999,-8956.491898,-2146.597232,-2528.115143
1031.378320,-9474.636058,-2368.659014,-1225.752797
1031.378641,-8956.491898,-3478.967927,-2221.676944
1031.378961,-9918.759623,-2812.782580,-1149.143247
1031.379282,-11177.109724,-3108.864956,-536.266849
1031.379603,-11029.068536,-3701.029710,-1072.533697
1031.379923,-10066.800811,-2886.803174,-1838.629195
1031.380244,-10066.800811,-2442.679609,-3294.210641
1031.380565,-7920.203579,-1702.473667,-4443.353888
1031.380886,-8216.285956,-740.205942,-2374.896044
1031.381206,-9030.512492,-222.061783,76.609550
1031.381527,-10362.883188,-1702.473667,1302.362347
1031.381848,-10658.965565,-2960.823768,1455.581446
1031.382168,-9844.739029,-2886.803174,1378.971896
1031.382489,-10732.986159,-2368.659014,1762.019645
1031.382810,-9770.718434,-740.205942,2374.896044
1031.383131,-9252.574275,-1332.370696,1915.238745
1031.383451,-8216.285956,-1184.329507,-153.219100
1031.383772,-8512.368333,-2516.700203,-1685.410096
1031.384093,-8734.430116,-2960.823768,-2145.067394
1031.384413,-9474.636058,-2590.720797,-1225.752797
1031.384734,-10066.800811,-1628.453072,-1762.019645
1031.385055,-10214.842000,-888.247130,0.000000
1031.385375,-9474.636058,-814.226536,383.047749
1031.385696,-11325.150913,-2220.617826,1072.533697
1031.386017,-10362.883188,-2516.700203,1072.533697
1031.386338,-10732.986159,-2886.803174,-612.876398
1031.386659,-8512.368333,-2220.617826,-766.095498
1031.386980,-8290.306550,-3034.844362,-1915.238745
1031.387301,-7846.182985,-222.061783,-689.485948
1031.387622,-9992.780217,-2220.617826,-229.828649
1031.387943,-7920.203579,-2146.597232,-1532.190996
1031.388263,-9696.697840,-3108.864956,-1991.848295
1031.388584,-9992.780217,-3182.885551,-1608.800546
1031.388905,-9474.636058,-1998.556043,-1378.971896
1031.389226,-11399.171507,-1924.535449,459.657299
1031.389547,-10436.903782,-1258.350101,306.438199
1031.389868,-9474.636058,-3330.926739,-2681.334243
1031.390189,-9326.594869,-3256.906145,-3907.087040
1031.390510,-9326.594869,-2516.700203,-3370.820191
1031.390831,-8956.491898,-1332.370696,-3753.867940
1031.391152,-10140.821405,-1110.308913,-1072.533697
1031.391473,-9548.656652,-1480.411884,-1838.629195
1031.391794,-9622.677246,-2368.659014,-1302.362347
1031.392115,-11399.171507,-2738.761985,-1378.971896
1031.392436,-10362.883188,-1258.350101,-842.705048
1031.392757,-10140.821405,-1554.432478,-459.657299
1031.393078,-10140.821405,-962.267725,-153.219100
1031.393398,-8438.347739,-2664.741391,-1302.362347
1031.393719,-9548.656652,-4219.173869,-2068.457845
1031.394040,-10066.800811,-3701.029710,-1532.190996
1031.394361,-8660.409521,-2886.803174,-1302.362347
1031.394682,-9770.718434,-2960.823768,-1378.971896
1031.395003,-9252.574275,-3108.864956,-2145.067394
1031.395324,-8068.244768,-3701.029710,-3830.477490
1031.395645,-8512.368333,-2368.659014,-3064.381992
1031.395966,-8882.471304,-1850.514855,-1072.533697
1031.396287,-9622.677246,-1998.556043,-612.876398
1031.396608,-9696.697840,-3182.885551,229.828649
1031.396929,-9178.553681,-4293.194464,-689.485948
1031.397250,-8882.471304,-3775.050304,229.828649
1031.397571,-9474.636058,-3701.029710,1149.143247
1031.397892,-9622.677246,-3034.844362,1302.362347
1031.398213,-9548.656652,-1554.432478,153.219100
1031.398533,-9400.615463,-1554.432478,-689.485948
1031.398854,-8364.327145,-888.247130,-1608.800546
1031.399175,-8586.388927,-592.164754,-383.047749
1031.399496,-11103.089130,-2220.617826,1455.581446
1031.399817,-9474.636058,-1998.556043,1225.752797
1031.400138,-9548.656652,-2738.761985,-1149.143247
1031.400459,-10436.903782,-1258.350101,383.047749
1031.400780,-9770.718434,222.061783,2834.553343
1031.401101,-10955.047942,-1184.329507,3217.601092
1031.401422,-9326.594869,0.000000,2374.896044
1031.401743,-9252.574275,-1036.288319,-1225.752797
1031.402064,-8808.450710,740.205942,-766.095498
1031.402385,-10066.800811,1554.432478,2145.067394
1031.402706,-10881.027347,74.020594,2911.162892
1031.403027,-9104.533087,-1406.391290,0.000000
1031.403347,-8660.409521,-1480.411884,-2298.286494
1031.403668,-9770.718434,-814.226536,-1455.581446
1031.403989,-10362.883188,1332.370696,1378.971896
1031.404310,-12657.521608,-444.123565,3447.429741
1031.404631,-10214.842000,-2812.782580,306.438199
1031.404952,-8660.409521,-2442.679609,-1915.238745
1031.405273,-10140.821405,-2146.597232,459.657299
1031.405594,-9104.533087,-148.041188,2528.115143
1031.405915,-11103.089130,-962.267725,2987.772442
1031.406236,-8142.265362,0.000000,-1072.533697
1031.406557,-7105.977043,1332.370696,-2374.896044
1031.406878,-8660.409521,2886.803174,383.047749
1031.407199,-9474.636058,1036.288319,3140.991542
1031.407520,-11103.089130,-1406.391290,2298.286494
1031.407841,-8512.368333,-2072.576638,-689.485948
1031.408162,-9252.574275,-1702.473667,-612.876398
1031.408482,-9770.718434,-1036.288319,919.314598
1031.408803,-10140.821405,-1036.288319,2681.334243
1031.409124,-9844.739029,-1184.329507,612.876398
1031.409445,-7179.997637,-962.267725,-2681.334243
1031.409766,-8364.327145,518.144159,-2298.286494
1031.410087,-10955.047942,0.000000,1072.533697
1031.410408,-10510.924376,-1184.329507,612.876398
1031.410729,-8956.491898,296.082377,-1225.752797
1031.411050,-8660.409521,1850.514855,-1685.410096
1031.411371,-8956.491898,1998.556043,0.000000
1031.411692,-9030.512492,3182.885551,6052.154434
1031.412013,-13175.665768,-2368.659014,612.876398
1031.412334,-3849.070898,1554.432478,76.609550
1031.412655,-11991.336260,0.000000,-153.219100
1031.412976,-6735.874072,3701.029710,3753.867940
1031.413297,-9844.739029,-740.205942,2145.067394
1031.413617,-11547.212695,814.226536,4826.401637
1031.413938,-7624.121203,-1628.453072,-2145.067394
1031.414259,-9252.574275,-740.205942,-842.705048
1031.414580,-11325.150913,-1110.308913,2987.772442
1031.414901,-10066.800811,-1258.350101,2528.115143
1031.415222,-10584.944971,-740.205942,1455.581446
1031.415543,-9030.512492,444.123565,842.705048
1031.415864,-7179.997637,666.185348,-766.095498
1031.416185,-12361.439231,-370.102971,3524.039291
1031.416506,-10214.842000,-888.247130,3677.258390
1031.416827,-9400.615463,-1554.432478,612.876398
1031.417148,-9474.636058,444.123565,2681.334243
1031.417469,-8512.368333,-444.123565,2757.943793
1031.417790,-10066.800811,-1184.329507,3677.258390
1031.418111,-10066.800811,-2442.679609,1991.848295
1031.418431,-7994.224174,-666.185348,-1149.143247
1031.418752,-7476.080014,1332.370696,-1685.410096
1031.419073,-8882.471304,2072.576638,536.266849
1031.419394,-11177.109724,666.185348,2987.772442
1031.419715,-8882.471304,-222.061783,-76.609550
1031.420036,-11695.253884,-666.185348,995.924147
1031.420357,-9326.594869,0.000000,2221.676944
1031.420678,-11769.274478,-1702.473667,3064.381992
1031.420999,-11251.130318,-1998.556043,3677.258390
1031.421320,-8586.388927,-1184.329507,-383.047749
1031.421641,-7846.182985,814.226536,-1225.752797
1031.421962,-8882.471304,740.205942,459.657299
1031.422283,-8290.306550,74.020594,995.924147
1031.422604,-9548.656652,-3182.885551,0.000000
1031.422925,-8438.347739,-2812.782580,-1532.190996
1031.423246,-8068.244768,-518.144159,0.000000
1031.423566,-11029.068536,-962.267725,2145.067394
1031.423887,-11843.295072,-1036.288319,3447.429741
1031.424208,-9770.718434,296.082377,1608.800546
1031.424529,-9400.615463,0.000000,-1072.533697
1031.424850,-7254.018232,1480.411884,-306.438199
1031.425171,-10955.047942,-1776.494261,-306.438199
1031.425492,-6513.812290,-1702.473667,-1072.533697
1031.425813,-9326.594869,-1406.391290,-1991.848295
1031.426134,-9252.574275,1480.411884,1225.752797
1031.426455,-10584.944971,666.185348,2987.772442
1031.426776,-12509.480420,-518.144159,5209.449386
1031.427097,-11399.171507,-2146.597232,2145.067394
1031.427418,-9992.780217,-1776.494261,-995.924147
1031.427739,-9474.636058,2294.638420,1455.581446
1031.428060,-8364.327145,1406.391290,1608.800546
1031.428381,-9400.615463,222.061783,1225.752797
1031.428701,-8068.244768,-1036.288319,-1072.533697
1031.429022,-6809.894666,222.061783,-2298.286494
1031.429343,-10140.821405,1110.308913,842.705048
1031.429664,-11695.253884,1258.350101,2834.553343
1031.429985,-11399.171507,518.144159,3677.258390
1031.430306,-10807.006753,222.061783,842.705048
1031.430627,-8586.388927,2294.638420,1072.533697
1031.430948,-9030.512492,666.185348,2068.457845
1031.431269,-10214.842000,-1110.308913,2757.943793
1031.431590,-8364.327145,-2368.659014,-306.438199
1031.431911,-8660.409521,-1776.494261,-766.095498
1031.432232,-7550.100608,1184.329507,1149.143247
1031.432553,-10584.944971,444.123565,2987.772442
1031.432874,-10807.006753,0.000000,3907.087040
1031.433195,-9474.636058,-1480.411884,612.876398
1031.433515,-8512.368333,-518.144159,76.609550
1031.433836,-10066.800811,74.020594,3217.601092
1031.434157,-11325.150913,-3034.844362,4136.915689
1031.434478,-9474.636058,-2368.659014,2221.676944
1031.434799,-9400.615463,-2590.720797,-1608.800546
1031.435120,-7179.997637,1924.535449,-689.485948
1031.435441,-9770.718434,2738.761985,1915.238745
1031.435762,-10955.047942,-222.061783,3217.601092
1031.436083,-8660.409521,-3330.926739,-1072.533697
1031.436404,-8438.347739,-2072.576638,-2374.896044
1031.436725,-8512.368333,222.061783,-919.314598
1031.437046,-10881.027347,0.000000,2298.286494
1031.437367,-11029.068536,814.226536,3140.991542
1031.437688,-8512.368333,148.041188,-612.876398
1031.438009,-8512.368333,1184.329507,-1302.362347
1031.438330,-9770.718434,1628.453072,1225.752797
1031.438650,-11325.150913,0.000000,2834.553343
1031.438971,-10510.924376,-1110.308913,2451.505594
1031.439292,-9326.594869,-1850.514855,-1302.362347
1031.439613,-7772.162391,888.247130,0.000000
1031.439934,-10066.800811,1036.288319,1532.190996
1031.440255,-11103.089130,740.205942,3064.381992
1031.440576,-10140.821405,-296.082377,536.266849
1031.440897,-8660.409521,518.144159,-1532.190996
1031.441218,-8734.430116,1850.514855,766.095498
1031.441539,-11621.233289,-1258.350101,2451.505594
1031.441860,-10362.883188,-2368.659014,3294.210641
1031.442181,-9696.697840,-3034.844362,-995.924147
1031.442502,-9622.677246,-1332.370696,536.266849
1031.442823,-10658.965565,1554.432478,3830.477490
1031.443144,-12213.398043,1850.514855,6358.592633
1031.443465,-9474.636058,-888.247130,1532.190996
1031.443785,-8364.327145,-1110.308913,-1838.629195
1031.444106,-6365.771101,888.247130,-2528.115143
1031.444427,-8660.409521,-1702.473667,-306.438199
1031.444748,-8142.265362,-1998.556043,1225.752797
1031.445069,-7698.141797,-2590.720797,-536.266849
1031.445390,-8438.347739,-1184.329507,-1225.752797
1031.445711,-9326.594869,1406.391290,1838.629195
1031.446032,-12731.542202,1110.308913,5898.935335
1031.446353,-12879.583391,-444.123565,4290.134789
1031.446674,-10214.842000,-3775.050304,1149.143247
1031.446995,-8512.368333,-1924.535449,1378.971896
1031.447316,-8586.388927,-1554.432478,2068.457845
1031.447637,-10140.821405,74.020594,3217.601092
1031.447958,-8956.491898,-370.102971,383.047749
1031.448279,-7624.121203,296.082377,-1532.190996
1031.448600,-6883.915261,1628.453072,-612.876398
1031.448920,-10732.986159,-814.226536,2451.505594
1031.449241,-11325.150913,-2516.700203,3370.820191
1031.449562,-10584.944971,-3849.070898,995.924147
1031.449883,-9400.615463,-1110.308913,229.828649
1031.450204,-9844.739029,888.247130,2298.286494
1031.450525,-10881.027347,2294.638420,2757.943793
1031.450846,-10881.027347,-592.164754,2451.505594
1031.451167,-9178.553681,-222.061783,-1838.629195
1031.451488,-7846.182985,1480.411884,-1455.581446
1031.451809,-10214.842000,-222.061783,-76.609550
1031.452130,-10066.800811,-444.123565,1608.800546
1031.452451,-10288.862594,-2072.576638,383.047749
1031.452772,-9696.697840,-1036.288319,-689.485948
1031.453093,-9474.636058,888.247130,766.095498
1031.453414,-12287.418637,1036.288319,2834.553343
1031.453734,-11177.109724,-740.205942,1838.629195
1031.454055,-8290.306550,-2664.741391,-3830.477490
1031.454376,-6735.874072,-296.082377,-4749.792088
1031.454697,-7476.080014,1406.391290,-2911.162892
1031.455018,-11621.233289,592.164754,1455.581446
1031.455339,-10510.924376,1480.411884,2145.067394
1031.455660,-11991.336260,-2294.638420,536.266849
1031.455981,-9030.512492,1258.350101,766.095498
1031.456302,-13693.809927,-1036.288319,4519.963438
1031.456623,-12287.418637,-666.185348,6741.640382
1031.456944,-10807.006753,-2812.782580,3447.429741
1031.457265,-8512.368333,-370.102971,1149.143247
1031.457586,-7920.203579,-296.082377,-536.266849
1031.457907,-7994.224174,148.041188,-153.219100
1031.458228,-7476.080014,-370.102971,-612.876398
1031.458549,-6439.791695,-296.082377,-3447.429741
1031.458869,-7254.018232,3775.050304,229.828649
1031.459190,-9622.677246,2886.803174,1762.019645
1031.459511,-12805.562797,1036.288319,5056.230287
1031.459832,-11029.068536,-1554.432478,3140.991542
1031.460153,-10881.027347,-1924.535449,612.876398
1031.460474,-8956.491898,0.000000,2374.896044
1031.460795,-8660.409521,74.020594,2757.943793
1031.461116,-9770.718434,-740.205942,2987.772442
1031.461437,-8290.306550,-1184.329507,-766.095498
1031.461758,-6809.894666,0.000000,-1991.848295
1031.462079,-9400.615463,962.267725,1685.410096
1031.462400,-11769.274478,0.000000,4826.401637
1031.462721,-11695.253884,-1036.288319,5592.497135
1031.463042,-10436.903782,-3108.864956,1149.143247
1031.463363,-8882.471304,-1332.370696,1915.238745
1031.463684,-10732.986159,-296.082377,2834.553343
1031.464004,-11029.068536,-296.082377,3830.477490
1031.464325,-8068.244768,-518.144159,1991.848295
1031.464646,-7772.162391,-148.041188,-2221.676944
1031.464967,-7328.038826,518.144159,-1455.581446
1031.465288,-9326.594869,370.102971,919.314598
1031.465609,-11473.192101,-1924.535449,2604.724693
1031.465930,-9992.780217,-2516.700203,76.609550
1031.466251,-9622.677246,-1184.329507,-842.705048
1031.466572,-9844.739029,222.061783,766.095498
1031.466893,-11325.150913,-148.041188,2451.505594
1031.467214,-9918.759623,-222.061783,2145.067394
1031.467535,-9400.615463,-1480.411884,-995.924147
1031.467856,-8660.409521,0.000000,-1532.190996
1031.468177,-9844.739029,-592.164754,612.876398
1031.468498,-9992.780217,0.000000,1455.581446
1031.468818,-9696.697840,-1184.329507,383.047749
1031.469139,-9104.533087,-666.185348,-1838.629195
1031.469460,-8882.471304,1776.494261,-459.657299
1031.469781,-10584.944971,962.267725,1149.143247
1031.470102,-10881.027347,518.144159,1838.629195
1031.470423,-9474.636058,-962.267725,-1072.533697
1031.470744,-8290.306550,-296.082377,-1991.848295
1031.471065,-8586.388927,666.185348,-536.266849
1031.471386,-10955.047942,0.000000,2145.067394
1031.471707,-9474.636058,-666.185348,1915.238745
1031.472028,-9696.697840,-666.185348,153.219100
1031.472349,-9548.656652,1850.514855,1225.752797
1031.472670,-10436.903782,1184.329507,2068.457845
1031.472991,-11399.171507,222.061783,4596.572988
1031.473312,-9844.739029,-2220.617826,1762.019645
1031.473633,-7550.100608,-814.226536,-459.657299
1031.473953,-8216.285956,0.000000,689.485948
1031.474274,-9400.615463,-370.102971,1991.848295
1031.474595,-9696.697840,0.000000,1915.238745
1031.474916,-9326.594869,-1110.308913,536.266849
1031.475237,-9474.636058,-740.205942,689.485948
1031.475558,-9030.512492,370.102971,3907.087040
1031.475879,-12139.377449,-1998.556043,5132.839837
1031.476200,-8438.347739,-1480.411884,1915.238745
1031.476521,-8586.388927,0.000000,-536.266849
1031.476842,-7772.162391,3627.009116,-1302.362347
1031.477163,-7328.038826,3330.926739,2451.505594
1031.477484,-11029.068536,-1776.494261,1915.238745
1031.477805,-4885.359217,-2812.782580,-383.047749
1031.478126,-8142.265362,-3034.844362,-2681.334243
1031.478447,-11399.171507,2664.741391,3983.696590
1031.478768,-11621.233289,740.205942,5745.716235
1031.479088,-12213.398043,74.020594,6052.154434
1031.479409,-10288.862594,-666.185348,1685.410096
1031.479730,-8512.368333,-296.082377,0.000000
1031.480051,-10436.903782,1184.329507,2604.724693
1031.480372,-11251.130318,740.205942,2834.553343
1031.480693,-8882.471304,1332.370696,-459.657299
1031.481014,-8586.388927,-962.267725,-995.924147
1031.481335,-6883.915261,370.102971,-2834.553343
1031.481656,-11103.089130,-1110.308913,1225.752797
1031.481977,-10658.965565,-2960.823768,2221.676944
1031.482298,-8882.471304,-2294.638420,0.000000
1031.482619,-10140.821405,-740.205942,-1225.752797
1031.482940,-10140.821405,1184.329507,1302.362347
1031.483261,-11251.130318,148.041188,2911.162892
1031.483582,-9992.780217,-1850.514855,2145.067394
1031.483903,-8216.285956,-2812.782580,-2451.505594
1031.484223,-8364.327145,-962.267725,-1762.019645
1031.484544,-9178.553681,0.000000,-153.219100
1031.484865,-10807.006753,518.144159,2374.896044
1031.485186,-8586.388927,-1406.391290,919.314598
1031.485507,-8290.306550,-1184.329507,-2298.286494
1031.485830,-10066.800811,1036.288319,842.705048
1031.486151,-11029.068536,518.144159,2221.676944
1031.486472,-10955.047942,222.061783,3983.696590
1031.486792,-10214.842000,-1480.411884,0.000000
1031.487113,-8364.327145,666.185348,-1915.238745
1031.487434,-7846.182985,1332.370696,-536.266849
1031.487755,-8216.285956,0.000000,1302.362347
1031.488076,-10066.800811,-1702.473667,1378.971896
1031.488396,-9548.656652,-296.082377,-612.876398
1031.488717,-9474.636058,1480.411884,1685.410096
1031.489038,-11547.212695,1258.350101,4290.134789
1031.489359,-12435.459826,592.164754,7277.907231
1031.489679,-10807.006753,-2886.803174,4290.134789
1031.490000,-8142.265362,-1554.432478,1378.971896
1031.490321,-8216.285956,0.000000,1225.752797
1031.490642,-8512.368333,1776.494261,2145.067394
1031.490962,-10436.903782,-1850.514855,2451.505594
1031.491283,-7031.956449,-1924.535449,-1991.848295
1031.491604,-7402.059420,1406.391290,-995.924147
1031.491925,-8586.388927,740.205942,0.000000
1031.492245,-11621.233289,1702.473667,2528.115143
1031.492566,-10362.883188,-222.061783,4290.134789
1031.492887,-11695.253884,-3330.926739,1915.238745
1031.493208,-8956.491898,-518.144159,1455.581446
1031.493529,-11029.068536,-740.205942,3140.991542
1031.493849,-9622.677246,-1702.473667,3294.210641
1031.494170,-9104.533087,814.226536,689.485948
1031.494491,-8216.285956,2664.741391,-995.924147
1031.494812,-8660.409521,1776.494261,-76.609550
1031.495132,-9252.574275,-1110.308913,1149.143247
1031.495453,-10066.800811,-3330.926739,1149.143247
1031.495774,-10436.903782,-3552.988522,-229.828649
1031.496095,-9400.615463,222.061783,229.828649
1031.496415,-11621.233289,1776.494261,3830.477490
1031.496736,-12139.377449,2294.638420,4443.353888
1031.497057,-10584.944971,148.041188,1455.581446
1031.497378,-9770.718434,-1110.308913,-2145.067394
1031.497698,-8142.265362,370.102971,-2145.067394
1031.498019,-8290.306550,-296.082377,842.705048
1031.498340,-9474.636058,-962.267725,536.266849
1031.498661,-8512.368333,-2960.823768,-2451.505594
1031.498981,-7402.059420,-888.247130,-2145.067394
1031.499302,-10140.821405,444.123565,383.047749
1031.499623,-10955.047942,-1110.308913,1608.800546
1031.499944,-10362.883188,-814.226536,1149.143247
1031.500265,-10881.027347,-444.123565,-612.876398
1031.500585,-8290.306550,2886.803174,-153.219100
1031.500906,-10807.006753,2220.617826,2068.457845
1031.501227,-11029.068536,-444.123565,2987.772442
1031.501548,-8290.306550,-2664.741391,-995.924147
1031.501868,-8216.285956,-2146.597232,-2528.115143
1031.502189,-8068.244768,74.020594,-919.314598
1031.502510,-9770.718434,1480.411884,1685.410096
1031.502831,-11843.295072,814.226536,3907.087040
1031.503151,-8586.388927,-370.102971,-229.828649
1031.503472,-8660.409521,-222.061783,-842.705048
1031.503793,-9918.759623,-222.061783,1685.410096
1031.504114,-10288.862594,-444.123565,4060.306139
1031.504434,-10732.986159,-3108.864956,2221.676944
1031.504755,-7328.038826,-1036.288319,0.000000
1031.505076,-8216.285956,2294.638420,612.876398
1031.505397,-10288.862594,1036.288319,2834.553343
1031.505718,-10955.047942,148.041188,5592.497135
1031.506038,-9918.759623,-1776.494261,2451.505594
1031.506359,-8216.285956,-2368.659014,459.657299
1031.506680,-9474.636058,-962.267725,1149.143247
1031.507001,-9770.718434,814.226536,3524.039291
1031.507321,-10732.986159,0.000000,3677.258390
1031.507642,-7179.997637,-148.041188,459.657299
1031.507963,-7105.977043,-740.205942,0.000000
1031.508284,-9770.718434,-1776.494261,919.314598
1031.508604,-11251.130318,-1480.411884,4060.306139
1031.508925,-12139.377449,-2960.823768,3524.039291
1031.509246,-9992.780217,-666.185348,689.485948
1031.509567,-10288.862594,962.267725,2068.457845
1031.509887,-11103.089130,2368.659014,2604.724693
1031.510208,-10066.800811,592.164754,1991.848295
1031.510529,-8660.409521,888.247130,-76.609550
1031.510850,-8142.265362,-370.102971,-3217.601092
1031.511170,-7105.977043,1332.370696,-1915.238745
1031.511491,-9992.780217,222.061783,1838.629195
1031.511812,-9178.553681,-814.226536,1302.362347
1031.512133,-10732.986159,-1480.411884,766.095498
1031.512454,-9474.636058,0.000000,459.657299
1031.512774,-11103.089130,814.226536,1915.238745
1031.513095,-11991.336260,-148.041188,2911.162892
1031.513416,-8734.430116,-1332.370696,919.314598
1031.513737,-8512.368333,-1702.473667,-1915.238745
1031.514057,-8438.347739,148.041188,-1838.629195
1031.514378,-8882.471304,-666.185348,-536.266849
1031.514699,-9622.677246,-1924.535449,1915.238745
1031.515020,-8586.388927,-2886.803174,-1455.581446
1031.515340,-9104.533087,-740.205942,-1915.238745
1031.515661,-9696.697840,2368.659014,1762.019645
1031.515982,-11843.295072,888.247130,2834.553343
1031.516303,-11029.068536,592.164754,3447.429741
1031.516623,-9178.553681,-888.247130,-306.438199
1031.516944,-8586.388927,1258.350101,306.438199
1031.517265,-10732.986159,-370.102971,3140.991542
1031.517586,-8438.347739,-3034.844362,2987.772442
1031.517907,-8142.265362,-3034.844362,-919.314598
1031.518227,-8660.409521,-962.267725,-2374.896044
1031.518548,-8364.327145,1258.350101,0.000000
1031.518869,-11103.089130,2368.659014,3600.648841
1031.519190,-11621.233289,592.164754,5439.278036
1031.519510,-9252.574275,-1924.535449,1149.143247
1031.519831,-9622.677246,-1036.288319,766.095498
1031.520152,-9030.512492,-666.185348,995.924147
1031.520473,-11325.150913,-962.267725,3983.696590
1031.520793,-9844.739029,-2146.597232,3294.210641
1031.521114,-8216.285956,-3627.009116,-995.924147
1031.521435,-7031.956449,-740.205942,-2068.457845
1031.521756,-8512.368333,2294.638420,1455.581446
1031.522076,-9622.677246,2220.617826,2374.896044
1031.522397,-9104.533087,2590.720797,1532.190996
1031.522718,-10881.027347,74.020594,1072.533697
1031.523039,-8808.450710,222.061783,2145.067394
1031.523360,-12213.398043,-3330.926739,4290.134789
1031.523680,-11695.253884,-4293.194464,4596.572988
1031.524001,-10807.006753,-3034.844362,1072.533697
1031.524322,-10436.903782,740.205942,1072.533697
1031.524643,-9178.553681,3997.112087,1072.533697
1031.524963,-10140.821405,2590.720797,1532.190996
1031.525284,-9992.780217,-814.226536,229.828649
1031.525605,-6957.935855,-2294.638420,-3677.258390
1031.525926,-9030.512492,-1184.329507,-1762.019645
1031.526246,-10066.800811,-296.082377,536.266849
1031.526567,-11251.130318,0.000000,2987.772442
1031.526888,-9918.759623,-148.041188,1532.190996
1031.527209,-9696.697840,0.000000,-383.047749
1031.527529,-9178.553681,1258.350101,153.219100
1031.527850,-11177.109724,-222.061783,2221.676944
1031.528171,-10066.800811,-814.226536,1455.581446
1031.528492,-9474.636058,-1628.453072,-383.047749
1031.528812,-9918.759623,-1110.308913,-306.438199
1031.529133,-9252.574275,222.061783,1915.238745
1031.529454,-11103.089130,-2590.720797,2987.772442
1031.529775,-9400.615463,-444.123565,1072.533697
1031.530096,-9992.780217,-1628.453072,229.828649
1031.530416,-8142.265362,1776.494261,-2145.067394
1031.530737,-10214.842000,4145.153275,766.095498
1031.531058,-9622.677246,2886.803174,1838.629195
1031.531379,-8290.306550,1036.288319,-612.876398
1031.531699,-9474.636058,-222.061783,-1378.971896
1031.532020,-7624.121203,-518.144159,0.000000
1031.532341,-10881.027347,-1776.494261,2145.067394
1031.532662,-11547.212695,-296.082377,4290.134789
1031.532982,-9992.780217,-518.144159,1991.848295
1031.533303,-9104.533087,888.247130,1838.629195
1031.533624,-10214.842000,1480.411884,2834.553343
1031.533945,-11103.089130,0.000000,3140.991542
1031.534265,-10066.800811,-2368.659014,1302.362347
1031.534586,-6957.935855,-2220.617826,-1302.362347
1031.534907,-7624.121203,-814.226536,0.000000
1031.535228,-9918.759623,518.144159,2681.334243
1031.535549,-11325.150913,-370.102971,3983.696590
1031.535869,-9992.780217,-592.164754,1685.410096
1031.536190,-9104.533087,-2146.597232,0.000000
1031.536511,-8808.450710,1406.391290,1991.848295
1031.536832,-12139.377449,-296.082377,3830.477490
1031.537152,-9474.636058,-444.123565,2451.505594
1031.537473,-8142.265362,-740.205942,-383.047749
1031.537794,-7772.162391,-518.144159,-306.438199
1031.538115,-8808.450710,-814.226536,229.828649
1031.538435,-10658.965565,-1036.288319,3753.867940
1031.538756,-9474.636058,-1998.556043,1225.752797
1031.539077,-8956.491898,-888.247130,-229.828649
1031.539398,-9770.718434,592.164754,1532.190996
1031.539718,-11251.130318,-296.082377,3370.820191
1031.540039,-11103.089130,-370.102971,3140.991542
1031.540360,-9030.512492,222.061783,306.438199
1031.540681,-8882.471304,0.000000,-1225.752797
1031.541001,-8808.450710,1258.350101,0.000000
1031.541322,-11843.295072,2072.576638,2834.553343
1031.541643,-9844.739029,-222.061783,689.485948
1031.541964,-8734.430116,-1110.308913,-1838.629195
1031.542285,-9178.553681,74.020594,-919.314598
1031.542605,-10066.800811,148.041188,2528.115143
1031.542926,-11029.068536,-666.185348,1915.238745
1031.543247,-11029.068536,-1184.329507,1685.410096
1031.543568,-8956.491898,-1036.288319,-1072.533697
1031.543888,-9178.553681,-518.144159,-306.438199
1031.544209,-10214.842000,-814.226536,1915.238745
1031.544530,-9844.739029,-2886.803174,919.314598
1031.544851,-7994.224174,-2590.720797,-2221.676944
1031.545171,-8512.368333,-444.123565,-1991.848295
1031.545492,-9474.636058,2146.597232,689.485948
1031.545813,-11621.233289,1036.288319,3524.039291
1031.546134,-11251.130318,-518.144159,2451.505594
1031.546454,-9030.512492,-1998.556043,-1149.143247
1031.546775,-9104.533087,-1110.308913,-842.705048
1031.547096,-10066.800811,-370.102971,1455.581446
1031.547417,-11769.274478,-592.164754,4290.134789
1031.547738,-9918.759623,740.205942,2451.505594
1031.548058,-9030.512492,-1480.411884,76.609550
1031.548379,-7846.182985,-814.226536,-842.705048
1031.548700,-9696.697840,-1184.329507,919.314598
1031.549021,-9918.759623,1480.411884,1455.581446
1031.549341,-9326.594869,-1924.535449,689.485948
1031.549662,-7105.977043,-592.164754,0.000000
1031.549983,-8660.409521,1628.453072,1532.190996
1031.550304,-11695.253884,-370.102971,2681.334243
1031.550624,-10066.800811,-592.164754,4749.792088
1031.550945,-10362.883188,-1850.514855,1762.019645
1031.551266,-10807.006753,592.164754,3370.820191
1031.551587,-8660.409521,-666.185348,2528.115143
1031.551907,-11843.295072,-1110.308913,4826.401637
1031.552228,-7846.182985,-1480.411884,612.876398
1031.552549,-8512.368333,0.000000,-2145.067394
1031.552870,-8438.347739,1776.494261,1762.019645
1031.553190,-9770.718434,74.020594,2681.334243
1031.553511,-11325.150913,-2146.597232,2834.553343
1031.553832,-11103.089130,-1850.514855,1532.190996
1031.554153,-8068.244768,296.082377,153.219100
1031.554474,-9992.780217,-148.041188,1149.143247
1031.554794,-9770.718434,222.061783,2221.676944
1031.555115,-8956.491898,-1554.432478,-383.047749
1031.555436,-7402.059420,-296.082377,-2145.067394
1031.555757,-10140.821405,0.000000,-76.609550
1031.556077,-9474.636058,370.102971,2374.896044
1031.556398,-12139.377449,-2072.576638,2987.772442
1031.556719,-9252.574275,-1406.391290,919.314598
1031.557040,-9918.759623,-1628.453072,0.000000
1031.557360,-9474.636058,740.205942,1072.533697
1031.557681,-12213.398043,-148.041188,3447.429741
1031.558002,-9474.636058,-2590.720797,0.000000
1031.558323,-8216.285956,-2664.741391,-2757.943793
1031.558643,-7550.100608,444.123565,-2145.067394
1031.558964,-9622.677246,962.267725,-689.485948
1031.559285,-10955.047942,-592.164754,2221.676944
1031.559606,-10140.821405,-740.205942,-612.876398
1031.559927,-9104.533087,-1036.288319,-2451.505594
1031.560247,-10732.986159,74.020594,306.438199
1031.560568,-11473.192101,1406.391290,3140.991542
1031.560889,-12361.439231,814.226536,2757.943793
1031.561210,-9622.677246,0.000000,-153.219100
1031.561530,-8586.388927,1258.350101,-1532.190996
1031.561851,-10214.842000,1850.514855,1225.752797
1031.562172,-11843.295072,1110.308913,3370.820191
1031.562493,-10140.821405,222.061783,2987.772442
1031.562813,-8512.368333,-1258.350101,612.876398
1031.563134,-8734.430116,-740.205942,-229.828649
1031.563455,-10066.800811,74.020594,1838.629195
1031.563776,-9474.636058,-518.144159,2451.505594
1031.564096,-8660.409521,74.020594,459.657299
1031.564417,-8142.265362,592.164754,-1455.581446
1031.564738,-7550.100608,814.226536,-383.047749
1031.565059,-9844.739029,814.226536,4366.744339
1031.565380,-9178.553681,-2664.741391,2604.724693
1031.565700,-9474.636058,-2664.741391,1532.190996
1031.566021,-10732.986159,-1850.514855,2681.334243
1031.566342,-9178.553681,740.205942,4443.353888
1031.566663,-13027.624579,-296.082377,7354.516781
1031.566983,-10066.800811,-1628.453072,4903.011187
1031.567304,-7772.162391,-2516.700203,0.000000
1031.567625,-8734.430116,-444.123565,-153.219100
1031.567946,-7846.182985,518.144159,1225.752797
1031.568266,-9548.656652,-222.061783,2221.676944
1031.568587,-8808.450710,-1702.473667,689.485948
1031.568908,-6883.915261,-1554.432478,-1302.362347
1031.569229,-9548.656652,1110.308913,995.924147
1031.569549,-11917.315666,148.041188,2987.772442
1031.569870,-11695.253884,1332.370696,4290.134789
1031.570191,-10955.047942,444.123565,1149.143247
1031.570512,-8512.368333,1998.556043,-2374.896044
1031.570832,-9474.636058,1924.535449,0.000000
1031.571153,-10362.883188,0.000000,1532.190996
1031.571474,-9474.636058,-2516.700203,0.000000
1031.571795,-7476.080014,-1998.556043,-3064.381992
1031.572116,-8956.491898,370.102971,-2068.457845
1031.572436,-11251.130318,888.247130,1685.410096
1031.572757,-11325.150913,148.041188,3447.429741
1031.573078,-10807.006753,-2368.659014,1608.800546
1031.573399,-9178.553681,-1554.432478,-842.705048
1031.573719,-9030.512492,-2072.576638,-536.266849
1031.574040,-11399.171507,-1776.494261,1149.143247
1031.574361,-9326.594869,0.000000,842.705048
1031.574682,-9400.615463,-962.267725,-995.924147
1031.575002,-7846.182985,2072.576638,-1608.800546
1031.575323,-9622.677246,666.185348,383.047749
1031.575644,-10658.965565,-1850.514855,1149.143247
1031.575965,-10436.903782,-1184.329507,2451.505594
1031.576285,-10066.800811,-2072.576638,-536.266849
1031.576606,-8734.430116,1554.432478,842.705048
1031.576927,-11399.171507,1036.288319,2451.505594
1031.577248,-9252.574275,1332.370696,3217.601092
1031.577569,-9622.677246,-1850.514855,1685.410096
1031.577889,-7994.224174,-1776.494261,-1072.533697
1031.578210,-8512.368333,148.041188,919.314598
1031.578531,-10732.986159,-592.164754,2604.724693
1031.578852,-9474.636058,148.041188,2604.724693
1031.579172,-8882.471304,-370.102971,229.828649
1031.579493,-9178.553681,1776.494261,995.924147
1031.579814,-8808.450710,1036.288319,1378.971896
1031.580135,-11325.150913,-74.020594,3907.087040
1031.580455,-9326.594869,-3330.926739,1685.410096
1031.580776,-8586.388927,-3330.926739,-459.657299
1031.581097,-9844.739029,1110.308913,2528.115143
1031.581418,-11917.315666,-592.164754,4826.401637
1031.581738,-8734.430116,-592.164754,4979.620737
1031.582059,-9474.636058,-2812.782580,-229.828649
1031.582380,-7550.100608,74.020594,-1915.238745
1031.582701,-7846.182985,1332.370696,76.609550
1031.583021,-9548.656652,-592.164754,2681.334243
1031.583342,-8216.285956,-592.164754,1149.143247
1031.583663,-8734.430116,-2368.659014,-1302.362347
1031.583984,-8290.306550,0.000000,-229.828649
1031.584305,-11843.295072,0.000000,3907.087040
1031.584625,-12065.356855,0.000000,4749.792088
1031.584946,-10807.006753,-1628.453072,2145.067394
1031.585267,-8438.347739,-962.267725,-612.876398
1031.585588,-8660.409521,666.185348,0.000000
1031.585908,-10584.944971,0.000000,2298.286494
1031.586229,-10362.883188,0.000000,1685.410096
1031.586550,-8364.327145,-1184.329507,-1532.190996
1031.586871,-8068.244768,740.205942,-1455.581446
1031.587191,-9030.512492,1702.473667,1762.019645
1031.587512,-12139.377449,518.144159,2757.943793
1031.587833,-9474.636058,-666.185348,919.314598
1031.588154,-7772.162391,-1850.514855,-3600.648841
1031.588474,-8142.265362,740.205942,-2987.772442
1031.588795,-9326.594869,888.247130,-1378.971896
1031.589116,-9844.739029,962.267725,919.314598
1031.589437,-9622.677246,-222.061783,-76.609550
1031.589757,-8586.388927,-444.123565,-1455.581446
1031.590078,-11029.068536,1258.350101,2834.553343
1031.590399,-14434.015869,1332.370696,6358.592633
1031.590720,-13915.871710,-2590.720797,2834.553343
1031.591040,-6439.791695,-1628.453072,919.314598
1031.591361,-9918.759623,222.061783,-1915.238745
1031.591682,-7328.038826,2886.803174,1225.752797
1031.592003,-8586.388927,-296.082377,383.047749
1031.592323,-9252.574275,1628.453072,1762.019645
1031.592644,-6735.874072,-1036.288319,-4060.306139
1031.592965,-8438.347739,296.082377,842.705048
1031.593286,-11325.150913,-592.164754,3753.867940
1031.593606,-10436.903782,74.020594,3677.258390
1031.593927,-11843.295072,-1850.514855,4060.306139
1031.594248,-7550.100608,-222.061783,0.000000
1031.594569,-8364.327145,-1036.288319,1302.362347
1031.594889,-14285.974681,-2368.659014,5132.839837
1031.595210,-9844.739029,-666.185348,4213.525239
1031.595531,-9252.574275,-2886.803174,1225.752797
1031.595852,-7402.059420,666.185348,383.047749
1031.596172,-7994.224174,-296.082377,1762.019645
1031.596493,-9918.759623,-1036.288319,2374.896044
1031.596814,-8438.347739,-1702.473667,1225.752797
1031.597135,-7328.038826,-2146.597232,-1455.581446
1031.597455,-8068.244768,-296.082377,76.609550
1031.597776,-10584.944971,444.123565,2757.943793
1031.598097,-10807.006753,592.164754,3217.601092
1031.598418,-10140.821405,814.226536,2528.115143
1031.598738,-8660.409521,148.041188,459.657299
1031.599059,-8882.471304,0.000000,383.047749
1031.599380,-12287.418637,-740.205942,2068.457845
1031.599701,-10732.986159,0.000000,3677.258390
1031.600021,-9992.780217,-518.144159,536.266849
1031.600342,-10288.862594,592.164754,1532.190996
1031.600663,-10362.883188,-222.061783,1072.533697
1031.600984,-10658.965565,-148.041188,1915.238745
1031.601304,-10881.027347,-2294.638420,0.000000
1031.601625,-7476.080014,-592.164754,-2911.162892
1031.601946,-8808.450710,0.000000,-995.924147
1031.602267,-9918.759623,-1480.411884,0.000000
1031.602587,-9178.553681,-1776.494261,1225.752797
1031.602908,-9474.636058,-2664.741391,-383.047749
1031.603229,-8364.327145,-1332.370696,-1378.971896
1031.603550,-11103.089130,0.000000,1225.752797
1031.603871,-11769.274478,-1406.391290,2374.896044
1031.604191,-9178.553681,-1258.350101,383.047749
1031.604512,-8438.347739,-296.082377,-2911.162892
1031.604833,-8882.471304,1406.391290,-1838.629195
1031.605154,-9030.512492,296.082377,459.657299
1031.605474,-9696.697840,-1628.453072,1455.581446
1031.605795,-9252.574275,-3627.009116,-995.924147
1031.606116,-8586.388927,-1184.329507,-1378.971896
1031.606437,-9474.636058,2072.576638,612.876398
1031.606757,-11251.130318,3256.906145,3907.087040
1031.607078,-10881.027347,2368.659014,4366.744339
1031.607399,-9030.512492,-814.226536,766.095498
1031.607720,-8882.471304,-1258.350101,-919.314598
1031.608040,-9104.533087,-1184.329507,536.266849
1031.608361,-10214.842000,-814.226536,2451.505594
1031.608682,-9474.636058,814.226536,2451.505594
1031.609003,-8660.409521,1850.514855,306.438199
1031.609323,-8216.285956,2590.720797,459.657299
1031.609644,-9844.739029,1184.329507,2681.334243
1031.609965,-11251.130318,-1332.370696,3524.039291
1031.610286,-10436.903782,-2146.597232,2834.553343
1031.610606,-9104.533087,-1924.535449,1838.629195
1031.610927,-9770.718434,-888.247130,3294.210641
1031.611248,-10807.006753,518.144159,3983.696590
1031.611569,-10362.883188,0.000000,4443.353888
1031.611889,-9992.780217,-2146.597232,1225.752797
1031.612210,-7476.080014,814.226536,383.047749
1031.612531,-10066.800811,148.041188,1685.410096
1031.612852,-11473.192101,-592.164754,3677.258390
1031.613172,-8808.450710,-1258.350101,2068.457845
1031.613493,-9326.594869,-3108.864956,-383.047749
1031.613814,-7920.203579,1406.391290,612.876398
1031.614135,-11103.089130,-666.185348,2451.505594
1031.614455,-10658.965565,740.205942,3907.087040
1031.614776,-10584.944971,-740.205942,919.314598
1031.615097,-8216.285956,1924.535449,-1149.143247
1031.615418,-9622.677246,962.267725,1378.971896
1031.615738,-9844.739029,-888.247130,766.095498
1031.616059,-9992.780217,-666.185348,1915.238745
1031.616380,-9992.780217,-3034.844362,-612.876398
1031.616701,-7105.977043,1628.453072,-306.438199
1031.617021,-11103.089130,0.000000,995.924147
1031.617342,-10140.821405,740.205942,1455.581446
1031.617663,-9696.697840,0.000000,0.000000
1031.617984,-8734.430116,-592.164754,-1762.019645
1031.618304,-8512.368333,1258.350101,-306.438199
1031.618625,-10362.883188,-296.082377,842.705048
1031.618946,-9992.780217,-592.164754,1762.019645
1031.619267,-9252.574275,-1998.556043,-1762.019645
1031.619587,-8290.306550,0.000000,-1532.190996
1031.619908,-10066.800811,2072.576638,306.438199
1031.620229,-11029.068536,1776.494261,2451.505594
1031.620550,-10362.883188,814.226536,1915.238745
1031.620870,-9844.739029,-962.267725,-1225.752797
1031.621191,-8586.388927,1702.473667,-153.219100
1031.621512,-11843.295072,-592.164754,2068.457845
1031.621833,-10584.944971,-666.185348,4136.915689
1031.622153,-10066.800811,-2738.761985,1838.629195
1031.622474,-7698.141797,-2960.823768,-3830.477490
1031.622795,-6587.832884,370.102971,-1685.410096
1031.623116,-9178.553681,518.144159,-842.705048
1031.623436,-9992.780217,1332.370696,2221.676944
1031.623757,-9030.512492,-666.185348,-306.438199
1031.624078,-7994.224174,-1184.329507,689.485948
1031.624399,-10214.842000,-962.267725,2374.896044
1031.624719,-12731.542202,-2220.617826,6281.983084
1031.625040,-12435.459826,-2812.782580,5286.058936
1031.625361,-9622.677246,-592.164754,2145.067394
1031.625682,-8290.306550,-296.082377,995.924147
1031.626002,-7772.162391,1406.391290,1991.848295
1031.626323,-9696.697840,0.000000,3524.039291
1031.626644,-7550.100608,-1332.370696,0.000000
1031.626965,-8586.388927,740.205942,536.266849
1031.627285,-8290.306550,1036.288319,1915.238745
1031.627606,-11029.068536,-444.123565,5056.230287
1031.627927,-11621.233289,-1184.329507,5056.230287
1031.628248,-9770.718434,-2368.659014,2528.115143
1031.628568,-8512.368333,74.020594,689.485948
1031.628889,-10584.944971,814.226536,3294.210641
1031.629210,-10214.842000,0.000000,3447.429741
1031.629531,-9918.759623,-444.123565,1378.971896
1031.629851,-8882.471304,-2220.617826,-1838.629195
1031.630172,-7772.162391,74.020594,-1072.533697
1031.630493,-9696.697840,-148.041188,919.314598
1031.630814,-11103.089130,-444.123565,2221.676944
1031.631134,-10066.800811,-1554.432478,-536.266849
1031.631455,-8216.285956,-222.061783,-1685.410096
1031.631776,-9548.656652,-1036.288319,-995.924147
1031.632097,-10066.800811,-740.205942,766.095498
1031.632417,-11325.150913,-1554.432478,2221.676944
1031.632738,-10362.883188,-2146.597232,-612.876398
1031.633059,-8438.347739,-222.061783,-689.485948
1031.633380,-10584.944971,-296.082377,995.924147
1031.633700,-11695.253884,-814.226536,2604.724693
1031.634021,-10066.800811,-962.267725,0.000000
1031.634342,-8586.388927,0.000000,-2757.943793
1031.634663,-7994.224174,2590.720797,-1915.238745
1031.634983,-9696.697840,1924.535449,-229.828649
1031.635304,-9474.636058,-518.144159,0.000000
1031.635625,-8660.409521,-1406.391290,-1915.238745
1031.635946,-9622.677246,-1036.288319,-1915.238745
1031.636266,-10732.986159,1110.308913,2757.943793
1031.636587,-13027.624579,1554.432478,5975.544884
1031.636908,-11769.274478,-148.041188,5439.278036
1031.637229,-8586.388927,-740.205942,-306.438199
1031.637549,-7031.956449,2072.576638,-766.095498
1031.637870,-8660.409521,296.082377,-153.219100
1031.638191,-7994.224174,666.185348,919.314598
1031.638512,-7994.224174,-1924.535449,-919.314598
1031.638832,-7105.977043,-814.226536,-3140.991542
1031.639153,-8586.388927,2220.617826,689.485948
1031.639474,-12361.439231,888.247130,4979.620737
1031.639795,-11399.171507,518.144159,6588.421283
1031.640115,-10584.944971,-3775.050304,3140.991542
1031.640436,-9474.636058,-2516.700203,2221.676944
1031.640757,-10140.821405,-2146.597232,2987.772442
1031.641078,-10362.883188,-1110.308913,3983.696590
1031.641398,-9622.677246,-666.185348,1149.143247
1031.641719,-6217.729913,222.061783,-1762.019645
1031.642040,-7105.977043,1628.453072,-1149.143247
1031.642361,-9474.636058,-444.123565,995.924147
1031.642681,-9992.780217,-444.123565,3370.820191
1031.643002,-11251.130318,-2738.761985,1991.848295
1031.643323,-10436.903782,-1184.329507,536.266849
1031.643644,-9178.553681,1258.350101,3370.820191
1031.643964,-11769.274478,-814.226536,4826.401637
1031.644285,-10510.924376,444.123565,3677.258390
1031.644606,-10362.883188,-1258.350101,0.000000
1031.644927,-7179.997637,666.185348,-1302.362347
1031.645247,-9030.512492,-222.061783,-766.095498
1031.645568,-8808.450710,814.226536,1608.800546
1031.645889,-10066.800811,666.185348,689.485948
1031.646210,-9474.636058,-370.102971,-766.095498
1031.646530,-8216.285956,814.226536,153.219100
1031.646851,-11695.253884,-1776.494261,2987.772442
1031.647172,-10584.944971,-814.226536,2451.505594
1031.647493,-11029.068536,-2516.700203,1149.143247
1031.647813,-9252.574275,-666.185348,-1072.533697
1031.648134,-7772.162391,2442.679609,-689.485948
1031.648455,-10214.842000,1480.411884,689.485948
1031.648776,-9918.759623,-444.123565,766.095498
1031.649096,-7402.059420,-2220.617826,-2911.162892
1031.649417,-8882.471304,-962.267725,-3064.381992
1031.649738,-9474.636058,814.226536,-689.485948
1031.650059,-10732.986159,814.226536,2298.286494
1031.650379,-11325.150913,-740.205942,2757.943793
1031.650700,-9844.739029,-1554.432478,-995.924147
1031.651021,-7846.182985,1036.288319,-1149.143247
1031.651342,-11473.192101,-666.185348,1378.971896
1031.651662,-9474.636058,-222.061783,2068.457845
1031.651983,-9474.636058,-1924.535449,229.828649
1031.652304,-8068.244768,-1554.432478,-1991.848295
1031.652625,-8290.306550,296.082377,0.000000
1031.652945,-10214.842000,444.123565,1915.238745
1031.653266,-10807.006753,592.164754,3907.087040
1031.653587,-9474.636058,-518.144159,1762.019645
1031.653908,-9474.636058,-1184.329507,1608.800546
1031.654228,-8734.430116,888.247130,2298.286494
1031.654549,-11769.274478,-1850.514855,2681.334243
1031.654870,-9474.636058,-666.185348,4136.915689
1031.655191,-9992.780217,-1702.473667,1838.629195
1031.655511,-7105.977043,0.000000,-766.095498
1031.655832,-7772.162391,-370.102971,689.485948
1031.656153,-9770.718434,2590.720797,919.314598
1031.656474,-9252.574275,2294.638420,919.314598
1031.656794,-8438.347739,148.041188,229.828649
1031.657115,-9104.533087,1628.453072,2987.772442
1031.657436,-10288.862594,-518.144159,5745.716235
1031.657757,-14508.036463,-6513.812290,3677.258390
1031.658077,-5329.482782,-1036.288319,4596.572988
1031.658398,-12065.356855,-1332.370696,1532.190996
1031.658719,-9474.636058,1702.473667,5056.230287
1031.659040,-8142.265362,-222.061783,1608.800546
1031.659360,-9992.780217,-1480.411884,1608.800546
1031.659681,-6957.935855,-1924.535449,-3294.210641
1031.660002,-8660.409521,-518.144159,-1302.362347
1031.660323,-11103.089130,148.041188,3677.258390
1031.660643,-8956.491898,-888.247130,1532.190996
1031.660964,-11251.130318,-1406.391290,612.876398
1031.661285,-9030.512492,-1332.370696,689.485948
1031.661606,-9104.533087,0.000000,1302.362347
1031.661926,-12287.418637,-74.020594,2681.334243
1031.662247,-10807.006753,-1332.370696,2221.676944
1031.662568,-8216.285956,-1628.453072,-1685.410096
1031.662889,-8882.471304,-222.061783,-1762.019645
1031.663209,-8808.450710,0.000000,-383.047749
1031.663530,-9770.718434,-148.041188,1225.752797
1031.663851,-8956.491898,-2368.659014,-459.657299
1031.664172,-9030.512492,-962.267725,-2911.162892
1031.664492,-8808.450710,962.267725,-1378.971896
1031.664813,-10732.986159,2368.659014,1991.848295
1031.665134,-12065.356855,1110.308913,3370.820191
1031.665455,-7846.182985,-1776.494261,-995.924147
1031.665775,-9252.574275,-1406.391290,-1302.362347
1031.666096,-9474.636058,740.205942,995.924147
1031.666417,-11103.089130,1036.288319,2911.162892
1031.666738,-12435.459826,1628.453072,4213.525239
1031.667058,-9770.718434,74.020594,229.828649
1031.667379,-8290.306550,1628.453072,-612.876398
1031.667700,-10881.027347,222.061783,2145.067394
1031.668021,-8216.285956,-1036.288319,1762.019645
1031.668341,-9030.512492,-2664.741391,0.000000
1031.668662,-7846.182985,-1480.411884,-1685.410096
1031.668983,-7476.080014,1184.329507,0.000000
1031.669304,-11843.295072,518.144159,4903.011187
1031.669624,-12583.501014,0.000000,5822.325785
1031.669945,-10584.944971,-1036.288319,2681.334243
1031.670266,-9474.636058,-222.061783,1302.362347
1031.670587,-9400.615463,740.205942,2681.334243
1031.670907,-7772.162391,-1036.288319,536.266849
1031.671228,-8586.388927,-962.267725,1225.752797
1031.671549,-7105.977043,-1480.411884,-2145.067394
1031.671870,-6069.688724,0.000000,-1608.800546
1031.672190,-9178.553681,-592.164754,612.876398
1031.672511,-10362.883188,1628.453072,3447.429741
1031.672832,-11177.109724,-1184.329507,3064.381992
1031.673153,-10362.883188,-1184.329507,2604.724693
1031.673473,-10066.800811,-148.041188,3907.087040
1031.673794,-11547.212695,-2812.782580,3753.867940
1031.674115,-10658.965565,-1480.411884,4519.963438
1031.674436,-9030.512492,-1702.473667,689.485948
1031.674756,-7328.038826,148.041188,-1608.800546
1031.675077,-8216.285956,1850.514855,-919.314598
1031.675398,-9474.636058,1998.556043,1149.143247
1031.675719,-10066.800811,-296.082377,766.095498
1031.676039,-9326.594869,-444.123565,-995.924147
1031.676360,-9474.636058,0.000000,1072.533697
1031.676681,-11029.068536,-666.185348,2451.505594
1031.677002,-11695.253884,-740.205942,3524.039291
1031.677322,-10288.862594,-1850.514855,1225.752797
1031.677643,-8808.450710,0.000000,-1302.362347
1031.677964,-9400.615463,296.082377,-919.314598
1031.678285,-9770.718434,-518.144159,459.657299
1031.678605,-9474.636058,-888.247130,0.000000
1031.678926,-10066.800811,-3256.906145,-2528.115143
1031.679247,-7994.224174,962.267725,-1225.752797
1031.679568,-10510.924376,-592.164754,1378.971896
1031.679888,-11473.192101,-1554.432478,2298.286494
1031.680209,-11473.192101,-2516.700203,1685.410096
1031.680530,-9918.759623,-1850.514855,-1532.190996
1031.680851,-8660.409521,1628.453072,-689.485948
1031.681171,-10881.027347,2072.576638,995.924147
1031.681492,-10066.800811,2220.617826,1991.848295
1031.681813,-8956.491898,-444.123565,-995.924147
1031.682134,-7994.224174,-962.267725,-2145.067394
1031.682454,-8734.430116,-1628.453072,-306.438199
1031.682775,-11843.295072,-2368.659014,1838.629195
1031.683096,-10732.986159,-1702.473667,2834.553343
1031.683417,-9474.636058,-518.144159,76.609550
1031.683737,-8364.327145,1332.370696,1225.752797
1031.684058,-10436.903782,2294.638420,2757.943793
1031.684379,-9844.739029,1480.411884,4290.134789
1031.684700,-10362.883188,-2368.659014,1532.190996
1031.685020,-6587.832884,-2146.597232,-612.876398
1031.685341,-8290.306550,-1258.350101,229.828649
1031.685662,-9474.636058,-370.102971,2681.334243
1031.685983,-9696.697840,0.000000,4060.306139
1031.686303,-9696.697840,-518.144159,1762.019645
1031.686624,-8290.306550,814.226536,689.485948
1031.686945,-10436.903782,1110.308913,2681.334243
1031.687266,-10658.965565,592.164754,4290.134789
1031.687586,-11103.089130,0.000000,3907.087040
1031.687907,-9030.512492,-962.267725,0.000000
1031.688228,-7698.141797,740.205942,229.828649
1031.688549,-9548.656652,-1184.329507,1302.362347
1031.688869,-10288.862594,-2220.617826,1685.410096
1031.689190,-9696.697840,-2368.659014,-306.438199
1031.689511,-8660.409521,0.000000,-842.705048
1031.689831,-8290.306550,3701.029710,612.876398
1031.690152,-13397.727550,2516.700203,3447.429741
1031.690473,-10510.924376,2146.597232,1991.848295
1031.690793,-11029.068536,-1998.556043,-842.705048
1031.691114,-8068.244768,-1258.350101,-689.485948
1031.691435,-9030.512492,-1332.370696,-766.095498
1031.691756,-11325.150913,-518.144159,3907.087040
1031.692076,-9918.759623,-1110.308913,383.047749
1031.692397,-8290.306550,666.185348,-995.924147
1031.692718,-9770.718434,0.000000,-766.095498
1031.693038,-9252.574275,1184.329507,0.000000
1031.693359,-11621.233289,444.123565,2451.505594
1031.693680,-10288.862594,-1776.494261,0.000000
1031.694001,-6291.750507,-444.123565,-1455.581446
1031.694321,-9918.759623,-592.164754,-153.219100
1031.694642,-8882.471304,666.185348,3294.210641
1031.694963,-10584.944971,-444.123565,2451.505594
1031.695283,-10066.800811,148.041188,1225.752797
1031.695604,-8586.388927,0.000000,0.000000
1031.695925,-9104.533087,518.144159,1149.143247
1031.696245,-9918.759623,0.000000,1532.190996
1031.696566,-10436.903782,0.000000,1225.752797
1031.696887,-8364.327145,-74.020594,-766.095498
1031.697208,-7402.059420,222.061783,0.000000
1031.697528,-10140.821405,-740.205942,2221.676944
1031.697849,-9326.594869,-1998.556043,2451.505594
1031.698170,-10807.006753,-3552.988522,1608.800546
1031.698490,-7698.141797,-592.164754,76.609550
1031.698811,-8882.471304,0.000000,919.314598
1031.699132,-10732.986159,1110.308913,4136.915689
1031.699452,-10510.924376,0.000000,4903.011187
1031.699773,-10510.924376,-2220.617826,2451.505594
1031.700094,-9622.677246,-1924.535449,2298.286494
1031.700415,-10288.862594,-1850.514855,2298.286494
1031.700735,-10436.903782,-888.247130,3600.648841
1031.701056,-10362.883188,-2368.659014,1532.190996
1031.701377,-6735.874072,0.000000,-383.047749
1031.701697,-8142.265362,-444.123565,-306.438199
1031.702018,-9474.636058,-1702.473667,1302.362347
1031.702339,-10436.903782,-1332.370696,1838.629195
1031.702659,-10584.944971,-2220.617826,1072.533697
1031.702980,-9918.759623,-1184.329507,-229.828649
1031.703301,-10214.842000,666.185348,2987.772442
1031.703622,-11029.068536,-740.205942,3677.258390
1031.703942,-9696.697840,-1554.432478,2451.505594
1031.704263,-9992.780217,-2146.597232,-306.438199
1031.704584,-8142.265362,444.123565,-995.924147
1031.704904,-9400.615463,-148.041188,-459.657299
1031.705225,-9474.636058,370.102971,1378.971896
1031.705546,-8956.491898,148.041188,383.047749
1031.705866,-9770.718434,814.226536,0.000000
1031.706187,-10288.862594,666.185348,2298.286494
1031.706508,-11843.295072,-888.247130,2451.505594
1031.706829,-9992.780217,-2960.823768,1685.410096
1031.707149,-9178.553681,-2590.720797,-2451.505594
1031.707470,-8142.265362,1036.288319,-1915.238745
1031.707791,-8512.368333,2146.597232,-612.876398
1031.708111,-8734.430116,888.247130,0.000000
1031.708432,-8734.430116,740.205942,-612.876398
1031.708753,-10214.842000,-1776.494261,-1991.848295
1031.709074,-9474.636058,-666.185348,919.314598
1031.709394,-11621.233289,-1702.473667,2834.553343
1031.709715,-11177.109724,-1258.350101,3907.087040
1031.710036,-9918.759623,-518.144159,1378.971896
1031.710356,-8956.491898,1628.453072,-153.219100
1031.710677,-9622.677246,2960.823768,536.266849
1031.710998,-10362.883188,1776.494261,2068.457845
1031.711318,-9844.739029,0.000000,1225.752797
1031.711639,-8808.450710,-2738.761985,-1378.971896
1031.711960,-7846.182985,148.041188,-995.924147
1031.712281,-10807.006753,0.000000,1685.410096
1031.712601,-11029.068536,1406.391290,4596.572988
1031.712922,-10288.862594,-518.144159,3677.258390
1031.713243,-8586.388927,-1258.350101,-459.657299
1031.713563,-9326.594869,518.144159,459.657299
1031.713884,-10584.944971,1184.329507,2604.724693
1031.714205,-9548.656652,3182.885551,6052.154434
1031.714525,-10584.944971,-1480.411884,1302.362347
1031.714846,-5625.565159,-222.061783,-612.876398
1031.715167,-9030.512492,-518.144159,1225.752797
1031.715488,-10436.903782,0.000000,4290.134789
1031.715808,-9992.780217,-296.082377,4749.792088
1031.716129,-10436.903782,-1480.411884,2221.676944
1031.716450,-7254.018232,2146.597232,229.828649
1031.716770,-11399.171507,740.205942,1762.019645
1031.717091,-9030.512492,2442.679609,4443.353888
1031.717412,-10214.842000,-1480.411884,1762.019645
1031.717732,-7994.224174,-666.185348,-1455.581446
1031.718053,-7920.203579,1406.391290,0.000000
1031.718374,-10732.986159,888.247130,1838.629195
1031.718695,-10140.821405,740.205942,4213.525239
1031.719015,-10214.842000,-3404.947333,1149.143247
1031.719336,-8290.306550,-1554.432478,-536.266849
1031.719657,-8808.450710,-888.247130,-306.438199
1031.719977,-10955.047942,-1406.391290,2221.676944
1031.720298,-9326.594869,-148.041188,2298.286494
1031.720619,-9622.677246,-666.185348,-689.485948
1031.720940,-8068.244768,518.144159,-459.657299
1031.721260,-10436.903782,-666.185348,842.705048
1031.721581,-10066.800811,-1850.514855,995.924147
1031.721902,-9474.636058,-2220.617826,-1532.190996
1031.722222,-9178.553681,-740.205942,-3370.820191
1031.722543,-6883.915261,2368.659014,-2068.457845
1031.722864,-10881.027347,296.082377,306.438199
1031.723184,-11029.068536,0.000000,2681.334243
1031.723505,-11177.109724,-4071.132681,383.047749
1031.723826,-11177.109724,-2960.823768,1378.971896
1031.724147,-11473.192101,-888.247130,4290.134789
1031.724467,-13175.665768,-2220.617826,5439.278036
1031.724788,-8882.471304,2442.679609,3600.648841
1031.725109,-8956.491898,0.000000,-2145.067394
1031.725429,-4219.173869,1406.391290,-3370.820191
1031.725750,-5477.523971,1554.432478,-3140.991542
1031.726071,-7846.182985,1628.453072,-383.047749
1031.726391,-9474.636058,666.185348,0.000000
1031.726712,-8438.347739,0.000000,612.876398
1031.727033,-11769.274478,-444.123565,2451.505594
1031.727354,-11547.212695,-1258.350101,4903.011187
1031.727674,-12213.398043,-1924.535449,5056.230287
1031.727995,-11177.109724,-2886.803174,4903.011187
1031.728316,-6809.894666,-1702.473667,-766.095498
1031.728636,-9696.697840,1332.370696,536.266849
1031.728957,-9326.594869,518.144159,2451.505594
1031.729278,-8364.327145,-74.020594,612.876398
1031.729598,-8956.491898,-740.205942,-383.047749
1031.729919,-9030.512492,-518.144159,-153.219100
1031.730240,-9326.594869,296.082377,2451.505594
1031.730561,-12139.377449,-2294.638420,4519.963438
1031.730881,-10214.842000,-3552.988522,1608.800546
1031.731202,-8882.471304,-1776.494261,536.266849
1031.731523,-9030.512492,74.020594,842.705048
1031.731843,-8956.491898,740.205942,766.095498
1031.732164,-9474.636058,518.144159,1378.971896
1031.732485,-9178.553681,222.061783,-536.266849
1031.732805,-7920.203579,1110.308913,-229.828649
1031.733126,-11251.130318,592.164754,995.924147
1031.733447,-10732.986159,-148.041188,3907.087040
1031.733768,-10881.027347,-4071.132681,1608.800546
1031.734088,-9696.697840,-1406.391290,76.609550
1031.734409,-9992.780217,0.000000,459.657299
1031.734730,-9030.512492,0.000000,306.438199
1031.735050,-9770.718434,222.061783,1072.533697
1031.735371,-9770.718434,-1332.370696,-536.266849
1031.735692,-6735.874072,-1184.329507,-2298.286494
1031.736013,-9252.574275,370.102971,-766.095498
1031.736333,-10955.047942,1110.308913,2987.772442
1031.736654,-10658.965565,1628.453072,2298.286494
1031.736975,-11029.068536,-888.247130,1302.362347
1031.737295,-8956.491898,0.000000,-766.095498
1031.737616,-9918.759623,666.185348,76.609550
1031.737937,-10955.047942,-1258.350101,153.219100
1031.738257,-8364.327145,-370.102971,306.438199
1031.738578,-9622.677246,-888.247130,-1378.971896
1031.738899,-8364.327145,222.061783,689.485948
1031.739220,-11547.212695,666.185348,3064.381992
1031.739540,-10807.006753,-1924.535449,3524.039291
1031.739861,-10066.800811,-3034.844362,459.657299
1031.740182,-8068.244768,1258.350101,-1072.533697
1031.740502,-9252.574275,2442.679609,766.095498
1031.740823,-9844.739029,2590.720797,1838.629195
1031.741144,-10214.842000,1628.453072,2528.115143
1031.741464,-8734.430116,-1924.535449,-1072.533697
1031.741785,-7846.182985,-1258.350101,-1225.752797
1031.742106,-10140.821405,-1924.535449,2145.067394
1031.742427,-10955.047942,-666.185348,3907.087040
1031.742747,-10584.944971,666.185348,3907.087040
1031.743068,-8808.450710,592.164754,1991.848295
1031.743389,-8142.265362,1924.535449,76.609550
1031.743709,-10955.047942,0.000000,1991.848295
1031.744030,-8586.388927,1110.308913,3294.210641
1031.744351,-10066.800811,-2738.761985,76.609550
1031.744671,-7105.977043,296.082377,842.705048
1031.744992,-9992.780217,-666.185348,2374.896044
1031.745313,-10140.821405,-1702.473667,2681.334243
1031.745634,-9548.656652,-592.164754,2681.334243
1031.745954,-9918.759623,-1554.432478,1149.143247
1031.746275,-7920.203579,888.247130,76.609550
1031.746596,-10214.842000,0.000000,1762.019645
1031.746916,-9252.574275,1258.350101,2451.505594
1031.747237,-8808.450710,-296.082377,1149.143247
1031.747558,-8512.368333,740.205942,-995.924147
1031.747879,-7846.182985,1110.308913,612.876398
1031.748199,-9918.759623,-296.082377,995.924147
1031.748520,-10658.965565,0.000000,2757.943793
1031.748841,-10140.821405,-2442.679609,306.438199
1031.749161,-7994.224174,-888.247130,-306.438199
1031.749482,-9770.718434,444.123565,459.657299
1031.749803,-11769.274478,740.205942,2068.457845
1031.750123,-9474.636058,-148.041188,536.266849
1031.750444,-8882.471304,-1036.288319,-2145.067394
1031.750765,-8660.409521,370.102971,-919.314598
1031.751086,-10066.800811,-1850.514855,0.000000
1031.751406,-10362.883188,148.041188,2145.067394
1031.751727,-10881.027347,-1036.288319,842.705048
1031.752048,-9104.533087,-740.205942,-536.266849
1031.752368,-9622.677246,0.000000,1149.143247
1031.752689,-10510.924376,-1110.308913,1991.848295
1031.753010,-10214.842000,-1850.514855,1455.581446
1031.753330,-9252.574275,-2146.597232,-1072.533697
1031.753651,-7550.100608,444.123565,-842.705048
1031.753972,-10584.944971,444.123565,919.314598
1031.754293,-9992.780217,1184.329507,3677.258390
1031.754613,-10510.924376,-1776.494261,1608.800546
1031.754934,-9104.533087,-1924.535449,-689.485948
1031.755255,-9696.697840,-296.082377,0.000000
1031.755575,-10214.842000,666.185348,2145.067394
1031.755896,-9326.594869,444.123565,2451.505594
1031.756217,-9030.512492,-1258.350101,-1072.533697
1031.756537,-7402.059420,0.000000,-3447.429741
1031.756858,-7476.080014,2516.700203,-383.047749
1031.757179,-13027.624579,444.123565,4673.182538
1031.757500,-11029.068536,1184.329507,6205.373534
1031.757820,-11103.089130,-2960.823768,3294.210641
1031.758141,-7698.141797,-1776.494261,689.485948
1031.758462,-8438.347739,-1702.473667,1991.848295
1031.758782,-10214.842000,-148.041188,3677.258390
1031.759103,-9252.574275,222.061783,2987.772442
1031.759424,-6217.729913,666.185348,-1149.143247
1031.759744,-8068.244768,1850.514855,229.828649
1031.760065,-9992.780217,-1184.329507,1302.362347
1031.760386,-10362.883188,-1036.288319,3447.429741
1031.760707,-11399.171507,-2368.659014,3370.820191
1031.761027,-8734.430116,-74.020594,1302.362347
1031.761348,-9474.636058,370.102971,2374.896044
1031.761669,-11547.212695,666.185348,4290.134789
1031.761989,-9474.636058,74.020594,2681.334243
1031.762310,-8808.450710,-740.205942,-306.438199
1031.762631,-9030.512492,148.041188,-766.095498
1031.762952,-8586.388927,1258.350101,1991.848295
1031.763272,-10436.903782,-1184.329507,1762.019645
1031.763593,-9252.574275,-1184.329507,919.314598
1031.763914,-9696.697840,-1406.391290,-153.219100
1031.764234,-9252.574275,-1036.288319,-2451.505594
1031.764555,-10140.821405,592.164754,383.047749
1031.764876,-9844.739029,962.267725,766.095498
1031.765196,-9622.677246,-1776.494261,-1838.629195
1031.765517,-9030.512492,740.205942,-1225.752797
1031.765838,-9252.574275,222.061783,-383.047749
1031.766159,-11029.068536,-370.102971,1149.143247
1031.766479,-11177.109724,-444.123565,1685.410096
1031.766800,-10584.944971,-1702.473667,-459.657299
1031.767121,-9844.739029,1480.411884,-1149.143247
1031.767441,-9622.677246,518.144159,-536.266849
1031.767762,-9178.553681,1258.350101,536.266849
1031.768083,-9918.759623,-1258.350101,-1072.533697
1031.768403,-7105.977043,370.102971,-1991.848295
1031.768724,-9030.512492,0.000000,-689.485948
1031.769045,-9548.656652,-592.164754,766.095498
1031.769366,-10881.027347,-518.144159,2298.286494
1031.769686,-10807.006753,-888.247130,1072.533697
1031.770007,-9252.574275,1480.411884,1072.533697
1031.770328,-10658.965565,2294.638420,2068.457845
1031.770648,-11547.212695,1628.453072,3447.429741
1031.770969,-9030.512492,-518.144159,1225.752797
1031.771290,-9104.533087,-2220.617826,-1608.800546
1031.771610,-7550.100608,222.061783,0.000000
1031.771931,-10658.965565,518.144159,3064.381992
1031.772252,-11325.150913,-666.185348,4443.353888
1031.772573,-8808.450710,-740.205942,4366.744339
1031.772893,-8512.368333,-2738.761985,842.705048
1031.773214,-8216.285956,370.102971,1685.410096
1031.773535,-11473.192101,-666.185348,3294.210641
1031.773855,-8068.244768,1998.556043,3907.087040
1031.774176,-10807.006753,-3182.885551,2068.457845
1031.774497,-5699.585753,962.267725,1149.143247
1031.774818,-9992.780217,0.000000,1608.800546
1031.775138,-9992.780217,-962.267725,3830.477490
1031.775459,-10510.924376,-296.082377,3217.601092
1031.775780,-9992.780217,-2368.659014,1455.581446
1031.776100,-7772.162391,1110.308913,1685.410096
1031.776421,-11399.171507,-1184.329507,2451.505594
1031.776742,-9770.718434,-296.082377,4366.744339
1031.777062,-9548.656652,-2072.576638,1532.190996
1031.777383,-8808.450710,-1258.350101,-383.047749
1031.777704,-8290.306550,1702.473667,2221.676944
1031.778025,-12213.398043,592.164754,3677.258390
1031.778345,-10066.800811,0.000000,3753.867940
1031.778666,-9400.615463,-370.102971,0.000000
1031.778987,-9030.512492,1036.288319,842.705048
1031.779307,-8734.430116,148.041188,536.266849
1031.779628,-11917.315666,-518.144159,919.314598
1031.779949,-9178.553681,-740.205942,306.438199
1031.780269,-8216.285956,-444.123565,-2834.553343
1031.780590,-9030.512492,-148.041188,-919.314598
1031.780911,-10214.842000,-1110.308913,-383.047749
1031.781232,-10140.821405,-296.082377,383.047749
1031.781552,-9918.759623,-1628.453072,-1225.752797
1031.781873,-8660.409521,-370.102971,-1762.019645
1031.782194,-10732.986159,-296.082377,76.609550
1031.782514,-10732.986159,-962.267725,1072.533697
1031.782835,-10732.986159,-814.226536,536.266849
1031.783156,-9326.594869,-2664.741391,-995.924147
1031.783476,-7624.121203,-2146.597232,-2221.676944
1031.783797,-9696.697840,-740.205942,1072.533697
1031.784118,-10288.862594,-740.205942,995.924147
1031.784439,-9474.636058,-296.082377,153.219100
1031.784759,-8586.388927,814.226536,-842.705048
1031.785080,-8734.430116,0.000000,-306.438199
1031.785401,-10066.800811,-740.205942,1072.533697
1031.785721,-9992.780217,-296.082377,1991.848295
1031.786042,-9844.739029,-1110.308913,-612.876398
1031.786363,-7550.100608,1406.391290,0.000000
1031.786683,-9844.739029,518.144159,1991.848295
1031.787004,-10807.006753,-74.020594,3370.820191
1031.787325,-9548.656652,-1628.453072,2068.457845
1031.787646,-8734.430116,-2072.576638,0.000000
1031.787966,-7698.141797,592.164754,1072.533697
1031.788287,-9844.739029,1924.535449,2987.772442
1031.788608,-11547.212695,2220.617826,5822.325785
1031.788928,-9474.636058,-888.247130,2145.067394
1031.789249,-8660.409521,-1702.473667,612.876398
1031.789570,-9400.615463,-2590.720797,306.438199
1031.789890,-9696.697840,-888.247130,2298.286494
1031.790211,-10362.883188,1184.329507,4903.011187
1031.790532,-11695.253884,0.000000,5132.839837
1031.790852,-8216.285956,148.041188,2911.162892
1031.791173,-11251.130318,-1702.473667,3217.601092
1031.791494,-10214.842000,-1110.308913,3753.867940
1031.791814,-10732.986159,-1924.535449,2911.162892
1031.792135,-8734.430116,-592.164754,995.924147
1031.792456,-7698.141797,444.123565,1225.752797
1031.792776,-7846.182985,370.102971,1072.533697
1031.793097,-11103.089130,592.164754,3524.039291
1031.793418,-9770.718434,-2960.823768,1991.848295
1031.793738,-9696.697840,-1332.370696,383.047749
1031.794059,-10658.965565,296.082377,1608.800546
1031.794380,-9548.656652,-222.061783,1762.019645
1031.794700,-10066.800811,148.041188,2068.457845
1031.795021,-10658.965565,-444.123565,1608.800546
1031.795342,-7624.121203,518.144159,-1302.362347
1031.795662,-9622.677246,0.000000,-1072.533697
1031.795983,-10584.944971,-1110.308913,766.095498
1031.796304,-9400.615463,-962.267725,-1302.362347
1031.796624,-9622.677246,0.000000,-1838.629195
1031.796945,-8142.265362,814.226536,-2451.505594
1031.797266,-9178.553681,888.247130,-689.485948
1031.797586,-10584.944971,-296.082377,153.219100
1031.797907,-9030.512492,-1184.329507,-383.047749
1031.798228,-9178.553681,-444.123565,-2604.724693
1031.798548,-9030.512492,0.000000,-766.095498
1031.798869,-9696.697840,0.000000,0.000000
1031.799190,-10362.883188,148.041188,1762.019645
1031.799510,-9992.780217,-814.226536,-306.438199
1031.799831,-9696.697840,962.267725,689.485948
1031.800152,-10955.047942,-592.164754,1149.143247
1031.800472,-10955.047942,-222.061783,2298.286494
1031.800793,-11325.150913,-1702.473667,1532.190996
1031.801114,-9326.594869,-1480.411884,-919.314598
1031.801434,-7920.203579,222.061783,-689.485948
1031.801755,-8882.471304,-296.082377,-76.609550
1031.802076,-8956.491898,518.144159,306.438199
1031.802396,-9474.636058,-1776.494261,-306.438199
1031.802717,-8438.347739,222.061783,229.828649
1031.803038,-10214.842000,-1110.308913,1838.629195
1031.803358,-10881.027347,-740.205942,4443.353888
1031.803679,-11177.109724,-1258.350101,4366.744339
1031.804000,-10436.903782,-1480.411884,1991.848295
1031.804320,-8438.347739,2590.720797,4136.915689
1031.804641,-11917.315666,-814.226536,4596.572988
1031.804962,-9030.512492,222.061783,5209.449386
1031.805282,-10436.903782,-3552.988522,3064.381992
1031.805603,-7031.956449,-888.247130,0.000000
1031.805924,-8216.285956,0.000000,0.000000
1031.806244,-8290.306550,814.226536,2298.286494
1031.806565,-7994.224174,2516.700203,2451.505594
1031.806886,-10288.862594,0.000000,1762.019645
1031.807206,-8956.491898,1406.391290,2068.457845
1031.807527,-11769.274478,-1554.432478,3294.210641
1031.807848,-10955.047942,-592.164754,3907.087040
1031.808169,-11399.171507,-1332.370696,4366.744339
1031.808489,-10436.903782,-2368.659014,1608.800546
1031.808810,-7476.080014,-518.144159,612.876398
1031.809131,-8290.306550,-1554.432478,766.095498
1031.809451,-8438.347739,814.226536,766.095498
1031.809772,-9844.739029,-222.061783,-383.047749
1031.810093,-9178.553681,1924.535449,0.000000
1031.810413,-8808.450710,1850.514855,536.266849
1031.810734,-10510.924376,0.000000,1378.971896
1031.811055,-10510.924376,0.000000,2068.457845
1031.811375,-9770.718434,-1036.288319,-612.876398
1031.811696,-9548.656652,222.061783,-689.485948
1031.812017,-9252.574275,-148.041188,-689.485948
1031.812337,-8808.450710,1258.350101,229.828649
1031.812658,-10362.883188,-1776.494261,-1838.629195
1031.812979,-7476.080014,740.205942,-2987.772442
1031.813299,-7920.203579,1702.473667,306.438199
1031.813620,-10732.986159,-222.061783,-76.609550
1031.813941,-11029.068536,1480.411884,1838.629195
1031.814261,-10214.842000,-1480.411884,0.000000
1031.814582,-9326.594869,148.041188,-842.705048
1031.814903,-9770.718434,0.000000,0.000000
1031.815223,-10288.862594,-592.164754,689.485948
1031.815544,-10066.800811,-444.123565,1762.019645
1031.815865,-9770.718434,-1258.350101,-1455.581446
1031.816185,-8956.491898,1628.453072,459.657299
1031.816506,-10066.800811,-518.144159,1378.971896
1031.816827,-9474.636058,0.000000,2145.067394
1031.817147,-11103.089130,-1554.432478,1991.848295
1031.817468,-8438.347739,-740.205942,229.828649
1031.817789,-8142.265362,-370.102971,689.485948
1031.818109,-11399.171507,-222.061783,2451.505594
1031.818430,-8956.491898,518.144159,3140.991542
1031.818751,-10214.842000,-2368.659014,1455.581446
1031.819071,-8734.430116,296.082377,1455.581446
1031.819392,-9992.780217,-444.123565,2145.067394
1031.819713,-10214.842000,-592.164754,3753.867940
1031.820033,-9992.780217,-592.164754,4519.963438
1031.820354,-10362.883188,-2072.576638,3753.867940
1031.820675,-8438.347739,-1554.432478,2068.457845
1031.820995,-9252.574275,-2590.720797,1915.238745
1031.821316,-9178.553681,-666.185348,3447.429741
1031.821637,-10436.903782,-1258.350101,2451.505594
1031.821957,-8290.306550,-370.102971,1072.533697
1031.822278,-9326.594869,296.082377,1378.971896
1031.822599,-9844.739029,148.041188,2374.896044
1031.822919,-10881.027347,-1850.514855,3294.210641
1031.823240,-11029.068536,-2664.741391,1838.629195
1031.823561,-8734.430116,-962.267725,612.876398
1031.823881,-8438.347739,-1332.370696,-536.266849
1031.824202,-7550.100608,740.205942,-919.314598
1031.824523,-9918.759623,1554.432478,-995.924147
1031.824843,-8586.388927,666.185348,-3983.696590
1031.825164,-6809.894666,1406.391290,-1455.581446
1031.825485,-10066.800811,-592.164754,0.000000
1031.825805,-11251.130318,-1702.473667,2221.676944
1031.826126,-11991.336260,-2960.823768,1455.581446
1031.826447,-11177.109724,-1850.514855,1072.533697
1031.826767,-8882.471304,-74.020594,306.438199
1031.827088,-11547.212695,740.205942,2068.457845
1031.827409,-8660.409521,1110.308913,995.924147
1031.827729,-8734.430116,0.000000,-2451.505594
1031.828050,-7254.018232,1258.350101,-2604.724693
1031.828371,-9326.594869,296.082377,-1378.971896
1031.828691,-9770.718434,-1184.329507,689.485948
1031.829012,-10066.800811,-1924.535449,1762.019645
1031.829333,-10066.800811,-1702.473667,766.095498
1031.829654,-9400.615463,-518.144159,689.485948
1031.829974,-11547.212695,0.000000,3140.991542
1031.830295,-11399.171507,2960.823768,4749.792088
1031.830616,-11029.068536,444.123565,995.924147
1031.830936,-8438.347739,2738.761985,-153.219100
1031.831257,-7994.224174,2590.720797,-612.876398
1031.831578,-8068.244768,1110.308913,-1302.362347
1031.831898,-8808.450710,-296.082377,1072.533697
1031.832219,-8734.430116,-2072.576638,306.438199
1031.832540,-8660.409521,148.041188,995.924147
1031.832860,-11399.171507,74.020594,4519.963438
1031.833181,-11843.295072,0.000000,6741.640382
1031.833502,-11843.295072,-814.226536,5286.058936
1031.833822,-10881.027347,-962.267725,3064.381992
1031.834143,-7698.141797,1036.288319,1915.238745
1031.834464,-9548.656652,444.123565,-306.438199
1031.834784,-7994.224174,444.123565,1915.238745
1031.835105,-8438.347739,-1628.453072,0.000000
1031.835426,-6735.874072,0.000000,-689.485948
1031.835746,-9252.574275,-740.205942,1072.533697
1031.836067,-9844.739029,518.144159,3370.820191
1031.836388,-11843.295072,-740.205942,3830.477490
1031.836708,-10732.986159,-1184.329507,2298.286494
1031.837029,-8734.430116,592.164754,1378.971896
1031.837350,-10584.944971,-1184.329507,1991.848295
1031.837670,-9696.697840,-592.164754,2298.286494
1031.837991,-9474.636058,-2368.659014,1149.143247
1031.838312,-8438.347739,-1332.370696,-1378.971896
1031.838632,-6883.915261,222.061783,-306.438199
1031.838953,-9548.656652,1184.329507,459.657299
1031.839274,-9326.594869,0.000000,1149.143247
1031.839594,-9104.533087,-1998.556043,-1915.238745
1031.839915,-8660.409521,74.020594,-689.485948
1031.840236,-9474.636058,666.185348,-1072.533697
1031.840556,-11843.295072,1184.329507,3217.601092
1031.840877,-10732.986159,-296.082377,1762.019645
1031.841198,-9400.615463,-1850.514855,-766.095498
1031.841518,-8660.409521,-1258.350101,-995.924147
1031.841839,-9400.615463,222.061783,-995.924147
1031.842160,-10436.903782,-370.102971,1532.190996
1031.842480,-9474.636058,-888.247130,-995.924147
1031.842801,-7698.141797,1480.411884,-2451.505594
1031.843122,-9178.553681,962.267725,-1225.752797
1031.843442,-9844.739029,-592.164754,536.266849
1031.843763,-11399.171507,-1258.350101,1762.019645
1031.844084,-10732.986159,-3034.844362,459.657299
1031.844404,-8808.450710,-740.205942,612.876398
1031.844725,-11029.068536,-962.267725,1838.629195
1031.845046,-10807.006753,-1036.288319,2528.115143
1031.845366,-8956.491898,-370.102971,2298.286494
1031.845687,-9474.636058,-1406.391290,-1302.362347
1031.846008,-8142.265362,1554.432478,229.828649
1031.846328,-11843.295072,222.061783,1838.629195
1031.846649,-9400.615463,1406.391290,3370.820191
1031.846970,-9918.759623,-2368.659014,2145.067394
1031.847290,-8290.306550,-296.082377,1072.533697
1031.847611,-9548.656652,-1406.391290,1455.581446
1031.847932,-9474.636058,-1850.514855,2145.067394
1031.848252,-9770.718434,1184.329507,4366.744339
1031.848573,-9992.780217,-2886.803174,1762.019645
1031.848894,-8364.327145,740.205942,2068.457845
1031.849214,-9844.739029,148.041188,2451.505594
1031.849535,-9252.574275,-148.041188,3140.991542
1031.849856,-9696.697840,-888.247130,3370.820191
1031.850176,-9178.553681,-962.267725,1532.190996
1031.850497,-8586.388927,370.102971,1455.581446
1031.850818,-10214.842000,-962.267725,2374.896044
1031.851138,-9474.636058,-592.164754,3370.820191
1031.851459,-9548.656652,-3034.844362,766.095498
1031.851780,-8734.430116,-444.123565,0.000000
1031.852101,-8882.471304,2368.659014,2374.896044
1031.852421,-10288.862594,2368.659014,3600.648841
1031.852742,-9696.697840,1110.308913,3140.991542
1031.853063,-10807.006753,-1258.350101,0.000000
1031.853383,-7476.080014,148.041188,0.000000
1031.853704,-10288.862594,-1776.494261,229.828649
1031.854025,-9178.553681,1628.453072,3447.429741
1031.854345,-12879.583391,-6587.832884,612.876398
1031.854666,-6661.853478,1258.350101,-1455.581446
1031.854987,-11177.109724,296.082377,-995.924147
1031.855307,-11325.150913,2368.659014,2451.505594
1031.855628,-8290.306550,2368.659014,1915.238745
1031.855949,-11991.336260,-1184.329507,229.828649
1031.856269,-8364.327145,0.000000,-1608.800546
1031.856590,-7402.059420,0.000000,-1991.848295
1031.856911,-13397.727550,222.061783,3370.820191
1031.857231,-6735.874072,-592.164754,-536.266849
1031.857552,-11325.150913,-222.061783,-1149.143247
1031.857873,-9474.636058,962.267725,-229.828649
1031.858193,-7550.100608,666.185348,-1991.848295
1031.858514,-10362.883188,592.164754,-306.438199
1031.858835,-9770.718434,74.020594,0.000000
1031.859155,-8512.368333,814.226536,-1225.752797
1031.859476,-10732.986159,1776.494261,3140.991542
1031.859797,-10362.883188,-740.205942,3217.601092
1031.860117,-10140.821405,1258.350101,4136.915689
1031.860438,-12509.480420,-2590.720797,3677.258390
1031.860759,-8882.471304,666.185348,842.705048
1031.861079,-9696.697840,1924.535449,2681.334243
1031.861400,-9104.533087,444.123565,2221.676944
1031.861721,-8734.430116,740.205942,1455.581446
1031.862041,-8216.285956,0.000000,612.876398
1031.862362,-7550.100608,1184.329507,612.876398
1031.862683,-8808.450710,-518.144159,3370.820191
1031.863003,-10362.883188,0.000000,3907.087040
1031.863324,-11769.274478,-2072.576638,4596.572988
1031.863645,-8956.491898,-296.082377,2528.115143
1031.863965,-8956.491898,1110.308913,3677.258390
1031.864286,-11103.089130,740.205942,4596.572988
1031.864607,-10288.862594,296.082377,4903.011187
1031.864927,-9104.533087,-1554.432478,1991.848295
1031.865248,-8808.450710,666.185348,1302.362347
1031.865569,-8364.327145,444.123565,2145.067394
1031.865889,-9918.759623,1332.370696,3064.381992
1031.866210,-9918.759623,1776.494261,5209.449386
1031.866531,-10288.862594,888.247130,4213.525239
1031.866851,-9326.594869,2664.741391,3447.429741
1031.867172,-11029.068536,1628.453072,4596.572988
1031.867493,-10807.006753,2146.597232,5056.230287
1031.867813,-10436.903782,370.102971,5056.230287
1031.868134,-8216.285956,-1850.514855,459.657299
1031.868455,-6513.812290,0.000000,-995.924147
1031.868775,-9474.636058,148.041188,1072.533697
1031.869096,-9918.759623,2516.700203,4519.963438
1031.869417,-10362.883188,2442.679609,5209.449386
1031.869737,-11251.130318,1406.391290,3677.258390
1031.870058,-10288.862594,2220.617826,1838.629195
1031.870379,-9400.615463,3923.091493,3600.648841
1031.870699,-13767.830521,1628.453072,5132.839837
1031.871020,-9326.594869,3182.885551,4060.306139
1031.871341,-8956.491898,0.000000,689.485948
1031.871661,-7402.059420,-814.226536,-1302.362347
1031.871982,-7698.141797,666.185348,-76.609550
1031.872303,-10658.965565,1036.288319,3294.210641
1031.872623,-10214.842000,2738.761985,4366.744339
1031.872944,-9474.636058,1924.535449,2451.505594
1031.873265,-9844.739029,1480.411884,1455.581446
1031.873586,-9474.636058,2886.803174,3370.820191
1031.873906,-10732.986159,2294.638420,3983.696590
1031.874227,-9770.718434,4293.194464,5286.058936
1031.874548,-9252.574275,2220.617826,2451.505594
1031.874868,-7772.162391,1184.329507,-76.609550
1031.875189,-8438.347739,1702.473667,842.705048
1031.875510,-9474.636058,888.247130,2604.724693
1031.875830,-8734.430116,2738.761985,4290.134789
1031.876151,-10732.986159,592.164754,3907.087040
1031.876472,-8882.471304,-148.041188,1608.800546
1031.876792,-9844.739029,1258.350101,3140.991542
1031.877113,-10881.027347,1036.288319,5669.106685
1031.877434,-10584.944971,2590.720797,5822.325785
1031.877754,-9696.697840,4219.173869,6741.640382
1031.878075,-9622.677246,1628.453072,3294.210641
1031.878396,-8734.430116,2812.782580,2911.162892
1031.878716,-10732.986159,1776.494261,4366.744339
1031.879037,-9474.636058,2368.659014,3753.867940
1031.879358,-8956.491898,3849.070898,4290.134789
1031.879678,-9918.759623,2812.782580,4596.572988
1031.879999,-10288.862594,2146.597232,4749.792088
1031.880320,-10288.862594,1998.556043,5056.230287
1031.880640,-10584.944971,888.247130,4826.401637
1031.880961,-9030.512492,1776.494261,3447.429741
1031.881282,-8512.368333,3182.885551,3524.039291
1031.881602,-10807.006753,1554.432478,4826.401637
1031.881923,-9474.636058,2220.617826,5362.668486
1031.882244,-10214.842000,-148.041188,3370.820191
1031.882564,-9400.615463,0.000000,1762.019645
1031.882885,-8734.430116,2072.576638,1685.410096
1031.883206,-10362.883188,1702.473667,2911.162892
1031.883526,-9622.677246,3330.926739,4826.401637
1031.883847,-9696.697840,2072.576638,3677.258390
1031.884168,-9474.636058,592.164754,2451.505594
1031.884488,-9474.636058,1332.370696,2604.724693
1031.884809,-9918.759623,740.205942,3294.210641
1031.885130,-9918.759623,1406.391290,2987.772442
1031.885450,-9104.533087,3256.906145,3830.477490
1031.885771,-8660.409521,2738.761985,3217.601092
1031.886092,-9474.636058,1036.288319,3370.820191
1031.886412,-10214.842000,814.226536,3140.991542
1031.886733,-8808.450710,518.144159,995.924147
1031.887054,-9622.677246,1924.535449,536.266849
1031.887374,-9770.718434,2590.720797,-1225.752797
1031.887695,-8734.430116,592.164754,842.705048
1031.888016,-8808.450710,962.267725,1149.143247
1031.888336,-9844.739029,0.000000,995.924147
1031.888657,-9696.697840,74.020594,1762.019645
1031.888978,-10436.903782,0.000000,2911.162892
1031.889298,-10362.883188,1110.308913,3600.648841
1031.889619,-11103.089130,2072.576638,3600.648841
1031.889940,-9548.656652,1628.453072,3524.039291
1031.890260,-8734.430116,2220.617826,3140.991542
1031.890581,-9400.615463,1406.391290,3217.601092
1031.890902,-10436.903782,1258.350101,3753.867940
1031.891223,-9622.677246,1554.432478,3600.648841
1031.891543,-9474.636058,2590.720797,2145.067394
1031.891864,-9400.615463,2960.823768,2451.505594
1031.892185,-9474.636058,3330.926739,3677.258390
1031.892505,-10214.842000,2072.576638,4519.963438
1031.892826,-10362.883188,592.164754,3140.991542
1031.893147,-9622.677246,1998.556043,3064.381992
1031.893467,-10214.842000,1036.288319,3830.477490
1031.893788,-10881.027347,1554.432478,4903.011187
1031.894109,-9770.718434,2146.597232,4443.353888
1031.894429,-8290.306550,1554.432478,4213.525239
1031.894750,-8290.306550,2220.617826,3600.648841
1031.895071,-9030.512492,1480.411884,3600.648841
1031.895391,-9992.780217,1258.350101,4749.792088
1031.895712,-9400.615463,2220.617826,5209.449386
1031.896033,-10436.903782,2812.782580,6818.249932
1031.896353,-10807.006753,2146.597232,7277.907231
1031.896674,-9770.718434,2146.597232,5745.716235
1031.896995,-10140.821405,1184.329507,3677.258390
1031.897316,-8290.306550,1850.514855,3370.820191
1031.897636,-7994.224174,1998.556043,1915.238745
1031.897957,-9030.512492,1850.514855,1915.238745
1031.898278,-9104.533087,1406.391290,1685.410096
1031.898598,-9030.512492,1036.288319,1608.800546
1031.898919,-9696.697840,2220.617826,2604.724693
1031.899240,-10140.821405,2960.823768,4290.134789
1031.899560,-11473.192101,3182.885551,6128.763984
1031.899881,-11177.109724,2664.741391,6588.421283
1031.900202,-10066.800811,1406.391290,4826.401637
1031.900522,-9178.553681,1332.370696,3447.429741
1031.900843,-9326.594869,1924.535449,3753.867940
1031.901164,-9104.533087,2294.638420,3064.381992
1031.901484,-9104.533087,2812.782580,1685.410096
1031.901805,-8364.327145,2220.617826,229.828649
1031.902126,-8438.347739,2146.597232,-306.438199
1031.902447,-10066.800811,2738.761985,1532.190996
1031.902767,-11473.192101,2664.741391,4903.011187
1031.903088,-11325.150913,1998.556043,4596.572988
1031.903409,-10658.965565,666.185348,3907.087040
1031.903729,-10140.821405,222.061783,3064.381992
1031.904050,-9696.697840,1554.432478,2681.334243
1031.904371,-9696.697840,1998.556043,2528.115143
1031.904691,-8438.347739,2442.679609,1991.848295
1031.905012,-8290.306550,1776.494261,689.485948
1031.905333,-8660.409521,814.226536,612.876398
1031.905653,-9178.553681,444.123565,1532.190996
1031.905974,-10214.842000,444.123565,2834.553343
1031.906295,-10362.883188,444.123565,3600.648841
1031.906615,-9474.636058,1184.329507,4443.353888
1031.906936,-10732.986159,1184.329507,4673.182538
1031.907257,-10066.800811,1924.535449,4979.620737
1031.907578,-10658.965565,1628.453072,4673.182538
1031.907898,-9622.677246,1702.473667,3983.696590
1031.908219,-9178.553681,1850.514855,2374.896044
1031.908540,-8734.430116,2146.597232,1072.533697
1031.908860,-8438.347739,2220.617826,1378.971896
1031.909181,-8660.409521,1184.329507,1302.362347
1031.909502,-8660.409521,888.247130,1915.238745
1031.909822,-9474.636058,222.061783,2987.772442
1031.910143,-9770.718434,0.000000,2451.505594
1031.910464,-10658.965565,296.082377,3370.820191
1031.910784,-10584.944971,1258.350101,4596.572988
1031.911105,-10510.924376,2294.638420,4443.353888
1031.911426,-10140.821405,2072.576638,5439.278036
1031.911746,-9918.759623,1998.556043,5362.668486
1031.912067,-9770.718434,1702.473667,6128.763984
1031.912388,-10066.800811,1702.473667,6818.249932
1031.912709,-9918.759623,2146.597232,6205.373534
1031.913029,-9622.677246,2368.659014,5745.716235
1031.913350,-9104.533087,2368.659014,4903.011187
1031.913671,-8734.430116,2220.617826,3753.867940
1031.913991,-8216.285956,1406.391290,3524.039291
1031.914312,-8808.450710,592.164754,1532.190996
1031.914633,-8808.450710,0.000000,459.657299
1031.914953,-9548.656652,0.000000,689.485948
1031.915274,-10362.883188,962.267725,1838.629195
1031.915595,-10807.006753,1554.432478,2681.334243
1031.915915,-11103.089130,1554.432478,3217.601092
1031.916236,-10881.027347,1702.473667,3524.039291
1031.916557,-11029.068536,814.226536,3907.087040
1031.916877,-11029.068536,1258.350101,3983.696590
1031.917198,-9770.718434,1110.308913,4366.744339
1031.917519,-8808.450710,1554.432478,3447.429741
1031.917839,-8438.347739,1554.432478,2757.943793
1031.918160,-8438.347739,1924.535449,2221.676944
1031.918481,-8808.450710,1628.453072,3677.258390
1031.918802,-9326.594869,1998.556043,2451.505594
1031.919122,-9770.718434,1998.556043,2374.896044
1031.919443,-10214.842000,2294.638420,2451.505594
1031.919764,-10510.924376,2368.659014,3064.381992
1031.920084,-10658.965565,2368.659014,2911.162892
1031.920405,-10584.944971,2590.720797,3370.820191
1031.920726,-10214.842000,2590.720797,3140.991542
1031.921046,-9770.718434,2442.679609,3064.381992
1031.921367,-9474.636058,2442.679609,3983.696590
1031.921688,-9622.677246,2664.741391,3677.258390
1031.922008,-9474.636058,2146.597232,3677.258390
1031.922329,-9252.574275,2072.576638,3907.087040
1031.922650,-9252.574275,1554.432478,2911.162892
1031.922970,-9474.636058,1850.514855,3753.867940
1031.923291,-9474.636058,1702.473667,3524.039291
1031.923612,-9474.636058,1850.514855,3217.601092
1031.923933,-9326.594869,1628.453072,2451.505594
1031.924253,-9252.574275,1628.453072,1915.238745
1031.924574,-9474.636058,1776.494261,1991.848295
1031.924895,-10066.800811,1998.556043,2068.457845
1031.925215,-10140.821405,1924.535449,2298.286494
1031.925536,-10140.821405,1702.473667,1991.848295
1031.925857,-9918.759623,1406.391290,2911.162892
1031.926177,-9770.718434,1036.288319,3064.381992
1031.926498,-9400.615463,1406.391290,3370.820191
1031.926819,-9474.636058,1110.308913,3753.867940
1031.927139,-9030.512492,1110.308913,3217.601092
1031.927460,-8882.471304,444.123565,2834.553343
1031.927781,-8586.388927,296.082377,2451.505594
1031.928101,-9104.533087,-444.123565,1685.410096
1031.928422,-8660.409521,0.000000,1762.019645
1031.928743,-9622.677246,-592.164754,1762.019645
1031.929064,-9770.718434,222.061783,1838.629195
1031.929384,-10658.965565,814.226536,1838.629195
1031.929705,-10510.924376,962.267725,1608.800546
1031.930026,-10510.924376,1332.370696,1762.019645
1031.930346,-10436.903782,1480.411884,1455.581446
1031.930667,-9992.780217,1480.411884,1302.362347
1031.930988,-9326.594869,1628.453072,2528.115143
1031.931308,-9326.594869,1258.350101,1072.533697
1031.931629,-8956.491898,1332.370696,1149.143247
1031.931950,-9326.594869,1036.288319,1378.971896
1031.932270,-9474.636058,1110.308913,2451.505594
1031.932591,-9770.718434,962.267725,2987.772442
1031.932912,-9770.718434,1036.288319,2911.162892
1031.933232,-9844.739029,740.205942,2987.772442
1031.933553,-9992.780217,1184.329507,2911.162892
1031.933874,-10066.800811,1702.473667,2681.334243
1031.934195,-9622.677246,1406.391290,2987.772442
1031.934515,-9548.656652,1702.473667,3140.991542
1031.934836,-9770.718434,1850.514855,3294.210641
1031.935157,-9178.553681,2664.741391,4903.011187
1031.935477,-9992.780217,1924.535449,4826.401637
1031.935798,-9992.780217,1850.514855,5132.839837
1031.936119,-10140.821405,1776.494261,5592.497135
1031.936439,-9844.739029,1776.494261,5669.106685
1031.936760,-9918.759623,1406.391290,5745.716235
1031.937081,-9474.636058,1406.391290,5822.325785
1031.937401,-9252.574275,1480.411884,6205.373534
1031.937722,-9104.533087,1332.370696,5745.716235
1031.938043,-8808.450710,1258.350101,5362.668486
1031.938363,-9400.615463,1998.556043,5669.106685
1031.938684,-9622.677246,1924.535449,5898.935335
1031.939005,-9474.636058,1998.556043,6052.154434
1031.939325,-11251.130318,3404.947333,5362.668486
1031.939646,-9844.739029,2886.803174,6511.811733
1031.939967,-9844.739029,3108.864956,6511.811733
1031.940288,-9992.780217,3404.947333,6511.811733
1031.940608,-9696.697840,3627.009116,6052.154434
1031.940929,-9400.615463,3330.926739,4903.011187
1031.941250,-9178.553681,3404.947333,4596.572988
1031.941570,-9178.553681,3182.885551,4213.525239
1031.941891,-9178.553681,3404.947333,4136.915689
1031.942212,-9030.512492,3330.926739,4060.306139
1031.942532,-9400.615463,2664.741391,3830.477490
1031.942853,-9474.636058,2442.679609,3524.039291
1031.943174,-9770.718434,2664.741391,3217.601092
1031.943494,-10658.965565,2442.679609,2068.457845
1031.943815,-9622.677246,3034.844362,1532.190996
1031.944136,-9474.636058,2442.679609,0.000000
1031.944456,-9104.533087,2664.741391,-612.876398
1031.944777,-9252.574275,2516.700203,-76.609550
1031.945098,-9770.718434,2220.617826,76.609550
1031.945419,-9992.780217,2294.638420,842.705048
1031.945739,-10288.862594,2294.638420,1455.581446
1031.946060,-10436.903782,2368.659014,2451.505594
1031.946381,-10732.986159,2442.679609,2834.553343
1031.946701,-10140.821405,2368.659014,2911.162892
1031.947022,-9696.697840,1998.556043,1991.848295
1031.947343,-8808.450710,2220.617826,1532.190996
1031.947663,-9474.636058,1258.350101,1455.581446
1031.947984,-8882.471304,1628.453072,1225.752797
1031.948305,-9400.615463,1184.329507,1149.143247
1031.948625,-9622.677246,814.226536,766.095498
1031.948946,-9474.636058,888.247130,-766.095498
1031.949267,-9400.615463,814.226536,0.000000
1031.949587,-9918.759623,1480.411884,1455.581446
1031.949908,-10362.883188,740.205942,2451.505594
1031.950229,-10066.800811,740.205942,3677.258390
1031.950550,-10140.821405,0.000000,4290.134789
1031.950870,-10362.883188,444.123565,5286.058936
1031.951191,-10436.903782,666.185348,6741.640382
1031.951512,-10066.800811,1554.432478,7354.516781
1031.951832,-9030.512492,2294.638420,8656.879127
1031.952153,-9104.533087,1480.411884,7201.297681
1031.952474,-8956.491898,592.164754,5975.544884
1031.952794,-8438.347739,0.000000,3983.696590
1031.953115,-8364.327145,-370.102971,3983.696590
1031.953436,-8290.306550,1332.370696,2221.676944
1031.953756,-9104.533087,1702.473667,2911.162892
1031.954077,-9770.718434,740.205942,3370.820191
1031.954398,-10584.944971,-222.061783,3064.381992
1031.954718,-10807.006753,-740.205942,3064.381992
1031.955039,-11177.109724,-444.123565,4366.744339
1031.955360,-11029.068536,370.102971,5898.935335
1031.955681,-10658.965565,1258.350101,6894.859482
1031.956001,-9992.780217,1406.391290,7584.345430
1031.956322,-9400.615463,444.123565,5669.106685
1031.956643,-8882.471304,222.061783,4136.915689
1031.956963,-8290.306550,296.082377,3524.039291
1031.957284,-7994.224174,518.144159,4366.744339
1031.957605,-8068.244768,1850.514855,3600.648841
1031.957925,-8882.471304,1628.453072,3064.381992
1031.958246,-9992.780217,592.164754,2528.115143
1031.958567,-9474.636058,1924.535449,2911.162892
1031.958887,-10955.047942,1258.350101,3524.039291
1031.959208,-10807.006753,2072.576638,2451.505594
1031.959529,-10658.965565,2368.659014,1072.533697
1031.959849,-9474.636058,2442.679609,0.000000
1031.960170,-8068.244768,2960.823768,0.000000
1031.960491,-8364.327145,1776.494261,-383.047749
1031.960811,-8364.327145,1258.350101,-1225.752797
1031.961132,-8216.285956,2220.617826,-766.095498
1031.961453,-8808.450710,2072.576638,995.924147
1031.961774,-9400.615463,3997.112087,3600.648841
1031.962094,-11029.068536,2812.782580,5286.058936
1031.962415,-10955.047942,2072.576638,4673.182538
1031.962736,-10807.006753,1628.453072,3677.258390
1031.963056,-9992.780217,2368.659014,3907.087040
1031.963377,-10140.821405,2738.761985,4673.182538
1031.963698,-10510.924376,3034.844362,4366.744339
1031.964018,-9400.615463,3701.029710,2528.115143
1031.964339,-9844.739029,4959.379811,842.705048
1031.964660,-9696.697840,4515.256246,1378.971896
1031.964980,-9474.636058,3775.050304,2451.505594
1031.965301,-10140.821405,3256.906145,2451.505594
1031.965622,-9992.780217,3404.947333,2911.162892
1031.965942,-9992.780217,2146.597232,3830.477490
1031.966263,-9844.739029,1036.288319,4596.572988
1031.966584,-10436.903782,666.185348,5515.887586
1031.966905,-11103.089130,1036.288319,5669.106685
1031.967225,-10362.883188,1406.391290,5975.544884
1031.967546,-10066.800811,222.061783,4826.401637
1031.967867,-8364.327145,1924.535449,4060.306139
1031.968187,-9992.780217,1776.494261,4673.182538
1031.968508,-9474.636058,2294.638420,5209.449386
1031.968829,-9622.677246,1924.535449,5362.668486
1031.969149,-9918.759623,1036.288319,4903.011187
1031.969470,-9918.759623,518.144159,4903.011187
1031.969791,-9844.739029,74.020594,4596.572988
1031.970111,-9104.533087,1628.453072,4136.915689
1031.970432,-9178.553681,2812.782580,3600.648841
1031.970753,-8290.306550,2368.659014,3524.039291
1031.971073,-7846.182985,1702.473667,3064.381992
1031.971394,-9030.512492,1258.350101,2834.553343
1031.971715,-9548.656652,-592.164754,2757.943793
1031.972036,-8882.471304,-148.041188,2451.505594
1031.972356,-8882.471304,814.226536,2145.067394
1031.972677,-9178.553681,2368.659014,1915.238745
1031.972998,-9992.780217,2072.576638,4213.525239
1031.973318,-10288.862594,1554.432478,5132.839837
1031.973639,-10510.924376,296.082377,3753.867940
1031.973960,-10214.842000,0.000000,2681.334243
1031.974280,-9474.636058,1702.473667,2681.334243
1031.974601,-9474.636058,3108.864956,2987.772442
1031.974922,-9844.739029,4071.132681,3064.381992
1031.975242,-8660.409521,3997.112087,2451.505594
1031.975563,-9474.636058,2220.617826,766.095498
1031.975884,-9844.739029,592.164754,-536.266849
1031.976204,-9918.759623,1184.329507,0.000000
1031.976525,-9548.656652,2220.617826,1455.581446
1031.976846,-9992.780217,1924.535449,3064.381992
1031.977167,-9918.759623,2072.576638,2528.115143
1031.977487,-10510.924376,148.041188,2451.505594
1031.977808,-10807.006753,-444.123565,1762.019645
1031.978129,-11547.212695,-222.061783,3294.210641
1031.978449,-10807.006753,74.020594,3600.648841
1031.978770,-9844.739029,814.226536,3600.648841
1031.979091,-9252.574275,888.247130,2911.162892
1031.979411,-8808.450710,666.185348,2834.553343
1031.979732,-8882.471304,0.000000,2068.457845
1031.980053,-9252.574275,-444.123565,1225.752797
1031.980373,-9326.594869,1406.391290,2604.724693
1031.980694,-9992.780217,1776.494261,3447.429741
1031.981015,-10362.883188,2368.659014,4596.572988
1031.981335,-11103.089130,1258.350101,5822.325785
1031.981656,-9548.656652,0.000000,4290.134789
1031.981977,-9030.512492,148.041188,3140.991542
1031.982297,-9178.553681,1776.494261,4749.792088
1031.982618,-9030.512492,1776.494261,4519.963438
1031.982939,-9474.636058,1406.391290,4673.182538
1031.983260,-8586.388927,1332.370696,3907.087040
1031.983580,-9030.512492,666.185348,1991.848295
1031.983901,-9474.636058,2442.679609,4903.011187
1031.984222,-10140.821405,1480.411884,6358.592633
1031.984542,-10584.944971,1406.391290,6128.763984
1031.984863,-9918.759623,814.226536,4749.792088
1031.985184,-8290.306550,740.205942,3983.696590
1031.985504,-10214.842000,3256.906145,5362.668486
1031.985825,-11029.068536,3330.926739,7277.907231
1031.986146,-10362.883188,1628.453072,6358.592633
1031.986466,-11473.192101,-1776.494261,1915.238745
1031.986787,-7476.080014,-444.123565,0.000000
1031.987108,-10066.800811,2146.597232,1225.752797
1031.987428,-9104.533087,5773.606348,3370.820191
1031.987749,-9696.697840,4293.194464,2987.772442
1031.988070,-10140.821405,1184.329507,-459.657299
1031.988391,-6143.709319,5403.503377,153.219100
1031.988711,-12213.398043,-2146.597232,919.314598
1031.989032,-9104.533087,4589.276840,6971.469032
1031.989353,-13767.830521,-2146.597232,3294.210641
1031.989673,-10140.821405,1110.308913,1072.533697
1031.989994,-8512.368333,1406.391290,-1455.581446
1031.990315,-9844.739029,1258.350101,-306.438199
1031.990636,-10288.862594,4071.132681,3600.648841
1031.990956,-9474.636058,592.164754,-689.485948
1031.991277,-10584.944971,3627.009116,-612.876398
1031.991598,-7994.224174,1628.453072,-919.314598
1031.991919,-10362.883188,-222.061783,153.219100
1031.992239,-11251.130318,888.247130,4749.792088
1031.992560,-10214.842000,-1480.411884,2757.943793
1031.992881,-7698.141797,-1258.350101,-766.095498
1031.993201,-8956.491898,-1258.350101,-1302.362347
1031.993522,-8882.471304,666.185348,1838.629195
1031.993843,-11103.089130,1776.494261,3753.867940
1031.994164,-9992.780217,148.041188,2374.896044
1031.994484,-7254.018232,888.247130,-766.095498
1031.994805,-9474.636058,370.102971,-766.095498
1031.995126,-10288.862594,1850.514855,2451.505594
1031.995447,-12065.356855,-444.123565,4903.011187
1031.995767,-9030.512492,-1628.453072,2298.286494
1031.996088,-7920.203579,-2812.782580,-1149.143247
1031.996409,-7402.059420,-2146.597232,-2221.676944
1031.996730,-10140.821405,-1554.432478,1225.752797
1031.997050,-9030.512492,222.061783,2681.334243
1031.997371,-9474.636058,148.041188,1072.533697
1031.997692,-8438.347739,-666.185348,-995.924147
1031.998013,-9400.615463,-962.267725,1302.362347
1031.998333,-11029.068536,-1036.288319,4903.011187
1031.998654,-11917.315666,-1036.288319,4903.011187
1031.998975,-9326.594869,0.000000,2987.772442
1031.999295,-9474.636058,74.020594,229.828649
1031.999616,-8882.471304,222.061783,1225.752797
1031.999937,-9622.677246,-740.205942,2604.724693
1032.000258,-9992.780217,-1184.329507,2528.115143
1032.000578,-8364.327145,-1924.535449,-1532.190996
1032.000899,-8586.388927,-1998.556043,-1225.752797
1032.001220,-9770.718434,-962.267725,3294.210641
1032.001541,-11769.274478,-3849.070898,3140.991542
1032.001861,-9030.512492,-1998.556043,2681.334243
1032.002182,-10066.800811,-2146.597232,-153.219100
1032.002503,-8068.244768,296.082377,-383.047749
1032.002824,-10807.006753,888.247130,2911.162892
1032.003144,-12361.439231,-1702.473667,2451.505594
1032.003465,-8956.491898,666.185348,1225.752797
1032.003786,-9696.697840,-2368.659014,-1302.362347
1032.004107,-8438.347739,-296.082377,306.438199
1032.004427,-10436.903782,-3330.926739,1838.629195
1032.004748,-10214.842000,-2664.741391,689.485948
1032.005069,-8438.347739,-1628.453072,-612.876398
1032.005389,-7920.203579,-1036.288319,-1608.800546
1032.005710,-8882.471304,888.247130,612.876398
1032.006031,-10881.027347,-2072.576638,-842.705048
1032.006352,-9696.697840,-1702.473667,-306.438199
1032.006672,-8438.347739,-148.041188,-1838.629195
1032.006993,-9252.574275,1184.329507,-1608.800546
1032.007314,-9622.677246,1628.453072,995.924147
1032.007635,-11917.315666,814.226536,1915.238745
1032.007955,-9548.656652,-518.144159,0.000000
1032.008276,-8512.368333,-296.082377,-2221.676944
1032.008597,-9844.739029,888.247130,383.047749
1032.008918,-10288.862594,518.144159,2528.115143
1032.009238,-10066.800811,1258.350101,2145.067394
1032.009559,-8734.430116,962.267725,919.314598
1032.009880,-8660.409521,666.185348,-612.876398
1032.010201,-9474.636058,1702.473667,2221.676944
1032.010521,-11843.295072,-1554.432478,2757.943793
1032.010842,-9326.594869,-1110.308913,1838.629195
1032.011163,-9474.636058,-1110.308913,0.000000
1032.011483,-8586.388927,1776.494261,459.657299
1032.011804,-10807.006753,2146.597232,2374.896044
1032.012125,-11103.089130,666.185348,2604.724693
1032.012446,-9844.739029,1924.535449,1991.848295
1032.012766,-9474.636058,-518.144159,-536.266849
1032.013087,-8882.471304,1184.329507,1302.362347
1032.013408,-11177.109724,-1110.308913,3447.429741
1032.013729,-9622.677246,-740.205942,2221.676944
1032.014049,-9844.739029,0.000000,1915.238745
1032.014370,-9104.533087,592.164754,919.314598
1032.014691,-8882.471304,2516.700203,3753.867940
1032.015012,-13323.706956,-888.247130,4596.572988
1032.015332,-8956.491898,148.041188,3370.820191
1032.015653,-9548.656652,-2220.617826,689.485948
1032.015974,-7698.141797,296.082377,536.266849
1032.016295,-8364.327145,1776.494261,1838.629195
1032.016615,-10436.903782,148.041188,2068.457845
1032.016936,-7698.141797,444.123565,1608.800546
1032.017257,-9178.553681,296.082377,-842.705048
1032.017577,-10140.821405,-962.267725,1915.238745
1032.017898,-10288.862594,-666.185348,2987.772442
1032.018219,-12509.480420,-592.164754,3677.258390
1032.018540,-9030.512492,-1036.288319,-383.047749
1032.018860,-8808.450710,222.061783,-383.047749
1032.019181,-8956.491898,888.247130,1532.190996
1032.019502,-10288.862594,-2960.823768,-383.047749
1032.019823,-7920.203579,-1554.432478,-612.876398
1032.020143,-7772.162391,-1628.453072,-3140.991542
1032.020464,-8068.244768,296.082377,-1378.971896
1032.020785,-10288.862594,0.000000,689.485948
1032.021106,-10066.800811,-518.144159,919.314598
1032.021426,-10658.965565,-1702.473667,842.705048
1032.021747,-9474.636058,-2590.720797,-1532.190996
1032.022068,-8956.491898,0.000000,995.924147
1032.022389,-12879.583391,-2294.638420,2145.067394
1032.022709,-9326.594869,-666.185348,1302.362347
1032.023030,-9992.780217,-2294.638420,-612.876398
1032.023351,-8068.244768,-1850.514855,-1608.800546
1032.023671,-7698.141797,-740.205942,-1225.752797
1032.023992,-10955.047942,-1998.556043,-306.438199
1032.024313,-7698.141797,74.020594,-459.657299
1032.024634,-8586.388927,-740.205942,-1915.238745
1032.024954,-9474.636058,-370.102971,536.266849
1032.025275,-9474.636058,-740.205942,1608.800546
1032.025596,-12805.562797,-1776.494261,1455.581446
1032.025917,-10288.862594,-1258.350101,1072.533697
1032.026237,-10362.883188,370.102971,1072.533697
1032.026558,-10066.800811,1258.350101,3217.601092
1032.026879,-10658.965565,-740.205942,3370.820191
1032.027200,-10066.800811,0.000000,1991.848295
1032.027520,-9474.636058,-1776.494261,-459.657299
1032.027841,-8438.347739,-518.144159,229.828649
1032.028162,-10066.800811,-296.082377,3447.429741
1032.028483,-10362.883188,-2590.720797,3064.381992
1032.028803,-9992.780217,-1332.370696,2681.334243
1032.029124,-9400.615463,-2146.597232,1455.581446
1032.029445,-7994.224174,592.164754,1838.629195
1032.029765,-10510.924376,-888.247130,3294.210641
1032.030086,-8734.430116,-444.123565,919.314598
1032.030407,-6439.791695,0.000000,-1991.848295
1032.030728,-5921.647536,962.267725,-3064.381992
1032.031048,-8216.285956,4589.276840,1608.800546
1032.031369,-11695.253884,0.000000,4826.401637
1032.031690,-10658.965565,-962.267725,4826.401637
1032.032011,-11843.295072,-2516.700203,4290.134789
1032.032331,-10807.006753,-2664.741391,3294.210641
1032.032652,-11843.295072,-1332.370696,6281.983084
1032.032973,-11621.233289,-888.247130,4366.744339
1032.033294,-7994.224174,2146.597232,995.924147
1032.033614,-7476.080014,1628.453072,-1225.752797
1032.033935,-6291.750507,2368.659014,-1762.019645
1032.034256,-9400.615463,74.020594,-153.219100
1032.034577,-10214.842000,-888.247130,0.000000
1032.034897,-8364.327145,74.020594,-306.438199
1032.035218,-9548.656652,-518.144159,842.705048
1032.035539,-10362.883188,1776.494261,4213.525239
1032.035859,-12731.542202,-444.123565,3907.087040
1032.036180,-10658.965565,-370.102971,1532.190996
1032.036501,-9992.780217,-592.164754,-1838.629195
1032.036822,-7772.162391,2146.597232,-2374.896044
1032.037142,-9992.780217,2294.638420,383.047749
1032.037463,-9622.677246,1628.453072,-536.266849
1032.037784,-7550.100608,1554.432478,-1915.238745
1032.038105,-8068.244768,-1628.453072,-3370.820191
1032.038425,-8512.368333,518.144159,153.219100
1032.038746,-12731.542202,-1850.514855,2834.553343
1032.039067,-11843.295072,-592.164754,2221.676944
1032.039388,-10362.883188,74.020594,1225.752797
1032.039708,-8882.471304,296.082377,-459.657299
1032.040029,-9622.677246,1998.556043,2374.896044
1032.040350,-11473.192101,-1480.411884,1072.533697
1032.040671,-7476.080014,-148.041188,-1149.143247
1032.040991,-7402.059420,-518.144159,-2681.334243
1032.041312,-7994.224174,1480.411884,0.000000
1032.041633,-10066.800811,814.226536,2681.334243
1032.041953,-11547.212695,-814.226536,2911.162892
1032.042274,-7920.203579,-148.041188,2681.334243
1032.042595,-9474.636058,-1332.370696,229.828649
1032.042916,-9400.615463,-296.082377,2681.334243
1032.043236,-10658.965565,-2368.659014,2681.334243
1032.043557,-9400.615463,-814.226536,1072.533697
1032.043878,-7624.121203,-666.185348,0.000000
1032.044199,-8068.244768,0.000000,612.876398
1032.044519,-9770.718434,296.082377,3677.258390
1032.044840,-11843.295072,-3330.926739,3524.039291
1032.045161,-8364.327145,-1036.288319,2451.505594
1032.045482,-10214.842000,-1924.535449,1302.362347
1032.045802,-9104.533087,1480.411884,2298.286494
1032.046123,-11621.233289,1184.329507,4673.182538
1032.046444,-10362.883188,-592.164754,3294.210641
1032.046765,-7624.121203,0.000000,0.000000
1032.047085,-8290.306550,-1184.329507,-459.657299
1032.047406,-8808.450710,740.205942,2068.457845
1032.047727,-11473.192101,-370.102971,3140.991542
1032.048047,-10807.006753,0.000000,3370.820191
1032.048368,-8956.491898,-1628.453072,995.924147
1032.048689,-8882.471304,-962.267725,536.266849
1032.049010,-10658.965565,-666.185348,2681.334243
1032.049330,-10658.965565,-2442.679609,1072.533697
1032.049651,-8808.450710,-1776.494261,76.609550
1032.049972,-7846.182985,-1036.288319,-2681.334243
1032.050293,-9104.533087,740.205942,0.000000
1032.050613,-12287.418637,-3034.844362,3830.477490
1032.050934,-10066.800811,-666.185348,2374.896044
1032.051255,-11029.068536,-1258.350101,1225.752797
1032.051576,-8956.491898,-1184.329507,-306.438199
1032.051896,-9252.574275,592.164754,2221.676944
1032.052217,-11325.150913,-888.247130,1455.581446
1032.052538,-7772.162391,-592.164754,-1072.533697
1032.052859,-7328.038826,-1480.411884,-4290.134789
1032.053179,-6661.853478,1924.535449,-2528.115143
1032.053500,-10140.821405,-296.082377,0.000000
1032.053821,-11843.295072,444.123565,2298.286494
1032.054141,-9178.553681,-518.144159,1302.362347
1032.054462,-9622.677246,-1924.535449,-1225.752797
1032.054783,-8882.471304,2146.597232,1149.143247
1032.055104,-11917.315666,0.000000,2604.724693
1032.055424,-10658.965565,2368.659014,3294.210641
1032.055745,-9178.553681,1110.308913,1149.143247
1032.056066,-9104.533087,-888.247130,-306.438199
1032.056387,-8734.430116,-1480.411884,1915.238745
1032.056707,-10214.842000,-4219.173869,306.438199
1032.057028,-8142.265362,-1924.535449,766.095498
1032.057349,-8068.244768,-2146.597232,-1685.410096
1032.057670,-5773.606348,2368.659014,-383.047749
1032.057990,-10955.047942,1258.350101,3217.601092
1032.058311,-10288.862594,0.000000,3064.381992
1032.058632,-9622.677246,296.082377,2298.286494
1032.058953,-10362.883188,-1258.350101,0.000000
1032.059273,-8586.388927,2368.659014,2145.067394
1032.059594,-13101.645173,-222.061783,5439.278036
1032.059915,-9770.718434,-296.082377,3753.867940
1032.060235,-9104.533087,-2146.597232,-383.047749
1032.060556,-7772.162391,296.082377,-383.047749
1032.060877,-9770.718434,888.247130,2374.896044
1032.061198,-12139.377449,-740.205942,2834.553343
1032.061518,-10584.944971,814.226536,3064.381992
1032.061839,-8882.471304,0.000000,306.438199
1032.062160,-9178.553681,2294.638420,2451.505594
1032.062481,-12361.439231,-444.123565,4903.011187
1032.062801,-11547.212695,-1332.370696,3140.991542
1032.063122,-8142.265362,-1258.350101,-1378.971896
1032.063443,-6365.771101,-740.205942,-4749.792088
1032.063764,-6291.750507,4293.194464,-2221.676944
1032.064084,-10658.965565,2516.700203,459.657299
1032.064405,-9104.533087,2590.720797,1991.848295
1032.064726,-9696.697840,-1702.473667,536.266849
1032.065047,-10658.965565,-2812.782580,1149.143247
1032.065367,-12287.418637,-2886.803174,3370.820191
1032.065688,-13323.706956,-2072.576638,4136.915689
1032.066009,-9918.759623,148.041188,2834.553343
1032.066329,-8438.347739,148.041188,-1378.971896
1032.066650,-5477.523971,2886.803174,-1225.752797
1032.066971,-9548.656652,-1554.432478,-919.314598
1032.067292,-7846.182985,-814.226536,-766.095498
1032.067612,-8512.368333,-3034.844362,-1991.848295
1032.067933,-7179.997637,-1850.514855,-3064.381992
1032.068254,-9400.615463,1110.308913,2528.115143
1032.068575,-12879.583391,-2812.782580,3600.648841
1032.068895,-10066.800811,-370.102971,3217.601092
1032.069216,-10140.821405,-2072.576638,76.609550
1032.069537,-8142.265362,296.082377,-842.705048
1032.069858,-9844.739029,1332.370696,1608.800546
1032.070178,-10288.862594,-1628.453072,0.000000
1032.070499,-7031.956449,0.000000,-842.705048
1032.070820,-8290.306550,-1924.535449,-2681.334243
1032.071141,-7105.977043,0.000000,-383.047749
1032.071461,-11769.274478,-2368.659014,1302.362347
1032.071782,-11473.192101,-1924.535449,2604.724693
1032.072103,-9918.759623,-148.041188,2451.505594
1032.072423,-11103.089130,222.061783,2681.334243
1032.072744,-9400.615463,2146.597232,5286.058936
1032.073065,-11843.295072,-1480.411884,3370.820191
1032.073386,-8438.347739,-296.082377,536.266849
1032.073706,-7772.162391,-1480.411884,-1991.848295
1032.074027,-8438.347739,740.205942,0.000000
1032.074348,-10066.800811,814.226536,2681.334243
1032.074669,-11695.253884,-666.185348,2528.115143
1032.074989,-10658.965565,222.061783,2987.772442
1032.075310,-10140.821405,-518.144159,995.924147
1032.075631,-9252.574275,888.247130,4366.744339
1032.075952,-12065.356855,-2072.576638,4136.915689
1032.076272,-9474.636058,-1702.473667,1225.752797
1032.076593,-8512.368333,-1332.370696,-229.828649
1032.076914,-8142.265362,0.000000,229.828649
1032.077235,-9326.594869,222.061783,2911.162892
1032.077555,-11399.171507,-2368.659014,2834.553343
1032.077876,-8956.491898,-1480.411884,1762.019645
1032.078197,-9400.615463,-2442.679609,-842.705048
1032.078517,-8882.471304,1036.288319,1072.533697
1032.078838,-11325.150913,740.205942,3294.210641
1032.079159,-10807.006753,-888.247130,1072.533697
1032.079480,-7402.059420,-74.020594,-919.314598
1032.079800,-7846.182985,-1702.473667,-2145.067394
1032.080121,-7772.162391,666.185348,-306.438199
1032.080442,-11547.212695,-740.205942,1302.362347
1032.080763,-9326.594869,814.226536,1072.533697
1032.081083,-8512.368333,0.000000,612.876398
1032.081404,-8660.409521,444.123565,-612.876398
1032.081725,-9622.677246,592.164754,2528.115143
1032.082046,-10807.006753,-1258.350101,1149.143247
1032.082366,-8586.388927,888.247130,-689.485948
1032.082687,-8364.327145,1110.308913,-1685.410096
1032.083008,-7624.121203,2590.720797,229.828649
1032.083329,-10658.965565,814.226536,2145.067394
1032.083649,-11325.150913,444.123565,2451.505594
1032.083970,-10510.924376,-1998.556043,-536.266849
1032.084291,-8808.450710,-666.185348,-459.657299
1032.084611,-9992.780217,148.041188,2451.505594
1032.084932,-11843.295072,-1998.556043,3447.429741
1032.085253,-9030.512492,-814.226536,1838.629195
1032.085574,-9178.553681,-1998.556043,-1072.533697
1032.085894,-7920.203579,-148.041188,-1838.629195
1032.086215,-9252.574275,1110.308913,1608.800546
1032.086536,-12213.398043,-1184.329507,2911.162892
1032.086857,-8364.327145,0.000000,1225.752797
1032.087177,-9622.677246,-1850.514855,-459.657299
1032.087498,-8438.347739,518.144159,1532.190996
1032.087819,-10732.986159,0.000000,3677.258390
1032.088140,-12213.398043,-1702.473667,4136.915689
1032.088460,-9326.594869,-370.102971,1072.533697
1032.088781,-7550.100608,2146.597232,-1225.752797
1032.089102,-10955.047942,3182.885551,3753.867940
1032.089423,-11325.150913,1184.329507,5362.668486
1032.089743,-11177.109724,-1554.432478,4060.306139
1032.090064,-7772.162391,-3108.864956,-766.095498
1032.090385,-7772.162391,0.000000,-1532.190996
1032.090705,-9252.574275,666.185348,1762.019645
1032.091026,-9770.718434,1036.288319,2451.505594
1032.091347,-8068.244768,1628.453072,2068.457845
1032.091668,-7920.203579,222.061783,-689.485948
1032.091989,-8660.409521,592.164754,1149.143247
1032.092309,-11621.233289,-1036.288319,2757.943793
1032.092630,-11473.192101,-962.267725,2987.772442
1032.092951,-9844.739029,-814.226536,1915.238745
1032.093272,-8068.244768,74.020594,306.438199
1032.093593,-8956.491898,444.123565,1149.143247
1032.093913,-10436.903782,-1554.432478,1225.752797
1032.094234,-8882.471304,-1184.329507,0.000000
1032.094555,-8734.430116,-1702.473667,-1991.848295
1032.094876,-8142.265362,962.267725,-1378.971896
1032.095197,-9770.718434,666.185348,1532.190996
1032.095517,-10955.047942,-814.226536,2145.067394
1032.095838,-9622.677246,-1406.391290,919.314598
1032.096159,-8512.368333,-3034.844362,-2221.676944
1032.096480,-8808.450710,-1036.288319,-2298.286494
1032.096801,-10955.047942,-296.082377,-153.219100
1032.097122,-11029.068536,1110.308913,1302.362347
1032.097442,-8586.388927,296.082377,383.047749
1032.097763,-8586.388927,1110.308913,0.000000
1032.098084,-10807.006753,-148.041188,1455.581446
1032.098405,-10881.027347,-2146.597232,229.828649
1032.098726,-9770.718434,-592.164754,1225.752797
1032.099046,-8216.285956,-1850.514855,0.000000
1032.099367,-8660.409521,2294.638420,1532.190996
1032.099688,-10658.965565,518.144159,2451.505594
1032.100009,-9992.780217,-814.226536,1149.143247
1032.100330,-8142.265362,-74.020594,383.047749
1032.100651,-9696.697840,-1110.308913,689.485948
1032.100971,-9104.533087,370.102971,2221.676944
1032.101292,-11769.274478,-1628.453072,2451.505594
1032.101613,-9474.636058,-592.164754,1915.238745
1032.101934,-8808.450710,-888.247130,1378.971896
1032.102255,-10140.821405,-222.061783,2145.067394
1032.102575,-9770.718434,666.185348,2757.943793
1032.102896,-10807.006753,0.000000,2068.457845
1032.103217,-9178.553681,740.205942,919.314598
1032.103538,-9474.636058,666.185348,689.485948
1032.103859,-9696.697840,1258.350101,1991.848295
1032.104180,-10436.903782,-962.267725,3294.210641
1032.104500,-10881.027347,-2072.576638,2911.162892
1032.104821,-8660.409521,-962.267725,1915.238745
1032.105142,-10362.883188,-1332.370696,842.705048
1032.105463,-9918.759623,1998.556043,3830.477490
1032.105784,-10955.047942,592.164754,3064.381992
1032.106104,-8882.471304,-370.102971,766.095498
1032.106425,-7698.141797,-296.082377,-1455.581446
1032.106746,-8364.327145,0.000000,1685.410096
1032.107067,-10214.842000,444.123565,2451.505594
1032.107388,-12139.377449,-1406.391290,2987.772442
1032.107708,-9252.574275,0.000000,1762.019645
1032.108029,-9030.512492,-1998.556043,-536.266849
1032.108350,-8290.306550,962.267725,919.314598
1032.108671,-11473.192101,-222.061783,2911.162892
1032.108992,-9548.656652,0.000000,1072.533697
1032.109313,-8290.306550,-370.102971,-995.924147
1032.109633,-8290.306550,592.164754,-1532.190996
1032.109954,-9400.615463,1776.494261,1302.362347
1032.110275,-11473.192101,-444.123565,1915.238745
1032.110596,-9400.615463,666.185348,1608.800546
1032.110917,-9326.594869,-2294.638420,-1149.143247
1032.111237,-8216.285956,888.247130,-1072.533697
1032.111558,-10436.903782,592.164754,1838.629195
1032.111879,-11251.130318,-592.164754,1149.143247
1032.112200,-8512.368333,1258.350101,383.047749
1032.112521,-8364.327145,-518.144159,-1991.848295
1032.112842,-8586.388927,1110.308913,306.438199
1032.113162,-11399.171507,-888.247130,1378.971896
1032.113483,-11103.089130,370.102971,2451.505594
1032.113804,-9104.533087,1036.288319,2757.943793
