#time,accel_x,accel_y,accel_z
1125.851102,-8882.471304,-3849.070898,3294.210641
1125.851423,-8586.388927,-2442.679609,1838.629195
1125.851744,-9104.533087,-1480.411884,766.095498
1125.852065,-8956.491898,0.000000,689.485948
1125.852386,-9622.677246,1110.308913,229.828649
1125.852707,-10140.821405,1258.350101,1455.581446
1125.853028,-10288.862594,888.247130,1532.190996
1125.853349,-10288.862594,74.020594,1378.971896
1125.853670,-10807.006753,-444.123565,2068.457845
1125.853991,-9696.697840,-1480.411884,1915.238745
1125.854312,-10066.800811,-1628.453072,2068.457845
1125.854633,-9474.636058,-2072.576638,1149.143247
1125.854954,-8956.491898,-2294.638420,383.047749
1125.855275,-9030.512492,-1776.494261,306.438199
1125.855596,-9252.574275,-1480.411884,919.314598
1125.855917,-8808.450710,-666.185348,842.705048
1125.856238,-9400.615463,-444.123565,766.095498
1125.856559,-9474.636058,0.000000,766.095498
1125.856880,-9770.718434,370.102971,1072.533697
1125.857201,-9992.780217,444.123565,1378.971896
1125.857521,-10066.800811,74.020594,1302.362347
1125.857842,-9770.718434,0.000000,1225.752797
1125.858163,-10362.883188,-962.267725,1455.581446
1125.858484,-9770.718434,-740.205942,1455.581446
1125.858805,-9474.636058,-740.205942,1608.800546
1125.859126,-9548.656652,-1332.370696,1915.238745
1125.859447,-9400.615463,-1258.350101,1685.410096
1125.859768,-9474.636058,-1406.391290,2068.457845
1125.860089,-9326.594869,-1110.308913,2604.724693
1125.860410,-9030.512492,-444.123565,2451.505594
1125.860731,-9696.697840,-592.164754,2757.943793
1125.861052,-8956.491898,-222.061783,2681.334243
1125.861373,-9326.594869,74.020594,2681.334243
1125.861694,-9474.636058,-222.061783,2834.553343
1125.862015,-9474.636058,-222.061783,3217.601092
1125.862336,-9474.636058,-1036.288319,3677.258390
1125.862657,-9696.697840,-888.247130,3677.258390
1125.862978,-9770.718434,-888.247130,4290.134789
1125.863299,-9770.718434,-1924.535449,4290.134789
1125.863620,-9400.615463,-2220.617826,4136.915689
1125.863941,-9474.636058,-2368.659014,4366.744339
1125.864262,-9252.574275,-2368.659014,3907.087040
1125.864583,-9178.553681,-2368.659014,4136.915689
1125.864904,-9326.594869,-2442.679609,3600.648841
1125.865224,-8808.450710,-2368.659014,3600.648841
1125.865545,-9252.574275,-2368.659014,2681.334243
1125.865866,-9252.574275,-2294.638420,2451.505594
1125.866187,-9474.636058,-2294.638420,2298.286494
1125.866508,-9918.759623,-2220.617826,995.924147
1125.866829,-9770.718434,-1998.556043,1685.410096
1125.867150,-9844.739029,-2072.576638,1608.800546
1125.867471,-9992.780217,-2294.638420,1225.752797
1125.867792,-9992.780217,-2294.638420,1225.752797
1125.868113,-9622.677246,-2294.638420,689.485948
1125.868434,-9696.697840,-2590.720797,689.485948
1125.868755,-9474.636058,-2442.679609,153.219100
1125.869076,-9474.636058,-2886.803174,383.047749
1125.869397,-9104.533087,-2368.659014,-1072.533697
1125.869718,-9104.533087,-2664.741391,-306.438199
1125.870039,-9178.553681,-2812.782580,-229.828649
1125.870360,-9178.553681,-2442.679609,-689.485948
1125.870681,-9178.553681,-1332.370696,229.828649
1125.871002,-9474.636058,-1776.494261,-536.266849
1125.871323,-9326.594869,-1406.391290,-459.657299
1125.871644,-9918.759623,-1332.370696,0.000000
1125.871965,-9844.739029,-888.247130,-306.438199
1125.872286,-10066.800811,-518.144159,0.000000
1125.872607,-9992.780217,-518.144159,0.000000
1125.872928,-10288.862594,0.000000,-153.219100
1125.873248,-9844.739029,74.020594,-153.219100
1125.873569,-10066.800811,666.185348,229.828649
1125.873890,-9474.636058,888.247130,-612.876398
1125.874211,-9622.677246,962.267725,-689.485948
1125.874532,-9474.636058,666.185348,-689.485948
1125.874853,-9770.718434,1110.308913,-306.438199
1125.875173,-10066.800811,1110.308913,-153.219100
1125.875494,-10066.800811,1184.329507,306.438199
1125.875814,-10214.842000,1258.350101,1072.533697
1125.876135,-10288.862594,888.247130,1302.362347
1125.876456,-10362.883188,1184.329507,1455.581446
1125.876776,-10066.800811,962.267725,2068.457845
1125.877097,-9918.759623,962.267725,2068.457845
1125.877417,-9622.677246,518.144159,2374.896044
1125.877738,-9252.574275,592.164754,2604.724693
1125.878059,-9252.574275,518.144159,2834.553343
1125.878379,-9400.615463,444.123565,2681.334243
1125.878700,-9030.512492,0.000000,3064.381992
1125.879020,-9252.574275,0.000000,3140.991542
1125.879341,-9178.553681,0.000000,3217.601092
1125.879662,-9252.574275,0.000000,3294.210641
1125.879982,-9178.553681,518.144159,3294.210641
1125.880303,-9326.594869,370.102971,3370.820191
1125.880623,-9474.636058,518.144159,2528.115143
1125.880944,-9178.553681,592.164754,2451.505594
1125.881265,-9474.636058,814.226536,2451.505594
1125.881585,-9178.553681,740.205942,2068.457845
1125.881906,-9844.739029,1406.391290,1991.848295
1125.882226,-9622.677246,666.185348,1991.848295
1125.882547,-9474.636058,740.205942,1685.410096
1125.882868,-9770.718434,666.185348,1455.581446
1125.883188,-9770.718434,740.205942,1149.143247
1125.883509,-9770.718434,814.226536,1378.971896
1125.883829,-9918.759623,592.164754,766.095498
1125.884150,-9622.677246,222.061783,536.266849
1125.884471,-9770.718434,0.000000,383.047749
1125.884791,-9918.759623,-444.123565,-229.828649
1125.885112,-9622.677246,-666.185348,76.609550
1125.885432,-9844.739029,-370.102971,0.000000
1125.885753,-9992.780217,-740.205942,153.219100
1125.886074,-9844.739029,-814.226536,-153.219100
1125.886394,-9696.697840,-1184.329507,0.000000
1125.886715,-10066.800811,-1036.288319,0.000000
1125.887035,-9918.759623,-962.267725,-229.828649
1125.887356,-9622.677246,-888.247130,-459.657299
1125.887677,-9770.718434,-370.102971,-459.657299
1125.887997,-9696.697840,-888.247130,-612.876398
1125.888318,-9622.677246,-888.247130,-229.828649
1125.888638,-9770.718434,-888.247130,-383.047749
1125.888959,-9992.780217,-370.102971,0.000000
1125.889280,-9696.697840,-1110.308913,-153.219100
1125.889600,-9770.718434,-888.247130,76.609550
1125.889921,-9696.697840,-1110.308913,229.828649
1125.890241,-9400.615463,-962.267725,0.000000
1125.890562,-9326.594869,-1036.288319,0.000000
1125.890883,-9400.615463,-814.226536,0.000000
1125.891203,-9474.636058,-888.247130,612.876398
1125.891524,-9400.615463,-740.205942,995.924147
1125.891844,-9474.636058,-370.102971,842.705048
1125.892165,-9252.574275,-296.082377,1225.752797
1125.892486,-9622.677246,-444.123565,1762.019645
1125.892806,-9474.636058,-296.082377,1685.410096
1125.893127,-9178.553681,0.000000,1762.019645
1125.893447,-9474.636058,-518.144159,2145.067394
1125.893768,-9474.636058,-666.185348,2298.286494
1125.894089,-9326.594869,-962.267725,2451.505594
1125.894409,-9326.594869,-888.247130,2681.334243
1125.894730,-9252.574275,-518.144159,2681.334243
1125.895050,-9548.656652,-666.185348,3064.381992
1125.895371,-9400.615463,-814.226536,2911.162892
1125.895692,-9474.636058,-888.247130,3140.991542
1125.896012,-9770.718434,-740.205942,3370.820191
1125.896333,-9696.697840,-370.102971,3064.381992
1125.896653,-9622.677246,-814.226536,2911.162892
1125.896974,-9622.677246,-370.102971,2604.724693
1125.897295,-9622.677246,-518.144159,2221.676944
1125.897615,-9770.718434,0.000000,1838.629195
1125.897936,-9548.656652,74.020594,1532.190996
1125.898256,-9696.697840,370.102971,1149.143247
1125.898577,-9548.656652,148.041188,919.314598
1125.898898,-9696.697840,222.061783,919.314598
1125.899218,-9770.718434,370.102971,689.485948
1125.899539,-9844.739029,296.082377,766.095498
1125.899859,-9770.718434,296.082377,306.438199
1125.900180,-10140.821405,296.082377,0.000000
1125.900501,-9622.677246,0.000000,689.485948
1125.900821,-9622.677246,0.000000,842.705048
1125.901142,-9548.656652,-222.061783,459.657299
1125.901462,-9844.739029,148.041188,842.705048
1125.901783,-9326.594869,-444.123565,229.828649
1125.902104,-9474.636058,-296.082377,153.219100
1125.902424,-9474.636058,-222.061783,0.000000
1125.902745,-9400.615463,-518.144159,0.000000
1125.903065,-9474.636058,-518.144159,306.438199
1125.903386,-9474.636058,-148.041188,-76.609550
1125.903707,-9400.615463,0.000000,-306.438199
1125.904027,-9622.677246,0.000000,-306.438199
1125.904348,-9474.636058,148.041188,0.000000
1125.904668,-9770.718434,74.020594,-76.609550
1125.904989,-9622.677246,296.082377,-306.438199
1125.905310,-9622.677246,222.061783,0.000000
1125.905630,-9992.780217,888.247130,-612.876398
1125.905951,-9622.677246,74.020594,76.609550
1125.906271,-9622.677246,222.061783,153.219100
1125.906592,-9770.718434,74.020594,0.000000
1125.906913,-9548.656652,222.061783,689.485948
1125.907233,-9622.677246,0.000000,689.485948
1125.907554,-9918.759623,74.020594,842.705048
1125.907874,-9770.718434,148.041188,1149.143247
1125.908195,-9844.739029,-148.041188,1532.190996
1125.908516,-9474.636058,-296.082377,1991.848295
1125.908836,-9622.677246,-296.082377,1915.238745
1125.909157,-9548.656652,-370.102971,2298.286494
1125.909477,-9548.656652,-370.102971,2298.286494
1125.909798,-8956.491898,-592.164754,2374.896044
1125.910119,-9474.636058,-814.226536,2681.334243
1125.910439,-9548.656652,-888.247130,2528.115143
1125.910760,-9474.636058,-1258.350101,2834.553343
1125.911080,-9474.636058,-1258.350101,2757.943793
1125.911401,-9326.594869,-1258.350101,3140.991542
1125.911722,-9326.594869,-1332.370696,2911.162892
1125.912042,-9474.636058,-1332.370696,2451.505594
1125.912363,-9474.636058,-1480.411884,2681.334243
1125.912683,-9104.533087,-1332.370696,3217.601092
1125.913004,-9474.636058,-1480.411884,2221.676944
1125.913325,-9548.656652,-1332.370696,2145.067394
1125.913645,-9474.636058,-1184.329507,1378.971896
1125.913966,-9326.594869,-592.164754,3753.867940
1125.914286,-9474.636058,-444.123565,1302.362347
1125.914607,-9548.656652,-518.144159,612.876398
1125.914928,-9696.697840,-148.041188,995.924147
1125.915248,-9474.636058,-518.144159,766.095498
1125.915569,-9474.636058,-592.164754,689.485948
1125.915889,-9770.718434,-222.061783,459.657299
1125.916210,-9548.656652,-888.247130,612.876398
1125.916531,-9622.677246,-592.164754,612.876398
1125.916851,-9474.636058,-814.226536,612.876398
1125.917172,-9474.636058,-962.267725,689.485948
1125.917492,-9474.636058,-1184.329507,229.828649
1125.917813,-9696.697840,-1036.288319,383.047749
1125.918134,-9770.718434,-740.205942,153.219100
1125.918454,-9622.677246,-888.247130,306.438199
1125.918775,-9622.677246,-962.267725,0.000000
1125.919095,-9326.594869,-592.164754,0.000000
1125.919416,-9696.697840,-296.082377,-383.047749
1125.919737,-9696.697840,0.000000,-306.438199
1125.920057,-9622.677246,0.000000,-306.438199
1125.920378,-9844.739029,222.061783,-229.828649
1125.920698,-9696.697840,74.020594,-229.828649
1125.921019,-9474.636058,74.020594,-459.657299
1125.921340,-9918.759623,0.000000,0.000000
1125.921660,-9622.677246,74.020594,0.000000
1125.921981,-9622.677246,-74.020594,76.609550
1125.922301,-10066.800811,222.061783,-919.314598
1125.922622,-9696.697840,74.020594,306.438199
1125.922943,-9622.677246,370.102971,612.876398
1125.923263,-9622.677246,444.123565,536.266849
1125.923584,-9548.656652,444.123565,689.485948
1125.923904,-9252.574275,296.082377,1302.362347
1125.924225,-9474.636058,296.082377,1455.581446
1125.924546,-9844.739029,296.082377,1685.410096
1125.924866,-9622.677246,74.020594,1991.848295
1125.925187,-9474.636058,0.000000,1532.190996
1125.925507,-9474.636058,0.000000,2528.115143
1125.925828,-9474.636058,222.061783,2681.334243
1125.926149,-9474.636058,74.020594,2604.724693
1125.926469,-8438.347739,-888.247130,2528.115143
1125.926790,-9178.553681,-74.020594,2757.943793
1125.927110,-9474.636058,-222.061783,2681.334243
1125.927431,-9474.636058,-444.123565,2911.162892
1125.927752,-9474.636058,-444.123565,2681.334243
1125.928072,-9474.636058,-592.164754,2374.896044
1125.928393,-9474.636058,-740.205942,2374.896044
1125.928713,-9474.636058,-370.102971,2221.676944
1125.929034,-9622.677246,-370.102971,1991.848295
1125.929355,-9400.615463,-740.205942,1532.190996
1125.929675,-9548.656652,-296.082377,1455.581446
1125.929996,-9696.697840,-222.061783,1225.752797
1125.930316,-9844.739029,0.000000,689.485948
1125.930637,-9252.574275,-222.061783,2145.067394
1125.930958,-9844.739029,0.000000,536.266849
1125.931278,-9696.697840,0.000000,306.438199
1125.931599,-9770.718434,0.000000,766.095498
1125.931919,-9696.697840,-222.061783,536.266849
1125.932240,-9844.739029,-444.123565,153.219100
1125.932561,-9474.636058,-814.226536,76.609550
1125.932881,-9770.718434,-962.267725,383.047749
1125.933202,-9474.636058,-1110.308913,612.876398
1125.933522,-9474.636058,-1406.391290,383.047749
1125.933843,-9400.615463,-1332.370696,919.314598
1125.934164,-9548.656652,-1258.350101,766.095498
1125.934484,-9474.636058,-962.267725,536.266849
1125.934805,-9770.718434,-444.123565,153.219100
1125.935125,-9622.677246,-296.082377,229.828649
1125.935446,-9474.636058,-296.082377,153.219100
1125.935767,-9400.615463,-370.102971,76.609550
1125.936087,-9696.697840,0.000000,0.000000
1125.936408,-9770.718434,-74.020594,0.000000
1125.936728,-9548.656652,-222.061783,306.438199
1125.937049,-9548.656652,-518.144159,76.609550
1125.937370,-9622.677246,-444.123565,459.657299
1125.937690,-9770.718434,222.061783,919.314598
1125.938011,-9696.697840,0.000000,459.657299
1125.938331,-9622.677246,-222.061783,612.876398
1125.938652,-9548.656652,-148.041188,766.095498
1125.938973,-9400.615463,-148.041188,766.095498
1125.939293,-9844.739029,74.020594,1302.362347
1125.939614,-9770.718434,0.000000,1149.143247
1125.939934,-9844.739029,0.000000,1532.190996
1125.940255,-9548.656652,0.000000,1838.629195
1125.940576,-9918.759623,222.061783,1532.190996
1125.940896,-9548.656652,0.000000,2145.067394
1125.941217,-9474.636058,-296.082377,2145.067394
1125.941537,-9548.656652,-518.144159,2681.334243
1125.941858,-9104.533087,-296.082377,1685.410096
1125.942179,-9474.636058,-666.185348,2681.334243
1125.942499,-9548.656652,-666.185348,2604.724693
1125.942820,-9326.594869,-814.226536,2911.162892
1125.943140,-9326.594869,-962.267725,2681.334243
1125.943461,-9474.636058,-888.247130,2757.943793
1125.943782,-9474.636058,-888.247130,2681.334243
1125.944102,-9548.656652,-740.205942,2451.505594
1125.944423,-9474.636058,-518.144159,2604.724693
1125.944743,-10066.800811,-444.123565,2068.457845
1125.945064,-9548.656652,-444.123565,1762.019645
1125.945385,-9474.636058,-296.082377,1302.362347
1125.945705,-9622.677246,0.000000,919.314598
1125.946026,-9770.718434,370.102971,-919.314598
1125.946346,-9844.739029,0.000000,995.924147
1125.946667,-9844.739029,-222.061783,766.095498
1125.946988,-9622.677246,-296.082377,689.485948
1125.947308,-9844.739029,-296.082377,459.657299
1125.947629,-9696.697840,-592.164754,612.876398
1125.947949,-9696.697840,-740.205942,459.657299
1125.948270,-9770.718434,-888.247130,459.657299
1125.948591,-9474.636058,-1110.308913,0.000000
1125.948911,-9474.636058,-444.123565,536.266849
1125.949232,-9548.656652,-814.226536,153.219100
1125.949552,-9622.677246,-814.226536,0.000000
1125.949873,-9548.656652,-740.205942,-383.047749
1125.950194,-9474.636058,-740.205942,-1838.629195
1125.950514,-9622.677246,0.000000,-306.438199
1125.950835,-9770.718434,0.000000,-153.219100
1125.951155,-9770.718434,296.082377,0.000000
1125.951476,-9770.718434,370.102971,-306.438199
1125.951797,-9622.677246,148.041188,-306.438199
1125.952117,-9696.697840,148.041188,-306.438199
1125.952438,-9696.697840,0.000000,0.000000
1125.952758,-9622.677246,-222.061783,153.219100
1125.953079,-9992.780217,0.000000,-383.047749
1125.953400,-9696.697840,0.000000,0.000000
1125.953720,-9474.636058,0.000000,306.438199
1125.954041,-9622.677246,0.000000,612.876398
1125.954361,-9474.636058,592.164754,1685.410096
1125.954682,-9474.636058,296.082377,919.314598
1125.955003,-9548.656652,296.082377,1302.362347
1125.955323,-9696.697840,518.144159,1608.800546
1125.955644,-9622.677246,222.061783,1685.410096
1125.955964,-9696.697840,0.000000,1608.800546
1125.956285,-9474.636058,0.000000,1762.019645
1125.956606,-9474.636058,0.000000,2374.896044
1125.956926,-9548.656652,-370.102971,2604.724693
1125.957247,-9548.656652,74.020594,2451.505594
1125.957567,-9400.615463,-518.144159,2757.943793
1125.957888,-9400.615463,-888.247130,2451.505594
1125.958209,-9326.594869,-1110.308913,3217.601092
1125.958529,-9548.656652,-814.226536,2528.115143
1125.958850,-9252.574275,-814.226536,2681.334243
1125.959170,-9400.615463,-740.205942,2757.943793
1125.959491,-9548.656652,-666.185348,2757.943793
1125.959812,-9474.636058,-592.164754,2834.553343
1125.960132,-9474.636058,-666.185348,2451.505594
1125.960453,-9474.636058,-740.205942,2145.067394
1125.960773,-9548.656652,-370.102971,1455.581446
1125.961094,-9770.718434,-444.123565,1455.581446
1125.961415,-9474.636058,-222.061783,766.095498
1125.961735,-9696.697840,74.020594,1072.533697
1125.962056,-9548.656652,0.000000,842.705048
1125.962376,-9474.636058,0.000000,842.705048
1125.962697,-9696.697840,-444.123565,1608.800546
1125.963018,-9622.677246,-444.123565,536.266849
1125.963338,-9696.697840,-592.164754,536.266849
1125.963659,-9474.636058,-592.164754,383.047749
1125.963979,-9622.677246,-888.247130,536.266849
1125.964300,-9622.677246,-962.267725,842.705048
1125.964621,-9474.636058,-1258.350101,842.705048
1125.964941,-9400.615463,-1184.329507,306.438199
1125.965262,-9548.656652,-962.267725,459.657299
1125.965582,-8808.450710,-1332.370696,1302.362347
1125.965903,-9474.636058,-666.185348,306.438199
1125.966224,-9474.636058,-666.185348,76.609550
1125.966544,-9474.636058,-592.164754,-306.438199
1125.966865,-9548.656652,-888.247130,-306.438199
1125.967185,-9548.656652,-370.102971,-229.828649
1125.967506,-9622.677246,0.000000,-383.047749
1125.967827,-9326.594869,0.000000,-842.705048
1125.968147,-9696.697840,0.000000,0.000000
1125.968468,-9696.697840,0.000000,-919.314598
1125.968788,-9474.636058,-444.123565,-383.047749
1125.969109,-9474.636058,-296.082377,0.000000
1125.969430,-9844.739029,0.000000,0.000000
1125.969750,-9104.533087,-518.144159,76.609550
1125.970071,-9622.677246,0.000000,306.438199
1125.970391,-9622.677246,74.020594,689.485948
1125.970712,-9918.759623,222.061783,1072.533697
1125.971033,-9844.739029,518.144159,1378.971896
1125.971353,-9548.656652,-148.041188,1149.143247
1125.971674,-9696.697840,0.000000,919.314598
1125.971994,-9770.718434,148.041188,1455.581446
1125.972315,-9622.677246,0.000000,1685.410096
1125.972636,-9474.636058,-222.061783,1762.019645
1125.972956,-9474.636058,-296.082377,1762.019645
1125.973277,-9474.636058,-444.123565,2374.896044
1125.973597,-9622.677246,-592.164754,2451.505594
1125.973918,-9326.594869,-444.123565,3064.381992
1125.974239,-9474.636058,-592.164754,2911.162892
1125.974559,-9770.718434,-740.205942,2757.943793
1125.974880,-9474.636058,-666.185348,2451.505594
1125.975200,-8882.471304,0.000000,3600.648841
1125.975521,-9548.656652,-888.247130,2451.505594
1125.975842,-9474.636058,-592.164754,2298.286494
1125.976162,-9770.718434,-666.185348,2374.896044
1125.976483,-9696.697840,-518.144159,2221.676944
1125.976803,-9474.636058,-296.082377,1608.800546
1125.977124,-9474.636058,-370.102971,1378.971896
1125.977445,-9474.636058,-222.061783,1302.362347
1125.977765,-9622.677246,-148.041188,1149.143247
1125.978086,-9474.636058,74.020594,919.314598
1125.978406,-9474.636058,-222.061783,842.705048
1125.978727,-9844.739029,-148.041188,612.876398
1125.979047,-9474.636058,-222.061783,842.705048
1125.979368,-9548.656652,-518.144159,459.657299
1125.979689,-9474.636058,-592.164754,919.314598
1125.980009,-9474.636058,-740.205942,459.657299
1125.980330,-9622.677246,-740.205942,459.657299
1125.980650,-9474.636058,-1036.288319,842.705048
1125.980971,-9104.533087,-888.247130,919.314598
1125.981292,-9474.636058,-666.185348,229.828649
1125.981612,-9400.615463,-592.164754,0.000000
1125.981933,-9474.636058,-592.164754,76.609550
1125.982253,-10362.883188,814.226536,0.000000
1125.982574,-9622.677246,0.000000,0.000000
1125.982895,-9622.677246,0.000000,-229.828649
1125.983215,-9696.697840,0.000000,-76.609550
1125.983536,-9844.739029,0.000000,-153.219100
1125.983856,-9770.718434,0.000000,153.219100
1125.984177,-9918.759623,-74.020594,-229.828649
1125.984498,-9622.677246,-148.041188,-536.266849
1125.984818,-9622.677246,0.000000,-153.219100
1125.985139,-9992.780217,296.082377,306.438199
1125.985459,-9696.697840,0.000000,229.828649
1125.985780,-9770.718434,74.020594,536.266849
1125.986100,-9622.677246,74.020594,689.485948
1125.986421,-9770.718434,222.061783,612.876398
1125.986742,-9844.739029,0.000000,1072.533697
1125.987062,-9622.677246,0.000000,1225.752797
1125.987383,-9696.697840,0.000000,1302.362347
1125.987703,-9770.718434,0.000000,2145.067394
1125.988024,-9474.636058,0.000000,1685.410096
1125.988345,-9548.656652,-148.041188,2374.896044
1125.988665,-9474.636058,-370.102971,2221.676944
1125.988986,-9474.636058,-296.082377,2451.505594
1125.989306,-8882.471304,-740.205942,2987.772442
1125.989627,-9474.636058,-444.123565,2987.772442
1125.989948,-9474.636058,-666.185348,2911.162892
1125.990268,-9474.636058,-666.185348,2757.943793
1125.990589,-9918.759623,-370.102971,1378.971896
1125.990909,-9474.636058,-592.164754,2757.943793
1125.991230,-9622.677246,-444.123565,2757.943793
1125.991551,-9474.636058,-518.144159,2451.505594
1125.991871,-9696.697840,-444.123565,2298.286494
1125.992192,-9622.677246,-444.123565,1838.629195
1125.992512,-9622.677246,-666.185348,1532.190996
1125.992833,-9548.656652,-444.123565,1072.533697
1125.993154,-9770.718434,-370.102971,842.705048
1125.993474,-9474.636058,-444.123565,766.095498
1125.993795,-9252.574275,-148.041188,383.047749
1125.994115,-9770.718434,0.000000,383.047749
1125.994436,-9770.718434,0.000000,536.266849
1125.994756,-9622.677246,-814.226536,1149.143247
1125.995077,-9474.636058,-740.205942,459.657299
1125.995398,-9548.656652,-592.164754,306.438199
1125.995718,-9696.697840,-518.144159,689.485948
1125.996039,-9548.656652,-814.226536,1149.143247
1125.996359,-9474.636058,-1184.329507,383.047749
1125.996680,-9326.594869,-814.226536,459.657299
1125.997001,-9622.677246,-962.267725,459.657299
1125.997321,-9474.636058,-592.164754,842.705048
1125.997642,-9474.636058,-518.144159,153.219100
1125.997962,-9400.615463,-666.185348,0.000000
1125.998283,-9474.636058,-444.123565,0.000000
1125.998604,-9770.718434,-148.041188,0.000000
1125.998924,-10807.006753,222.061783,-306.438199
1125.999245,-9696.697840,0.000000,76.609550
1125.999565,-9622.677246,-222.061783,76.609550
1125.999886,-9918.759623,-296.082377,0.000000
1126.000207,-9696.697840,-296.082377,153.219100
1126.000527,-9474.636058,-148.041188,76.609550
1126.000848,-9622.677246,-148.041188,153.219100
1126.001168,-9548.656652,0.000000,76.609550
1126.001489,-9622.677246,74.020594,612.876398
1126.001809,-9770.718434,296.082377,1378.971896
1126.002130,-9696.697840,0.000000,1302.362347
1126.002451,-9844.739029,0.000000,919.314598
1126.002771,-9770.718434,148.041188,1455.581446
1126.003092,-9548.656652,0.000000,1225.752797
1126.003412,-9844.739029,74.020594,2145.067394
1126.003733,-9696.697840,-148.041188,2604.724693
1126.004054,-9474.636058,-296.082377,2681.334243
1126.004374,-9548.656652,-296.082377,2528.115143
1126.004695,-9326.594869,-1184.329507,2298.286494
1126.005015,-9474.636058,-814.226536,2834.553343
1126.005336,-9400.615463,-740.205942,2834.553343
1126.005657,-9178.553681,-814.226536,2604.724693
1126.005977,-9474.636058,-666.185348,2681.334243
1126.006298,-9474.636058,-666.185348,3140.991542
1126.006618,-9548.656652,-666.185348,2681.334243
1126.006939,-9474.636058,-666.185348,2528.115143
1126.007260,-9474.636058,-444.123565,2374.896044
1126.007580,-9622.677246,222.061783,2681.334243
1126.007901,-9474.636058,-370.102971,2068.457845
1126.008221,-9696.697840,-296.082377,1455.581446
1126.008542,-9474.636058,-296.082377,1455.581446
1126.008863,-9474.636058,370.102971,1762.019645
1126.009183,-9548.656652,-74.020594,766.095498
1126.009504,-9622.677246,0.000000,689.485948
1126.009824,-9548.656652,-148.041188,536.266849
1126.010145,-9474.636058,-296.082377,459.657299
1126.010465,-9548.656652,-444.123565,306.438199
1126.010786,-9696.697840,-518.144159,459.657299
1126.011107,-9548.656652,-592.164754,383.047749
1126.011427,-9622.677246,-740.205942,306.438199
1126.011748,-9178.553681,-444.123565,0.000000
1126.012068,-9770.718434,-518.144159,229.828649
1126.012389,-9622.677246,-592.164754,459.657299
1126.012710,-9770.718434,-592.164754,76.609550
1126.013030,-9474.636058,0.000000,-995.924147
1126.013351,-9474.636058,-592.164754,-383.047749
1126.013671,-9770.718434,0.000000,-306.438199
1126.013992,-9622.677246,0.000000,-306.438199
1126.014313,-9548.656652,0.000000,-229.828649
1126.014633,-9696.697840,296.082377,-306.438199
1126.014954,-9696.697840,222.061783,0.000000
1126.015274,-9844.739029,296.082377,-153.219100
1126.015595,-9844.739029,296.082377,229.828649
1126.015916,-9844.739029,666.185348,-76.609550
1126.016236,-9696.697840,296.082377,76.609550
1126.016557,-9696.697840,444.123565,459.657299
1126.016877,-9696.697840,518.144159,383.047749
1126.017198,-9474.636058,74.020594,536.266849
1126.017518,-9548.656652,74.020594,689.485948
1126.017839,-9770.718434,296.082377,612.876398
1126.018160,-9770.718434,222.061783,1149.143247
1126.018480,-9770.718434,0.000000,1608.800546
1126.018801,-9548.656652,0.000000,1532.190996
1126.019121,-9474.636058,-148.041188,1762.019645
1126.019442,-9474.636058,0.000000,2068.457845
1126.019763,-9252.574275,-296.082377,2145.067394
1126.020083,-9178.553681,-296.082377,2834.553343
1126.020404,-9474.636058,-222.061783,2681.334243
1126.020724,-9400.615463,-518.144159,2757.943793
1126.021045,-9622.677246,-592.164754,2681.334243
1126.021366,-8808.450710,-962.267725,4213.525239
1126.021686,-9326.594869,-888.247130,2757.943793
1126.022007,-9474.636058,-888.247130,2528.115143
1126.022327,-9474.636058,-962.267725,2681.334243
1126.022648,-9252.574275,-962.267725,2451.505594
1126.022969,-9622.677246,-666.185348,2298.286494
1126.023289,-9474.636058,-592.164754,2068.457845
1126.023610,-9474.636058,-518.144159,1838.629195
1126.023930,-9622.677246,-296.082377,1455.581446
1126.024251,-10214.842000,0.000000,612.876398
1126.024571,-9622.677246,0.000000,995.924147
1126.024892,-9696.697840,74.020594,689.485948
1126.025213,-9844.739029,0.000000,536.266849
1126.025533,-8956.491898,-518.144159,383.047749
1126.025854,-9918.759623,-222.061783,229.828649
1126.026174,-9770.718434,-296.082377,306.438199
1126.026495,-9918.759623,-444.123565,612.876398
1126.026816,-9696.697840,-814.226536,383.047749
1126.027136,-9548.656652,-1332.370696,459.657299
1126.027457,-9474.636058,-1332.370696,383.047749
1126.027777,-9474.636058,-1332.370696,0.000000
1126.028098,-9622.677246,-1110.308913,536.266849
1126.028419,-9474.636058,-1036.288319,766.095498
1126.028739,-9474.636058,-962.267725,383.047749
1126.029060,-9622.677246,-1110.308913,0.000000
1126.029380,-9474.636058,-666.185348,153.219100
1126.029701,-8808.450710,-1184.329507,2604.724693
1126.030022,-9474.636058,-666.185348,0.000000
1126.030342,-9548.656652,-296.082377,-459.657299
1126.030663,-9548.656652,0.000000,0.000000
1126.030983,-9622.677246,0.000000,76.609550
1126.031304,-9844.739029,0.000000,76.609550
1126.031625,-9474.636058,-444.123565,229.828649
1126.031945,-9696.697840,-222.061783,229.828649
1126.032266,-9770.718434,0.000000,459.657299
1126.032586,-9770.718434,0.000000,689.485948
1126.032907,-9548.656652,0.000000,842.705048
1126.033227,-9548.656652,0.000000,842.705048
1126.033548,-9622.677246,74.020594,1149.143247
1126.033869,-9178.553681,0.000000,1685.410096
1126.034189,-9696.697840,0.000000,1455.581446
1126.034510,-9548.656652,74.020594,1608.800546
1126.034830,-9474.636058,0.000000,1685.410096
1126.035151,-9474.636058,74.020594,2528.115143
1126.035472,-9474.636058,-222.061783,2145.067394
1126.035792,-9548.656652,-370.102971,2374.896044
1126.036113,-9474.636058,-148.041188,2681.334243
1126.036433,-9474.636058,-370.102971,2528.115143
1126.036754,-9474.636058,-222.061783,2681.334243
1126.037075,-9474.636058,-370.102971,2757.943793
1126.037395,-9474.636058,-370.102971,2681.334243
1126.037716,-9548.656652,-222.061783,2681.334243
1126.038036,-8808.450710,-592.164754,3294.210641
1126.038357,-9252.574275,-518.144159,2221.676944
1126.038678,-9474.636058,-444.123565,1915.238745
1126.038998,-9548.656652,-296.082377,1991.848295
1126.039319,-9770.718434,-370.102971,1762.019645
1126.039639,-9474.636058,-148.041188,1455.581446
1126.039960,-9548.656652,0.000000,1072.533697
1126.040280,-9770.718434,0.000000,1378.971896
1126.040601,-9474.636058,0.000000,1072.533697
1126.040922,-9918.759623,-74.020594,536.266849
1126.041242,-9548.656652,-222.061783,536.266849
1126.041563,-9622.677246,-296.082377,689.485948
1126.041883,-9474.636058,-740.205942,766.095498
1126.042204,-9474.636058,-444.123565,1149.143247
1126.042525,-9474.636058,-444.123565,536.266849
1126.042845,-9474.636058,-666.185348,383.047749
1126.043166,-9548.656652,-666.185348,689.485948
1126.043486,-9622.677246,-1110.308913,766.095498
1126.043807,-9474.636058,-962.267725,536.266849
1126.044128,-9400.615463,-666.185348,0.000000
1126.044448,-9918.759623,-740.205942,383.047749
1126.044769,-9548.656652,-296.082377,76.609550
1126.045089,-9474.636058,-444.123565,229.828649
1126.045410,-9474.636058,-148.041188,0.000000
1126.045731,-9474.636058,-370.102971,-306.438199
1126.046051,-9770.718434,0.000000,-306.438199
1126.046372,-9548.656652,0.000000,76.609550
1126.046692,-9696.697840,-222.061783,0.000000
1126.047013,-9696.697840,0.000000,229.828649
1126.047333,-9696.697840,-222.061783,306.438199
1126.047654,-9622.677246,-296.082377,1685.410096
1126.047975,-9844.739029,0.000000,459.657299
1126.048295,-9770.718434,0.000000,612.876398
1126.048616,-9474.636058,-148.041188,306.438199
1126.048936,-9622.677246,0.000000,689.485948
1126.049257,-9622.677246,0.000000,1149.143247
1126.049578,-9844.739029,0.000000,1302.362347
1126.049898,-9622.677246,-296.082377,1072.533697
1126.050219,-9474.636058,-296.082377,1302.362347
1126.050539,-9918.759623,74.020594,2145.067394
1126.050860,-9770.718434,0.000000,2298.286494
1126.051181,-9548.656652,-296.082377,2298.286494
1126.051501,-9548.656652,-370.102971,2451.505594
1126.051822,-9474.636058,-296.082377,2528.115143
1126.052142,-9474.636058,-888.247130,2604.724693
1126.052463,-9548.656652,-666.185348,2681.334243
1126.052784,-9474.636058,-888.247130,2681.334243
1126.053104,-9474.636058,-740.205942,2681.334243
1126.053425,-9474.636058,-814.226536,2528.115143
1126.053745,-9474.636058,-888.247130,2528.115143
1126.054066,-9474.636058,-666.185348,2145.067394
1126.054387,-9696.697840,-444.123565,1991.848295
1126.054707,-9326.594869,-666.185348,2145.067394
1126.055028,-9622.677246,-444.123565,1915.238745
1126.055348,-9696.697840,-370.102971,1685.410096
1126.055669,-9548.656652,74.020594,1455.581446
1126.055989,-9918.759623,-222.061783,1225.752797
1126.056310,-9696.697840,0.000000,689.485948
1126.056631,-9622.677246,-148.041188,536.266849
1126.056951,-9622.677246,0.000000,306.438199
1126.057272,-9696.697840,0.000000,536.266849
1126.057592,-9548.656652,-296.082377,612.876398
1126.057913,-9622.677246,-666.185348,383.047749
1126.058234,-9622.677246,-814.226536,536.266849
1126.058554,-9622.677246,-814.226536,459.657299
1126.058875,-9844.739029,-740.205942,229.828649
1126.059195,-9696.697840,-666.185348,536.266849
1126.059516,-9622.677246,-740.205942,766.095498
1126.059837,-9474.636058,-888.247130,689.485948
1126.060157,-9622.677246,-1184.329507,76.609550
1126.060478,-9548.656652,-444.123565,153.219100
1126.060798,-9548.656652,0.000000,76.609550
1126.061119,-9622.677246,0.000000,0.000000
1126.061440,-9548.656652,148.041188,0.000000
1126.061760,-9400.615463,148.041188,76.609550
1126.062081,-9548.656652,222.061783,0.000000
1126.062401,-9696.697840,0.000000,0.000000
1126.062722,-9696.697840,222.061783,76.609550
1126.063042,-9696.697840,518.144159,-459.657299
1126.063363,-9548.656652,148.041188,76.609550
1126.063684,-9548.656652,148.041188,459.657299
1126.064004,-9770.718434,0.000000,536.266849
1126.064325,-8438.347739,-370.102971,1608.800546
1126.064645,-9548.656652,0.000000,459.657299
1126.064966,-9696.697840,666.185348,842.705048
1126.065287,-9696.697840,370.102971,1302.362347
1126.065607,-9548.656652,296.082377,1455.581446
1126.065928,-9474.636058,0.000000,1762.019645
1126.066248,-9622.677246,-148.041188,1762.019645
1126.066569,-9548.656652,-296.082377,1915.238745
1126.066890,-9474.636058,-666.185348,1991.848295
1126.067210,-9326.594869,-592.164754,2757.943793
1126.067531,-9474.636058,-666.185348,2528.115143
1126.067851,-9474.636058,-592.164754,2604.724693
1126.068172,-9178.553681,-814.226536,2528.115143
1126.068493,-9474.636058,0.000000,3064.381992
1126.068813,-9326.594869,-814.226536,2604.724693
1126.069134,-9326.594869,-962.267725,2451.505594
1126.069454,-9474.636058,-888.247130,2374.896044
1126.069775,-9474.636058,-740.205942,2451.505594
1126.070096,-9474.636058,-666.185348,2451.505594
1126.070416,-9696.697840,-814.226536,1991.848295
1126.070737,-9548.656652,-666.185348,1685.410096
1126.071057,-9474.636058,-296.082377,1225.752797
1126.071378,-9548.656652,0.000000,1072.533697
1126.071698,-9770.718434,0.000000,1608.800546
1126.072019,-9696.697840,-370.102971,1149.143247
1126.072340,-9622.677246,-666.185348,842.705048
1126.072660,-9844.739029,-740.205942,76.609550
1126.072981,-9844.739029,-592.164754,612.876398
1126.073301,-9770.718434,-592.164754,689.485948
1126.073622,-9696.697840,-592.164754,766.095498
1126.073943,-9696.697840,-444.123565,229.828649
1126.074263,-9622.677246,-592.164754,459.657299
1126.074584,-9844.739029,-888.247130,153.219100
1126.074904,-9844.739029,-666.185348,383.047749
1126.075225,-9696.697840,-962.267725,153.219100
1126.075546,-9696.697840,-1036.288319,306.438199
1126.075866,-9770.718434,-814.226536,383.047749
1126.076187,-9622.677246,-518.144159,153.219100
1126.076508,-9696.697840,-444.123565,229.828649
1126.076828,-9844.739029,0.000000,1455.581446
1126.077149,-9770.718434,-296.082377,0.000000
1126.077470,-9548.656652,-370.102971,153.219100
1126.077791,-9696.697840,0.000000,153.219100
1126.078111,-9548.656652,-296.082377,0.000000
1126.078432,-9992.780217,-222.061783,-229.828649
1126.078753,-9548.656652,0.000000,0.000000
1126.079074,-9548.656652,74.020594,76.609550
1126.079394,-9474.636058,148.041188,229.828649
1126.079715,-9622.677246,444.123565,459.657299
1126.080036,-9474.636058,444.123565,689.485948
1126.080357,-9622.677246,444.123565,536.266849
1126.080677,-9622.677246,296.082377,1378.971896
1126.080998,-10140.821405,1184.329507,1838.629195
1126.081319,-9548.656652,0.000000,1225.752797
1126.081640,-9622.677246,-74.020594,1225.752797
1126.081961,-9622.677246,0.000000,1991.848295
1126.082281,-9474.636058,0.000000,2145.067394
1126.082602,-9326.594869,-222.061783,2374.896044
1126.082923,-9400.615463,0.000000,1915.238745
1126.083244,-9326.594869,-296.082377,2374.896044
1126.083564,-9548.656652,-296.082377,2451.505594
1126.083885,-9252.574275,-296.082377,2451.505594
1126.084206,-9474.636058,-370.102971,2834.553343
1126.084527,-9474.636058,-370.102971,2528.115143
1126.084847,-9548.656652,-518.144159,2604.724693
1126.085168,-9622.677246,-518.144159,3064.381992
1126.085489,-9548.656652,-518.144159,2221.676944
1126.085810,-9548.656652,-370.102971,2068.457845
1126.086130,-9770.718434,-518.144159,1838.629195
1126.086451,-9622.677246,-518.144159,1455.581446
1126.086772,-9696.697840,-370.102971,1302.362347
1126.087093,-9474.636058,-148.041188,919.314598
1126.087414,-9622.677246,0.000000,995.924147
1126.087734,-9770.718434,74.020594,919.314598
1126.088055,-9474.636058,0.000000,1302.362347
1126.088376,-10066.800811,0.000000,689.485948
1126.088697,-9918.759623,0.000000,1072.533697
1126.089017,-9770.718434,-444.123565,689.485948
1126.089338,-8882.471304,-888.247130,1915.238745
1126.089659,-9400.615463,-592.164754,536.266849
1126.089980,-9696.697840,-962.267725,689.485948
1126.090300,-9474.636058,-1036.288319,612.876398
1126.090621,-9474.636058,-1184.329507,76.609550
1126.090942,-9400.615463,-1332.370696,383.047749
1126.091263,-9474.636058,-1036.288319,306.438199
1126.091583,-9474.636058,-1184.329507,612.876398
1126.091904,-9474.636058,-592.164754,306.438199
1126.092225,-9400.615463,-518.144159,459.657299
1126.092546,-9474.636058,-370.102971,383.047749
1126.092867,-9474.636058,-296.082377,306.438199
1126.093187,-9548.656652,-222.061783,76.609550
1126.093508,-8586.388927,888.247130,-306.438199
1126.093829,-9622.677246,74.020594,0.000000
1126.094150,-9622.677246,74.020594,76.609550
1126.094470,-9770.718434,-148.041188,0.000000
1126.094791,-9474.636058,-74.020594,76.609550
1126.095112,-9696.697840,74.020594,0.000000
1126.095433,-9844.739029,0.000000,689.485948
1126.095753,-9622.677246,0.000000,383.047749
1126.096074,-9696.697840,74.020594,536.266849
1126.096395,-9622.677246,0.000000,1302.362347
1126.096716,-9622.677246,0.000000,1225.752797
1126.097036,-9770.718434,74.020594,1072.533697
1126.097357,-9622.677246,0.000000,1072.533697
1126.097678,-9474.636058,0.000000,1915.238745
1126.097999,-9918.759623,-148.041188,1838.629195
1126.098320,-9622.677246,-370.102971,2374.896044
1126.098640,-9474.636058,-518.144159,2145.067394
1126.098961,-9548.656652,-592.164754,2451.505594
1126.099282,-9548.656652,-444.123565,2451.505594
1126.099603,-9400.615463,-814.226536,2757.943793
1126.099923,-9548.656652,-592.164754,2528.115143
1126.100244,-9326.594869,-814.226536,2681.334243
1126.100565,-9178.553681,-814.226536,2911.162892
1126.100886,-9548.656652,-888.247130,2604.724693
1126.101206,-9400.615463,-962.267725,2374.896044
1126.101527,-9400.615463,-740.205942,2298.286494
1126.101848,-10436.903782,-592.164754,1149.143247
1126.102169,-9400.615463,-592.164754,1762.019645
1126.102489,-9400.615463,-666.185348,1532.190996
1126.102810,-9474.636058,-518.144159,1378.971896
1126.103131,-9474.636058,-222.061783,-766.095498
1126.103452,-9548.656652,-370.102971,842.705048
1126.103773,-9548.656652,0.000000,919.314598
1126.104093,-9696.697840,-148.041188,1072.533697
1126.104414,-9844.739029,-148.041188,919.314598
1126.104735,-9696.697840,-740.205942,1072.533697
1126.105056,-9770.718434,-666.185348,842.705048
1126.105376,-9474.636058,-962.267725,842.705048
1126.105697,-9548.656652,-592.164754,612.876398
1126.106018,-8808.450710,-1184.329507,0.000000
1126.106339,-9474.636058,-1110.308913,459.657299
1126.106659,-9474.636058,-666.185348,689.485948
1126.106980,-9474.636058,-888.247130,76.609550
1126.107301,-9548.656652,-666.185348,0.000000
1126.107622,-9548.656652,0.000000,229.828649
1126.107942,-9770.718434,0.000000,383.047749
1126.108263,-9770.718434,148.041188,306.438199
1126.108584,-9770.718434,0.000000,0.000000
1126.108905,-9770.718434,148.041188,0.000000
1126.109225,-9992.780217,0.000000,229.828649
1126.109546,-9992.780217,0.000000,0.000000
1126.109867,-9918.759623,0.000000,0.000000
1126.110188,-9400.615463,0.000000,-766.095498
1126.110509,-9622.677246,148.041188,0.000000
1126.110829,-9622.677246,0.000000,383.047749
1126.111150,-9622.677246,222.061783,0.000000
1126.111471,-9548.656652,592.164754,306.438199
1126.111792,-9696.697840,518.144159,536.266849
1126.112112,-9696.697840,444.123565,612.876398
1126.112433,-9844.739029,222.061783,1072.533697
1126.112754,-9770.718434,74.020594,1302.362347
1126.113075,-9326.594869,-222.061783,1302.362347
1126.113395,-9548.656652,-148.041188,1685.410096
1126.113716,-9548.656652,-148.041188,1685.410096
1126.114037,-9622.677246,-370.102971,2068.457845
1126.114358,-8882.471304,-1036.288319,2451.505594
1126.114678,-9252.574275,-518.144159,1991.848295
1126.114999,-9400.615463,-888.247130,2145.067394
1126.115320,-9400.615463,-740.205942,2528.115143
1126.115641,-8808.450710,-1184.329507,3370.820191
1126.115962,-9252.574275,-962.267725,2451.505594
1126.116282,-9400.615463,-814.226536,2374.896044
1126.116603,-9326.594869,-888.247130,2145.067394
1126.116924,-9474.636058,-592.164754,2145.067394
1126.117245,-9770.718434,-296.082377,1915.238745
1126.117565,-9548.656652,-296.082377,2374.896044
1126.117886,-9474.636058,-370.102971,1838.629195
1126.118207,-9770.718434,-148.041188,1455.581446
1126.118528,-9400.615463,0.000000,2221.676944
1126.118848,-9696.697840,0.000000,1302.362347
1126.119169,-9696.697840,0.000000,1149.143247
1126.119490,-9770.718434,-296.082377,919.314598
1126.119811,-9030.512492,-222.061783,1685.410096
1126.120131,-9770.718434,-370.102971,612.876398
1126.120452,-9770.718434,-518.144159,766.095498
1126.120773,-9696.697840,-518.144159,766.095498
1126.121094,-9548.656652,-592.164754,842.705048
1126.121415,-9918.759623,-814.226536,995.924147
1126.121735,-9696.697840,-888.247130,995.924147
1126.122056,-9844.739029,-1110.308913,383.047749
1126.122377,-9474.636058,-962.267725,689.485948
1126.122698,-9696.697840,-370.102971,612.876398
1126.123018,-9474.636058,-666.185348,612.876398
1126.123339,-9548.656652,-592.164754,459.657299
1126.123660,-9474.636058,-740.205942,536.266849
1126.123981,-9474.636058,-1036.288319,-153.219100
1126.124301,-9474.636058,-666.185348,0.000000
1126.124622,-9696.697840,-518.144159,0.000000
1126.124943,-9622.677246,-148.041188,76.609550
1126.125264,-9474.636058,0.000000,0.000000
1126.125584,-9622.677246,222.061783,76.609550
1126.125905,-9622.677246,0.000000,-229.828649
1126.126226,-9474.636058,148.041188,-229.828649
1126.126547,-9770.718434,370.102971,153.219100
1126.126868,-9844.739029,296.082377,229.828649
1126.127188,-9474.636058,74.020594,229.828649
1126.127509,-9918.759623,296.082377,306.438199
1126.127830,-9474.636058,74.020594,612.876398
1126.128151,-9474.636058,0.000000,459.657299
1126.128471,-9622.677246,0.000000,1378.971896
1126.128792,-9696.697840,0.000000,1608.800546
1126.129113,-9474.636058,0.000000,1838.629195
1126.129434,-9696.697840,-148.041188,2145.067394
1126.129754,-9548.656652,-370.102971,1915.238745
1126.130075,-9474.636058,-666.185348,1762.019645
1126.130396,-9474.636058,-592.164754,2298.286494
1126.130717,-9400.615463,-666.185348,2374.896044
1126.131037,-9252.574275,-814.226536,2528.115143
1126.131358,-9474.636058,-592.164754,2604.724693
1126.131679,-9474.636058,-518.144159,2145.067394
1126.132000,-9548.656652,-518.144159,2681.334243
1126.132321,-9178.553681,-1036.288319,2451.505594
1126.132641,-9474.636058,-592.164754,2068.457845
1126.132962,-9474.636058,-444.123565,2221.676944
1126.133283,-9474.636058,-518.144159,1991.848295
1126.133604,-9104.533087,-740.205942,1762.019645
1126.133924,-9474.636058,-370.102971,1685.410096
1126.134245,-9474.636058,-592.164754,1302.362347
1126.134566,-9696.697840,-296.082377,1225.752797
1126.134887,-9622.677246,-370.102971,1149.143247
1126.135207,-9474.636058,-518.144159,1072.533697
1126.135528,-9474.636058,-222.061783,612.876398
1126.135849,-9696.697840,-296.082377,995.924147
1126.136170,-9622.677246,-370.102971,919.314598
1126.136490,-9104.533087,592.164754,612.876398
1126.136811,-9696.697840,-296.082377,383.047749
1126.137132,-9696.697840,-444.123565,689.485948
1126.137453,-9622.677246,-518.144159,536.266849
1126.137774,-9474.636058,-740.205942,612.876398
1126.138094,-9622.677246,-592.164754,919.314598
1126.138415,-9548.656652,-962.267725,306.438199
1126.138736,-9400.615463,-1036.288319,153.219100
1126.139057,-9622.677246,-666.185348,459.657299
1126.139377,-9178.553681,-518.144159,76.609550
1126.139698,-9474.636058,-222.061783,76.609550
1126.140019,-9770.718434,-148.041188,0.000000
1126.140340,-9622.677246,0.000000,-153.219100
1126.140660,-9918.759623,0.000000,842.705048
1126.140981,-9696.697840,222.061783,306.438199
1126.141302,-9622.677246,0.000000,0.000000
1126.141623,-9622.677246,0.000000,-383.047749
1126.141943,-9474.636058,0.000000,1302.362347
1126.142264,-9770.718434,444.123565,76.609550
1126.142585,-9696.697840,370.102971,383.047749
1126.142906,-9474.636058,148.041188,689.485948
1126.143227,-9696.697840,0.000000,612.876398
1126.143547,-9696.697840,0.000000,1608.800546
1126.143868,-9622.677246,-444.123565,1149.143247
1126.144189,-9622.677246,0.000000,1149.143247
1126.144510,-9474.636058,-148.041188,1302.362347
1126.144830,-9030.512492,740.205942,2374.896044
1126.145151,-9400.615463,-148.041188,1838.629195
1126.145472,-9548.656652,-148.041188,2145.067394
1126.145793,-9474.636058,0.000000,2068.457845
1126.146113,-9548.656652,-148.041188,3447.429741
1126.146434,-9696.697840,-444.123565,2374.896044
1126.146755,-9548.656652,-666.185348,2451.505594
1126.147076,-9474.636058,-1036.288319,2681.334243
1126.147396,-9548.656652,-962.267725,2604.724693
1126.147717,-9474.636058,-962.267725,2528.115143
1126.148038,-9696.697840,-962.267725,2451.505594
1126.148359,-9548.656652,-888.247130,2298.286494
1126.148680,-9548.656652,-888.247130,2145.067394
1126.149000,-9844.739029,74.020594,1608.800546
1126.149321,-9548.656652,-518.144159,1532.190996
1126.149642,-9400.615463,-444.123565,1302.362347
1126.149963,-9622.677246,-222.061783,1149.143247
1126.150283,-9696.697840,222.061783,1991.848295
1126.150604,-9696.697840,148.041188,919.314598
1126.150925,-9770.718434,0.000000,689.485948
1126.151246,-9770.718434,74.020594,459.657299
1126.151566,-10140.821405,370.102971,766.095498
1126.151887,-10066.800811,-296.082377,383.047749
1126.152208,-9474.636058,-518.144159,383.047749
1126.152529,-9696.697840,-740.205942,459.657299
1126.152849,-9622.677246,-740.205942,612.876398
1126.153170,-8882.471304,-1258.350101,1685.410096
1126.153491,-9400.615463,-1184.329507,612.876398
1126.153812,-9474.636058,-814.226536,536.266849
1126.154133,-9474.636058,-1110.308913,459.657299
1126.154453,-9474.636058,-1036.288319,766.095498
1126.154774,-9548.656652,-666.185348,229.828649
1126.155095,-9474.636058,-592.164754,76.609550
1126.155416,-9696.697840,0.000000,0.000000
1126.155736,-9548.656652,-222.061783,153.219100
1126.156057,-9770.718434,0.000000,76.609550
1126.156378,-9696.697840,148.041188,0.000000
1126.156699,-9622.677246,0.000000,0.000000
1126.157019,-9770.718434,74.020594,153.219100
1126.157340,-9918.759623,148.041188,536.266849
1126.157661,-9622.677246,148.041188,306.438199
1126.157982,-9770.718434,370.102971,536.266849
1126.158302,-9622.677246,74.020594,383.047749
1126.158623,-9548.656652,222.061783,842.705048
1126.158944,-9696.697840,222.061783,919.314598
1126.159265,-9696.697840,296.082377,689.485948
1126.159586,-9548.656652,148.041188,1072.533697
1126.159906,-9548.656652,148.041188,1072.533697
1126.160227,-9622.677246,222.061783,1302.362347
1126.160548,-9696.697840,0.000000,1762.019645
1126.160869,-9474.636058,74.020594,1838.629195
1126.161189,-9548.656652,-370.102971,2145.067394
1126.161510,-9696.697840,0.000000,2298.286494
1126.161831,-9622.677246,-518.144159,2221.676944
1126.162152,-9548.656652,-666.185348,2451.505594
1126.162472,-9400.615463,-814.226536,2145.067394
1126.162793,-9030.512492,-666.185348,3370.820191
1126.163114,-9474.636058,-814.226536,2374.896044
1126.163435,-9326.594869,-888.247130,2451.505594
1126.163755,-9474.636058,-1036.288319,2451.505594
1126.164076,-9400.615463,-962.267725,2145.067394
1126.164397,-9474.636058,-740.205942,2374.896044
1126.164718,-9474.636058,-814.226536,2374.896044
1126.165039,-9474.636058,-888.247130,1762.019645
1126.165359,-9474.636058,-592.164754,1532.190996
1126.165680,-9474.636058,-518.144159,1762.019645
1126.166001,-9474.636058,-370.102971,1149.143247
1126.166322,-9622.677246,-296.082377,1149.143247
1126.166642,-9474.636058,-148.041188,1072.533697
1126.166963,-9844.739029,666.185348,229.828649
1126.167284,-9548.656652,-296.082377,842.705048
1126.167605,-9696.697840,-444.123565,536.266849
1126.167925,-9770.718434,-592.164754,842.705048
1126.168246,-9770.718434,-666.185348,1072.533697
1126.168567,-9844.739029,-592.164754,842.705048
1126.168888,-9548.656652,-888.247130,919.314598
1126.169208,-9696.697840,-962.267725,766.095498
1126.169529,-9622.677246,-814.226536,1072.533697
1126.169850,-9622.677246,-444.123565,612.876398
1126.170171,-9696.697840,-666.185348,459.657299
1126.170492,-9622.677246,-296.082377,229.828649
1126.170812,-9770.718434,-222.061783,76.609550
1126.171133,-9252.574275,0.000000,1225.752797
1126.171454,-9992.780217,74.020594,76.609550
1126.171775,-9918.759623,0.000000,0.000000
1126.172095,-9918.759623,0.000000,153.219100
1126.172416,-9992.780217,74.020594,0.000000
1126.172737,-9992.780217,74.020594,153.219100
1126.173058,-9696.697840,0.000000,0.000000
1126.173378,-9474.636058,-296.082377,229.828649
1126.173699,-9548.656652,0.000000,153.219100
1126.174020,-9770.718434,444.123565,459.657299
1126.174341,-9696.697840,74.020594,229.828649
1126.174661,-9548.656652,0.000000,383.047749
1126.174982,-9474.636058,0.000000,689.485948
1126.175303,-9696.697840,-74.020594,1378.971896
1126.175624,-9474.636058,-148.041188,919.314598
1126.175944,-9474.636058,74.020594,1225.752797
1126.176265,-9548.656652,0.000000,1225.752797
1126.176586,-9622.677246,0.000000,1838.629195
1126.176907,-9622.677246,-370.102971,2298.286494
1126.177227,-9400.615463,-148.041188,1915.238745
1126.177548,-9400.615463,-296.082377,2298.286494
1126.177869,-9474.636058,-222.061783,1685.410096
1126.178189,-9326.594869,-814.226536,2451.505594
1126.178510,-9474.636058,-814.226536,2451.505594
1126.178831,-9178.553681,-962.267725,2374.896044
1126.179151,-9326.594869,-962.267725,2145.067394
1126.179472,-9252.574275,-1110.308913,2911.162892
1126.179793,-9474.636058,-592.164754,2298.286494
1126.180113,-9696.697840,-296.082377,2145.067394
1126.180434,-9696.697840,-370.102971,1532.190996
1126.180755,-9918.759623,-296.082377,1762.019645
1126.181076,-9918.759623,74.020594,1455.581446
1126.181396,-9696.697840,0.000000,1378.971896
1126.181717,-10066.800811,148.041188,689.485948
1126.182038,-9622.677246,74.020594,919.314598
1126.182358,-9696.697840,74.020594,919.314598
1126.182679,-9844.739029,74.020594,536.266849
1126.183000,-9992.780217,-148.041188,689.485948
1126.183320,-9918.759623,-592.164754,612.876398
1126.183641,-9992.780217,-666.185348,1149.143247
1126.183962,-9474.636058,-740.205942,766.095498
1126.184283,-9770.718434,-1184.329507,1149.143247
1126.184603,-9622.677246,-1036.288319,1149.143247
1126.184924,-9622.677246,-1110.308913,919.314598
1126.185245,-9622.677246,-962.267725,995.924147
1126.185565,-9548.656652,-814.226536,689.485948
1126.185886,-9548.656652,-814.226536,383.047749
1126.186207,-9326.594869,-666.185348,612.876398
1126.186527,-9474.636058,-222.061783,229.828649
1126.186848,-9474.636058,-296.082377,383.047749
1126.187169,-9474.636058,-444.123565,459.657299
1126.187489,-9474.636058,-518.144159,0.000000
1126.187810,-9474.636058,-222.061783,-306.438199
1126.188131,-9696.697840,0.000000,76.609550
1126.188452,-9548.656652,0.000000,459.657299
1126.188772,-9696.697840,0.000000,383.047749
1126.189093,-9696.697840,74.020594,536.266849
1126.189414,-9622.677246,0.000000,306.438199
1126.189734,-9696.697840,74.020594,612.876398
1126.190055,-9474.636058,222.061783,459.657299
1126.190376,-9474.636058,370.102971,536.266849
1126.190696,-9770.718434,296.082377,0.000000
1126.191017,-9622.677246,518.144159,612.876398
1126.191338,-9548.656652,222.061783,842.705048
1126.191658,-9400.615463,0.000000,766.095498
1126.191979,-9326.594869,-888.247130,1455.581446
1126.192300,-9992.780217,0.000000,1685.410096
1126.192621,-9696.697840,-370.102971,2068.457845
1126.192941,-9474.636058,-592.164754,2298.286494
1126.193262,-9770.718434,-592.164754,2298.286494
1126.193583,-9844.739029,-592.164754,2451.505594
1126.193903,-9622.677246,-592.164754,2604.724693
1126.194224,-9474.636058,-740.205942,2451.505594
1126.194545,-9400.615463,-740.205942,2374.896044
1126.194865,-9474.636058,0.000000,2528.115143
1126.195186,-9696.697840,-518.144159,1838.629195
1126.195507,-9400.615463,-518.144159,2068.457845
1126.195828,-9622.677246,-592.164754,1991.848295
1126.196148,-9770.718434,-444.123565,1762.019645
1126.196469,-10214.842000,-666.185348,1378.971896
1126.196790,-9844.739029,-444.123565,1225.752797
1126.197110,-9770.718434,-296.082377,1455.581446
1126.197431,-9622.677246,-444.123565,1072.533697
1126.197752,-9622.677246,-444.123565,1072.533697
1126.198072,-9622.677246,-148.041188,919.314598
1126.198393,-9548.656652,-296.082377,995.924147
1126.198714,-9474.636058,-592.164754,842.705048
1126.199034,-9474.636058,-370.102971,536.266849
1126.199355,-9326.594869,-222.061783,919.314598
1126.199676,-9548.656652,-740.205942,459.657299
1126.199997,-9474.636058,-666.185348,612.876398
1126.200317,-9474.636058,-1036.288319,612.876398
1126.200638,-9696.697840,-740.205942,306.438199
1126.200959,-9844.739029,-518.144159,842.705048
1126.201279,-9622.677246,-888.247130,229.828649
1126.201600,-9474.636058,-444.123565,459.657299
1126.201921,-9622.677246,-296.082377,76.609550
1126.202241,-9400.615463,-370.102971,383.047749
1126.202562,-9474.636058,-370.102971,383.047749
1126.202883,-9474.636058,-74.020594,76.609550
1126.203203,-9696.697840,0.000000,76.609550
1126.203524,-9696.697840,74.020594,306.438199
1126.203845,-9622.677246,222.061783,536.266849
1126.204166,-9622.677246,0.000000,229.828649
1126.204486,-9696.697840,74.020594,383.047749
1126.204807,-9770.718434,0.000000,766.095498
1126.205128,-9992.780217,222.061783,766.095498
1126.205448,-10066.800811,296.082377,766.095498
1126.205769,-10066.800811,444.123565,919.314598
1126.206090,-9770.718434,444.123565,842.705048
1126.206410,-9622.677246,740.205942,2757.943793
1126.206731,-9770.718434,296.082377,1455.581446
1126.207052,-9622.677246,0.000000,1455.581446
1126.207373,-9696.697840,-148.041188,1302.362347
1126.207693,-9548.656652,0.000000,1915.238745
1126.208014,-9548.656652,-222.061783,1762.019645
1126.208335,-9474.636058,-518.144159,2374.896044
1126.208655,-9474.636058,-814.226536,2374.896044
1126.208976,-9474.636058,-666.185348,2374.896044
1126.209297,-9548.656652,-888.247130,2681.334243
1126.209617,-9474.636058,-888.247130,2911.162892
1126.209938,-9622.677246,-740.205942,2911.162892
1126.210259,-9474.636058,-888.247130,2911.162892
1126.210579,-8734.430116,-1036.288319,2604.724693
1126.210900,-9326.594869,-740.205942,2681.334243
1126.211221,-9474.636058,-592.164754,2068.457845
1126.211542,-9474.636058,-444.123565,1915.238745
1126.211862,-9474.636058,148.041188,1762.019645
1126.212183,-9474.636058,-296.082377,1608.800546
1126.212504,-9548.656652,-222.061783,919.314598
1126.212824,-9622.677246,-370.102971,689.485948
1126.213145,-9770.718434,0.000000,919.314598
1126.213466,-9474.636058,0.000000,689.485948
1126.213786,-9770.718434,0.000000,383.047749
1126.214107,-9548.656652,0.000000,536.266849
1126.214428,-9844.739029,0.000000,383.047749
1126.214748,-9104.533087,-666.185348,536.266849
1126.215069,-9696.697840,-296.082377,383.047749
1126.215390,-9326.594869,-814.226536,306.438199
1126.215711,-9400.615463,-1036.288319,0.000000
1126.216031,-9474.636058,-370.102971,1532.190996
1126.216352,-9252.574275,-1258.350101,153.219100
1126.216673,-9474.636058,-1036.288319,0.000000
1126.216993,-9622.677246,-1110.308913,76.609550
1126.217314,-9622.677246,-814.226536,153.219100
1126.217635,-9770.718434,-814.226536,0.000000
1126.217955,-9770.718434,-518.144159,0.000000
1126.218276,-9844.739029,-222.061783,0.000000
1126.218597,-9696.697840,-148.041188,76.609550
1126.218918,-9770.718434,444.123565,0.000000
1126.219238,-9770.718434,0.000000,-383.047749
1126.219559,-9696.697840,0.000000,0.000000
1126.219880,-9622.677246,0.000000,-306.438199
1126.220200,-9622.677246,74.020594,0.000000
1126.220521,-9622.677246,0.000000,76.609550
1126.220842,-9770.718434,222.061783,229.828649
1126.221162,-9770.718434,296.082377,459.657299
1126.221483,-9622.677246,222.061783,689.485948
1126.221804,-9696.697840,444.123565,919.314598
1126.222124,-9696.697840,222.061783,1225.752797
1126.222445,-9770.718434,148.041188,1685.410096
1126.222766,-9696.697840,148.041188,1915.238745
1126.223087,-9326.594869,148.041188,1608.800546
1126.223407,-9474.636058,148.041188,1915.238745
1126.223728,-9622.677246,0.000000,2145.067394
1126.224049,-9400.615463,-296.082377,2298.286494
1126.224369,-9400.615463,-296.082377,2451.505594
1126.224690,-9326.594869,-740.205942,2528.115143
1126.225011,-9400.615463,-814.226536,2834.553343
1126.225331,-9474.636058,-740.205942,2757.943793
1126.225652,-9326.594869,-962.267725,2681.334243
1126.225973,-9622.677246,-888.247130,2604.724693
1126.226293,-9400.615463,-666.185348,2987.772442
1126.226614,-9474.636058,-888.247130,2681.334243
1126.226935,-9474.636058,-666.185348,2451.505594
1126.227256,-8734.430116,-1184.329507,2221.676944
1126.227576,-9400.615463,-518.144159,1838.629195
1126.227897,-9474.636058,-370.102971,1915.238745
1126.228218,-9474.636058,-592.164754,1302.362347
1126.228538,-8808.450710,-592.164754,1072.533697
1126.228859,-9400.615463,-222.061783,766.095498
1126.229180,-9696.697840,0.000000,919.314598
1126.229500,-9696.697840,148.041188,612.876398
1126.229821,-9696.697840,0.000000,766.095498
1126.230142,-9770.718434,0.000000,766.095498
1126.230463,-9696.697840,-592.164754,766.095498
1126.230783,-9622.677246,-888.247130,536.266849
1126.231104,-9548.656652,-666.185348,612.876398
1126.231425,-9622.677246,-740.205942,306.438199
1126.231745,-9696.697840,-592.164754,612.876398
1126.232066,-9548.656652,-592.164754,229.828649
1126.232387,-9548.656652,-592.164754,153.219100
1126.232707,-9474.636058,-592.164754,153.219100
1126.233028,-9622.677246,-518.144159,229.828649
1126.233349,-9474.636058,-370.102971,-459.657299
1126.233669,-9548.656652,0.000000,0.000000
1126.233990,-9696.697840,0.000000,-153.219100
1126.234311,-9770.718434,74.020594,-153.219100
1126.234632,-9696.697840,0.000000,76.609550
1126.234952,-9992.780217,148.041188,0.000000
1126.235273,-9696.697840,0.000000,-76.609550
1126.235594,-9474.636058,-222.061783,842.705048
1126.235914,-9474.636058,-148.041188,0.000000
1126.236235,-9474.636058,0.000000,0.000000
1126.236556,-9622.677246,0.000000,76.609550
1126.236876,-10140.821405,814.226536,76.609550
1126.237197,-9696.697840,0.000000,766.095498
1126.237518,-9548.656652,74.020594,689.485948
1126.237838,-9622.677246,74.020594,1302.362347
1126.238159,-9622.677246,0.000000,1455.581446
1126.238480,-9474.636058,0.000000,1378.971896
1126.238801,-9548.656652,-74.020594,1608.800546
1126.239121,-9548.656652,-148.041188,1762.019645
1126.239442,-9474.636058,-296.082377,2374.896044
1126.239763,-9474.636058,-296.082377,2528.115143
1126.240083,-9326.594869,-444.123565,2298.286494
1126.240404,-9474.636058,-518.144159,2911.162892
1126.240725,-9326.594869,-592.164754,2528.115143
1126.241045,-9770.718434,-148.041188,2987.772442
1126.241366,-9622.677246,-592.164754,2681.334243
1126.241687,-9326.594869,-962.267725,2528.115143
1126.242008,-9474.636058,-962.267725,2604.724693
1126.242328,-9474.636058,-1036.288319,2451.505594
1126.242649,-9622.677246,-888.247130,2298.286494
1126.242970,-9622.677246,-518.144159,2221.676944
1126.243290,-9770.718434,-592.164754,1762.019645
1126.243611,-9770.718434,-666.185348,1762.019645
1126.243932,-9474.636058,-296.082377,1762.019645
1126.244252,-9622.677246,-370.102971,1149.143247
1126.244573,-9770.718434,-222.061783,995.924147
1126.244894,-9696.697840,-296.082377,689.485948
1126.245214,-9992.780217,296.082377,1608.800546
1126.245535,-9548.656652,-296.082377,306.438199
1126.245856,-9918.759623,-296.082377,612.876398
1126.246177,-9844.739029,-518.144159,229.828649
1126.246497,-9548.656652,-740.205942,0.000000
1126.246818,-9548.656652,-740.205942,459.657299
1126.247139,-9918.759623,-962.267725,842.705048
1126.247459,-9622.677246,-888.247130,536.266849
1126.247780,-9548.656652,-1332.370696,229.828649
1126.248101,-9844.739029,-740.205942,306.438199
1126.248421,-9622.677246,-962.267725,536.266849
1126.248742,-9696.697840,-740.205942,536.266849
1126.249063,-9548.656652,-814.226536,229.828649
1126.249383,-9696.697840,0.000000,-306.438199
1126.249704,-9474.636058,-296.082377,0.000000
1126.250025,-9548.656652,-148.041188,0.000000
1126.250346,-9622.677246,0.000000,229.828649
1126.250666,-9474.636058,74.020594,0.000000
1126.250987,-9844.739029,0.000000,0.000000
1126.251308,-9770.718434,0.000000,76.609550
1126.251628,-9770.718434,148.041188,0.000000
1126.251949,-9548.656652,74.020594,229.828649
1126.252270,-9104.533087,222.061783,1532.190996
1126.252590,-9770.718434,370.102971,766.095498
1126.252911,-9622.677246,222.061783,766.095498
1126.253232,-9696.697840,296.082377,842.705048
1126.253553,-9696.697840,296.082377,995.924147
1126.253873,-9770.718434,0.000000,1991.848295
1126.254194,-9474.636058,0.000000,1072.533697
1126.254515,-9474.636058,148.041188,1838.629195
1126.254835,-9548.656652,74.020594,1838.629195
1126.255156,-9770.718434,74.020594,1991.848295
1126.255477,-9548.656652,0.000000,2298.286494
1126.255797,-9474.636058,0.000000,2451.505594
1126.256118,-9548.656652,-444.123565,2451.505594
1126.256439,-9548.656652,-444.123565,2604.724693
1126.256759,-9622.677246,-370.102971,2987.772442
1126.257080,-9474.636058,-370.102971,2374.896044
1126.257401,-9474.636058,-370.102971,2451.505594
1126.257722,-9474.636058,-518.144159,2528.115143
1126.258042,-8956.491898,-148.041188,2145.067394
1126.258363,-9252.574275,-814.226536,1838.629195
1126.258684,-9474.636058,-592.164754,1991.848295
1126.259004,-9400.615463,-592.164754,1991.848295
1126.259325,-9474.636058,-592.164754,1915.238745
1126.259646,-9326.594869,-666.185348,995.924147
1126.259966,-9622.677246,-148.041188,842.705048
1126.260287,-9548.656652,0.000000,995.924147
1126.260608,-9696.697840,-222.061783,842.705048
1126.260928,-9844.739029,0.000000,919.314598
1126.261249,-9548.656652,0.000000,766.095498
1126.261570,-9770.718434,-222.061783,536.266849
1126.261891,-9622.677246,-370.102971,536.266849
1126.262211,-10362.883188,0.000000,459.657299
1126.262532,-9770.718434,-518.144159,229.828649
1126.262853,-9474.636058,-444.123565,306.438199
1126.263173,-9548.656652,-740.205942,536.266849
1126.263494,-9474.636058,-1184.329507,612.876398
1126.263815,-9548.656652,-888.247130,689.485948
1126.264135,-9548.656652,-888.247130,153.219100
1126.264456,-9548.656652,-962.267725,153.219100
1126.264777,-9770.718434,-444.123565,306.438199
1126.265098,-9770.718434,-222.061783,76.609550
1126.265418,-9770.718434,-518.144159,536.266849
1126.265739,-9770.718434,-222.061783,0.000000
1126.266060,-9622.677246,0.000000,0.000000
1126.266380,-9918.759623,296.082377,-1302.362347
1126.266701,-10066.800811,222.061783,0.000000
1126.267022,-9844.739029,0.000000,0.000000
1126.267342,-9622.677246,74.020594,76.609550
1126.267663,-9696.697840,0.000000,153.219100
1126.267984,-9622.677246,0.000000,689.485948
1126.268304,-9696.697840,0.000000,612.876398
1126.268625,-9474.636058,0.000000,536.266849
1126.268946,-9548.656652,0.000000,1225.752797
1126.269267,-9548.656652,0.000000,1378.971896
1126.269587,-9770.718434,0.000000,1532.190996
1126.269908,-9622.677246,0.000000,1455.581446
1126.270229,-9474.636058,-296.082377,1532.190996
1126.270549,-9696.697840,-222.061783,1608.800546
1126.270870,-9474.636058,-222.061783,1991.848295
1126.271191,-9326.594869,-592.164754,2221.676944
1126.271511,-9474.636058,-592.164754,2068.457845
1126.271832,-9400.615463,-592.164754,2604.724693
1126.272153,-9474.636058,-740.205942,2451.505594
1126.272473,-9400.615463,-962.267725,2834.553343
1126.272794,-9400.615463,-1036.288319,2528.115143
1126.273115,-9400.615463,-1036.288319,2451.505594
1126.273436,-9844.739029,-592.164754,2145.067394
1126.273756,-9400.615463,-1036.288319,2451.505594
1126.274077,-9474.636058,-1036.288319,2374.896044
1126.274398,-9474.636058,-814.226536,2145.067394
1126.274718,-9622.677246,-592.164754,1378.971896
1126.275039,-9474.636058,-518.144159,1225.752797
1126.275360,-9548.656652,-592.164754,1225.752797
1126.275680,-9548.656652,-148.041188,919.314598
1126.276001,-9844.739029,0.000000,-766.095498
1126.276322,-9770.718434,74.020594,612.876398
1126.276643,-9770.718434,148.041188,536.266849
1126.276963,-9992.780217,222.061783,536.266849
1126.277284,-9844.739029,148.041188,612.876398
1126.277605,-9844.739029,-148.041188,536.266849
1126.277925,-9548.656652,-370.102971,306.438199
1126.278246,-9770.718434,-592.164754,306.438199
1126.278567,-9844.739029,-666.185348,536.266849
1126.278887,-10140.821405,-296.082377,1149.143247
1126.279208,-9474.636058,-814.226536,689.485948
1126.279529,-9548.656652,-888.247130,459.657299
1126.279849,-9622.677246,-740.205942,459.657299
1126.280170,-9844.739029,-888.247130,536.266849
1126.280491,-9622.677246,-666.185348,612.876398
1126.280811,-9696.697840,-444.123565,306.438199
1126.281132,-9474.636058,-222.061783,153.219100
1126.281453,-9622.677246,0.000000,459.657299
1126.281773,-9696.697840,0.000000,689.485948
1126.282094,-9622.677246,0.000000,76.609550
1126.282415,-9696.697840,0.000000,76.609550
1126.282735,-9770.718434,0.000000,0.000000
1126.283056,-9844.739029,0.000000,1762.019645
1126.283377,-9474.636058,0.000000,383.047749
1126.283697,-9696.697840,148.041188,383.047749
1126.284018,-9622.677246,74.020594,919.314598
1126.284339,-9696.697840,74.020594,919.314598
1126.284659,-9474.636058,0.000000,919.314598
1126.284980,-9696.697840,148.041188,1149.143247
1126.285301,-9770.718434,222.061783,1455.581446
1126.285621,-9622.677246,296.082377,1608.800546
1126.285942,-9400.615463,148.041188,2451.505594
1126.286263,-9548.656652,74.020594,1762.019645
1126.286584,-9474.636058,74.020594,1838.629195
1126.286904,-9770.718434,0.000000,2221.676944
1126.287225,-9844.739029,222.061783,1685.410096
1126.287546,-9400.615463,-296.082377,2451.505594
1126.287866,-9252.574275,-592.164754,2528.115143
1126.288187,-9474.636058,-814.226536,2451.505594
1126.288508,-9178.553681,-1110.308913,2298.286494
1126.288828,-9548.656652,-592.164754,2911.162892
1126.289149,-9474.636058,-666.185348,2298.286494
1126.289470,-9548.656652,-444.123565,2221.676944
1126.289790,-9474.636058,-666.185348,2068.457845
1126.290111,-9104.533087,-740.205942,1915.238745
1126.290432,-9696.697840,-666.185348,1838.629195
1126.290752,-9622.677246,-518.144159,1685.410096
1126.291073,-9622.677246,-370.102971,1302.362347
1126.291394,-9030.512492,-518.144159,229.828649
1126.291714,-9770.718434,0.000000,919.314598
1126.292035,-9622.677246,0.000000,612.876398
1126.292356,-9474.636058,0.000000,766.095498
1126.292676,-9548.656652,0.000000,459.657299
1126.292997,-9918.759623,-222.061783,459.657299
1126.293318,-9770.718434,-518.144159,689.485948
1126.293638,-9844.739029,-740.205942,459.657299
1126.293959,-9548.656652,-888.247130,536.266849
1126.294280,-9474.636058,-1036.288319,842.705048
1126.294600,-9622.677246,-1184.329507,459.657299
1126.294921,-9474.636058,-1110.308913,229.828649
1126.295242,-9474.636058,-666.185348,0.000000
1126.295562,-9548.656652,-148.041188,306.438199
1126.295883,-9474.636058,-814.226536,0.000000
1126.296204,-9474.636058,-814.226536,0.000000
1126.296524,-9622.677246,-592.164754,-229.828649
1126.296845,-9622.677246,-296.082377,0.000000
1126.297166,-9770.718434,-296.082377,76.609550
1126.297486,-9696.697840,-222.061783,0.000000
1126.297807,-9770.718434,0.000000,0.000000
1126.298128,-9770.718434,-370.102971,0.000000
1126.298448,-9992.780217,-222.061783,0.000000
1126.298769,-9474.636058,-370.102971,229.828649
1126.299090,-9474.636058,-666.185348,-153.219100
1126.299410,-9622.677246,0.000000,459.657299
1126.299731,-9918.759623,-666.185348,306.438199
1126.300052,-9474.636058,-222.061783,689.485948
1126.300372,-9548.656652,-222.061783,689.485948
1126.300693,-9474.636058,0.000000,766.095498
1126.301014,-9622.677246,74.020594,1608.800546
1126.301335,-9992.780217,222.061783,1302.362347
1126.301655,-9696.697840,74.020594,1915.238745
1126.301976,-9548.656652,0.000000,1838.629195
1126.302297,-9622.677246,74.020594,2298.286494
1126.302617,-9474.636058,222.061783,2374.896044
1126.302938,-9622.677246,0.000000,2451.505594
1126.303259,-9474.636058,-370.102971,2451.505594
1126.303579,-9474.636058,-666.185348,2451.505594
1126.303900,-10584.944971,0.000000,1915.238745
1126.304221,-9400.615463,-518.144159,2911.162892
1126.304541,-9474.636058,-518.144159,2757.943793
1126.304862,-9474.636058,-518.144159,2757.943793
1126.305183,-9474.636058,-740.205942,2681.334243
1126.305503,-9696.697840,-296.082377,2451.505594
1126.305824,-9622.677246,-222.061783,2145.067394
1126.306145,-9918.759623,-296.082377,1915.238745
1126.306465,-9622.677246,-518.144159,1302.362347
1126.306786,-9548.656652,-370.102971,1149.143247
1126.307107,-9548.656652,0.000000,1149.143247
1126.307427,-9474.636058,0.000000,995.924147
1126.307748,-9548.656652,0.000000,689.485948
1126.308069,-9474.636058,148.041188,0.000000
1126.308389,-9474.636058,-296.082377,766.095498
1126.308710,-9548.656652,-74.020594,842.705048
1126.309031,-9770.718434,-518.144159,536.266849
1126.309351,-9548.656652,-592.164754,919.314598
1126.309672,-9474.636058,-666.185348,612.876398
1126.309993,-9770.718434,-740.205942,459.657299
1126.310313,-9400.615463,-740.205942,689.485948
1126.310634,-9474.636058,-814.226536,689.485948
1126.310955,-9548.656652,-370.102971,459.657299
1126.311275,-9326.594869,-740.205942,536.266849
1126.311596,-9474.636058,-814.226536,229.828649
1126.311917,-9474.636058,-370.102971,0.000000
1126.312237,-8512.368333,-296.082377,-229.828649
1126.312558,-9474.636058,0.000000,0.000000
1126.312879,-9252.574275,-148.041188,-306.438199
1126.313199,-9770.718434,0.000000,-536.266849
1126.313520,-9770.718434,444.123565,1838.629195
1126.313841,-9992.780217,74.020594,153.219100
1126.314161,-9992.780217,-74.020594,689.485948
1126.314482,-9696.697840,-296.082377,76.609550
1126.314803,-9844.739029,0.000000,0.000000
1126.315123,-9474.636058,-222.061783,76.609550
1126.315444,-9696.697840,74.020594,306.438199
1126.315765,-9622.677246,0.000000,229.828649
1126.316086,-9548.656652,222.061783,153.219100
1126.316406,-10214.842000,888.247130,536.266849
1126.316727,-9918.759623,0.000000,919.314598
1126.317048,-9918.759623,0.000000,1455.581446
1126.317368,-9844.739029,74.020594,1762.019645
1126.317689,-9770.718434,-222.061783,1991.848295
1126.318010,-9696.697840,0.000000,1991.848295
1126.318330,-9696.697840,-518.144159,2068.457845
1126.318651,-9622.677246,-444.123565,2221.676944
1126.318972,-9770.718434,-444.123565,2451.505594
1126.319292,-9252.574275,-370.102971,2374.896044
1126.319613,-9400.615463,-740.205942,2451.505594
1126.319934,-9326.594869,-666.185348,2528.115143
1126.320254,-9326.594869,-518.144159,2451.505594
1126.320575,-8734.430116,-740.205942,1915.238745
1126.320896,-9474.636058,-666.185348,2221.676944
1126.321216,-9474.636058,-518.144159,2145.067394
1126.321537,-9474.636058,-444.123565,2068.457845
1126.321858,-9474.636058,-444.123565,612.876398
1126.322178,-9548.656652,-592.164754,1915.238745
1126.322499,-9548.656652,-444.123565,1378.971896
1126.322820,-9770.718434,-518.144159,1378.971896
1126.323140,-9770.718434,-222.061783,1072.533697
1126.323461,-9474.636058,-370.102971,919.314598
1126.323782,-9400.615463,0.000000,919.314598
1126.324102,-9474.636058,-518.144159,459.657299
1126.324423,-9474.636058,-592.164754,536.266849
1126.324744,-9548.656652,-444.123565,1149.143247
1126.325064,-9474.636058,-888.247130,919.314598
1126.325385,-9400.615463,-814.226536,689.485948
1126.325706,-9696.697840,-740.205942,919.314598
1126.326026,-9474.636058,-962.267725,1072.533697
1126.326347,-9622.677246,-962.267725,995.924147
1126.326668,-9696.697840,-888.247130,919.314598
1126.326988,-9548.656652,-740.205942,536.266849
1126.327309,-9770.718434,-740.205942,306.438199
1126.327630,-9622.677246,-518.144159,0.000000
1126.327950,-9622.677246,-296.082377,229.828649
1126.328271,-9622.677246,0.000000,76.609550
1126.328592,-9696.697840,-370.102971,-229.828649
1126.328912,-9252.574275,-296.082377,76.609550
1126.329233,-9770.718434,-148.041188,-153.219100
1126.329554,-9918.759623,-74.020594,459.657299
1126.329874,-10066.800811,74.020594,459.657299
1126.330195,-10436.903782,222.061783,842.705048
1126.330516,-9844.739029,148.041188,459.657299
1126.330837,-9622.677246,74.020594,459.657299
1126.331157,-9696.697840,296.082377,153.219100
1126.331478,-9770.718434,370.102971,153.219100
1126.331799,-9474.636058,296.082377,229.828649
1126.332119,-9770.718434,148.041188,689.485948
1126.332440,-9844.739029,444.123565,689.485948
1126.332761,-9400.615463,222.061783,995.924147
1126.333081,-9622.677246,592.164754,1302.362347
1126.333402,-9696.697840,0.000000,1608.800546
1126.333723,-9548.656652,-296.082377,1762.019645
1126.334043,-9548.656652,-518.144159,2221.676944
1126.334364,-9918.759623,-222.061783,1915.238745
1126.334685,-9474.636058,-296.082377,2681.334243
1126.335005,-9696.697840,-444.123565,2911.162892
1126.335326,-9326.594869,-592.164754,2757.943793
1126.335647,-9400.615463,-740.205942,2374.896044
1126.335967,-9252.574275,-962.267725,2374.896044
1126.336288,-9474.636058,-888.247130,2451.505594
1126.336609,-9178.553681,-962.267725,2374.896044
1126.336929,-9400.615463,-814.226536,2145.067394
1126.337250,-9622.677246,-666.185348,1915.238745
1126.337571,-9548.656652,-592.164754,1991.848295
1126.337891,-9622.677246,-740.205942,1608.800546
1126.338212,-9400.615463,-518.144159,1608.800546
1126.338533,-10288.862594,-296.082377,0.000000
1126.338853,-9992.780217,0.000000,1225.752797
1126.339174,-9844.739029,74.020594,1149.143247
1126.339495,-9918.759623,0.000000,842.705048
1126.339815,-9696.697840,0.000000,1991.848295
1126.340136,-9474.636058,-222.061783,383.047749
1126.340457,-9548.656652,-222.061783,76.609550
1126.340777,-9844.739029,-296.082377,306.438199
1126.341098,-9548.656652,-518.144159,689.485948
1126.341419,-9474.636058,-444.123565,536.266849
1126.341739,-9474.636058,-1184.329507,612.876398
1126.342060,-9548.656652,-1110.308913,612.876398
1126.342381,-9548.656652,-1258.350101,919.314598
1126.342701,-9918.759623,-740.205942,383.047749
1126.343022,-9548.656652,-888.247130,459.657299
1126.343343,-9622.677246,-444.123565,459.657299
1126.343663,-9548.656652,-592.164754,0.000000
1126.343984,-9548.656652,-370.102971,766.095498
1126.344305,-9696.697840,-148.041188,153.219100
1126.344625,-9548.656652,0.000000,0.000000
1126.344946,-9548.656652,0.000000,76.609550
1126.345267,-9622.677246,-148.041188,229.828649
1126.345587,-10066.800811,0.000000,76.609550
1126.345908,-9548.656652,-370.102971,0.000000
1126.346229,-9548.656652,-148.041188,153.219100
1126.346550,-9770.718434,0.000000,383.047749
1126.346870,-8586.388927,-444.123565,1455.581446
1126.347191,-9474.636058,0.000000,459.657299
1126.347512,-9770.718434,0.000000,153.219100
1126.347832,-9474.636058,74.020594,766.095498
1126.348153,-9622.677246,0.000000,1225.752797
1126.348474,-9696.697840,296.082377,1225.752797
1126.348794,-9474.636058,148.041188,1378.971896
1126.349115,-9918.759623,148.041188,1685.410096
1126.349436,-9474.636058,0.000000,2145.067394
1126.349756,-9918.759623,-148.041188,2068.457845
1126.350077,-9474.636058,-740.205942,2145.067394
1126.350398,-9400.615463,-518.144159,2451.505594
1126.350718,-9548.656652,-518.144159,2451.505594
1126.351039,-8512.368333,148.041188,3600.648841
1126.351360,-9252.574275,-592.164754,2681.334243
1126.351680,-9400.615463,-518.144159,2528.115143
1126.352001,-9548.656652,-592.164754,2681.334243
1126.352322,-9548.656652,-444.123565,2298.286494
1126.352642,-9548.656652,-740.205942,2451.505594
1126.352963,-9474.636058,-740.205942,2221.676944
1126.353284,-9548.656652,-370.102971,1991.848295
1126.353604,-9622.677246,-518.144159,1608.800546
1126.353925,-9622.677246,-444.123565,1685.410096
1126.354246,-9548.656652,-444.123565,1532.190996
1126.354566,-9622.677246,-296.082377,1532.190996
1126.354887,-9770.718434,0.000000,1378.971896
1126.355208,-9474.636058,-666.185348,2374.896044
1126.355528,-9770.718434,-444.123565,689.485948
1126.355849,-9548.656652,-666.185348,842.705048
1126.356170,-9622.677246,-592.164754,612.876398
1126.356490,-9474.636058,-444.123565,1915.238745
1126.356811,-9400.615463,-592.164754,689.485948
1126.357132,-9548.656652,-888.247130,536.266849
1126.357452,-9474.636058,-888.247130,842.705048
1126.357773,-9548.656652,-888.247130,612.876398
1126.358094,-9400.615463,-888.247130,536.266849
1126.358414,-9548.656652,-814.226536,536.266849
1126.358735,-9474.636058,-740.205942,306.438199
1126.359056,-9474.636058,-666.185348,0.000000
1126.359376,-9844.739029,0.000000,-459.657299
1126.359697,-9696.697840,-518.144159,0.000000
1126.360018,-9548.656652,0.000000,0.000000
1126.360338,-9696.697840,0.000000,-306.438199
1126.360659,-9548.656652,-370.102971,-995.924147
1126.360980,-9622.677246,-444.123565,-383.047749
1126.361301,-9622.677246,-296.082377,-306.438199
1126.361621,-9548.656652,-222.061783,-76.609550
1126.361942,-9770.718434,0.000000,0.000000
1126.362263,-9844.739029,0.000000,229.828649
1126.362583,-9474.636058,0.000000,536.266849
1126.362904,-9770.718434,518.144159,459.657299
1126.363225,-9696.697840,148.041188,842.705048
1126.363545,-9918.759623,222.061783,1225.752797
1126.363866,-9622.677246,0.000000,1149.143247
1126.364187,-9474.636058,74.020594,1072.533697
1126.364507,-9548.656652,74.020594,1608.800546
1126.364828,-9474.636058,0.000000,766.095498
1126.365149,-9548.656652,0.000000,1685.410096
1126.365469,-9474.636058,0.000000,1915.238745
1126.365790,-9548.656652,0.000000,2145.067394
1126.366111,-9474.636058,0.000000,2528.115143
1126.366431,-9770.718434,-592.164754,2528.115143
1126.366752,-9474.636058,-592.164754,2604.724693
1126.367073,-9548.656652,-666.185348,2911.162892
1126.367393,-9474.636058,-888.247130,2834.553343
1126.367714,-9474.636058,-1184.329507,2528.115143
1126.368035,-9474.636058,-1110.308913,2298.286494
1126.368355,-9326.594869,-888.247130,2451.505594
1126.368676,-9474.636058,-666.185348,2145.067394
1126.368997,-9622.677246,-740.205942,2451.505594
1126.369317,-9326.594869,-592.164754,1685.410096
1126.369638,-9696.697840,-444.123565,1455.581446
1126.369959,-9622.677246,-296.082377,1225.752797
1126.370279,-9770.718434,74.020594,1532.190996
1126.370600,-9400.615463,0.000000,1378.971896
1126.370921,-9918.759623,148.041188,766.095498
1126.371241,-9696.697840,148.041188,995.924147
1126.371562,-9770.718434,74.020594,536.266849
1126.371883,-10066.800811,0.000000,612.876398
1126.372203,-9474.636058,-740.205942,536.266849
1126.372524,-9474.636058,-740.205942,383.047749
1126.372845,-9474.636058,-814.226536,306.438199
1126.373165,-9400.615463,-1110.308913,919.314598
1126.373486,-9548.656652,-814.226536,536.266849
1126.373807,-9548.656652,-888.247130,536.266849
1126.374127,-9474.636058,-888.247130,383.047749
1126.374448,-9474.636058,-740.205942,0.000000
1126.374769,-9548.656652,-666.185348,459.657299
1126.375089,-9622.677246,-888.247130,153.219100
1126.375410,-9548.656652,-518.144159,-229.828649
1126.375731,-9474.636058,-444.123565,0.000000
1126.376052,-9326.594869,-518.144159,-306.438199
1126.376372,-9622.677246,74.020594,-383.047749
1126.376693,-9622.677246,370.102971,-153.219100
1126.377014,-9918.759623,370.102971,-153.219100
1126.377334,-9326.594869,814.226536,995.924147
1126.377655,-9844.739029,148.041188,0.000000
1126.377976,-9770.718434,148.041188,229.828649
1126.378296,-9918.759623,148.041188,229.828649
1126.378617,-9918.759623,370.102971,459.657299
1126.378938,-9844.739029,666.185348,842.705048
1126.379258,-9770.718434,666.185348,842.705048
1126.379579,-9844.739029,518.144159,1149.143247
1126.379900,-9844.739029,296.082377,1149.143247
1126.380221,-8956.491898,0.000000,1915.238745
1126.380541,-9770.718434,222.061783,1378.971896
1126.380862,-9474.636058,0.000000,1915.238745
1126.381183,-9622.677246,0.000000,2221.676944
1126.381503,-9252.574275,-666.185348,3064.381992
1126.381824,-9474.636058,-444.123565,2681.334243
1126.382145,-9696.697840,-296.082377,2757.943793
1126.382466,-9474.636058,-592.164754,2451.505594
1126.382786,-9400.615463,-666.185348,2681.334243
1126.383107,-9474.636058,-888.247130,2681.334243
1126.383428,-9474.636058,-592.164754,2604.724693
1126.383748,-9400.615463,-888.247130,2451.505594
1126.384069,-9400.615463,-814.226536,2681.334243
1126.384390,-8882.471304,-1036.288319,1915.238745
1126.384711,-9474.636058,-592.164754,2068.457845
1126.385031,-9474.636058,-666.185348,1915.238745
1126.385352,-9400.615463,-592.164754,1532.190996
1126.385673,-9474.636058,-592.164754,1991.848295
1126.385993,-9474.636058,-518.144159,995.924147
1126.386314,-9474.636058,-592.164754,1378.971896
1126.386635,-9548.656652,-296.082377,919.314598
1126.386956,-9548.656652,-296.082377,612.876398
1126.387276,-9400.615463,-370.102971,919.314598
1126.387597,-9844.739029,-592.164754,766.095498
1126.387918,-9474.636058,-740.205942,536.266849
1126.388238,-9548.656652,-814.226536,306.438199
1126.388559,-8586.388927,-666.185348,383.047749
1126.388880,-9326.594869,-1258.350101,689.485948
1126.389201,-9474.636058,-962.267725,383.047749
1126.389521,-9622.677246,-666.185348,153.219100
1126.389842,-9696.697840,-740.205942,1762.019645
1126.390163,-9992.780217,-592.164754,536.266849
1126.390483,-9770.718434,-518.144159,-76.609550
1126.390804,-9992.780217,-296.082377,229.828649
1126.391125,-9622.677246,-222.061783,0.000000
1126.391446,-10140.821405,74.020594,-229.828649
1126.391766,-9918.759623,0.000000,-153.219100
1126.392087,-9844.739029,74.020594,0.000000
1126.392408,-9992.780217,0.000000,-306.438199
1126.392728,-9696.697840,0.000000,-306.438199
1126.393049,-9770.718434,222.061783,0.000000
1126.393370,-9918.759623,444.123565,0.000000
1126.393691,-9770.718434,222.061783,306.438199
1126.394011,-9770.718434,370.102971,0.000000
1126.394332,-9770.718434,666.185348,536.266849
1126.394653,-9622.677246,444.123565,919.314598
1126.394973,-9918.759623,222.061783,766.095498
1126.395294,-9474.636058,74.020594,1072.533697
1126.395615,-9326.594869,-74.020594,1225.752797
1126.395936,-9548.656652,0.000000,1455.581446
1126.396256,-9474.636058,-222.061783,1762.019645
1126.396577,-9400.615463,-222.061783,2068.457845
1126.396898,-9474.636058,0.000000,1991.848295
1126.397218,-9178.553681,-592.164754,2374.896044
1126.397539,-9474.636058,-518.144159,2834.553343
1126.397860,-9474.636058,-592.164754,2757.943793
1126.398181,-9326.594869,-296.082377,2757.943793
1126.398501,-9178.553681,-814.226536,2604.724693
1126.398822,-9104.533087,-814.226536,2451.505594
1126.399143,-9474.636058,-666.185348,2604.724693
1126.399463,-9252.574275,-1110.308913,2528.115143
1126.399784,-9474.636058,-888.247130,2145.067394
1126.400105,-9326.594869,-740.205942,2145.067394
1126.400426,-9548.656652,-814.226536,2068.457845
1126.400746,-9474.636058,-592.164754,1608.800546
1126.401067,-9548.656652,0.000000,2834.553343
1126.401388,-9696.697840,0.000000,1225.752797
1126.401708,-9622.677246,-148.041188,1072.533697
1126.402029,-9844.739029,-296.082377,689.485948
1126.402350,-9696.697840,296.082377,1149.143247
1126.402671,-9844.739029,0.000000,689.485948
1126.402991,-9844.739029,-148.041188,842.705048
1126.403312,-9696.697840,-592.164754,536.266849
1126.403633,-9696.697840,-370.102971,536.266849
1126.403953,-10140.821405,-592.164754,612.876398
1126.404274,-9770.718434,-740.205942,612.876398
1126.404595,-9770.718434,-962.267725,229.828649
1126.404916,-9696.697840,-592.164754,306.438199
1126.405236,-9770.718434,0.000000,919.314598
1126.405557,-9548.656652,-888.247130,612.876398
1126.405878,-9474.636058,-962.267725,383.047749
1126.406198,-9622.677246,-814.226536,0.000000
1126.406519,-9400.615463,74.020594,153.219100
1126.406840,-9918.759623,0.000000,-153.219100
1126.407161,-9548.656652,-222.061783,0.000000
1126.407481,-9622.677246,0.000000,0.000000
1126.407802,-9696.697840,74.020594,0.000000
1126.408123,-9918.759623,74.020594,-153.219100
1126.408443,-9770.718434,-148.041188,229.828649
1126.408764,-9548.656652,-74.020594,0.000000
1126.409085,-9548.656652,74.020594,0.000000
1126.409406,-10436.903782,592.164754,153.219100
1126.409726,-9474.636058,0.000000,612.876398
1126.410047,-9474.636058,-296.082377,612.876398
1126.410368,-9474.636058,0.000000,612.876398
1126.410688,-9474.636058,370.102971,1378.971896
1126.411009,-9474.636058,0.000000,1072.533697
1126.411330,-9474.636058,0.000000,1378.971896
1126.411651,-9474.636058,0.000000,1532.190996
1126.411971,-9548.656652,0.000000,1838.629195
1126.412292,-9548.656652,148.041188,2145.067394
1126.412613,-9622.677246,-148.041188,2298.286494
1126.412933,-9474.636058,-296.082377,2451.505594
1126.413254,-9474.636058,-148.041188,2834.553343
1126.413575,-9252.574275,-222.061783,2451.505594
1126.413896,-9474.636058,-444.123565,2911.162892
1126.414216,-9474.636058,-444.123565,2757.943793
1126.414537,-9622.677246,-518.144159,2911.162892
1126.414858,-9030.512492,-1554.432478,3217.601092
1126.415178,-9548.656652,-370.102971,2681.334243
1126.415499,-9400.615463,-592.164754,2451.505594
1126.415820,-9400.615463,-518.144159,2374.896044
1126.416141,-9770.718434,-370.102971,2374.896044
1126.416461,-9696.697840,-296.082377,1838.629195
1126.416782,-9844.739029,-222.061783,1991.848295
1126.417103,-9696.697840,-222.061783,1608.800546
1126.417423,-9844.739029,0.000000,1225.752797
1126.417744,-9844.739029,-370.102971,1149.143247
1126.418065,-9622.677246,0.000000,612.876398
1126.418386,-9770.718434,0.000000,536.266849
1126.418706,-9548.656652,-296.082377,306.438199
1126.419027,-9622.677246,-296.082377,612.876398
1126.419348,-9474.636058,-518.144159,536.266849
1126.419668,-9474.636058,-666.185348,229.828649
1126.419989,-9474.636058,-962.267725,0.000000
1126.420310,-9474.636058,-1036.288319,689.485948
1126.420631,-9696.697840,-1258.350101,612.876398
1126.420951,-9474.636058,-1258.350101,306.438199
1126.421272,-9104.533087,-1110.308913,153.219100
1126.421593,-9474.636058,-1184.329507,0.000000
1126.421913,-9548.656652,-888.247130,0.000000
1126.422234,-9252.574275,-592.164754,-229.828649
1126.422555,-9474.636058,-222.061783,-383.047749
1126.422876,-9474.636058,-222.061783,-383.047749
1126.423196,-9474.636058,296.082377,0.000000
1126.423517,-9844.739029,0.000000,-306.438199
1126.423838,-9622.677246,0.000000,-306.438199
1126.424158,-9696.697840,0.000000,153.219100
1126.424479,-9474.636058,-222.061783,306.438199
1126.424800,-9696.697840,-222.061783,0.000000
1126.425121,-9770.718434,0.000000,383.047749
1126.425441,-9770.718434,0.000000,459.657299
1126.425762,-9548.656652,0.000000,229.828649
1126.426083,-9548.656652,444.123565,76.609550
1126.426403,-9770.718434,148.041188,919.314598
1126.426724,-9844.739029,222.061783,1455.581446
1126.427045,-9696.697840,0.000000,1149.143247
1126.427366,-9030.512492,0.000000,1532.190996
1126.427686,-9622.677246,222.061783,1991.848295
1126.428007,-9918.759623,74.020594,2145.067394
1126.428328,-9844.739029,222.061783,2298.286494
1126.428648,-9474.636058,0.000000,2528.115143
1126.428969,-9326.594869,-444.123565,2757.943793
1126.429290,-9770.718434,-592.164754,2604.724693
1126.429611,-9548.656652,-888.247130,2834.553343
1126.429931,-9622.677246,-1036.288319,3064.381992
1126.430252,-8956.491898,-962.267725,3140.991542
1126.430573,-9474.636058,-962.267725,3064.381992
1126.430893,-9474.636058,-1184.329507,3064.381992
1126.431214,-9400.615463,-888.247130,3370.820191
1126.431535,-9030.512492,-1258.350101,4519.963438
1126.431856,-9474.636058,-888.247130,2451.505594
1126.432176,-9400.615463,-740.205942,1762.019645
1126.432497,-9474.636058,-518.144159,1149.143247
1126.432818,-9474.636058,-148.041188,1225.752797
1126.433138,-9474.636058,0.000000,1072.533697
1126.433459,-9548.656652,222.061783,689.485948
1126.433780,-9770.718434,148.041188,536.266849
1126.434101,-9770.718434,-148.041188,766.095498
1126.434421,-9770.718434,-592.164754,0.000000
1126.434742,-9548.656652,-370.102971,459.657299
1126.435063,-9474.636058,-1036.288319,612.876398
1126.435383,-9474.636058,-962.267725,766.095498
1126.435704,-9770.718434,-518.144159,1532.190996
1126.436025,-9474.636058,-1036.288319,842.705048
1126.436346,-9104.533087,-1332.370696,459.657299
1126.436666,-9400.615463,-1036.288319,459.657299
1126.436987,-9474.636058,-740.205942,0.000000
1126.437308,-9474.636058,-592.164754,306.438199
1126.437628,-9400.615463,-518.144159,0.000000
1126.437949,-9548.656652,-148.041188,-306.438199
1126.438270,-9844.739029,0.000000,-229.828649
1126.438591,-10066.800811,296.082377,153.219100
1126.438911,-9918.759623,74.020594,0.000000
1126.439232,-9770.718434,518.144159,0.000000
1126.439553,-9844.739029,148.041188,0.000000
1126.439873,-9770.718434,74.020594,-612.876398
1126.440194,-9400.615463,-370.102971,0.000000
1126.440515,-9844.739029,0.000000,0.000000
1126.440836,-9548.656652,0.000000,153.219100
1126.441156,-9992.780217,0.000000,76.609550
1126.441477,-9622.677246,74.020594,229.828649
1126.441798,-9770.718434,370.102971,229.828649
1126.442118,-9770.718434,518.144159,689.485948
1126.442439,-9844.739029,148.041188,1072.533697
1126.442760,-10140.821405,222.061783,2068.457845
1126.443081,-9992.780217,222.061783,1608.800546
1126.443401,-9770.718434,0.000000,1532.190996
1126.443722,-9548.656652,0.000000,2145.067394
1126.444043,-9770.718434,-740.205942,2451.505594
1126.444363,-9400.615463,-148.041188,2451.505594
1126.444684,-9252.574275,-370.102971,2451.505594
1126.445005,-9474.636058,-592.164754,2528.115143
1126.445326,-9030.512492,-962.267725,2604.724693
1126.445646,-9474.636058,-814.226536,2681.334243
1126.445967,-9474.636058,-1036.288319,2681.334243
1126.446288,-9104.533087,-740.205942,2528.115143
1126.446608,-9252.574275,-888.247130,2604.724693
1126.446929,-9252.574275,-814.226536,2528.115143
1126.447250,-9326.594869,-666.185348,2528.115143
1126.447571,-9474.636058,-740.205942,2451.505594
1126.447891,-9548.656652,-592.164754,1915.238745
1126.448212,-9252.574275,-592.164754,1685.410096
1126.448533,-9548.656652,-296.082377,1762.019645
1126.448853,-9548.656652,-370.102971,1455.581446
1126.449174,-9622.677246,-370.102971,1378.971896
1126.449495,-9622.677246,-592.164754,1072.533697
1126.449816,-9474.636058,-592.164754,842.705048
1126.450136,-9622.677246,-592.164754,919.314598
1126.450457,-9474.636058,-740.205942,612.876398
1126.450778,-9474.636058,-518.144159,919.314598
1126.451098,-9474.636058,-814.226536,842.705048
1126.451419,-9622.677246,-740.205942,842.705048
1126.451740,-9770.718434,-814.226536,612.876398
1126.452061,-9696.697840,-666.185348,766.095498
1126.452381,-10066.800811,-666.185348,-1762.019645
1126.452702,-9622.677246,-666.185348,306.438199
1126.453023,-9622.677246,-740.205942,153.219100
1126.453343,-9770.718434,-518.144159,0.000000
1126.453664,-9696.697840,-296.082377,-76.609550
1126.453985,-10140.821405,0.000000,-383.047749
1126.454306,-9622.677246,-296.082377,0.000000
1126.454626,-9622.677246,-148.041188,-306.438199
1126.454947,-9992.780217,-148.041188,0.000000
1126.455268,-9622.677246,-518.144159,0.000000
1126.455588,-9844.739029,-222.061783,-459.657299
1126.455909,-9770.718434,-296.082377,0.000000
1126.456230,-9548.656652,-148.041188,0.000000
1126.456551,-9178.553681,0.000000,306.438199
1126.456871,-9548.656652,0.000000,459.657299
1126.457192,-9474.636058,74.020594,383.047749
1126.457513,-9474.636058,148.041188,536.266849
1126.457833,-9548.656652,148.041188,1225.752797
1126.458154,-9474.636058,74.020594,842.705048
1126.458475,-9474.636058,0.000000,1149.143247
1126.458796,-9400.615463,0.000000,1302.362347
1126.459116,-9622.677246,0.000000,1302.362347
1126.459437,-9400.615463,-148.041188,2604.724693
1126.459758,-9474.636058,-592.164754,2221.676944
1126.460078,-9474.636058,-222.061783,2221.676944
1126.460399,-9548.656652,-444.123565,2604.724693
1126.460720,-9474.636058,-370.102971,1838.629195
1126.461041,-9326.594869,-814.226536,2604.724693
1126.461361,-9400.615463,-962.267725,2604.724693
1126.461682,-9252.574275,-592.164754,2681.334243
1126.462003,-9474.636058,-518.144159,4213.525239
1126.462323,-9474.636058,-370.102971,2604.724693
1126.462644,-9474.636058,-518.144159,2298.286494
1126.462965,-9474.636058,-296.082377,2298.286494
1126.463286,-9622.677246,-592.164754,1762.019645
1126.463606,-9770.718434,0.000000,2145.067394
1126.463927,-9548.656652,0.000000,1532.190996
1126.464248,-9918.759623,148.041188,1608.800546
1126.464568,-9622.677246,148.041188,1302.362347
1126.464889,-10288.862594,370.102971,842.705048
1126.465210,-9918.759623,444.123565,919.314598
1126.465531,-9992.780217,296.082377,995.924147
1126.465851,-9918.759623,0.000000,919.314598
1126.466172,-9696.697840,-370.102971,153.219100
1126.466493,-9474.636058,-296.082377,536.266849
1126.466813,-9696.697840,-592.164754,612.876398
1126.467134,-9622.677246,-370.102971,689.485948
1126.467455,-9474.636058,-592.164754,459.657299
1126.467776,-9622.677246,-814.226536,229.828649
1126.468096,-9548.656652,-592.164754,383.047749
1126.468417,-9474.636058,-666.185348,766.095498
1126.468738,-9548.656652,-814.226536,153.219100
1126.469058,-9844.739029,-370.102971,0.000000
1126.469379,-9696.697840,-370.102971,76.609550
1126.469700,-9474.636058,-370.102971,0.000000
1126.470021,-9400.615463,-222.061783,0.000000
1126.470341,-9474.636058,-222.061783,-1991.848295
1126.470662,-9326.594869,0.000000,-306.438199
1126.470983,-9622.677246,0.000000,0.000000
1126.471303,-9400.615463,-444.123565,-76.609550
1126.471624,-9548.656652,0.000000,-153.219100
1126.471945,-9622.677246,-296.082377,-76.609550
1126.472266,-9548.656652,-296.082377,229.828649
1126.472586,-9548.656652,0.000000,459.657299
1126.472907,-9770.718434,0.000000,536.266849
1126.473228,-9178.553681,-296.082377,0.000000
1126.473548,-9622.677246,0.000000,842.705048
1126.473869,-9548.656652,-222.061783,842.705048
1126.474190,-9548.656652,0.000000,1225.752797
1126.474511,-9548.656652,-370.102971,1149.143247
1126.474831,-9400.615463,-296.082377,1838.629195
1126.475152,-9548.656652,-296.082377,2068.457845
1126.475473,-9696.697840,-592.164754,1991.848295
1126.475793,-9474.636058,-592.164754,2451.505594
1126.476114,-9696.697840,-370.102971,2757.943793
1126.476435,-9548.656652,-962.267725,2681.334243
1126.476756,-9622.677246,-814.226536,2757.943793
1126.477076,-9474.636058,-592.164754,2757.943793
1126.477397,-9770.718434,-740.205942,2604.724693
1126.477718,-9474.636058,-740.205942,2604.724693
1126.478038,-9474.636058,-962.267725,2451.505594
1126.478359,-9548.656652,-1110.308913,2451.505594
1126.478680,-9622.677246,-592.164754,459.657299
1126.479001,-9622.677246,-962.267725,2145.067394
1126.479321,-9622.677246,-888.247130,1838.629195
1126.479642,-9474.636058,-592.164754,1532.190996
1126.479963,-9918.759623,-370.102971,1378.971896
1126.480283,-9548.656652,-444.123565,1149.143247
1126.480604,-9548.656652,-222.061783,1072.533697
1126.480925,-9474.636058,-296.082377,766.095498
1126.481245,-9844.739029,-370.102971,1072.533697
1126.481566,-9474.636058,-222.061783,1302.362347
1126.481887,-9622.677246,-592.164754,612.876398
1126.482208,-9474.636058,-740.205942,842.705048
1126.482528,-9622.677246,-592.164754,689.485948
1126.482849,-9326.594869,-740.205942,766.095498
1126.483170,-9474.636058,-740.205942,689.485948
1126.483490,-9252.574275,-1036.288319,383.047749
1126.483811,-9474.636058,-814.226536,229.828649
1126.484132,-9474.636058,-962.267725,459.657299
1126.484453,-9474.636058,-444.123565,0.000000
1126.484773,-9474.636058,-148.041188,0.000000
1126.485094,-9622.677246,0.000000,0.000000
1126.485415,-9548.656652,74.020594,0.000000
1126.485735,-9548.656652,-148.041188,0.000000
1126.486056,-9770.718434,148.041188,-229.828649
1126.486377,-9770.718434,74.020594,-153.219100
1126.486697,-9770.718434,148.041188,-229.828649
1126.487018,-9696.697840,0.000000,-153.219100
1126.487339,-9622.677246,740.205942,-306.438199
1126.487660,-9622.677246,148.041188,0.000000
1126.487980,-9770.718434,222.061783,153.219100
1126.488301,-9622.677246,148.041188,306.438199
1126.488622,-9696.697840,0.000000,306.438199
1126.488942,-9696.697840,518.144159,612.876398
1126.489263,-9770.718434,592.164754,1149.143247
1126.489584,-9770.718434,296.082377,1225.752797
1126.489905,-9696.697840,0.000000,919.314598
1126.490225,-9622.677246,74.020594,1532.190996
1126.490546,-9622.677246,0.000000,2068.457845
1126.490867,-9474.636058,148.041188,1991.848295
1126.491187,-9548.656652,0.000000,2145.067394
1126.491508,-8882.471304,-444.123565,2221.676944
1126.491829,-9326.594869,-518.144159,2451.505594
1126.492149,-9548.656652,-666.185348,2757.943793
1126.492470,-9474.636058,-740.205942,2911.162892
1126.492791,-9252.574275,-1702.473667,1302.362347
1126.493112,-9474.636058,-740.205942,2528.115143
1126.493432,-9400.615463,-888.247130,2757.943793
1126.493753,-9474.636058,-740.205942,2987.772442
1126.494074,-9548.656652,-814.226536,2604.724693
1126.494394,-9326.594869,-592.164754,2451.505594
1126.494715,-9474.636058,-666.185348,2298.286494
1126.495036,-9400.615463,-740.205942,1838.629195
1126.495356,-9548.656652,-370.102971,1455.581446
1126.495677,-9474.636058,-222.061783,536.266849
1126.495998,-9622.677246,-148.041188,1149.143247
1126.496319,-9770.718434,74.020594,919.314598
1126.496639,-9844.739029,74.020594,1149.143247
1126.496960,-9696.697840,-518.144159,1225.752797
1126.497281,-9548.656652,-222.061783,919.314598
1126.497601,-9622.677246,-518.144159,612.876398
1126.497922,-10066.800811,-592.164754,919.314598
1126.498243,-9474.636058,-740.205942,612.876398
1126.498564,-9474.636058,-1110.308913,536.266849
1126.498884,-9696.697840,-814.226536,766.095498
1126.499205,-9474.636058,-1036.288319,459.657299
1126.499526,-9474.636058,-740.205942,459.657299
1126.499846,-9030.512492,-740.205942,995.924147
1126.500167,-9474.636058,-740.205942,229.828649
1126.500488,-9622.677246,-592.164754,153.219100
1126.500808,-9992.780217,-518.144159,229.828649
1126.501129,-9696.697840,-222.061783,383.047749
1126.501450,-9770.718434,-296.082377,153.219100
1126.501771,-9844.739029,-370.102971,153.219100
1126.502091,-9918.759623,0.000000,229.828649
1126.502412,-10066.800811,0.000000,0.000000
1126.502733,-9474.636058,-370.102971,-229.828649
1126.503053,-9696.697840,-222.061783,0.000000
1126.503374,-9622.677246,-444.123565,-153.219100
1126.503695,-9548.656652,-222.061783,0.000000
1126.504016,-9474.636058,0.000000,0.000000
1126.504336,-9548.656652,0.000000,383.047749
1126.504657,-9622.677246,296.082377,689.485948
1126.504978,-9770.718434,370.102971,536.266849
1126.505298,-9770.718434,148.041188,1072.533697
1126.505619,-9992.780217,740.205942,842.705048
1126.505940,-9770.718434,0.000000,1608.800546
1126.506260,-9548.656652,0.000000,1838.629195
1126.506581,-9474.636058,0.000000,2298.286494
1126.506902,-9548.656652,0.000000,2221.676944
1126.507223,-9622.677246,-296.082377,2068.457845
1126.507543,-9400.615463,-370.102971,2451.505594
1126.507864,-9400.615463,-740.205942,2145.067394
1126.508185,-9178.553681,-666.185348,2528.115143
1126.508505,-8882.471304,-962.267725,3064.381992
1126.508826,-9400.615463,-296.082377,2374.896044
1126.509147,-9474.636058,-370.102971,2834.553343
1126.509467,-9400.615463,-740.205942,2451.505594
1126.509788,-9548.656652,-814.226536,1302.362347
1126.510109,-9548.656652,-592.164754,2298.286494
1126.510430,-9548.656652,-814.226536,2298.286494
1126.510750,-9548.656652,-814.226536,1685.410096
1126.511071,-9548.656652,-444.123565,1762.019645
1126.511392,-9474.636058,-370.102971,1838.629195
1126.511712,-9770.718434,-222.061783,1378.971896
1126.512033,-9474.636058,-222.061783,919.314598
1126.512354,-9548.656652,-296.082377,689.485948
1126.512675,-10066.800811,0.000000,689.485948
1126.512995,-9696.697840,-222.061783,612.876398
1126.513316,-9474.636058,-444.123565,842.705048
1126.513637,-9474.636058,-444.123565,536.266849
1126.513957,-9918.759623,-666.185348,306.438199
1126.514278,-9548.656652,-666.185348,919.314598
1126.514599,-9696.697840,-666.185348,842.705048
1126.514919,-9844.739029,-666.185348,612.876398
1126.515240,-9474.636058,-666.185348,76.609550
1126.515561,-9474.636058,-666.185348,459.657299
1126.515882,-9622.677246,-814.226536,536.266849
1126.516202,-9696.697840,-222.061783,0.000000
1126.516523,-9474.636058,-222.061783,0.000000
1126.516844,-9548.656652,-222.061783,0.000000
1126.517164,-9548.656652,148.041188,0.000000
1126.517485,-9918.759623,0.000000,0.000000
1126.517806,-9770.718434,222.061783,0.000000
1126.518127,-9844.739029,370.102971,766.095498
1126.518447,-9992.780217,0.000000,76.609550
1126.518768,-9696.697840,74.020594,0.000000
1126.519089,-9770.718434,0.000000,76.609550
1126.519409,-9844.739029,0.000000,306.438199
1126.519730,-9548.656652,148.041188,536.266849
1126.520051,-9474.636058,0.000000,306.438199
1126.520371,-9548.656652,296.082377,536.266849
1126.520692,-9548.656652,0.000000,612.876398
1126.521013,-9326.594869,0.000000,919.314598
1126.521334,-9548.656652,0.000000,1225.752797
1126.521654,-9548.656652,-74.020594,1608.800546
1126.521975,-9622.677246,-74.020594,2145.067394
1126.522296,-9622.677246,444.123565,1608.800546
1126.522616,-9548.656652,-518.144159,2221.676944
1126.522937,-9696.697840,-370.102971,2451.505594
1126.523258,-9622.677246,-444.123565,2451.505594
1126.523578,-9400.615463,-814.226536,2374.896044
1126.523899,-9326.594869,-888.247130,2451.505594
1126.524220,-9252.574275,-1110.308913,2374.896044
1126.524541,-9178.553681,-814.226536,2298.286494
1126.524861,-9474.636058,-814.226536,2451.505594
1126.525182,-9178.553681,-1110.308913,2451.505594
1126.525503,-9400.615463,-962.267725,1991.848295
1126.525823,-9696.697840,-592.164754,2145.067394
1126.526144,-9622.677246,-888.247130,1838.629195
1126.526465,-9326.594869,-148.041188,1532.190996
1126.526786,-9696.697840,-592.164754,1378.971896
1126.527106,-9770.718434,0.000000,1455.581446
1126.527427,-9696.697840,0.000000,919.314598
1126.527748,-9622.677246,-444.123565,612.876398
1126.528068,-9548.656652,0.000000,689.485948
1126.528389,-9622.677246,-296.082377,536.266849
1126.528710,-9622.677246,-518.144159,766.095498
1126.529030,-9696.697840,-666.185348,536.266849
1126.529351,-9548.656652,-296.082377,153.219100
1126.529672,-9696.697840,-518.144159,766.095498
1126.529993,-9770.718434,-740.205942,1072.533697
1126.530313,-9696.697840,-888.247130,612.876398
1126.530634,-8882.471304,-518.144159,1915.238745
1126.530955,-9548.656652,-1036.288319,612.876398
1126.531275,-9548.656652,-814.226536,306.438199
1126.531596,-9548.656652,-592.164754,612.876398
1126.531917,-9474.636058,-444.123565,229.828649
1126.532238,-9326.594869,-370.102971,306.438199
1126.532558,-9474.636058,-148.041188,153.219100
1126.532879,-9696.697840,0.000000,0.000000
1126.533200,-9622.677246,148.041188,76.609550
1126.533520,-9474.636058,0.000000,0.000000
1126.533841,-9548.656652,74.020594,0.000000
1126.534162,-9696.697840,0.000000,229.828649
1126.534482,-9844.739029,444.123565,229.828649
1126.534803,-9696.697840,666.185348,-229.828649
1126.535124,-9918.759623,518.144159,612.876398
1126.535445,-9770.718434,370.102971,536.266849
1126.535765,-9548.656652,296.082377,306.438199
1126.536086,-9622.677246,444.123565,-229.828649
1126.536407,-9474.636058,148.041188,842.705048
1126.536727,-9622.677246,0.000000,1302.362347
1126.537048,-9474.636058,0.000000,1149.143247
1126.537369,-9622.677246,0.000000,1532.190996
1126.537690,-9696.697840,-222.061783,1608.800546
1126.538010,-9622.677246,-296.082377,2374.896044
1126.538331,-9474.636058,-518.144159,1991.848295
1126.538652,-9474.636058,-370.102971,2145.067394
1126.538972,-9622.677246,-444.123565,1608.800546
1126.539293,-9474.636058,-740.205942,2374.896044
1126.539614,-9326.594869,-814.226536,2451.505594
1126.539934,-9252.574275,-814.226536,2451.505594
1126.540255,-9326.594869,-888.247130,2451.505594
1126.540576,-9622.677246,-888.247130,2298.286494
1126.540897,-9326.594869,-962.267725,2221.676944
1126.541217,-9474.636058,-666.185348,1991.848295
1126.541538,-9474.636058,-592.164754,2221.676944
1126.541859,-9400.615463,-1036.288319,1608.800546
1126.542179,-9400.615463,-518.144159,1455.581446
1126.542500,-9770.718434,-666.185348,1455.581446
1126.542821,-9548.656652,-296.082377,1225.752797
1126.543141,-8512.368333,592.164754,842.705048
1126.543462,-9696.697840,-222.061783,766.095498
1126.543783,-9548.656652,-370.102971,689.485948
1126.544104,-9770.718434,-148.041188,689.485948
1126.544424,-9770.718434,-592.164754,1915.238745
1126.544745,-9770.718434,-518.144159,383.047749
1126.545066,-9474.636058,-814.226536,306.438199
1126.545386,-9548.656652,-962.267725,383.047749
1126.545707,-9770.718434,-1036.288319,536.266849
1126.546028,-9548.656652,-1110.308913,153.219100
1126.546349,-9770.718434,-814.226536,229.828649
1126.546669,-9622.677246,-740.205942,689.485948
1126.546990,-9696.697840,-814.226536,76.609550
1126.547311,-8808.450710,0.000000,-153.219100
1126.547631,-9548.656652,-370.102971,383.047749
1126.547952,-9696.697840,0.000000,0.000000
1126.548273,-9844.739029,-222.061783,229.828649
1126.548593,-9622.677246,-296.082377,-306.438199
1126.548914,-9474.636058,-296.082377,459.657299
1126.549235,-9770.718434,-148.041188,76.609550
1126.549556,-9696.697840,0.000000,229.828649
1126.549876,-10066.800811,0.000000,229.828649
1126.550197,-9474.636058,222.061783,229.828649
1126.550518,-9696.697840,148.041188,0.000000
1126.550838,-9696.697840,444.123565,459.657299
1126.551159,-9474.636058,296.082377,383.047749
1126.551480,-9474.636058,1036.288319,689.485948
1126.551801,-9770.718434,444.123565,919.314598
1126.552121,-9696.697840,444.123565,1149.143247
1126.552442,-9622.677246,148.041188,1072.533697
1126.552763,-9474.636058,222.061783,1608.800546
1126.553083,-9474.636058,74.020594,1915.238745
1126.553404,-9326.594869,0.000000,1838.629195
1126.553725,-9622.677246,0.000000,2145.067394
1126.554045,-9474.636058,0.000000,2451.505594
1126.554366,-9326.594869,0.000000,2374.896044
1126.554687,-9400.615463,-518.144159,2604.724693
1126.555008,-9474.636058,-518.144159,2681.334243
1126.555328,-9474.636058,-370.102971,2911.162892
1126.555649,-9400.615463,-592.164754,2834.553343
1126.555970,-9326.594869,-666.185348,2987.772442
1126.556290,-9474.636058,-740.205942,2987.772442
1126.556611,-9326.594869,-518.144159,2528.115143
1126.556932,-9548.656652,-592.164754,2298.286494
1126.557252,-9548.656652,-370.102971,2298.286494
1126.557573,-9474.636058,-814.226536,1915.238745
1126.557894,-9622.677246,-370.102971,1762.019645
1126.558215,-9622.677246,-148.041188,1532.190996
1126.558535,-9844.739029,-370.102971,1302.362347
1126.558856,-9696.697840,0.000000,1072.533697
1126.559177,-9770.718434,0.000000,689.485948
1126.559497,-9844.739029,0.000000,766.095498
1126.559818,-9326.594869,666.185348,1455.581446
1126.560139,-9622.677246,-370.102971,536.266849
1126.560460,-9696.697840,-518.144159,76.609550
1126.560780,-9770.718434,-666.185348,306.438199
1126.561101,-9548.656652,-592.164754,306.438199
1126.561422,-9400.615463,-740.205942,229.828649
1126.561742,-9548.656652,-740.205942,459.657299
1126.562063,-9622.677246,-962.267725,229.828649
1126.562384,-9696.697840,-814.226536,459.657299
1126.562704,-9474.636058,-1036.288319,-459.657299
1126.563025,-9548.656652,-962.267725,-153.219100
1126.563346,-9326.594869,-814.226536,0.000000
1126.563667,-9548.656652,-592.164754,0.000000
1126.563987,-10732.986159,74.020594,229.828649
1126.564308,-9696.697840,0.000000,-153.219100
1126.564629,-9696.697840,-148.041188,-383.047749
1126.564949,-9696.697840,-148.041188,-153.219100
1126.565270,-9770.718434,0.000000,-153.219100
1126.565591,-9696.697840,0.000000,-306.438199
1126.565912,-9400.615463,0.000000,0.000000
1126.566232,-9548.656652,0.000000,0.000000
1126.566553,-9696.697840,-148.041188,383.047749
1126.566874,-9918.759623,0.000000,612.876398
1126.567194,-9548.656652,0.000000,229.828649
1126.567515,-9622.677246,74.020594,842.705048
1126.567836,-9992.780217,0.000000,1225.752797
1126.568156,-9548.656652,0.000000,689.485948
1126.568477,-9770.718434,222.061783,1302.362347
1126.568798,-9770.718434,0.000000,1762.019645
1126.569119,-9548.656652,0.000000,1915.238745
1126.569439,-9622.677246,-148.041188,2145.067394
1126.569760,-9400.615463,-444.123565,2298.286494
1126.570081,-9474.636058,-296.082377,2451.505594
1126.570401,-9548.656652,-518.144159,2528.115143
1126.570722,-9474.636058,-666.185348,2681.334243
1126.571043,-9326.594869,-888.247130,2834.553343
1126.571363,-9474.636058,-740.205942,2987.772442
1126.571684,-9326.594869,-666.185348,2911.162892
1126.572005,-9622.677246,-814.226536,3140.991542
1126.572326,-9474.636058,-1332.370696,2221.676944
1126.572646,-9622.677246,-740.205942,2681.334243
1126.572967,-9622.677246,-740.205942,2451.505594
1126.573288,-9474.636058,-444.123565,2145.067394
1126.573608,-9696.697840,-296.082377,2451.505594
1126.573929,-9474.636058,-222.061783,1608.800546
1126.574250,-9622.677246,0.000000,1149.143247
1126.574571,-9770.718434,296.082377,1302.362347
1126.574891,-9548.656652,0.000000,1072.533697
1126.575212,-9400.615463,0.000000,1072.533697
1126.575533,-9770.718434,0.000000,536.266849
1126.575853,-9770.718434,-74.020594,919.314598
1126.576174,-9844.739029,-148.041188,383.047749
1126.576495,-10066.800811,0.000000,76.609550
1126.576815,-9696.697840,-296.082377,383.047749
1126.577136,-9770.718434,-592.164754,229.828649
1126.577457,-9622.677246,-814.226536,689.485948
1126.577778,-9548.656652,-740.205942,1378.971896
1126.578098,-9696.697840,-814.226536,306.438199
1126.578419,-9474.636058,-666.185348,0.000000
1126.578740,-9474.636058,-518.144159,306.438199
1126.579060,-9548.656652,-222.061783,76.609550
1126.579381,-9400.615463,0.000000,0.000000
1126.579702,-9400.615463,0.000000,-229.828649
1126.580020,-9770.718434,74.020594,-459.657299
1126.580341,-9474.636058,74.020594,-459.657299
1126.580662,-10214.842000,814.226536,-995.924147
1126.580983,-9696.697840,-148.041188,-76.609550
1126.581303,-9992.780217,0.000000,-306.438199
1126.581624,-9622.677246,0.000000,0.000000
1126.581945,-9844.739029,0.000000,306.438199
1126.582266,-9548.656652,0.000000,383.047749
1126.582587,-9474.636058,0.000000,536.266849
1126.582907,-9474.636058,74.020594,459.657299
1126.583228,-9474.636058,0.000000,536.266849
1126.583549,-9548.656652,370.102971,1378.971896
1126.583870,-9548.656652,74.020594,1225.752797
1126.584190,-9474.636058,0.000000,1532.190996
1126.584511,-9548.656652,0.000000,1302.362347
1126.584832,-10140.821405,370.102971,766.095498
1126.585153,-9474.636058,-296.082377,1991.848295
1126.585473,-9622.677246,0.000000,1991.848295
1126.585794,-9770.718434,-370.102971,2068.457845
1126.586115,-9622.677246,0.000000,2528.115143
1126.586436,-9548.656652,-222.061783,2681.334243
1126.586757,-9474.636058,-592.164754,2911.162892
1126.587077,-9474.636058,-592.164754,2681.334243
1126.587398,-9474.636058,-740.205942,2987.772442
1126.587719,-9696.697840,-370.102971,2604.724693
1126.588040,-9548.656652,-666.185348,2604.724693
1126.588360,-9400.615463,-592.164754,2374.896044
1126.588681,-9548.656652,-814.226536,2298.286494
1126.589002,-9474.636058,-814.226536,3294.210641
1126.589323,-9622.677246,-444.123565,1915.238745
1126.589643,-9770.718434,0.000000,1455.581446
1126.589964,-9844.739029,74.020594,1225.752797
1126.590285,-9918.759623,0.000000,1302.362347
1126.590606,-9844.739029,74.020594,1302.362347
1126.590927,-9770.718434,0.000000,766.095498
1126.591247,-9770.718434,0.000000,1149.143247
1126.591568,-9770.718434,-222.061783,766.095498
1126.591889,-9696.697840,0.000000,842.705048
1126.592210,-9474.636058,-740.205942,459.657299
1126.592530,-9474.636058,-666.185348,306.438199
1126.592851,-9474.636058,-814.226536,536.266849
1126.593172,-9326.594869,-1480.411884,536.266849
1126.593493,-9474.636058,-962.267725,459.657299
1126.593814,-9474.636058,-1036.288319,536.266849
1126.594134,-9548.656652,-740.205942,459.657299
1126.594455,-9474.636058,-666.185348,229.828649
1126.594776,-9548.656652,-222.061783,76.609550
1126.595097,-9400.615463,-296.082377,0.000000
1126.595417,-9548.656652,0.000000,0.000000
1126.595738,-9770.718434,148.041188,-153.219100
1126.596059,-9844.739029,370.102971,-612.876398
1126.596380,-9622.677246,0.000000,-153.219100
1126.596700,-9770.718434,0.000000,0.000000
1126.597021,-9548.656652,-444.123565,-76.609550
1126.597342,-9252.574275,-444.123565,153.219100
1126.597663,-9696.697840,-370.102971,0.000000
1126.597984,-9696.697840,-222.061783,0.000000
1126.598304,-9844.739029,148.041188,0.000000
1126.598625,-9696.697840,0.000000,459.657299
1126.598946,-9844.739029,370.102971,459.657299
1126.599267,-9844.739029,222.061783,919.314598
1126.599587,-9918.759623,74.020594,1302.362347
1126.599908,-9548.656652,0.000000,1455.581446
1126.600229,-9252.574275,0.000000,-306.438199
1126.600550,-9548.656652,0.000000,1838.629195
1126.600870,-9474.636058,0.000000,2145.067394
1126.601191,-9696.697840,-296.082377,2221.676944
1126.601512,-9474.636058,-370.102971,2221.676944
1126.601833,-9474.636058,-592.164754,2221.676944
1126.602154,-9548.656652,-666.185348,2528.115143
1126.602474,-9474.636058,-814.226536,2451.505594
1126.602795,-9622.677246,-814.226536,2911.162892
1126.603116,-9622.677246,-1184.329507,3217.601092
1126.603437,-9474.636058,-666.185348,3140.991542
1126.603757,-9622.677246,-740.205942,2451.505594
1126.604078,-9400.615463,-592.164754,2911.162892
1126.604399,-9622.677246,-74.020594,2374.896044
1126.604720,-9474.636058,-592.164754,2068.457845
1126.605041,-9326.594869,-370.102971,2145.067394
1126.605361,-9474.636058,-444.123565,1302.362347
1126.605682,-9400.615463,-222.061783,1378.971896
1126.606003,-9252.574275,-148.041188,995.924147
1126.606324,-9474.636058,0.000000,1072.533697
1126.606644,-9622.677246,-222.061783,766.095498
1126.606965,-9696.697840,-296.082377,1072.533697
1126.607286,-9474.636058,148.041188,995.924147
1126.607607,-9770.718434,-666.185348,689.485948
1126.607927,-9696.697840,-740.205942,842.705048
1126.608248,-9474.636058,-888.247130,536.266849
1126.608569,-9474.636058,-222.061783,2145.067394
1126.608890,-9400.615463,-814.226536,612.876398
1126.609211,-9252.574275,-962.267725,459.657299
1126.609531,-9622.677246,-888.247130,306.438199
1126.609852,-9474.636058,-518.144159,0.000000
1126.610173,-9326.594869,-592.164754,0.000000
1126.610494,-9548.656652,-222.061783,0.000000
1126.610814,-9770.718434,0.000000,0.000000
1126.611135,-9770.718434,0.000000,-229.828649
1126.611456,-10436.903782,74.020594,-229.828649
1126.611777,-9992.780217,0.000000,0.000000
1126.612097,-9844.739029,0.000000,0.000000
1126.612418,-9844.739029,74.020594,229.828649
1126.612739,-9844.739029,-148.041188,-689.485948
1126.613060,-9474.636058,0.000000,0.000000
1126.613381,-9770.718434,0.000000,76.609550
1126.613701,-9622.677246,148.041188,306.438199
1126.614022,-9474.636058,0.000000,153.219100
1126.614343,-9548.656652,444.123565,0.000000
1126.614664,-9548.656652,222.061783,459.657299
1126.614984,-9918.759623,370.102971,1149.143247
1126.615305,-9844.739029,74.020594,1532.190996
1126.615626,-10066.800811,-222.061783,1762.019645
1126.615947,-9696.697840,0.000000,1915.238745
1126.616268,-9918.759623,-74.020594,2221.676944
1126.616588,-9548.656652,-592.164754,2298.286494
1126.616909,-9474.636058,-370.102971,1838.629195
1126.617230,-9252.574275,-592.164754,2528.115143
1126.617551,-9400.615463,-666.185348,2604.724693
1126.617871,-9030.512492,-962.267725,2451.505594
1126.618192,-9104.533087,-1184.329507,2451.505594
1126.618513,-9326.594869,-962.267725,2451.505594
1126.618834,-9326.594869,-1184.329507,2681.334243
1126.619154,-9474.636058,-888.247130,2834.553343
1126.619475,-9474.636058,-888.247130,2681.334243
1126.619796,-9770.718434,-666.185348,1762.019645
1126.620117,-9770.718434,-592.164754,2221.676944
1126.620438,-9622.677246,-370.102971,2068.457845
1126.620758,-9770.718434,-222.061783,1532.190996
1126.621079,-9474.636058,-296.082377,1225.752797
1126.621400,-9622.677246,-148.041188,1302.362347
1126.621721,-9474.636058,0.000000,1149.143247
1126.622041,-9696.697840,0.000000,842.705048
1126.622362,-9548.656652,0.000000,612.876398
1126.622683,-9548.656652,-444.123565,76.609550
1126.623004,-9770.718434,-148.041188,689.485948
1126.623324,-9844.739029,-370.102971,842.705048
1126.623645,-9844.739029,-370.102971,689.485948
1126.623966,-9030.512492,-814.226536,229.828649
1126.624287,-9770.718434,-666.185348,306.438199
1126.624608,-9548.656652,-888.247130,306.438199
1126.624928,-9622.677246,-666.185348,536.266849
1126.625249,-9548.656652,-222.061783,-612.876398
1126.625570,-9548.656652,-296.082377,306.438199
1126.625891,-9696.697840,-370.102971,76.609550
1126.626211,-9474.636058,-444.123565,0.000000
1126.626532,-9622.677246,-222.061783,0.000000
1126.626853,-9770.718434,-148.041188,306.438199
1126.627174,-9622.677246,-592.164754,153.219100
1126.627495,-9622.677246,-148.041188,-229.828649
1126.627815,-9918.759623,0.000000,229.828649
1126.628136,-9770.718434,296.082377,919.314598
1126.628457,-9844.739029,0.000000,153.219100
1126.628778,-9622.677246,0.000000,306.438199
1126.629098,-9770.718434,148.041188,383.047749
1126.629419,-9622.677246,-444.123565,229.828649
1126.629740,-9622.677246,222.061783,153.219100
1126.630061,-9622.677246,74.020594,383.047749
1126.630381,-9622.677246,296.082377,459.657299
1126.630702,-9622.677246,296.082377,1072.533697
1126.631023,-9474.636058,148.041188,1455.581446
1126.631344,-9622.677246,0.000000,1378.971896
1126.631665,-9696.697840,0.000000,1838.629195
1126.631985,-9622.677246,-74.020594,2298.286494
1126.632306,-9104.533087,-814.226536,1532.190996
1126.632627,-9548.656652,-518.144159,2681.334243
1126.632948,-9252.574275,-518.144159,2757.943793
1126.633268,-9548.656652,-740.205942,2757.943793
1126.633589,-9474.636058,-666.185348,2834.553343
1126.633910,-9400.615463,-518.144159,2451.505594
1126.634231,-9326.594869,-444.123565,2681.334243
1126.634551,-9252.574275,-592.164754,2374.896044
1126.634872,-9622.677246,-740.205942,2374.896044
1126.635193,-9474.636058,-814.226536,2451.505594
1126.635514,-9622.677246,-518.144159,2298.286494
1126.635835,-9696.697840,-518.144159,2374.896044
1126.636155,-9474.636058,-666.185348,2068.457845
1126.636476,-9844.739029,-148.041188,2911.162892
1126.636797,-9622.677246,-666.185348,1455.581446
1126.637118,-9474.636058,-592.164754,1072.533697
1126.637438,-9844.739029,-296.082377,1072.533697
1126.637759,-9696.697840,0.000000,1762.019645
1126.638080,-9548.656652,-74.020594,689.485948
1126.638401,-9770.718434,0.000000,229.828649
1126.638722,-9474.636058,-222.061783,459.657299
1126.639042,-9622.677246,-444.123565,459.657299
1126.639363,-9548.656652,-814.226536,229.828649
1126.639684,-9770.718434,-666.185348,306.438199
1126.640005,-9696.697840,-370.102971,153.219100
1126.640325,-9770.718434,-296.082377,306.438199
1126.640646,-9918.759623,-518.144159,153.219100
1126.640967,-9770.718434,-592.164754,229.828649
1126.641288,-9622.677246,-518.144159,153.219100
1126.641608,-9622.677246,-444.123565,-229.828649
1126.641929,-9474.636058,-740.205942,-229.828649
1126.642250,-9548.656652,-370.102971,-383.047749
1126.642571,-9622.677246,-148.041188,-76.609550
1126.642892,-9474.636058,-296.082377,-612.876398
1126.643212,-9696.697840,0.000000,0.000000
1126.643533,-9474.636058,-148.041188,-536.266849
1126.643854,-9622.677246,74.020594,0.000000
1126.644175,-9696.697840,222.061783,-229.828649
1126.644495,-9696.697840,222.061783,76.609550
1126.644816,-9770.718434,444.123565,153.219100
1126.645137,-9474.636058,222.061783,383.047749
1126.645458,-9474.636058,-148.041188,306.438199
1126.645778,-9918.759623,74.020594,536.266849
1126.646099,-9548.656652,814.226536,1991.848295
1126.646420,-9770.718434,0.000000,1072.533697
1126.646741,-9622.677246,0.000000,1302.362347
1126.647062,-9622.677246,0.000000,1608.800546
1126.647382,-9474.636058,-222.061783,1838.629195
1126.647703,-9622.677246,0.000000,2451.505594
1126.648024,-9696.697840,0.000000,2451.505594
1126.648345,-9400.615463,-444.123565,2451.505594
1126.648665,-9548.656652,-592.164754,2451.505594
1126.648986,-10066.800811,444.123565,2911.162892
1126.649307,-9474.636058,-296.082377,2604.724693
1126.649628,-9400.615463,-518.144159,2604.724693
1126.649949,-9252.574275,-518.144159,2834.553343
1126.650269,-9696.697840,-592.164754,3064.381992
1126.650590,-9622.677246,-740.205942,2911.162892
1126.650911,-9770.718434,-962.267725,2987.772442
1126.651232,-9770.718434,-962.267725,2681.334243
1126.651552,-9844.739029,-592.164754,2451.505594
1126.651873,-9770.718434,-740.205942,2451.505594
1126.652194,-9696.697840,-740.205942,1838.629195
1126.652515,-9474.636058,-518.144159,1302.362347
1126.652835,-9622.677246,0.000000,1149.143247
1126.653156,-9844.739029,0.000000,612.876398
1126.653477,-9622.677246,0.000000,612.876398
1126.653798,-9622.677246,0.000000,689.485948
1126.654119,-9696.697840,-148.041188,536.266849
1126.654439,-9696.697840,-444.123565,1455.581446
1126.654760,-9770.718434,-296.082377,842.705048
1126.655081,-9770.718434,-592.164754,612.876398
1126.655402,-9548.656652,-666.185348,842.705048
1126.655722,-9770.718434,-592.164754,766.095498
1126.656043,-9548.656652,-888.247130,1225.752797
1126.656364,-9474.636058,-814.226536,689.485948
1126.656685,-9400.615463,-962.267725,536.266849
1126.657005,-9474.636058,-814.226536,383.047749
1126.657326,-8586.388927,-1480.411884,0.000000
1126.657647,-9326.594869,-962.267725,0.000000
1126.657968,-9400.615463,-444.123565,0.000000
1126.658289,-9548.656652,-296.082377,0.000000
