#time,accel_x,accel_y,accel_z
1273.435081,-9622.677246,-370.102971,766.095498
1273.435402,-9474.636058,-222.061783,1072.533697
1273.435722,-9474.636058,-370.102971,1072.533697
1273.436043,-9622.677246,-370.102971,995.924147
1273.436364,-9474.636058,-74.020594,1072.533697
1273.436685,-9474.636058,-444.123565,1302.362347
1273.437006,-9474.636058,-444.123565,1149.143247
1273.437327,-9400.615463,148.041188,459.657299
1273.437648,-9474.636058,-444.123565,1302.362347
1273.437969,-9696.697840,-222.061783,689.485948
1273.438290,-9474.636058,-148.041188,995.924147
1273.438611,-9992.780217,-296.082377,1302.362347
1273.438932,-9622.677246,-740.205942,1302.362347
1273.439253,-9400.615463,-888.247130,995.924147
1273.439573,-9696.697840,-444.123565,1072.533697
1273.439894,-9696.697840,-592.164754,1455.581446
1273.440215,-9548.656652,-1036.288319,1149.143247
1273.440536,-9400.615463,-740.205942,1149.143247
1273.440857,-9770.718434,-740.205942,995.924147
1273.441178,-9548.656652,-740.205942,995.924147
1273.441499,-9992.780217,-962.267725,612.876398
1273.441820,-9622.677246,-518.144159,919.314598
1273.442141,-9770.718434,-740.205942,612.876398
1273.442462,-9474.636058,-444.123565,1149.143247
1273.442783,-9696.697840,-666.185348,919.314598
1273.443104,-9622.677246,-740.205942,1149.143247
1273.443424,-9770.718434,-1184.329507,1455.581446
1273.443745,-9400.615463,-1332.370696,1532.190996
1273.444066,-9844.739029,-1258.350101,1532.190996
1273.444387,-9844.739029,-1480.411884,1838.629195
1273.444708,-9474.636058,-1184.329507,2221.676944
1273.445029,-9696.697840,-1184.329507,1915.238745
1273.445350,-9474.636058,-962.267725,1991.848295
1273.445671,-9178.553681,-518.144159,1991.848295
1273.445992,-9622.677246,-1036.288319,2068.457845
1273.446313,-9696.697840,-740.205942,2528.115143
1273.446634,-9548.656652,-888.247130,2451.505594
1273.446955,-9696.697840,-888.247130,2681.334243
1273.447276,-9622.677246,-888.247130,2834.553343
1273.447596,-9844.739029,-1258.350101,3447.429741
1273.447917,-9696.697840,-1406.391290,4136.915689
1273.448238,-9696.697840,-1406.391290,4826.401637
1273.448559,-9400.615463,-2072.576638,5132.839837
1273.448880,-9622.677246,-2368.659014,4903.011187
1273.449201,-9474.636058,-3330.926739,5362.668486
1273.449522,-9326.594869,-3552.988522,5209.449386
1273.449843,-9252.574275,-3923.091493,4366.744339
1273.450164,-9178.553681,-3849.070898,5592.497135
1273.450485,-8882.471304,-3552.988522,5439.278036
1273.450806,-9104.533087,-3849.070898,5822.325785
1273.451127,-8882.471304,-3997.112087,5898.935335
1273.451447,-9400.615463,-4515.256246,5592.497135
1273.451768,-9252.574275,-4589.276840,5515.887586
1273.452089,-9104.533087,-5181.441594,5439.278036
1273.452410,-9326.594869,-4589.276840,5132.839837
1273.452731,-9548.656652,-4367.215058,5132.839837
1273.453052,-9400.615463,-3923.091493,4596.572988
1273.453373,-9474.636058,-3775.050304,4596.572988
1273.453694,-9400.615463,-3775.050304,4290.134789
1273.454015,-9918.759623,-4367.215058,3677.258390
1273.454336,-9400.615463,-4293.194464,4366.744339
1273.454657,-9474.636058,-4737.318029,4060.306139
1273.454978,-9326.594869,-4737.318029,3677.258390
1273.455298,-9326.594869,-4885.359217,3600.648841
1273.455619,-9252.574275,-5551.544565,2834.553343
1273.455940,-9400.615463,-5181.441594,2374.896044
1273.456261,-9252.574275,-4663.297435,1378.971896
1273.456582,-9474.636058,-3627.009116,919.314598
1273.456903,-9400.615463,-2516.700203,1072.533697
1273.457224,-10066.800811,-1406.391290,536.266849
1273.457545,-10066.800811,-740.205942,612.876398
1273.457866,-10362.883188,-296.082377,612.876398
1273.458187,-10658.965565,-1258.350101,1225.752797
1273.458508,-10732.986159,-1998.556043,2068.457845
1273.458829,-10436.903782,-3627.009116,2451.505594
1273.459150,-9770.718434,-4515.256246,2451.505594
1273.459470,-9326.594869,-5773.606348,2298.286494
1273.459791,-8660.409521,-4885.359217,2681.334243
1273.460112,-9400.615463,-5181.441594,2987.772442
1273.460433,-8734.430116,-4219.173869,3294.210641
1273.460754,-9252.574275,-4219.173869,2834.553343
1273.461075,-9326.594869,-4071.132681,2068.457845
1273.461396,-9474.636058,-3182.885551,1149.143247
1273.461717,-9474.636058,-1924.535449,842.705048
1273.462038,-9622.677246,0.000000,766.095498
1273.462359,-9030.512492,1998.556043,153.219100
1273.462680,-10066.800811,2812.782580,1532.190996
1273.463001,-10436.903782,2294.638420,2451.505594
1273.463321,-10732.986159,666.185348,2681.334243
1273.463642,-10214.842000,-148.041188,3983.696590
1273.463963,-10584.944971,-2516.700203,4519.963438
1273.464284,-9474.636058,-3330.926739,5439.278036
1273.464605,-9474.636058,-4885.359217,5975.544884
1273.464926,-8586.388927,-5699.585753,6588.421283
1273.465247,-8290.306550,-5847.626942,6052.154434
1273.465568,-7772.162391,-6439.791695,4903.011187
1273.465889,-7105.977043,-4589.276840,2757.943793
1273.466210,-7105.977043,-2294.638420,1455.581446
1273.466531,-7402.059420,444.123565,2911.162892
1273.466852,-9252.574275,2590.720797,2757.943793
1273.467172,-9992.780217,3330.926739,3140.991542
1273.467493,-11695.253884,2072.576638,4290.134789
1273.467814,-11843.295072,814.226536,5515.887586
1273.468135,-11843.295072,-666.185348,5286.058936
1273.468456,-11621.233289,-1406.391290,6128.763984
1273.468777,-10436.903782,-2294.638420,6128.763984
1273.469098,-9474.636058,-4441.235652,6358.592633
1273.469419,-8956.491898,-6513.812290,5209.449386
1273.469740,-7402.059420,-7105.977043,2604.724693
1273.470061,-7846.182985,-5181.441594,2987.772442
1273.470382,-8808.450710,-3182.885551,3524.039291
1273.470703,-8808.450710,-740.205942,2451.505594
1273.471024,-9178.553681,-1702.473667,2987.772442
1273.471344,-9474.636058,-814.226536,2911.162892
1273.471665,-9918.759623,-370.102971,1685.410096
1273.471986,-11843.295072,74.020594,3294.210641
1273.472307,-11177.109724,0.000000,3370.820191
1273.472628,-10362.883188,-1332.370696,1225.752797
1273.472949,-9696.697840,-1924.535449,-459.657299
1273.473270,-9326.594869,-1480.411884,-612.876398
1273.473591,-9030.512492,-888.247130,-1225.752797
1273.473912,-10140.821405,-666.185348,612.876398
1273.474233,-9474.636058,-1776.494261,766.095498
1273.474554,-9474.636058,-3478.967927,919.314598
1273.474875,-9548.656652,-3923.091493,2374.896044
1273.475195,-9770.718434,-3923.091493,3294.210641
1273.475516,-9622.677246,-4885.359217,3217.601092
1273.475837,-9474.636058,-5255.462188,2145.067394
1273.476158,-7994.224174,-3923.091493,229.828649
1273.476479,-8956.491898,-1998.556043,-383.047749
1273.476800,-9548.656652,444.123565,1838.629195
1273.477121,-9770.718434,740.205942,2374.896044
1273.477442,-10140.821405,-666.185348,1225.752797
1273.477763,-9696.697840,-518.144159,766.095498
1273.478084,-10510.924376,-592.164754,1762.019645
1273.478405,-11251.130318,-1628.453072,3447.429741
1273.478726,-9400.615463,-2590.720797,2757.943793
1273.479046,-9326.594869,-4145.153275,689.485948
1273.479367,-7254.018232,-2294.638420,306.438199
1273.479688,-9400.615463,-1110.308913,2221.676944
1273.480009,-9918.759623,-2368.659014,4290.134789
1273.480330,-9104.533087,-2738.761985,3370.820191
1273.480651,-9252.574275,-3627.009116,2604.724693
1273.480972,-9178.553681,-2738.761985,2374.896044
1273.481293,-10214.842000,-2442.679609,3217.601092
1273.481614,-9992.780217,-1702.473667,3140.991542
1273.481935,-8882.471304,1036.288319,995.924147
1273.482256,-9622.677246,2516.700203,229.828649
1273.482577,-9474.636058,4293.194464,1302.362347
1273.482898,-10362.883188,2886.803174,2298.286494
1273.483218,-10510.924376,1998.556043,2068.457845
1273.483539,-10510.924376,1258.350101,2604.724693
1273.483860,-10807.006753,-296.082377,2987.772442
1273.484181,-9992.780217,-2738.761985,3447.429741
1273.484502,-9400.615463,-3701.029710,1762.019645
1273.484823,-9030.512492,-1850.514855,842.705048
1273.485144,-8364.327145,222.061783,536.266849
1273.485465,-8586.388927,1776.494261,536.266849
1273.485786,-8068.244768,1776.494261,536.266849
1273.486107,-8290.306550,592.164754,-459.657299
1273.486428,-8882.471304,0.000000,-383.047749
1273.486749,-10362.883188,-666.185348,689.485948
1273.487069,-10066.800811,-1554.432478,842.705048
1273.487390,-9770.718434,-444.123565,306.438199
1273.487711,-10807.006753,1258.350101,1532.190996
1273.488032,-10658.965565,1480.411884,1685.410096
1273.488352,-9844.739029,1184.329507,383.047749
1273.488673,-9252.574275,888.247130,-919.314598
1273.488994,-9178.553681,1184.329507,-1455.581446
1273.489315,-9326.594869,740.205942,-612.876398
1273.489636,-9474.636058,-1036.288319,0.000000
1273.489956,-8068.244768,-1998.556043,-1455.581446
1273.490277,-8882.471304,-1480.411884,-2068.457845
1273.490598,-9104.533087,1110.308913,153.219100
1273.490919,-10881.027347,1406.391290,1991.848295
1273.491239,-9770.718434,1850.514855,2221.676944
1273.491560,-9474.636058,1332.370696,842.705048
1273.491881,-9326.594869,888.247130,76.609550
1273.492202,-9696.697840,222.061783,383.047749
1273.492522,-9474.636058,-888.247130,-306.438199
1273.492843,-9400.615463,148.041188,-306.438199
1273.493164,-9400.615463,1850.514855,-1762.019645
1273.493485,-10510.924376,2294.638420,1455.581446
1273.493805,-10362.883188,1184.329507,2528.115143
1273.494126,-10214.842000,148.041188,2145.067394
1273.494447,-11177.109724,0.000000,2681.334243
1273.494768,-10955.047942,-1480.411884,2451.505594
1273.495088,-9474.636058,-3849.070898,2145.067394
1273.495409,-9104.533087,-4071.132681,766.095498
1273.495730,-8586.388927,-1702.473667,76.609550
1273.496051,-9104.533087,1480.411884,1072.533697
1273.496371,-10362.883188,1850.514855,2757.943793
1273.496692,-9252.574275,962.267725,1838.629195
1273.497013,-9548.656652,-370.102971,1225.752797
1273.497334,-9992.780217,-1554.432478,2145.067394
1273.497654,-10362.883188,-2590.720797,2987.772442
1273.497975,-9474.636058,-3404.947333,2068.457845
1273.498296,-8438.347739,-2590.720797,1532.190996
1273.498617,-9400.615463,-666.185348,1072.533697
1273.498937,-9696.697840,444.123565,2987.772442
1273.499258,-9474.636058,0.000000,2528.115143
1273.499579,-9104.533087,-370.102971,1302.362347
1273.499900,-9252.574275,-666.185348,1072.533697
1273.500220,-10510.924376,-1184.329507,2145.067394
1273.500541,-9474.636058,-2442.679609,1532.190996
1273.500862,-9178.553681,-2590.720797,229.828649
1273.501183,-8734.430116,-962.267725,-689.485948
1273.501504,-9252.574275,1036.288319,766.095498
1273.501824,-10288.862594,888.247130,2068.457845
1273.502145,-10066.800811,222.061783,2374.896044
1273.502466,-9548.656652,-962.267725,536.266849
1273.502787,-9696.697840,-1406.391290,306.438199
1273.503107,-9030.512492,-1998.556043,1302.362347
1273.503428,-10362.883188,-2960.823768,383.047749
1273.503749,-8290.306550,-1480.411884,383.047749
1273.504070,-9548.656652,-666.185348,-306.438199
1273.504390,-9400.615463,2146.597232,0.000000
1273.504711,-10066.800811,0.000000,536.266849
1273.505032,-9104.533087,592.164754,-229.828649
1273.505353,-10732.986159,2220.617826,689.485948
1273.505673,-11103.089130,666.185348,1685.410096
1273.505994,-9548.656652,-962.267725,1225.752797
1273.506315,-9548.656652,-2220.617826,-612.876398
1273.506636,-9178.553681,-222.061783,-766.095498
1273.506956,-10510.924376,1480.411884,1149.143247
1273.507277,-9548.656652,1998.556043,2681.334243
1273.507598,-9400.615463,1702.473667,1991.848295
1273.507919,-9326.594869,1110.308913,1072.533697
1273.508239,-9622.677246,740.205942,1685.410096
1273.508560,-10807.006753,-592.164754,2068.457845
1273.508881,-8882.471304,-2886.803174,1225.752797
1273.509202,-7846.182985,-3182.885551,-459.657299
1273.509522,-9030.512492,-1036.288319,0.000000
1273.509843,-9770.718434,814.226536,1532.190996
1273.510164,-9696.697840,1258.350101,2145.067394
1273.510485,-9252.574275,2146.597232,2068.457845
1273.510805,-10658.965565,1776.494261,1608.800546
1273.511126,-10732.986159,0.000000,2221.676944
1273.511447,-10066.800811,-1998.556043,919.314598
1273.511768,-8956.491898,-1924.535449,-153.219100
1273.512088,-9474.636058,-666.185348,-689.485948
1273.512409,-9400.615463,2590.720797,1072.533697
1273.512730,-9548.656652,1776.494261,4060.306139
1273.513051,-9474.636058,888.247130,2145.067394
1273.513372,-9400.615463,518.144159,2068.457845
1273.513692,-10214.842000,-888.247130,1762.019645
1273.514013,-10436.903782,-1924.535449,3370.820191
1273.514334,-9474.636058,-3775.050304,459.657299
1273.514655,-8068.244768,-2072.576638,-306.438199
1273.514975,-8734.430116,592.164754,-766.095498
1273.515296,-10066.800811,2442.679609,1072.533697
1273.515617,-10214.842000,1850.514855,1532.190996
1273.515938,-9474.636058,1628.453072,536.266849
1273.516258,-10732.986159,1332.370696,919.314598
1273.516579,-10955.047942,0.000000,1302.362347
1273.516900,-9104.533087,-1258.350101,1072.533697
1273.517221,-9474.636058,-2960.823768,-306.438199
1273.517541,-8734.430116,-1036.288319,-766.095498
1273.517862,-9400.615463,148.041188,229.828649
1273.518183,-10140.821405,370.102971,2068.457845
1273.518504,-9474.636058,-222.061783,1915.238745
1273.518824,-9474.636058,-962.267725,1072.533697
1273.519145,-9474.636058,-1184.329507,1608.800546
1273.519466,-10436.903782,-3404.947333,1608.800546
1273.519787,-8586.388927,-3997.112087,1072.533697
1273.520107,-8364.327145,-3330.926739,-459.657299
1273.520428,-8660.409521,0.000000,-229.828649
1273.520749,-9918.759623,1110.308913,612.876398
1273.521070,-8660.409521,666.185348,2298.286494
1273.521390,-9178.553681,1554.432478,0.000000
1273.521711,-9622.677246,1406.391290,0.000000
1273.522032,-10510.924376,518.144159,1302.362347
1273.522353,-10362.883188,-1776.494261,1149.143247
1273.522673,-9696.697840,-2146.597232,229.828649
1273.522994,-9400.615463,-1184.329507,76.609550
1273.523315,-9474.636058,592.164754,1378.971896
1273.523636,-10584.944971,296.082377,3370.820191
1273.523956,-9992.780217,-814.226536,2451.505594
1273.524277,-9326.594869,-1480.411884,1915.238745
1273.524598,-9400.615463,-1776.494261,2145.067394
1273.524919,-10140.821405,-2960.823768,2068.457845
1273.525240,-8216.285956,-2960.823768,2528.115143
1273.525560,-8882.471304,-2294.638420,919.314598
1273.525881,-9104.533087,-148.041188,1072.533697
1273.526202,-10140.821405,592.164754,1608.800546
1273.526523,-10436.903782,296.082377,1685.410096
1273.526843,-10066.800811,814.226536,995.924147
1273.527164,-10584.944971,888.247130,1378.971896
1273.527485,-10807.006753,0.000000,2068.457845
1273.527806,-9770.718434,-2368.659014,1685.410096
1273.528126,-8512.368333,-3478.967927,612.876398
1273.528447,-8586.388927,-2886.803174,-689.485948
1273.528768,-9030.512492,-1110.308913,536.266849
1273.529089,-9326.594869,-444.123565,2374.896044
1273.529409,-9474.636058,-148.041188,3524.039291
1273.529730,-9178.553681,-222.061783,1762.019645
1273.530051,-9918.759623,-518.144159,2068.457845
1273.530372,-9918.759623,-1628.453072,2604.724693
1273.530692,-8956.491898,-2442.679609,1378.971896
1273.531013,-9326.594869,-1702.473667,0.000000
1273.531334,-9104.533087,296.082377,0.000000
1273.531655,-9474.636058,1628.453072,383.047749
1273.531975,-9622.677246,2072.576638,612.876398
1273.532296,-8734.430116,2368.659014,-229.828649
1273.532617,-10140.821405,3034.844362,0.000000
1273.532938,-10732.986159,2664.741391,1072.533697
1273.533258,-9918.759623,370.102971,1302.362347
1273.533579,-9622.677246,-1184.329507,0.000000
1273.533900,-9178.553681,-296.082377,0.000000
1273.534221,-10214.842000,518.144159,1455.581446
1273.534541,-10140.821405,370.102971,2604.724693
1273.534862,-9474.636058,-296.082377,2145.067394
1273.535183,-9030.512492,-370.102971,76.609550
1273.535504,-9178.553681,0.000000,459.657299
1273.535824,-9844.739029,-1184.329507,459.657299
1273.536145,-8290.306550,-1258.350101,0.000000
1273.536466,-9326.594869,-1036.288319,-1072.533697
1273.536787,-9918.759623,1110.308913,459.657299
1273.537108,-10881.027347,2146.597232,2298.286494
1273.537428,-11917.315666,814.226536,2528.115143
1273.537749,-10436.903782,2368.659014,3753.867940
1273.538070,-10510.924376,1110.308913,1991.848295
1273.538391,-10881.027347,1110.308913,2451.505594
1273.538711,-9918.759623,-1184.329507,1302.362347
1273.539032,-8068.244768,-1702.473667,-1225.752797
1273.539353,-8068.244768,-444.123565,-1455.581446
1273.539674,-8586.388927,1480.411884,-153.219100
1273.539994,-9844.739029,1406.391290,2374.896044
1273.540315,-9474.636058,74.020594,2528.115143
1273.540636,-9992.780217,-444.123565,2221.676944
1273.540957,-9844.739029,-1332.370696,2145.067394
1273.541277,-9918.759623,-2442.679609,2911.162892
1273.541598,-9252.574275,-2812.782580,1838.629195
1273.541919,-8586.388927,-518.144159,1225.752797
1273.542240,-9104.533087,1110.308913,306.438199
1273.542560,-8956.491898,1702.473667,689.485948
1273.542881,-9474.636058,814.226536,0.000000
1273.543202,-9178.553681,1998.556043,0.000000
1273.543523,-10658.965565,1258.350101,842.705048
1273.543843,-10214.842000,296.082377,1378.971896
1273.544164,-10436.903782,-2368.659014,1302.362347
1273.544485,-9400.615463,-2960.823768,0.000000
1273.544806,-9104.533087,-814.226536,153.219100
1273.545126,-10510.924376,1184.329507,2298.286494
1273.545447,-10510.924376,888.247130,3140.991542
1273.545768,-9104.533087,-666.185348,1532.190996
1273.546089,-7994.224174,-1924.535449,0.000000
1273.546409,-9178.553681,-2072.576638,689.485948
1273.546730,-9474.636058,-2368.659014,1149.143247
1273.547051,-8512.368333,-2294.638420,1532.190996
1273.547372,-8586.388927,-1554.432478,0.000000
1273.547692,-9474.636058,444.123565,1072.533697
1273.548013,-11251.130318,0.000000,2604.724693
1273.548334,-10288.862594,-814.226536,2604.724693
1273.548655,-10362.883188,-1332.370696,1302.362347
1273.548976,-10066.800811,-1332.370696,306.438199
1273.549296,-10066.800811,-962.267725,1072.533697
1273.549617,-9548.656652,-2442.679609,383.047749
1273.549938,-7550.100608,-1628.453072,-1072.533697
1273.550259,-7994.224174,-444.123565,-919.314598
1273.550579,-9252.574275,1110.308913,995.924147
1273.550900,-10807.006753,740.205942,2834.553343
1273.551221,-10214.842000,-592.164754,2451.505594
1273.551542,-9696.697840,-740.205942,1608.800546
1273.551862,-10066.800811,-1258.350101,2528.115143
1273.552183,-9770.718434,-2294.638420,2757.943793
1273.552504,-9474.636058,-3627.009116,1685.410096
1273.552825,-8364.327145,-2294.638420,689.485948
1273.553145,-8512.368333,0.000000,-153.219100
1273.553466,-10362.883188,962.267725,1378.971896
1273.553787,-9474.636058,1776.494261,1838.629195
1273.554108,-9770.718434,1554.432478,1072.533697
1273.554428,-10436.903782,2442.679609,2298.286494
1273.554749,-10510.924376,0.000000,1762.019645
1273.555070,-10140.821405,-2146.597232,1149.143247
1273.555391,-9770.718434,-2590.720797,0.000000
1273.555711,-9474.636058,-370.102971,0.000000
1273.556032,-10510.924376,1776.494261,1378.971896
1273.556353,-10362.883188,1628.453072,2374.896044
1273.556674,-9178.553681,888.247130,1608.800546
1273.556994,-9696.697840,-592.164754,1225.752797
1273.557315,-9400.615463,-592.164754,1762.019645
1273.557636,-9104.533087,-2664.741391,1991.848295
1273.557957,-8290.306550,-3182.885551,612.876398
1273.558277,-7772.162391,-1332.370696,-383.047749
1273.558598,-8808.450710,1184.329507,0.000000
1273.558919,-10436.903782,2146.597232,1455.581446
1273.559240,-8808.450710,1480.411884,766.095498
1273.559560,-9918.759623,1258.350101,536.266849
1273.559881,-10881.027347,1702.473667,1378.971896
1273.560202,-10732.986159,1480.411884,1838.629195
1273.560523,-10362.883188,0.000000,1378.971896
1273.560844,-8808.450710,296.082377,-689.485948
1273.561164,-9104.533087,1924.535449,-459.657299
1273.561485,-9992.780217,3256.906145,1455.581446
1273.561806,-9474.636058,1406.391290,1915.238745
1273.562127,-9178.553681,0.000000,1378.971896
1273.562447,-9474.636058,-962.267725,1149.143247
1273.562768,-9770.718434,-1406.391290,2298.286494
1273.563089,-10140.821405,-2738.761985,2987.772442
1273.563410,-9178.553681,-3108.864956,1915.238745
1273.563730,-8808.450710,-2220.617826,919.314598
1273.564051,-9326.594869,-148.041188,689.485948
1273.564372,-10584.944971,1184.329507,919.314598
1273.564693,-8956.491898,1554.432478,536.266849
1273.565013,-9474.636058,2442.679609,0.000000
1273.565334,-10066.800811,2738.761985,0.000000
1273.565655,-10214.842000,814.226536,-612.876398
1273.565976,-9918.759623,-1702.473667,459.657299
1273.566296,-9178.553681,-2368.659014,-612.876398
1273.566617,-9918.759623,-962.267725,76.609550
1273.566938,-10362.883188,296.082377,1685.410096
1273.567259,-10066.800811,222.061783,2911.162892
1273.567579,-9622.677246,0.000000,2451.505594
1273.567900,-8660.409521,-962.267725,1762.019645
1273.568221,-9400.615463,-1332.370696,1838.629195
1273.568542,-9474.636058,-2368.659014,1838.629195
1273.568862,-8660.409521,-3701.029710,689.485948
1273.569183,-7920.203579,-2072.576638,-383.047749
1273.569504,-9104.533087,0.000000,76.609550
1273.569825,-10066.800811,888.247130,1225.752797
1273.570145,-10066.800811,1332.370696,842.705048
1273.570466,-10066.800811,1702.473667,536.266849
1273.570787,-11029.068536,1332.370696,842.705048
1273.571108,-11029.068536,370.102971,1838.629195
1273.571428,-10066.800811,-1998.556043,689.485948
1273.571749,-9400.615463,-2146.597232,-766.095498
1273.572070,-8882.471304,-592.164754,-459.657299
1273.572391,-10584.944971,148.041188,1302.362347
1273.572712,-9474.636058,296.082377,1838.629195
1273.573032,-9030.512492,-1998.556043,1302.362347
1273.573353,-8660.409521,-1924.535449,306.438199
1273.573674,-9474.636058,-2738.761985,1915.238745
1273.573995,-9622.677246,-3775.050304,689.485948
1273.574315,-8734.430116,-2516.700203,1455.581446
1273.574636,-8586.388927,-2072.576638,0.000000
1273.574957,-9252.574275,444.123565,536.266849
1273.575278,-10066.800811,1258.350101,689.485948
1273.575598,-10066.800811,1480.411884,536.266849
1273.575919,-9770.718434,1924.535449,76.609550
1273.576240,-10214.842000,1998.556043,229.828649
1273.576561,-10436.903782,296.082377,1072.533697
1273.576881,-9918.759623,-888.247130,306.438199
1273.577202,-9030.512492,-1480.411884,-536.266849
1273.577523,-10362.883188,-592.164754,612.876398
1273.577844,-9696.697840,222.061783,2145.067394
1273.578164,-9918.759623,-1036.288319,2911.162892
1273.578485,-9548.656652,-1480.411884,2068.457845
1273.578806,-9326.594869,-1258.350101,2068.457845
1273.579127,-10214.842000,-1924.535449,2681.334243
1273.579447,-9252.574275,-2220.617826,2145.067394
1273.579768,-8808.450710,-2368.659014,919.314598
1273.580089,-9104.533087,-444.123565,689.485948
1273.580410,-9548.656652,740.205942,1072.533697
1273.580730,-10066.800811,370.102971,842.705048
1273.581051,-9326.594869,74.020594,689.485948
1273.581372,-10066.800811,1406.391290,536.266849
1273.581693,-10658.965565,1776.494261,919.314598
1273.582013,-10214.842000,370.102971,1838.629195
1273.582334,-9474.636058,-1184.329507,-229.828649
1273.582655,-8142.265362,-1110.308913,-536.266849
1273.582976,-9400.615463,666.185348,-919.314598
1273.583296,-10066.800811,2220.617826,2604.724693
1273.583617,-10288.862594,0.000000,2451.505594
1273.583938,-8956.491898,-740.205942,2068.457845
1273.584259,-9992.780217,-962.267725,1685.410096
1273.584580,-10288.862594,-1480.411884,2528.115143
1273.584900,-9844.739029,-2220.617826,2681.334243
1273.585221,-8068.244768,-2368.659014,612.876398
1273.585542,-8142.265362,-962.267725,-229.828649
1273.585863,-9104.533087,518.144159,-229.828649
1273.586183,-9696.697840,1554.432478,1072.533697
1273.586504,-9696.697840,1332.370696,-383.047749
1273.586825,-9770.718434,1776.494261,459.657299
1273.587146,-10510.924376,1628.453072,1762.019645
1273.587466,-10510.924376,0.000000,2068.457845
1273.587787,-9918.759623,-2294.638420,1685.410096
1273.588108,-8956.491898,-2368.659014,0.000000
1273.588429,-9030.512492,74.020594,-229.828649
1273.588749,-9844.739029,1258.350101,1532.190996
1273.589070,-9474.636058,1184.329507,2451.505594
1273.589391,-8586.388927,148.041188,1225.752797
1273.589712,-8734.430116,148.041188,459.657299
1273.590032,-9918.759623,-1258.350101,1838.629195
1273.590353,-9770.718434,-2886.803174,1915.238745
1273.590674,-9104.533087,-2812.782580,2374.896044
1273.590995,-9178.553681,-1628.453072,689.485948
1273.591316,-9474.636058,1036.288319,1225.752797
1273.591636,-10436.903782,1406.391290,2068.457845
1273.591957,-9918.759623,1110.308913,1455.581446
1273.592278,-9622.677246,814.226536,842.705048
1273.592599,-9918.759623,74.020594,459.657299
1273.592920,-9770.718434,-1184.329507,536.266849
1273.593240,-9400.615463,-2442.679609,0.000000
1273.593561,-8364.327145,-1998.556043,-1455.581446
1273.593882,-9326.594869,444.123565,0.000000
1273.594203,-10140.821405,888.247130,1838.629195
1273.594523,-10436.903782,444.123565,2451.505594
1273.594844,-9992.780217,-740.205942,2068.457845
1273.595165,-9696.697840,-814.226536,1455.581446
1273.595486,-10362.883188,-1480.411884,1838.629195
1273.595807,-9400.615463,-2220.617826,995.924147
1273.596127,-8290.306550,-2294.638420,-689.485948
1273.596448,-8512.368333,0.000000,-1378.971896
1273.596769,-9252.574275,1036.288319,153.219100
1273.597090,-10140.821405,74.020594,1302.362347
1273.597411,-10436.903782,0.000000,1915.238745
1273.597731,-10955.047942,0.000000,919.314598
1273.598052,-11325.150913,-296.082377,1991.848295
1273.598373,-10584.944971,-740.205942,2987.772442
1273.598694,-10066.800811,-2294.638420,1532.190996
1273.599015,-8512.368333,-1554.432478,-536.266849
1273.599335,-8956.491898,814.226536,-766.095498
1273.599656,-9548.656652,2220.617826,1455.581446
1273.599977,-9770.718434,1554.432478,1608.800546
1273.600298,-9104.533087,444.123565,1072.533697
1273.600618,-8956.491898,74.020594,1302.362347
1273.600939,-9918.759623,-962.267725,1838.629195
1273.601260,-9844.739029,-2220.617826,2528.115143
1273.601581,-8808.450710,-2886.803174,1378.971896
1273.601902,-9400.615463,-1036.288319,1072.533697
1273.602222,-9770.718434,296.082377,1302.362347
1273.602543,-9474.636058,1036.288319,1149.143247
1273.602864,-9622.677246,740.205942,995.924147
1273.603185,-9622.677246,1406.391290,0.000000
1273.603506,-9918.759623,1184.329507,1072.533697
1273.603826,-9918.759623,-518.144159,1149.143247
1273.604147,-8882.471304,-2220.617826,76.609550
1273.604468,-9030.512492,-1406.391290,-536.266849
1273.604789,-10510.924376,962.267725,766.095498
1273.605110,-10584.944971,1480.411884,3064.381992
1273.605430,-9992.780217,666.185348,2987.772442
1273.605751,-9252.574275,-592.164754,1532.190996
1273.606072,-9696.697840,-296.082377,1991.848295
1273.606393,-10140.821405,-1628.453072,2681.334243
1273.606713,-9030.512492,-3182.885551,1991.848295
1273.607034,-7772.162391,-3478.967927,383.047749
1273.607355,-8290.306550,-2146.597232,-612.876398
1273.607676,-9548.656652,518.144159,842.705048
1273.607997,-10658.965565,1184.329507,1991.848295
1273.608317,-9770.718434,1702.473667,1455.581446
1273.608638,-10066.800811,1776.494261,995.924147
1273.608959,-11251.130318,148.041188,766.095498
1273.609280,-10140.821405,-370.102971,1608.800546
1273.609601,-10510.924376,-2812.782580,0.000000
1273.609921,-7846.182985,-1036.288319,-1302.362347
1273.610242,-8808.450710,592.164754,689.485948
1273.610563,-10288.862594,1776.494261,1991.848295
1273.610884,-9918.759623,740.205942,1915.238745
1273.611204,-9770.718434,0.000000,1685.410096
1273.611525,-9474.636058,-740.205942,1608.800546
1273.611846,-9844.739029,-2442.679609,1532.190996
1273.612167,-9844.739029,-3404.947333,2068.457845
1273.612488,-8142.265362,-2960.823768,306.438199
1273.612808,-8438.347739,-1110.308913,536.266849
1273.613129,-9696.697840,518.144159,2528.115143
1273.613450,-9770.718434,814.226536,2451.505594
1273.613771,-10362.883188,370.102971,2145.067394
1273.614092,-10140.821405,1776.494261,1762.019645
1273.614412,-11251.130318,1776.494261,2451.505594
1273.614733,-10288.862594,-666.185348,2298.286494
1273.615054,-8660.409521,-2664.741391,0.000000
1273.615375,-8512.368333,-2072.576638,-1455.581446
1273.615696,-8290.306550,148.041188,-995.924147
1273.616016,-9622.677246,1850.514855,766.095498
1273.616337,-9252.574275,1258.350101,1455.581446
1273.616658,-9104.533087,296.082377,842.705048
1273.616979,-9844.739029,444.123565,1608.800546
1273.617299,-10214.842000,-1924.535449,2911.162892
1273.617620,-9400.615463,-2960.823768,2221.676944
1273.617941,-9770.718434,-4145.153275,1455.581446
1273.618262,-8586.388927,-1554.432478,306.438199
1273.618583,-10288.862594,74.020594,995.924147
1273.618903,-10066.800811,1036.288319,1225.752797
1273.619224,-8882.471304,1924.535449,459.657299
1273.619545,-10140.821405,1998.556043,0.000000
1273.619866,-10510.924376,1554.432478,766.095498
1273.620187,-10214.842000,-444.123565,536.266849
1273.620507,-9622.677246,-2146.597232,0.000000
1273.620828,-9030.512492,-1554.432478,-536.266849
1273.621149,-10214.842000,888.247130,1225.752797
1273.621470,-10658.965565,1628.453072,2298.286494
1273.621791,-10362.883188,1258.350101,2681.334243
1273.622111,-9178.553681,0.000000,1302.362347
1273.622432,-9178.553681,-592.164754,0.000000
1273.622753,-9622.677246,-444.123565,76.609550
1273.623074,-9178.553681,-1776.494261,1378.971896
1273.623394,-8364.327145,-2294.638420,0.000000
1273.623715,-8586.388927,-888.247130,-306.438199
1273.624036,-9918.759623,370.102971,383.047749
1273.624357,-10510.924376,1036.288319,1915.238745
1273.624678,-10732.986159,1406.391290,2068.457845
1273.624998,-10955.047942,2220.617826,1225.752797
1273.625319,-10288.862594,2590.720797,1608.800546
1273.625640,-10362.883188,-814.226536,1685.410096
1273.625961,-7846.182985,-1924.535449,-766.095498
1273.626282,-8660.409521,-2220.617826,-1225.752797
1273.626602,-7994.224174,-370.102971,-612.876398
1273.626923,-8808.450710,666.185348,2681.334243
1273.627244,-8956.491898,666.185348,1762.019645
1273.627565,-8216.285956,592.164754,1608.800546
1273.627886,-9622.677246,-222.061783,1608.800546
1273.628206,-9770.718434,-814.226536,2528.115143
1273.628527,-9548.656652,-3034.844362,1991.848295
1273.628848,-8956.491898,-3182.885551,842.705048
1273.629169,-9326.594869,-740.205942,1608.800546
1273.629489,-10658.965565,-296.082377,2451.505594
1273.629810,-9252.574275,222.061783,1532.190996
1273.630131,-9252.574275,1036.288319,459.657299
1273.630452,-9548.656652,2368.659014,842.705048
1273.630773,-10807.006753,1998.556043,2068.457845
1273.631093,-10732.986159,-592.164754,2298.286494
1273.631414,-8364.327145,-3552.988522,0.000000
1273.631735,-8364.327145,-2368.659014,-919.314598
1273.632056,-10066.800811,-296.082377,1608.800546
1273.632377,-10881.027347,-74.020594,3600.648841
1273.632697,-10214.842000,-370.102971,3294.210641
1273.633018,-9252.574275,-1628.453072,1302.362347
1273.633339,-9252.574275,-1110.308913,689.485948
1273.633660,-10510.924376,-2516.700203,1608.800546
1273.633981,-8068.244768,-2220.617826,383.047749
1273.634301,-8956.491898,-1036.288319,0.000000
1273.634622,-9104.533087,0.000000,0.000000
1273.634943,-9474.636058,592.164754,1225.752797
1273.635264,-11251.130318,-518.144159,995.924147
1273.635584,-10288.862594,-444.123565,1149.143247
1273.635905,-9992.780217,222.061783,153.219100
1273.636226,-10955.047942,1036.288319,1685.410096
1273.636547,-9474.636058,-1258.350101,919.314598
1273.636868,-9474.636058,-2294.638420,-153.219100
1273.637188,-8290.306550,-1702.473667,-842.705048
1273.637509,-9104.533087,592.164754,0.000000
1273.637830,-10436.903782,1406.391290,2145.067394
1273.638151,-9474.636058,0.000000,1838.629195
1273.638472,-8808.450710,370.102971,536.266849
1273.638792,-9400.615463,0.000000,306.438199
1273.639113,-9918.759623,-1480.411884,1685.410096
1273.639434,-9326.594869,-1628.453072,842.705048
1273.639755,-9474.636058,-2590.720797,689.485948
1273.640076,-9178.553681,-814.226536,-76.609550
1273.640396,-9918.759623,888.247130,842.705048
1273.640717,-10658.965565,1258.350101,1532.190996
1273.641038,-9696.697840,1258.350101,459.657299
1273.641359,-9474.636058,1480.411884,536.266849
1273.641679,-9992.780217,222.061783,1225.752797
1273.642000,-9326.594869,-1554.432478,1149.143247
1273.642321,-9326.594869,-3478.967927,766.095498
1273.642642,-8660.409521,-1554.432478,0.000000
1273.642963,-9252.574275,666.185348,995.924147
1273.643283,-10362.883188,962.267725,2451.505594
1273.643604,-9548.656652,444.123565,2145.067394
1273.643925,-9104.533087,814.226536,1838.629195
1273.644246,-10288.862594,0.000000,2145.067394
1273.644567,-9844.739029,-592.164754,2604.724693
1273.644887,-9178.553681,-1998.556043,1915.238745
1273.645208,-7920.203579,-1628.453072,0.000000
1273.645529,-8808.450710,666.185348,383.047749
1273.645850,-10214.842000,1628.453072,1455.581446
1273.646171,-10140.821405,1776.494261,2221.676944
1273.646491,-10362.883188,1110.308913,536.266849
1273.646812,-10214.842000,1332.370696,1302.362347
1273.647133,-11251.130318,0.000000,2604.724693
1273.647454,-10214.842000,-1924.535449,2451.505594
1273.647774,-9252.574275,-3108.864956,1225.752797
1273.648095,-8438.347739,-962.267725,0.000000
1273.648416,-9474.636058,1110.308913,1302.362347
1273.648737,-9918.759623,1702.473667,2145.067394
1273.649058,-9474.636058,1332.370696,1838.629195
1273.649378,-9400.615463,222.061783,995.924147
1273.649699,-9844.739029,370.102971,1302.362347
1273.650020,-10140.821405,-1998.556043,1838.629195
1273.650341,-9030.512492,-2812.782580,1149.143247
1273.650662,-8364.327145,-2664.741391,383.047749
1273.650982,-9252.574275,-962.267725,-153.219100
1273.651303,-9548.656652,74.020594,536.266849
1273.651624,-10066.800811,296.082377,995.924147
1273.651945,-9622.677246,1036.288319,-229.828649
1273.652265,-9696.697840,1776.494261,0.000000
1273.652586,-10362.883188,740.205942,766.095498
1273.652907,-9400.615463,-1406.391290,229.828649
1273.653228,-8660.409521,-2146.597232,-1378.971896
1273.653549,-8808.450710,-1332.370696,-1149.143247
1273.653869,-9548.656652,370.102971,-229.828649
1273.654190,-10658.965565,1258.350101,1762.019645
1273.654511,-10288.862594,962.267725,2068.457845
1273.654832,-9474.636058,0.000000,1991.848295
1273.655153,-10066.800811,-148.041188,1149.143247
1273.655473,-9844.739029,-962.267725,1838.629195
1273.655794,-9030.512492,-2812.782580,536.266849
1273.656115,-7624.121203,-2812.782580,-383.047749
1273.656436,-8882.471304,-1258.350101,-383.047749
1273.656757,-9474.636058,296.082377,306.438199
1273.657077,-9548.656652,814.226536,689.485948
1273.657398,-9548.656652,1628.453072,153.219100
1273.657719,-9770.718434,1998.556043,1149.143247
1273.658040,-10584.944971,518.144159,1378.971896
1273.658360,-10362.883188,-962.267725,1685.410096
1273.658681,-9474.636058,-2442.679609,689.485948
1273.659002,-9992.780217,-2146.597232,2451.505594
1273.659323,-10510.924376,0.000000,3217.601092
1273.659644,-10584.944971,0.000000,3983.696590
1273.659964,-9992.780217,0.000000,4060.306139
1273.660285,-9474.636058,-888.247130,2757.943793
1273.660606,-9252.574275,-1628.453072,2145.067394
1273.660927,-9104.533087,-2442.679609,2298.286494
1273.661248,-8142.265362,-3552.988522,1532.190996
1273.661568,-7994.224174,-2368.659014,459.657299
1273.661889,-9252.574275,-740.205942,1608.800546
1273.662210,-9918.759623,-592.164754,1838.629195
1273.662531,-10066.800811,0.000000,2528.115143
1273.662852,-10658.965565,0.000000,1915.238745
1273.663172,-9400.615463,518.144159,2528.115143
1273.663493,-10955.047942,666.185348,2145.067394
1273.663814,-9992.780217,-1110.308913,1302.362347
1273.664135,-9030.512492,-2516.700203,-306.438199
1273.664455,-8734.430116,-1554.432478,-1072.533697
1273.664776,-9622.677246,0.000000,229.828649
1273.665097,-9474.636058,814.226536,2145.067394
1273.665418,-9770.718434,-370.102971,2145.067394
1273.665739,-9030.512492,-888.247130,1225.752797
1273.666059,-9548.656652,-1258.350101,1685.410096
1273.666380,-10066.800811,-2368.659014,1762.019645
1273.666701,-9326.594869,-2590.720797,1915.238745
1273.667022,-8956.491898,-2442.679609,383.047749
1273.667343,-9474.636058,74.020594,-1378.971896
1273.667663,-9474.636058,1406.391290,0.000000
1273.667984,-9844.739029,2294.638420,0.000000
1273.668305,-9622.677246,2886.803174,153.219100
1273.668626,-10362.883188,2812.782580,229.828649
1273.668947,-10436.903782,1258.350101,995.924147
1273.669267,-10584.944971,-962.267725,459.657299
1273.669588,-9104.533087,-1332.370696,-459.657299
1273.669909,-9548.656652,-1184.329507,-919.314598
1273.670230,-9178.553681,1850.514855,842.705048
1273.670550,-10510.924376,888.247130,1991.848295
1273.670871,-9178.553681,444.123565,2145.067394
1273.671192,-9326.594869,-518.144159,1072.533697
1273.671513,-9326.594869,-370.102971,3064.381992
1273.671834,-10140.821405,-1554.432478,2604.724693
1273.672154,-9474.636058,-2812.782580,1608.800546
1273.672475,-8364.327145,-1998.556043,0.000000
1273.672796,-8882.471304,-296.082377,-536.266849
1273.673117,-10288.862594,1554.432478,766.095498
1273.673438,-10140.821405,2072.576638,1225.752797
1273.673758,-10066.800811,2220.617826,459.657299
1273.674079,-10288.862594,2738.761985,1225.752797
1273.674400,-10955.047942,1628.453072,2374.896044
1273.674721,-10955.047942,-1184.329507,2451.505594
1273.675042,-9844.739029,-2442.679609,1455.581446
1273.675362,-9474.636058,-1702.473667,1225.752797
1273.675683,-10288.862594,74.020594,1072.533697
1273.676004,-9770.718434,-444.123565,2681.334243
1273.676325,-9104.533087,-444.123565,1685.410096
1273.676645,-8290.306550,0.000000,0.000000
1273.676966,-8660.409521,814.226536,0.000000
1273.677287,-9030.512492,-518.144159,689.485948
1273.677608,-8660.409521,-2146.597232,76.609550
1273.677929,-8808.450710,-1776.494261,-229.828649
1273.678249,-9178.553681,-444.123565,229.828649
1273.678570,-10510.924376,666.185348,1838.629195
1273.678891,-11103.089130,814.226536,2451.505594
1273.679212,-10214.842000,1554.432478,1378.971896
1273.679533,-10807.006753,2368.659014,919.314598
1273.679853,-10140.821405,2072.576638,1149.143247
1273.680174,-8956.491898,-1258.350101,-306.438199
1273.680495,-8364.327145,-2294.638420,-1762.019645
1273.680816,-7994.224174,-1554.432478,-1915.238745
1273.681137,-9030.512492,296.082377,459.657299
1273.681457,-9770.718434,0.000000,2145.067394
1273.681778,-9400.615463,-888.247130,1762.019645
1273.682099,-9474.636058,-518.144159,1608.800546
1273.682420,-10732.986159,-518.144159,2604.724693
1273.682740,-10066.800811,-444.123565,2604.724693
1273.683061,-10066.800811,-3256.906145,1532.190996
1273.683382,-9030.512492,-2368.659014,-306.438199
1273.683703,-8956.491898,-296.082377,0.000000
1273.684024,-10362.883188,-296.082377,536.266849
1273.684344,-9030.512492,1554.432478,1225.752797
1273.684665,-10510.924376,592.164754,919.314598
1273.684986,-9770.718434,1406.391290,766.095498
1273.685307,-11103.089130,74.020594,2221.676944
1273.685628,-10362.883188,-2294.638420,1838.629195
1273.685948,-9178.553681,-2886.803174,0.000000
1273.686269,-9474.636058,-1702.473667,229.828649
1273.686590,-9770.718434,74.020594,1762.019645
1273.686911,-9992.780217,666.185348,2298.286494
1273.687231,-9474.636058,-148.041188,1991.848295
1273.687552,-9548.656652,0.000000,1685.410096
1273.687873,-10362.883188,-222.061783,2221.676944
1273.688194,-9918.759623,-1998.556043,1915.238745
1273.688515,-8882.471304,-2960.823768,1072.533697
1273.688835,-8808.450710,-2294.638420,-153.219100
1273.689156,-8882.471304,-296.082377,536.266849
1273.689477,-9770.718434,592.164754,1838.629195
1273.689798,-9326.594869,222.061783,1455.581446
1273.690119,-9326.594869,370.102971,689.485948
1273.690439,-10066.800811,296.082377,1072.533697
1273.690760,-10510.924376,-296.082377,1915.238745
1273.691081,-10140.821405,-1850.514855,1225.752797
1273.691402,-8882.471304,-2220.617826,-229.828649
1273.691723,-8586.388927,-370.102971,-229.828649
1273.692043,-10066.800811,1406.391290,1532.190996
1273.692364,-9474.636058,-148.041188,3907.087040
1273.692685,-8956.491898,-962.267725,995.924147
1273.693006,-9400.615463,74.020594,1532.190996
1273.693327,-10658.965565,-1258.350101,2221.676944
1273.693647,-10510.924376,-1554.432478,2757.943793
1273.693968,-9252.574275,-2664.741391,1608.800546
1273.694289,-8290.306550,-2516.700203,76.609550
1273.694610,-9326.594869,-74.020594,0.000000
1273.694931,-9696.697840,666.185348,1225.752797
1273.695252,-8808.450710,1184.329507,459.657299
1273.695572,-9400.615463,2516.700203,-153.219100
1273.695893,-9622.677246,2664.741391,0.000000
1273.696214,-10436.903782,1406.391290,536.266849
1273.696535,-9548.656652,-962.267725,76.609550
1273.696856,-9326.594869,-1184.329507,-76.609550
1273.697176,-9474.636058,0.000000,0.000000
1273.697497,-10214.842000,1184.329507,1072.533697
1273.697818,-10881.027347,1036.288319,2911.162892
1273.698139,-9400.615463,444.123565,1915.238745
1273.698460,-9104.533087,74.020594,1149.143247
1273.698780,-9992.780217,-740.205942,1991.848295
1273.699101,-9400.615463,-1998.556043,2068.457845
1273.699422,-8956.491898,-3701.029710,306.438199
1273.699743,-8808.450710,-2590.720797,612.876398
1273.700064,-8956.491898,-222.061783,689.485948
1273.700385,-10214.842000,666.185348,2145.067394
1273.700705,-9548.656652,1258.350101,1608.800546
1273.701026,-10066.800811,2146.597232,1302.362347
1273.701347,-10658.965565,1776.494261,919.314598
1273.701668,-10066.800811,740.205942,1149.143247
1273.701989,-9696.697840,-1110.308913,0.000000
1273.702309,-8882.471304,-1036.288319,-1378.971896
1273.702630,-9030.512492,1110.308913,-383.047749
1273.702951,-10214.842000,1776.494261,1455.581446
1273.703272,-9770.718434,444.123565,2451.505594
1273.703593,-9696.697840,-740.205942,2145.067394
1273.703913,-9696.697840,-1406.391290,1378.971896
1273.704234,-10288.862594,-1332.370696,2987.772442
1273.704555,-10066.800811,-3034.844362,2911.162892
1273.704876,-8216.285956,-3701.029710,76.609550
1273.705197,-8142.265362,-1924.535449,0.000000
1273.705518,-9400.615463,0.000000,612.876398
1273.705838,-9622.677246,592.164754,1378.971896
1273.706159,-9474.636058,888.247130,459.657299
1273.706480,-9548.656652,1776.494261,-536.266849
1273.706801,-10584.944971,2516.700203,0.000000
1273.707122,-10510.924376,1406.391290,1225.752797
1273.707442,-9770.718434,-1110.308913,459.657299
1273.707763,-8660.409521,-2072.576638,-1608.800546
1273.708084,-9474.636058,-1184.329507,-689.485948
1273.708405,-10066.800811,666.185348,1455.581446
1273.708726,-10584.944971,74.020594,2451.505594
1273.709046,-9918.759623,-666.185348,2757.943793
1273.709367,-9104.533087,-1332.370696,1532.190996
1273.709688,-9992.780217,-1850.514855,1991.848295
1273.710009,-9622.677246,-3108.864956,2145.067394
1273.710330,-8290.306550,-3108.864956,1378.971896
1273.710650,-8734.430116,-2516.700203,459.657299
1273.710971,-9326.594869,-370.102971,766.095498
1273.711292,-9992.780217,592.164754,1149.143247
1273.711613,-9474.636058,1036.288319,1072.533697
1273.711934,-9622.677246,1776.494261,1455.581446
1273.712255,-10732.986159,2146.597232,919.314598
1273.712575,-10288.862594,222.061783,1378.971896
1273.712896,-9252.574275,-1480.411884,0.000000
1273.713217,-8808.450710,-1924.535449,-842.705048
1273.713538,-9474.636058,-296.082377,383.047749
1273.713859,-10066.800811,444.123565,1915.238745
1273.714179,-9770.718434,-444.123565,2451.505594
1273.714500,-9030.512492,-1036.288319,1838.629195
1273.714821,-9548.656652,-592.164754,2298.286494
1273.715142,-9696.697840,-2886.803174,3217.601092
1273.715463,-9474.636058,-4293.194464,3064.381992
1273.715783,-8290.306550,-4663.297435,1455.581446
1273.716104,-8216.285956,-2590.720797,2604.724693
1273.716425,-9326.594869,0.000000,1302.362347
1273.716746,-9918.759623,444.123565,1762.019645
1273.717067,-9252.574275,1850.514855,0.000000
1273.717388,-9622.677246,1850.514855,-1149.143247
1273.717708,-9918.759623,2146.597232,-842.705048
1273.718029,-9844.739029,518.144159,0.000000
1273.718350,-9770.718434,-1036.288319,-766.095498
1273.718671,-9474.636058,-962.267725,-1455.581446
1273.718992,-9252.574275,1110.308913,229.828649
1273.719312,-10955.047942,888.247130,3447.429741
1273.719633,-11325.150913,0.000000,4366.744339
1273.719954,-10807.006753,-1776.494261,3677.258390
1273.720275,-9474.636058,-1702.473667,2451.505594
1273.720596,-9252.574275,-1924.535449,2221.676944
1273.720916,-9104.533087,-2738.761985,1838.629195
1273.721237,-7698.141797,-1998.556043,612.876398
1273.721558,-8216.285956,-666.185348,-459.657299
1273.721879,-9178.553681,1036.288319,229.828649
1273.722200,-9844.739029,1776.494261,1225.752797
1273.722521,-10436.903782,1628.453072,842.705048
1273.722841,-10658.965565,1998.556043,919.314598
1273.723162,-11251.130318,2590.720797,1378.971896
1273.723483,-10436.903782,1184.329507,2068.457845
1273.723804,-9474.636058,-1036.288319,459.657299
1273.724125,-9104.533087,-1258.350101,-459.657299
1273.724445,-9104.533087,222.061783,153.219100
1273.724766,-9030.512492,518.144159,1455.581446
1273.725087,-9252.574275,296.082377,1915.238745
1273.725408,-8882.471304,-740.205942,1149.143247
1273.725729,-9178.553681,-370.102971,1149.143247
1273.726049,-10214.842000,-1110.308913,2911.162892
1273.726370,-9770.718434,-2738.761985,2681.334243
1273.726691,-8956.491898,-3849.070898,1072.533697
1273.727012,-9400.615463,-1480.411884,-153.219100
1273.727333,-9992.780217,1332.370696,459.657299
1273.727654,-9918.759623,2294.638420,1685.410096
1273.727974,-9844.739029,1776.494261,1302.362347
1273.728295,-9696.697840,1110.308913,-306.438199
1273.728616,-10066.800811,148.041188,-229.828649
1273.728937,-9844.739029,-888.247130,919.314598
1273.729258,-9104.533087,-2220.617826,0.000000
1273.729578,-8882.471304,-2072.576638,-1072.533697
1273.729899,-9104.533087,1110.308913,-383.047749
1273.730220,-10066.800811,1628.453072,1685.410096
1273.730541,-9844.739029,1110.308913,2528.115143
1273.730862,-10214.842000,-740.205942,2374.896044
1273.731182,-9844.739029,-1258.350101,1532.190996
1273.731503,-10066.800811,-1850.514855,1685.410096
1273.731824,-9844.739029,-1776.494261,1838.629195
1273.732145,-9178.553681,-148.041188,3370.820191
1273.732466,-8734.430116,592.164754,-306.438199
1273.732786,-9770.718434,2220.617826,76.609550
1273.733107,-10066.800811,1702.473667,689.485948
1273.733428,-10288.862594,740.205942,612.876398
1273.733749,-10288.862594,296.082377,536.266849
1273.734070,-11029.068536,74.020594,995.924147
1273.734391,-9622.677246,0.000000,1378.971896
1273.734711,-9770.718434,-2664.741391,76.609550
1273.735032,-7624.121203,-2146.597232,0.000000
1273.735353,-8956.491898,-592.164754,-153.219100
1273.735674,-9992.780217,370.102971,1608.800546
1273.735995,-9622.677246,296.082377,2298.286494
1273.736315,-9548.656652,-1628.453072,1991.848295
1273.736636,-9474.636058,-1036.288319,1915.238745
1273.736957,-9326.594869,-3256.906145,1532.190996
1273.737278,-9030.512492,-3997.112087,1608.800546
1273.737599,-8216.285956,-3552.988522,612.876398
1273.737919,-8290.306550,-1332.370696,153.219100
1273.738240,-10066.800811,666.185348,2221.676944
1273.738561,-10214.842000,1332.370696,2987.772442
1273.738882,-9252.574275,1702.473667,2451.505594
1273.739203,-11325.150913,518.144159,1685.410096
1273.739524,-9696.697840,1110.308913,3524.039291
1273.739844,-10436.903782,-2368.659014,2757.943793
1273.740165,-8438.347739,-3330.926739,229.828649
1273.740486,-7920.203579,-2590.720797,-1455.581446
1273.740807,-8364.327145,962.267725,-1455.581446
1273.741128,-9030.512492,3404.947333,1072.533697
1273.741448,-9400.615463,2220.617826,1072.533697
1273.741769,-8956.491898,1036.288319,766.095498
1273.742090,-10881.027347,0.000000,1225.752797
1273.742411,-10807.006753,-1554.432478,2451.505594
1273.742732,-11103.089130,-3478.967927,2834.553343
1273.743052,-9844.739029,-3108.864956,1991.848295
1273.743373,-9696.697840,-814.226536,1378.971896
1273.743694,-10732.986159,740.205942,1455.581446
1273.744015,-9844.739029,666.185348,1225.752797
1273.744336,-8956.491898,1036.288319,-153.219100
1273.744657,-10214.842000,518.144159,-1149.143247
1273.744977,-9696.697840,814.226536,0.000000
1273.745298,-9844.739029,-1110.308913,306.438199
1273.745619,-9326.594869,-2812.782580,-995.924147
1273.745940,-9252.574275,-2220.617826,-919.314598
1273.746261,-10658.965565,-148.041188,1225.752797
1273.746581,-11103.089130,1258.350101,2834.553343
1273.746902,-11029.068536,1258.350101,2374.896044
1273.747223,-9696.697840,518.144159,1378.971896
1273.747544,-9474.636058,0.000000,612.876398
1273.747865,-9474.636058,-2072.576638,995.924147
1273.748185,-8660.409521,-4071.132681,612.876398
1273.748506,-7254.018232,-3404.947333,-153.219100
1273.748827,-8660.409521,-1036.288319,-919.314598
1273.749148,-9104.533087,740.205942,1149.143247
1273.749469,-9622.677246,1628.453072,1991.848295
1273.749790,-9326.594869,1924.535449,1532.190996
1273.750110,-9696.697840,2590.720797,1532.190996
1273.750431,-10807.006753,1702.473667,2604.724693
1273.750752,-10214.842000,296.082377,2911.162892
1273.751073,-9326.594869,-814.226536,1455.581446
1273.751394,-8956.491898,-296.082377,229.828649
1273.751714,-8290.306550,1850.514855,0.000000
1273.752035,-9844.739029,1406.391290,2987.772442
1273.752356,-9326.594869,0.000000,2451.505594
1273.752677,-9030.512492,-1406.391290,1838.629195
1273.752998,-8660.409521,-2516.700203,3140.991542
1273.753318,-9918.759623,-1702.473667,2987.772442
1273.753639,-10140.821405,-2516.700203,3294.210641
1273.753960,-9548.656652,-2146.597232,2451.505594
1273.754281,-8660.409521,-1480.411884,919.314598
1273.754602,-9992.780217,-296.082377,1072.533697
1273.754922,-9770.718434,-296.082377,919.314598
1273.755243,-9622.677246,518.144159,1072.533697
1273.755564,-9992.780217,1184.329507,0.000000
1273.755885,-10807.006753,2146.597232,689.485948
1273.756206,-10288.862594,-518.144159,536.266849
1273.756527,-9326.594869,-1924.535449,0.000000
1273.756847,-9622.677246,-1406.391290,-383.047749
1273.757168,-10140.821405,296.082377,459.657299
1273.757489,-10066.800811,1036.288319,1225.752797
1273.757810,-9918.759623,0.000000,995.924147
1273.758131,-9104.533087,74.020594,0.000000
1273.758451,-9918.759623,296.082377,842.705048
1273.758772,-10214.842000,-592.164754,2145.067394
1273.759093,-9326.594869,-2294.638420,689.485948
1273.759414,-8734.430116,-2664.741391,-842.705048
1273.759735,-9104.533087,0.000000,-766.095498
1273.760055,-10066.800811,888.247130,842.705048
1273.760376,-10214.842000,1036.288319,1072.533697
1273.760697,-9474.636058,962.267725,0.000000
1273.761018,-10066.800811,1480.411884,0.000000
1273.761339,-11251.130318,1332.370696,1072.533697
1273.761660,-10362.883188,-1184.329507,1455.581446
1273.761980,-8882.471304,-2812.782580,-536.266849
1273.762301,-8142.265362,-1406.391290,-1915.238745
1273.762622,-9178.553681,1110.308913,-229.828649
1273.762943,-10140.821405,1776.494261,1838.629195
1273.763264,-9770.718434,296.082377,2451.505594
1273.763584,-9474.636058,-1184.329507,1608.800546
1273.763905,-9252.574275,-1850.514855,995.924147
1273.764226,-9844.739029,-3330.926739,2834.553343
1273.764547,-9326.594869,-4293.194464,2451.505594
1273.764868,-8512.368333,-2812.782580,1378.971896
1273.765188,-9104.533087,-444.123565,689.485948
1273.765509,-9622.677246,1998.556043,1149.143247
1273.765830,-9474.636058,1554.432478,1532.190996
1273.766151,-9770.718434,1998.556043,1685.410096
1273.766472,-10436.903782,2146.597232,1302.362347
1273.766793,-10510.924376,1332.370696,2604.724693
1273.767113,-10214.842000,-1406.391290,1762.019645
1273.767434,-9178.553681,-2368.659014,612.876398
1273.767755,-8808.450710,-1924.535449,-153.219100
1273.768076,-9252.574275,444.123565,1455.581446
1273.768397,-10140.821405,1480.411884,3600.648841
1273.768717,-9992.780217,74.020594,3140.991542
1273.769038,-9400.615463,-740.205942,2068.457845
1273.769359,-9474.636058,-740.205942,1455.581446
1273.769680,-8956.491898,-888.247130,5286.058936
1273.770001,-11621.233289,-2294.638420,3140.991542
1273.770321,-7179.997637,-2812.782580,1455.581446
1273.770642,-9178.553681,-2072.576638,-1072.533697
1273.770963,-9918.759623,518.144159,1225.752797
1273.771284,-9104.533087,-518.144159,0.000000
1273.771605,-10732.986159,1628.453072,1685.410096
1273.771926,-9844.739029,1850.514855,306.438199
1273.772246,-10436.903782,518.144159,0.000000
1273.772567,-9474.636058,-1184.329507,1149.143247
1273.772888,-8882.471304,-2368.659014,-1149.143247
1273.773209,-9474.636058,-1036.288319,-842.705048
1273.773530,-10214.842000,592.164754,995.924147
1273.773850,-9252.574275,296.082377,459.657299
1273.774171,-9622.677246,-888.247130,459.657299
1273.774492,-9400.615463,-814.226536,0.000000
1273.774813,-9252.574275,148.041188,0.000000
1273.775134,-10436.903782,-666.185348,1302.362347
1273.775454,-9104.533087,-1998.556043,612.876398
1273.775775,-8512.368333,-1702.473667,-76.609550
1273.776096,-9844.739029,-740.205942,-153.219100
1273.776417,-10658.965565,222.061783,1149.143247
1273.776738,-9474.636058,1110.308913,1225.752797
1273.777058,-9474.636058,1258.350101,306.438199
1273.777379,-9696.697840,2442.679609,919.314598
1273.777700,-9992.780217,1184.329507,1302.362347
1273.778021,-10140.821405,-1258.350101,1149.143247
1273.778342,-8216.285956,-1998.556043,-612.876398
1273.778663,-9030.512492,-1110.308913,-842.705048
1273.778983,-10140.821405,592.164754,1838.629195
1273.779304,-10066.800811,518.144159,3064.381992
1273.779625,-9770.718434,148.041188,2834.553343
1273.779946,-8956.491898,-222.061783,1838.629195
1273.780267,-9844.739029,666.185348,2757.943793
1273.780587,-10732.986159,-1184.329507,3064.381992
1273.780908,-9474.636058,-1776.494261,2757.943793
1273.781229,-8290.306550,-2516.700203,842.705048
1273.781550,-9030.512492,-962.267725,383.047749
1273.781871,-9918.759623,518.144159,2145.067394
1273.782191,-9474.636058,592.164754,2221.676944
1273.782512,-9252.574275,1850.514855,1532.190996
1273.782833,-10436.903782,1406.391290,1532.190996
1273.783154,-9918.759623,666.185348,2374.896044
1273.783475,-10140.821405,-2072.576638,1762.019645
1273.783796,-8956.491898,-2664.741391,229.828649
1273.784116,-8586.388927,-962.267725,-612.876398
1273.784437,-9696.697840,1258.350101,1302.362347
1273.784758,-10066.800811,1332.370696,2604.724693
1273.785079,-9992.780217,296.082377,2145.067394
1273.785400,-9474.636058,-962.267725,306.438199
1273.785720,-9770.718434,-1184.329507,689.485948
1273.786041,-10436.903782,-1554.432478,2145.067394
1273.786362,-9474.636058,-2294.638420,1302.362347
1273.786683,-9178.553681,-962.267725,459.657299
1273.787004,-9474.636058,740.205942,-306.438199
1273.787324,-9844.739029,1776.494261,76.609550
1273.787645,-9918.759623,1702.473667,153.219100
1273.787966,-10066.800811,1184.329507,76.609550
1273.788287,-10066.800811,518.144159,0.000000
1273.788608,-9548.656652,0.000000,153.219100
1273.788929,-9548.656652,-2072.576638,-383.047749
1273.789249,-8586.388927,-1850.514855,-1608.800546
1273.789570,-8808.450710,-814.226536,-919.314598
1273.789891,-9622.677246,888.247130,1072.533697
1273.790212,-9770.718434,814.226536,1762.019645
1273.790533,-8512.368333,-666.185348,2987.772442
1273.790853,-9548.656652,-592.164754,1302.362347
1273.791174,-9548.656652,-1184.329507,1225.752797
1273.791495,-9400.615463,-2664.741391,1532.190996
1273.791816,-7994.224174,-3775.050304,0.000000
1273.792137,-7698.141797,-2664.741391,-1302.362347
1273.792457,-8734.430116,0.000000,-612.876398
1273.792778,-10214.842000,1258.350101,1838.629195
1273.793099,-9918.759623,2072.576638,1685.410096
1273.793420,-11695.253884,1628.453072,1532.190996
1273.793741,-11621.233289,1184.329507,1915.238745
1273.794062,-10807.006753,592.164754,3294.210641
1273.794382,-10732.986159,-2738.761985,2528.115143
1273.794703,-8216.285956,-2220.617826,0.000000
1273.795024,-8586.388927,-814.226536,-766.095498
1273.795345,-8882.471304,2294.638420,536.266849
1273.795666,-9770.718434,2368.659014,2987.772442
1273.795986,-9252.574275,296.082377,2528.115143
1273.796307,-9474.636058,-814.226536,2604.724693
1273.796628,-11029.068536,-1702.473667,3217.601092
1273.796949,-9992.780217,-3923.091493,3753.867940
1273.797270,-9696.697840,-4219.173869,3677.258390
1273.797591,-9178.553681,-2368.659014,0.000000
1273.797911,-8956.491898,0.000000,919.314598
1273.798232,-9770.718434,1628.453072,1915.238745
1273.798553,-9252.574275,1480.411884,919.314598
1273.798874,-9844.739029,1776.494261,689.485948
1273.799195,-10955.047942,1554.432478,1455.581446
1273.799516,-10066.800811,-296.082377,1838.629195
1273.799836,-10658.965565,-2516.700203,1685.410096
1273.800157,-9622.677246,-3997.112087,689.485948
1273.800478,-9252.574275,-1924.535449,1455.581446
1273.800799,-10436.903782,148.041188,2145.067394
1273.801120,-9548.656652,592.164754,2068.457845
1273.801440,-8660.409521,370.102971,229.828649
1273.801761,-8142.265362,-222.061783,-995.924147
1273.802082,-8808.450710,-888.247130,0.000000
1273.802403,-8808.450710,-2516.700203,536.266849
1273.802724,-8586.388927,-4145.153275,383.047749
1273.803045,-8438.347739,-3552.988522,-459.657299
1273.803365,-9252.574275,-1258.350101,383.047749
1273.803686,-10881.027347,740.205942,1532.190996
1273.804007,-9992.780217,2294.638420,1225.752797
1273.804328,-9622.677246,2368.659014,-536.266849
1273.804649,-10510.924376,3182.885551,612.876398
1273.804969,-9326.594869,962.267725,0.000000
1273.805290,-9474.636058,-1702.473667,-1455.581446
1273.805611,-8216.285956,-1332.370696,-1915.238745
1273.805932,-8808.450710,0.000000,-1378.971896
1273.806253,-9326.594869,1776.494261,1225.752797
1273.806574,-11103.089130,1258.350101,3217.601092
1273.806894,-9844.739029,0.000000,2757.943793
1273.807215,-10066.800811,-592.164754,2221.676944
1273.807536,-10214.842000,-1184.329507,2681.334243
1273.807857,-9918.759623,-2146.597232,2681.334243
1273.808178,-8808.450710,-2368.659014,1455.581446
1273.808499,-8216.285956,-2220.617826,76.609550
1273.808819,-8956.491898,1850.514855,229.828649
1273.809140,-10436.903782,148.041188,1608.800546
1273.809461,-9474.636058,1554.432478,1608.800546
1273.809782,-11029.068536,1702.473667,2374.896044
1273.810103,-11473.192101,1554.432478,2221.676944
1273.810423,-10881.027347,1036.288319,2834.553343
1273.810744,-10584.944971,-1110.308913,1685.410096
1273.811065,-9030.512492,-1924.535449,459.657299
1273.811386,-9030.512492,-518.144159,0.000000
1273.811707,-10288.862594,814.226536,2068.457845
1273.812028,-9696.697840,296.082377,2068.457845
1273.812348,-9474.636058,0.000000,2145.067394
1273.812669,-9622.677246,-814.226536,1378.971896
1273.812990,-10436.903782,-1406.391290,1455.581446
1273.813311,-9474.636058,-1850.514855,2374.896044
1273.813632,-8586.388927,-2738.761985,1225.752797
1273.813952,-8290.306550,-1776.494261,0.000000
1273.814273,-8882.471304,-296.082377,-76.609550
1273.814594,-9548.656652,148.041188,-459.657299
1273.814915,-8660.409521,1184.329507,-689.485948
1273.815236,-9844.739029,1554.432478,-766.095498
1273.815557,-10214.842000,2664.741391,766.095498
1273.815877,-10658.965565,1036.288319,1991.848295
1273.816198,-9992.780217,-1184.329507,1455.581446
1273.816519,-9252.574275,-1924.535449,-383.047749
1273.816840,-8956.491898,148.041188,-383.047749
1273.817161,-9770.718434,740.205942,2911.162892
1273.817482,-9622.677246,444.123565,1838.629195
1273.817802,-8438.347739,-1110.308913,842.705048
1273.818123,-7846.182985,-2146.597232,-459.657299
1273.818444,-8586.388927,-1924.535449,842.705048
1273.818765,-10436.903782,-2960.823768,2528.115143
1273.819086,-9252.574275,-2960.823768,1915.238745
1273.819406,-9104.533087,-1924.535449,459.657299
1273.819727,-10140.821405,0.000000,612.876398
1273.820048,-10362.883188,1332.370696,1225.752797
1273.820369,-10436.903782,1406.391290,1149.143247
1273.820690,-9770.718434,1924.535449,0.000000
1273.821011,-9548.656652,2368.659014,-383.047749
1273.821331,-9622.677246,-74.020594,1532.190996
1273.821652,-9474.636058,-1850.514855,0.000000
1273.821973,-8956.491898,-2072.576638,-612.876398
1273.822294,-9622.677246,-888.247130,459.657299
1273.822615,-9918.759623,370.102971,2528.115143
1273.822935,-10510.924376,-444.123565,4136.915689
1273.823256,-9918.759623,-1184.329507,3294.210641
1273.823577,-9474.636058,-1184.329507,2451.505594
1273.823898,-9474.636058,-1184.329507,2987.772442
1273.824219,-9400.615463,-2368.659014,2834.553343
1273.824540,-8364.327145,-2812.782580,1455.581446
1273.824860,-8438.347739,-1924.535449,229.828649
1273.825181,-9104.533087,148.041188,459.657299
1273.825502,-9844.739029,0.000000,2145.067394
1273.825823,-9474.636058,518.144159,1608.800546
1273.826144,-10510.924376,1776.494261,1302.362347
1273.826465,-10955.047942,2368.659014,2068.457845
1273.826785,-10955.047942,740.205942,2604.724693
1273.827106,-9844.739029,-2072.576638,1685.410096
1273.827427,-8956.491898,-2812.782580,0.000000
1273.827748,-9178.553681,-962.267725,0.000000
1273.828069,-10066.800811,-444.123565,1455.581446
1273.828389,-8734.430116,296.082377,1838.629195
1273.828710,-9178.553681,-740.205942,689.485948
1273.829031,-8216.285956,-1110.308913,0.000000
1273.829352,-9474.636058,-814.226536,1149.143247
1273.829673,-9844.739029,-2072.576638,2911.162892
1273.829994,-8586.388927,-2516.700203,459.657299
1273.830314,-9400.615463,-1554.432478,383.047749
1273.830635,-9992.780217,444.123565,0.000000
1273.830956,-10362.883188,1258.350101,1149.143247
1273.831277,-10066.800811,2146.597232,612.876398
1273.831598,-9548.656652,1110.308913,-612.876398
1273.831918,-10140.821405,2368.659014,-459.657299
1273.832239,-10732.986159,222.061783,229.828649
1273.832560,-8586.388927,-1332.370696,-766.095498
1273.832881,-9178.553681,-1184.329507,-995.924147
1273.833202,-8956.491898,518.144159,-459.657299
1273.833523,-9992.780217,1998.556043,1685.410096
1273.833843,-9548.656652,962.267725,3370.820191
1273.834164,-9178.553681,-888.247130,1762.019645
1273.834485,-9326.594869,-1332.370696,1149.143247
1273.834806,-10362.883188,-1628.453072,1915.238745
1273.835127,-9770.718434,-2146.597232,3064.381992
1273.835447,-9400.615463,-1924.535449,1685.410096
1273.835768,-8882.471304,-592.164754,306.438199
1273.836089,-9918.759623,1184.329507,1455.581446
1273.836410,-9992.780217,740.205942,2068.457845
1273.836731,-9844.739029,518.144159,1455.581446
1273.837052,-9992.780217,962.267725,766.095498
1273.837372,-9696.697840,1406.391290,842.705048
1273.837693,-10140.821405,222.061783,1685.410096
1273.838014,-7772.162391,-1036.288319,0.000000
1273.838335,-8660.409521,-1480.411884,0.000000
1273.838656,-9474.636058,-296.082377,612.876398
1273.838977,-9474.636058,296.082377,2145.067394
1273.839297,-9622.677246,-814.226536,4290.134789
1273.839618,-9178.553681,-666.185348,2451.505594
1273.839939,-9992.780217,0.000000,2757.943793
1273.840260,-9918.759623,-1258.350101,3140.991542
1273.840581,-9474.636058,-2812.782580,2451.505594
1273.840901,-9104.533087,-3034.844362,1378.971896
1273.841222,-9030.512492,-1406.391290,229.828649
1273.841543,-9474.636058,814.226536,919.314598
1273.841864,-9918.759623,1554.432478,1378.971896
1273.842185,-9400.615463,1480.411884,1378.971896
1273.842506,-9918.759623,1776.494261,0.000000
1273.842826,-10658.965565,1406.391290,536.266849
1273.843147,-10362.883188,0.000000,306.438199
1273.843468,-9548.656652,-1480.411884,842.705048
1273.843789,-8734.430116,-1480.411884,-1915.238745
1273.844110,-9474.636058,740.205942,-919.314598
1273.844430,-9992.780217,1554.432478,766.095498
1273.844751,-9918.759623,1110.308913,1838.629195
1273.845072,-9104.533087,-444.123565,1225.752797
1273.845393,-9548.656652,-1258.350101,1302.362347
1273.845714,-10214.842000,-2812.782580,2221.676944
1273.846035,-9474.636058,-4219.173869,1762.019645
1273.846355,-8882.471304,-3997.112087,1455.581446
1273.846676,-8586.388927,-814.226536,0.000000
1273.846997,-9252.574275,1406.391290,1378.971896
1273.847318,-10658.965565,592.164754,1532.190996
1273.847639,-8586.388927,2442.679609,1991.848295
1273.847960,-10288.862594,444.123565,76.609550
1273.848280,-9696.697840,1258.350101,612.876398
1273.848601,-10362.883188,-814.226536,1072.533697
1273.848922,-9252.574275,-1850.514855,0.000000
1273.849243,-8068.244768,-370.102971,-766.095498
1273.849564,-9992.780217,814.226536,76.609550
1273.849884,-9770.718434,1480.411884,1915.238745
1273.850205,-10510.924376,740.205942,2834.553343
1273.850526,-10140.821405,-1776.494261,2145.067394
1273.850847,-9474.636058,-666.185348,2528.115143
1273.851168,-10584.944971,-2516.700203,2834.553343
1273.851489,-9252.574275,-3478.967927,2451.505594
1273.851809,-7402.059420,-3627.009116,-76.609550
1273.852130,-8882.471304,-1924.535449,-229.828649
1273.852451,-8512.368333,296.082377,689.485948
1273.852772,-9696.697840,444.123565,919.314598
1273.853093,-9844.739029,1332.370696,1149.143247
1273.853413,-10658.965565,1924.535449,1378.971896
1273.853734,-11917.315666,1850.514855,2987.772442
1273.854055,-11621.233289,-888.247130,3217.601092
1273.854376,-9844.739029,-3182.885551,1455.581446
1273.854697,-8660.409521,-3182.885551,-766.095498
1273.855018,-9252.574275,-222.061783,-459.657299
1273.855338,-8956.491898,2072.576638,1072.533697
1273.855659,-9030.512492,1480.411884,1685.410096
1273.855980,-9030.512492,296.082377,0.000000
1273.856301,-8734.430116,-888.247130,919.314598
1273.856622,-10362.883188,-2590.720797,2145.067394
1273.856943,-10140.821405,-3552.988522,2911.162892
1273.857263,-9030.512492,-3108.864956,1838.629195
1273.857584,-9918.759623,-962.267725,1532.190996
1273.857905,-9474.636058,592.164754,919.314598
1273.858226,-9474.636058,2146.597232,612.876398
1273.858547,-9252.574275,2590.720797,0.000000
1273.858867,-9992.780217,2812.782580,-766.095498
1273.859188,-10362.883188,3256.906145,919.314598
1273.859509,-10658.965565,148.041188,1685.410096
1273.859830,-8734.430116,-1998.556043,0.000000
1273.860151,-9400.615463,-2664.741391,76.609550
1273.860472,-9992.780217,-962.267725,1532.190996
1273.860792,-9918.759623,962.267725,3217.601092
1273.861113,-10436.903782,148.041188,2987.772442
1273.861434,-8290.306550,0.000000,1302.362347
1273.861755,-8734.430116,-148.041188,-383.047749
1273.862076,-8956.491898,-666.185348,536.266849
1273.862396,-8142.265362,-1924.535449,153.219100
1273.862717,-7179.997637,-2664.741391,-842.705048
1273.863038,-8216.285956,-1258.350101,-689.485948
1273.863359,-10288.862594,592.164754,1072.533697
1273.863680,-10807.006753,888.247130,2374.896044
1273.864001,-10732.986159,962.267725,2145.067394
1273.864321,-10436.903782,1998.556043,1149.143247
1273.864642,-11325.150913,518.144159,1532.190996
1273.864963,-10140.821405,-888.247130,1149.143247
1273.865284,-9030.512492,-2442.679609,-766.095498
1273.865605,-8142.265362,-1628.453072,-2451.505594
1273.865925,-8808.450710,1628.453072,-459.657299
1273.866246,-9622.677246,2442.679609,1378.971896
1273.866567,-10214.842000,1406.391290,2451.505594
1273.866888,-9696.697840,-74.020594,1608.800546
1273.867209,-9622.677246,-1332.370696,1991.848295
1273.867530,-11029.068536,-2960.823768,2681.334243
1273.867850,-10140.821405,-2960.823768,2451.505594
1273.868171,-9178.553681,-2368.659014,842.705048
1273.868492,-8882.471304,0.000000,-1532.190996
1273.868813,-9474.636058,1184.329507,306.438199
1273.869134,-9696.697840,1110.308913,459.657299
1273.869455,-9770.718434,1036.288319,153.219100
1273.869775,-10214.842000,1480.411884,536.266849
1273.870096,-10955.047942,1628.453072,2068.457845
1273.870417,-10436.903782,-592.164754,2145.067394
1273.870738,-9844.739029,-2294.638420,919.314598
1273.871059,-9178.553681,-1332.370696,-306.438199
1273.871379,-9918.759623,222.061783,0.000000
1273.871700,-9918.759623,592.164754,1532.190996
1273.872021,-9622.677246,0.000000,1455.581446
1273.872342,-9030.512492,-888.247130,383.047749
1273.872663,-9252.574275,-1184.329507,1532.190996
1273.872984,-9770.718434,-1998.556043,2298.286494
1273.873304,-9400.615463,-3701.029710,2145.067394
1273.873625,-7624.121203,-3478.967927,383.047749
1273.873946,-8882.471304,-1702.473667,229.828649
1273.874267,-9474.636058,666.185348,1149.143247
1273.874588,-9474.636058,1258.350101,1838.629195
1273.874908,-9696.697840,1036.288319,1532.190996
1273.875229,-9474.636058,888.247130,842.705048
1273.875550,-10214.842000,296.082377,1991.848295
1273.875871,-10362.883188,-1776.494261,2451.505594
1273.876192,-9178.553681,-2886.803174,383.047749
1273.876513,-8512.368333,-1184.329507,-766.095498
1273.876833,-9252.574275,1850.514855,1991.848295
1273.877154,-9992.780217,2590.720797,2451.505594
1273.877475,-9696.697840,1258.350101,2757.943793
1273.877796,-9252.574275,-518.144159,1838.629195
1273.878117,-9474.636058,-1184.329507,1378.971896
1273.878438,-10066.800811,-2812.782580,2604.724693
1273.878758,-9770.718434,-4145.153275,2451.505594
1273.879079,-8956.491898,-3701.029710,1532.190996
1273.879400,-9030.512492,-1924.535449,1072.533697
1273.879721,-10066.800811,0.000000,1991.848295
1273.880042,-10214.842000,518.144159,1762.019645
1273.880362,-9844.739029,962.267725,383.047749
1273.880683,-9696.697840,2146.597232,0.000000
1273.881004,-10881.027347,2590.720797,383.047749
1273.881325,-9622.677246,-370.102971,383.047749
1273.881646,-9178.553681,-2738.761985,-1532.190996
1273.881967,-8586.388927,-1702.473667,-2604.724693
1273.882287,-10214.842000,0.000000,-383.047749
1273.882608,-10362.883188,1258.350101,1685.410096
1273.882929,-10658.965565,1628.453072,2451.505594
1273.883250,-10066.800811,518.144159,1149.143247
1273.883571,-9326.594869,592.164754,1225.752797
1273.883891,-10214.842000,-1184.329507,2221.676944
1273.884212,-9400.615463,-2590.720797,1685.410096
1273.884533,-8586.388927,-2960.823768,383.047749
1273.884854,-8734.430116,-1110.308913,-229.828649
1273.885175,-9548.656652,222.061783,459.657299
1273.885496,-9252.574275,1702.473667,383.047749
1273.885816,-9400.615463,1776.494261,689.485948
1273.886137,-10288.862594,2960.823768,1149.143247
1273.886458,-11103.089130,1776.494261,3524.039291
1273.886779,-10584.944971,-370.102971,2221.676944
1273.887100,-9474.636058,-2220.617826,612.876398
1273.887421,-9252.574275,-296.082377,-229.828649
1273.887741,-10066.800811,1628.453072,1378.971896
1273.888062,-9696.697840,2664.741391,2451.505594
1273.888383,-9474.636058,-222.061783,1915.238745
1273.888704,-8068.244768,-1110.308913,689.485948
1273.889025,-8882.471304,-1628.453072,689.485948
1273.889345,-9918.759623,-2516.700203,1225.752797
1273.889666,-8438.347739,-2294.638420,2145.067394
1273.889987,-9326.594869,-2960.823768,1072.533697
1273.890308,-9326.594869,148.041188,1302.362347
1273.890629,-10362.883188,1184.329507,1991.848295
1273.890950,-10362.883188,1258.350101,2451.505594
1273.891270,-9252.574275,592.164754,995.924147
1273.891591,-9844.739029,1258.350101,842.705048
1273.891912,-10288.862594,814.226536,1685.410096
1273.892233,-9400.615463,-888.247130,1838.629195
1273.892554,-9474.636058,-2294.638420,306.438199
1273.892874,-8364.327145,-1850.514855,-842.705048
1273.893195,-9178.553681,0.000000,76.609550
1273.893516,-10214.842000,888.247130,2374.896044
1273.893837,-10214.842000,0.000000,2757.943793
1273.894158,-9474.636058,-814.226536,1838.629195
1273.894478,-10066.800811,-1554.432478,1915.238745
1273.894799,-9844.739029,-2368.659014,1762.019645
1273.895120,-9400.615463,-2294.638420,1455.581446
1273.895441,-9326.594869,-1406.391290,536.266849
1273.895762,-9178.553681,888.247130,0.000000
1273.896082,-9918.759623,1702.473667,0.000000
1273.896403,-10362.883188,1554.432478,536.266849
1273.896724,-10288.862594,1702.473667,0.000000
1273.897045,-10510.924376,1776.494261,0.000000
1273.897366,-10584.944971,444.123565,689.485948
1273.897686,-9252.574275,-2368.659014,0.000000
1273.898007,-9104.533087,-2886.803174,-1072.533697
1273.898328,-8882.471304,-962.267725,-842.705048
1273.898649,-9252.574275,1332.370696,612.876398
1273.898970,-10140.821405,1258.350101,2451.505594
1273.899290,-10066.800811,-148.041188,1685.410096
1273.899611,-9474.636058,-1480.411884,1225.752797
1273.899932,-9400.615463,-1998.556043,306.438199
1273.900253,-9992.780217,-2960.823768,2298.286494
1273.900574,-8660.409521,-3849.070898,612.876398
1273.900894,-8142.265362,-1850.514855,306.438199
1273.901215,-8956.491898,370.102971,0.000000
1273.901536,-9252.574275,2072.576638,1149.143247
1273.901857,-10362.883188,1480.411884,2068.457845
1273.902178,-9252.574275,666.185348,766.095498
1273.902498,-9844.739029,1110.308913,459.657299
1273.902819,-9770.718434,1332.370696,2451.505594
1273.903140,-10140.821405,-2368.659014,1915.238745
1273.903461,-7476.080014,-3182.885551,919.314598
1273.903782,-8660.409521,-1924.535449,0.000000
1273.904102,-9178.553681,1332.370696,1455.581446
1273.904423,-10288.862594,1776.494261,3447.429741
1273.904744,-9548.656652,814.226536,3447.429741
1273.905065,-9030.512492,74.020594,1838.629195
1273.905386,-9548.656652,-1036.288319,1915.238745
1273.905706,-9622.677246,-1924.535449,2451.505594
1273.906027,-9474.636058,-3108.864956,3064.381992
1273.906348,-8512.368333,-2368.659014,689.485948
1273.906669,-9622.677246,222.061783,1455.581446
1273.906990,-10436.903782,1406.391290,2374.896044
1273.907310,-10436.903782,1406.391290,2451.505594
1273.907631,-9844.739029,888.247130,842.705048
1273.907952,-10140.821405,1480.411884,1225.752797
1273.908273,-10584.944971,74.020594,1838.629195
1273.908594,-9918.759623,-2146.597232,1762.019645
1273.908914,-9474.636058,-2738.761985,-919.314598
1273.909235,-8586.388927,-1998.556043,-1532.190996
1273.909556,-9474.636058,666.185348,459.657299
1273.909877,-10584.944971,1406.391290,2298.286494
1273.910198,-9992.780217,1036.288319,1991.848295
1273.910518,-10436.903782,0.000000,1302.362347
1273.910839,-9844.739029,-444.123565,1302.362347
1273.911160,-9918.759623,-2960.823768,1149.143247
1273.911481,-8734.430116,-3182.885551,612.876398
1273.911802,-8364.327145,-2812.782580,-1532.190996
1273.912122,-8290.306550,296.082377,-1991.848295
1273.912443,-9918.759623,2442.679609,-229.828649
1273.912764,-9474.636058,3034.844362,1072.533697
1273.913085,-10288.862594,2664.741391,1149.143247
1273.913406,-11325.150913,1924.535449,1378.971896
1273.913726,-11251.130318,0.000000,2834.553343
1273.914047,-10436.903782,-3182.885551,1915.238745
1273.914368,-8808.450710,-3034.844362,1455.581446
1273.914689,-8882.471304,-1406.391290,0.000000
1273.915010,-9030.512492,1406.391290,1072.533697
1273.915330,-9104.533087,2072.576638,1455.581446
1273.915651,-8808.450710,1036.288319,1225.752797
1273.915972,-8882.471304,148.041188,612.876398
1273.916293,-9326.594869,-740.205942,1378.971896
1273.916614,-10214.842000,-2664.741391,1838.629195
1273.916934,-8660.409521,-2664.741391,1378.971896
1273.917255,-8586.388927,-2516.700203,1378.971896
1273.917576,-9548.656652,-222.061783,1685.410096
1273.917897,-10288.862594,1480.411884,2604.724693
1273.918218,-10955.047942,888.247130,2221.676944
1273.918538,-8142.265362,1406.391290,766.095498
1273.918859,-9918.759623,888.247130,1072.533697
1273.919180,-10066.800811,-518.144159,1455.581446
1273.919501,-8586.388927,-2516.700203,612.876398
1273.919822,-8882.471304,-3330.926739,-995.924147
1273.920142,-8290.306550,-888.247130,-766.095498
1273.920463,-9992.780217,1480.411884,1378.971896
1273.920784,-11325.150913,1998.556043,3983.696590
1273.921105,-10510.924376,1184.329507,3524.039291
1273.921426,-10362.883188,0.000000,2604.724693
1273.921746,-10955.047942,-1110.308913,2987.772442
1273.922067,-10288.862594,-2960.823768,2757.943793
1273.922388,-9030.512492,-3701.029710,1608.800546
1273.922709,-8364.327145,-2664.741391,-766.095498
1273.923030,-8660.409521,296.082377,-612.876398
1273.923350,-9104.533087,1628.453072,-459.657299
1273.923671,-9474.636058,2072.576638,-459.657299
1273.923992,-9326.594869,2516.700203,-612.876398
1273.924313,-10584.944971,2072.576638,612.876398
1273.924634,-11325.150913,0.000000,1915.238745
1273.924954,-10140.821405,-2886.803174,1225.752797
1273.925275,-9918.759623,-3997.112087,-229.828649
1273.925596,-9548.656652,-1258.350101,-766.095498
1273.925917,-9622.677246,1036.288319,229.828649
1273.926238,-9992.780217,2368.659014,1302.362347
1273.926558,-8808.450710,1628.453072,919.314598
1273.926879,-9104.533087,0.000000,-1378.971896
1273.927200,-9474.636058,-1110.308913,689.485948
1273.927521,-9622.677246,-3552.988522,995.924147
1273.927842,-8290.306550,-3552.988522,383.047749
1273.928162,-8808.450710,-2738.761985,536.266849
1273.928483,-9474.636058,-1332.370696,689.485948
1273.928804,-9770.718434,0.000000,1532.190996
1273.929125,-10214.842000,962.267725,1455.581446
1273.929446,-9474.636058,1924.535449,995.924147
1273.929767,-10807.006753,2368.659014,842.705048
1273.930087,-10066.800811,1184.329507,2145.067394
1273.930408,-9030.512492,-1480.411884,919.314598
1273.930729,-8290.306550,-2516.700203,-612.876398
1273.931050,-9252.574275,-1406.391290,-1608.800546
1273.931371,-9400.615463,0.000000,1608.800546
1273.931691,-10436.903782,0.000000,2911.162892
1273.932012,-9400.615463,0.000000,2451.505594
1273.932333,-9474.636058,0.000000,1991.848295
1273.932654,-10066.800811,-888.247130,2757.943793
1273.932975,-9992.780217,-2368.659014,3370.820191
1273.933295,-9474.636058,-3775.050304,2298.286494
1273.933616,-9474.636058,-2738.761985,919.314598
1273.933937,-10214.842000,-592.164754,842.705048
1273.934258,-11103.089130,222.061783,2298.286494
1273.934579,-10066.800811,666.185348,1915.238745
1273.934899,-9696.697840,1924.535449,383.047749
1273.935220,-10584.944971,3404.947333,383.047749
1273.935541,-10214.842000,1184.329507,1149.143247
1273.935862,-9326.594869,-1110.308913,-306.438199
1273.936183,-8068.244768,-2294.638420,-1762.019645
1273.936503,-8512.368333,0.000000,-1915.238745
1273.936824,-10584.944971,1924.535449,1532.190996
1273.937145,-11103.089130,1036.288319,3447.429741
1273.937466,-9622.677246,148.041188,2911.162892
1273.937787,-10140.821405,-962.267725,2221.676944
1273.938107,-9770.718434,-1776.494261,2451.505594
1273.938428,-10436.903782,-2812.782580,2298.286494
1273.938749,-8734.430116,-3256.906145,842.705048
1273.939070,-7476.080014,-1184.329507,-1225.752797
1273.939391,-9030.512492,518.144159,0.000000
1273.939711,-9474.636058,1702.473667,766.095498
1273.940032,-9548.656652,1480.411884,536.266849
1273.940353,-9696.697840,1406.391290,383.047749
1273.940674,-10732.986159,1110.308913,1378.971896
1273.940995,-10436.903782,0.000000,2068.457845
1273.941315,-9548.656652,-2072.576638,689.485948
1273.941636,-8734.430116,-1850.514855,-1378.971896
1273.941957,-8438.347739,1184.329507,-842.705048
1273.942278,-9548.656652,2368.659014,995.924147
1273.942599,-9474.636058,1850.514855,1991.848295
1273.942919,-9252.574275,0.000000,1378.971896
1273.943240,-8956.491898,-814.226536,689.485948
1273.943561,-9400.615463,-1036.288319,1991.848295
1273.943882,-10288.862594,-3849.070898,2911.162892
1273.944203,-8734.430116,-3552.988522,2145.067394
1273.944523,-9104.533087,-1554.432478,612.876398
1273.944844,-9326.594869,370.102971,459.657299
1273.945165,-9474.636058,1036.288319,995.924147
1273.945486,-9474.636058,1110.308913,383.047749
1273.945807,-9252.574275,1850.514855,-612.876398
1273.946127,-10362.883188,2368.659014,536.266849
1273.946448,-10732.986159,0.000000,2145.067394
1273.946769,-9326.594869,-2590.720797,1149.143247
1273.947090,-9326.594869,-2812.782580,-306.438199
1273.947411,-9474.636058,-666.185348,536.266849
1273.947731,-10436.903782,0.000000,1762.019645
1273.948052,-9844.739029,148.041188,3447.429741
1273.948373,-9696.697840,-814.226536,1991.848295
1273.948694,-9770.718434,-148.041188,1685.410096
1273.949015,-10140.821405,-1776.494261,2068.457845
1273.949335,-9844.739029,-3849.070898,1685.410096
1273.949656,-7920.203579,-2442.679609,689.485948
1273.949977,-9622.677246,-2146.597232,-306.438199
1273.950298,-9326.594869,1776.494261,995.924147
1273.950619,-10658.965565,814.226536,1838.629195
1273.950939,-10436.903782,1702.473667,919.314598
1273.951260,-9548.656652,2294.638420,-842.705048
1273.951581,-10807.006753,2812.782580,229.828649
1273.951902,-10584.944971,1702.473667,919.314598
1273.952223,-9178.553681,-1184.329507,0.000000
1273.952543,-9030.512492,-1480.411884,-1149.143247
1273.952864,-8216.285956,-518.144159,-1302.362347
1273.953185,-9696.697840,1110.308913,536.266849
1273.953506,-10436.903782,592.164754,2451.505594
1273.953827,-9400.615463,0.000000,2068.457845
1273.954147,-9178.553681,-888.247130,1762.019645
1273.954468,-10584.944971,-2072.576638,2681.334243
1273.954789,-9326.594869,-3404.947333,2374.896044
1273.955110,-9326.594869,-3552.988522,995.924147
1273.955431,-9178.553681,-1850.514855,153.219100
1273.955751,-9178.553681,222.061783,919.314598
1273.956072,-9918.759623,296.082377,1991.848295
1273.956393,-9400.615463,518.144159,612.876398
1273.956714,-9474.636058,814.226536,153.219100
1273.957035,-9622.677246,888.247130,919.314598
1273.957355,-9844.739029,-666.185348,1225.752797
1273.957676,-8808.450710,-1850.514855,383.047749
1273.957997,-8068.244768,-888.247130,-383.047749
1273.958318,-9844.739029,-296.082377,766.095498
1273.958639,-9844.739029,1702.473667,2834.553343
1273.958959,-11177.109724,0.000000,3600.648841
1273.959280,-9844.739029,-1776.494261,2528.115143
1273.959601,-9178.553681,-740.205942,2145.067394
1273.959922,-11177.109724,-2146.597232,3600.648841
1273.960243,-8438.347739,-2664.741391,4213.525239
1273.960563,-9178.553681,-2812.782580,1455.581446
1273.960884,-8660.409521,-1628.453072,612.876398
1273.961205,-9030.512492,1332.370696,766.095498
1273.961526,-10510.924376,1850.514855,919.314598
1273.961847,-9770.718434,2072.576638,1225.752797
1273.962167,-9770.718434,1776.494261,76.609550
1273.962488,-10732.986159,1406.391290,1072.533697
1273.962809,-10436.903782,-370.102971,1225.752797
1273.963130,-9696.697840,-2368.659014,612.876398
1273.963451,-8808.450710,-2664.741391,-689.485948
1273.963771,-9696.697840,-518.144159,-306.438199
1273.964092,-10140.821405,740.205942,1378.971896
1273.964413,-9622.677246,1184.329507,1225.752797
1273.964734,-9696.697840,740.205942,1685.410096
1273.965055,-9474.636058,0.000000,1455.581446
1273.965375,-10066.800811,-1702.473667,1838.629195
1273.965696,-9548.656652,-3627.009116,1378.971896
1273.966017,-8586.388927,-4589.276840,229.828649
1273.966338,-9104.533087,-1998.556043,0.000000
1273.966659,-9326.594869,888.247130,995.924147
1273.966979,-10214.842000,1702.473667,1378.971896
1273.967300,-9696.697840,1702.473667,766.095498
1273.967621,-9474.636058,2220.617826,0.000000
1273.967942,-10362.883188,1776.494261,842.705048
1273.968263,-10436.903782,0.000000,1915.238745
1273.968583,-9178.553681,-1924.535449,766.095498
1273.968904,-8290.306550,-1332.370696,-1608.800546
1273.969225,-9030.512492,1036.288319,-766.095498
1273.969546,-9696.697840,2220.617826,1838.629195
1273.969867,-9696.697840,1110.308913,2834.553343
1273.970187,-9622.677246,0.000000,1685.410096
1273.970508,-9252.574275,-222.061783,1685.410096
1273.970829,-10362.883188,-1480.411884,2528.115143
1273.971150,-9326.594869,-2738.761985,2681.334243
1273.971471,-8216.285956,-3330.926739,1149.143247
1273.971791,-8068.244768,-1924.535449,229.828649
1273.972112,-9030.512492,-444.123565,1072.533697
1273.972433,-8956.491898,0.000000,1302.362347
1273.972754,-9178.553681,592.164754,2451.505594
1273.973075,-9474.636058,2590.720797,76.609550
1273.973395,-10807.006753,2442.679609,1378.971896
1273.973716,-9918.759623,518.144159,1072.533697
1273.974037,-9474.636058,-1184.329507,1378.971896
1273.974358,-9474.636058,-1628.453072,-306.438199
1273.974679,-10214.842000,-518.144159,1455.581446
1273.974999,-10584.944971,518.144159,3064.381992
1273.975320,-10584.944971,592.164754,3753.867940
1273.975641,-9918.759623,-222.061783,2604.724693
1273.975962,-9474.636058,518.144159,2145.067394
1273.976283,-9696.697840,-888.247130,2451.505594
1273.976603,-9400.615463,-2220.617826,1991.848295
1273.976924,-8290.306550,-3108.864956,459.657299
1273.977245,-8734.430116,-1850.514855,-383.047749
1273.977566,-9770.718434,-740.205942,536.266849
1273.977887,-9696.697840,1480.411884,995.924147
1273.978207,-10881.027347,1628.453072,1378.971896
1273.978528,-10510.924376,2960.823768,842.705048
1273.978849,-11325.150913,2590.720797,1532.190996
1273.979170,-11103.089130,-296.082377,919.314598
1273.979491,-9474.636058,-2072.576638,-766.095498
1273.979811,-8734.430116,-2146.597232,-2604.724693
1273.980132,-9474.636058,-148.041188,-1072.533697
1273.980453,-8956.491898,814.226536,-229.828649
1273.980774,-9770.718434,444.123565,1149.143247
1273.981095,-8956.491898,0.000000,612.876398
1273.981415,-9474.636058,0.000000,1455.581446
1273.981736,-10881.027347,-1184.329507,2987.772442
1273.982057,-10214.842000,-4071.132681,3600.648841
1273.982378,-8660.409521,-4663.297435,1532.190996
1273.982699,-8808.450710,-2886.803174,1378.971896
1273.983020,-9548.656652,-1332.370696,1838.629195
1273.983340,-9030.512492,-592.164754,1762.019645
1273.983661,-8660.409521,296.082377,0.000000
1273.983982,-8512.368333,1850.514855,-1838.629195
1273.984303,-9252.574275,2886.803174,-306.438199
1273.984624,-9770.718434,222.061783,76.609550
1273.984944,-8882.471304,-1628.453072,-459.657299
1273.985265,-8364.327145,-1554.432478,-1378.971896
1273.985586,-9622.677246,0.000000,689.485948
1273.985907,-10436.903782,222.061783,3370.820191
1273.986228,-10807.006753,-370.102971,3830.477490
1273.986548,-9622.677246,-814.226536,2987.772442
1273.986869,-9252.574275,-888.247130,1991.848295
1273.987190,-10066.800811,-1258.350101,2604.724693
1273.987511,-9326.594869,-2368.659014,2145.067394
1273.987832,-7994.224174,-2812.782580,459.657299
1273.988152,-8882.471304,-1702.473667,536.266849
1273.988473,-9104.533087,-222.061783,459.657299
1273.988794,-9696.697840,0.000000,1455.581446
1273.989115,-10807.006753,740.205942,1302.362347
1273.989436,-10955.047942,2220.617826,1608.800546
1273.989756,-11547.212695,1924.535449,2528.115143
1273.990077,-10732.986159,-296.082377,1838.629195
1273.990398,-9770.718434,-1850.514855,0.000000
1273.990719,-9622.677246,-962.267725,-995.924147
1273.991040,-9104.533087,1332.370696,76.609550
1273.991360,-10214.842000,1554.432478,2221.676944
1273.991681,-9326.594869,-296.082377,3140.991542
1273.992002,-8808.450710,-592.164754,919.314598
1273.992323,-9992.780217,-1776.494261,1149.143247
1273.992644,-9548.656652,-1776.494261,2528.115143
1273.992964,-9400.615463,-3108.864956,2451.505594
1273.993285,-8660.409521,-2220.617826,1072.533697
1273.993606,-9252.574275,-370.102971,536.266849
1273.993927,-10066.800811,666.185348,1225.752797
1273.994248,-9992.780217,1036.288319,1608.800546
1273.994568,-10140.821405,962.267725,536.266849
1273.994889,-10584.944971,2368.659014,306.438199
1273.995210,-10658.965565,2146.597232,842.705048
1273.995531,-9844.739029,222.061783,842.705048
1273.995851,-8068.244768,-740.205942,-2145.067394
1273.996172,-7772.162391,-740.205942,-2374.896044
1273.996493,-8290.306550,814.226536,-995.924147
1273.996814,-9474.636058,1258.350101,766.095498
1273.997134,-9474.636058,296.082377,1378.971896
1273.997455,-8512.368333,-296.082377,919.314598
1273.997776,-9918.759623,-444.123565,2145.067394
1273.998097,-10436.903782,-1998.556043,3907.087040
1273.998417,-9918.759623,-3627.009116,3294.210641
1273.998738,-8660.409521,-2738.761985,2298.286494
1273.999059,-9252.574275,-888.247130,1072.533697
1273.999380,-9770.718434,1110.308913,1685.410096
1273.999701,-9622.677246,1628.453072,1915.238745
1274.000021,-9030.512492,1998.556043,1225.752797
1274.000342,-9770.718434,2368.659014,0.000000
1274.000663,-10214.842000,888.247130,1762.019645
1274.000984,-10288.862594,-1480.411884,2145.067394
1274.001304,-9770.718434,-2738.761985,689.485948
1274.001625,-9474.636058,-1258.350101,-153.219100
1274.001946,-9622.677246,1110.308913,1072.533697
1274.002267,-10436.903782,1998.556043,2528.115143
1274.002587,-9400.615463,1480.411884,2374.896044
1274.002908,-9622.677246,0.000000,1378.971896
1274.003229,-9844.739029,-888.247130,1532.190996
1274.003550,-9548.656652,-2516.700203,1532.190996
1274.003870,-9326.594869,-4145.153275,1685.410096
1274.004191,-8586.388927,-3182.885551,2221.676944
1274.004512,-9770.718434,-962.267725,995.924147
1274.004833,-10362.883188,148.041188,1838.629195
1274.005154,-10066.800811,444.123565,1838.629195
1274.005474,-9992.780217,444.123565,919.314598
1274.005795,-10807.006753,1406.391290,842.705048
1274.006116,-9992.780217,740.205942,842.705048
1274.006437,-9548.656652,-888.247130,229.828649
1274.006757,-8216.285956,-1480.411884,-1762.019645
1274.007078,-8068.244768,0.000000,-2911.162892
1274.007399,-9992.780217,2442.679609,0.000000
1274.007720,-10510.924376,2294.638420,1838.629195
1274.008040,-10362.883188,518.144159,2145.067394
1274.008361,-9918.759623,-1332.370696,1762.019645
1274.008682,-10658.965565,-1702.473667,1915.238745
1274.009003,-10510.924376,-3256.906145,2451.505594
1274.009323,-8808.450710,-3404.947333,1532.190996
1274.009644,-8068.244768,-2812.782580,-229.828649
1274.009965,-8290.306550,-444.123565,-459.657299
1274.010286,-9252.574275,666.185348,229.828649
1274.010607,-9474.636058,666.185348,306.438199
1274.010927,-9326.594869,740.205942,0.000000
1274.011248,-9918.759623,740.205942,1225.752797
1274.011569,-10436.903782,0.000000,1302.362347
1274.011890,-9178.553681,-962.267725,1608.800546
1274.012210,-9400.615463,-2886.803174,-612.876398
1274.012531,-7105.977043,-148.041188,-1225.752797
1274.012852,-9474.636058,1702.473667,229.828649
1274.013173,-9548.656652,2220.617826,1762.019645
1274.013493,-9326.594869,1406.391290,2298.286494
1274.013814,-9770.718434,-222.061783,1915.238745
1274.014135,-9030.512492,-1184.329507,1762.019645
1274.014456,-10140.821405,-3330.926739,3217.601092
1274.014776,-9474.636058,-3997.112087,3370.820191
1274.015097,-9030.512492,-3108.864956,2221.676944
1274.015418,-9918.759623,-222.061783,2451.505594
1274.015739,-9918.759623,1258.350101,2911.162892
1274.016060,-10214.842000,1702.473667,2374.896044
1274.016380,-9992.780217,1554.432478,1685.410096
1274.016701,-10510.924376,1406.391290,1225.752797
1274.017022,-10732.986159,-222.061783,1838.629195
1274.017343,-9474.636058,-2812.782580,689.485948
1274.017663,-8956.491898,-3182.885551,-689.485948
1274.017984,-9030.512492,-296.082377,-1072.533697
1274.018305,-11325.150913,1628.453072,1072.533697
1274.018626,-10658.965565,2664.741391,2911.162892
1274.018946,-10214.842000,1406.391290,2374.896044
1274.019267,-10362.883188,-962.267725,1685.410096
1274.019588,-9992.780217,-1480.411884,2298.286494
1274.019909,-10362.883188,-3627.009116,2451.505594
1274.020230,-8808.450710,-4293.194464,2068.457845
1274.020550,-7402.059420,-3552.988522,0.000000
1274.020871,-8882.471304,-1036.288319,0.000000
1274.021192,-9326.594869,222.061783,919.314598
1274.021513,-9548.656652,1110.308913,995.924147
1274.021833,-10436.903782,2294.638420,536.266849
1274.022154,-10214.842000,2738.761985,536.266849
1274.022475,-9918.759623,1998.556043,229.828649
1274.022796,-9474.636058,-1998.556043,0.000000
1274.023116,-8734.430116,-2960.823768,-1302.362347
1274.023437,-7920.203579,-666.185348,-2221.676944
1274.023758,-9252.574275,2220.617826,0.000000
1274.024079,-10288.862594,2886.803174,1685.410096
1274.024399,-9252.574275,1924.535449,1838.629195
1274.024720,-9252.574275,-148.041188,1072.533697
1274.025041,-9104.533087,-1628.453072,995.924147
1274.025362,-9474.636058,-4071.132681,1532.190996
1274.025683,-9252.574275,-4737.318029,1455.581446
1274.026003,-7994.224174,-3330.926739,459.657299
1274.026324,-9326.594869,-740.205942,0.000000
1274.026645,-8142.265362,444.123565,153.219100
1274.026966,-9622.677246,2072.576638,689.485948
1274.027286,-9992.780217,2590.720797,919.314598
1274.027607,-10214.842000,2516.700203,1072.533697
1274.027928,-10436.903782,518.144159,2068.457845
1274.028249,-10066.800811,-2368.659014,1915.238745
1274.028569,-8734.430116,-3034.844362,0.000000
1274.028890,-9400.615463,-1406.391290,689.485948
1274.029211,-9770.718434,814.226536,2298.286494
1274.029532,-11177.109724,888.247130,4290.134789
1274.029852,-9770.718434,0.000000,2604.724693
1274.030173,-9548.656652,0.000000,1455.581446
1274.030494,-9918.759623,0.000000,1762.019645
1274.030815,-10436.903782,-1110.308913,2834.553343
1274.031136,-9770.718434,-2886.803174,2145.067394
1274.031456,-8882.471304,-2590.720797,306.438199
1274.031777,-9400.615463,-1184.329507,0.000000
1274.032098,-10658.965565,1258.350101,766.095498
1274.032419,-10288.862594,2146.597232,1225.752797
1274.032739,-10732.986159,3034.844362,306.438199
1274.033060,-10436.903782,2886.803174,766.095498
1274.033381,-9918.759623,666.185348,766.095498
1274.033702,-9400.615463,-2886.803174,612.876398
1274.034022,-9474.636058,-3849.070898,-766.095498
1274.034343,-8734.430116,-1998.556043,-689.485948
1274.034664,-9326.594869,962.267725,1149.143247
1274.034985,-8956.491898,2294.638420,3064.381992
1274.035305,-9622.677246,1480.411884,2451.505594
1274.035626,-9474.636058,148.041188,1149.143247
1274.035947,-8808.450710,-962.267725,1225.752797
1274.036268,-9104.533087,-2960.823768,1225.752797
1274.036589,-8068.244768,-3552.988522,459.657299
1274.036909,-8290.306550,-2294.638420,-229.828649
1274.037230,-8660.409521,74.020594,0.000000
1274.037551,-9474.636058,814.226536,995.924147
1274.037872,-9326.594869,1036.288319,1302.362347
1274.038192,-9992.780217,962.267725,0.000000
1274.038513,-10362.883188,2368.659014,919.314598
1274.038834,-11251.130318,888.247130,1991.848295
1274.039155,-9548.656652,-1258.350101,2681.334243
1274.039475,-8882.471304,-3034.844362,-612.876398
1274.039796,-8660.409521,-1332.370696,-383.047749
1274.040117,-9400.615463,-148.041188,1225.752797
1274.040438,-10362.883188,0.000000,3294.210641
1274.040758,-9474.636058,-962.267725,2068.457845
1274.041079,-8290.306550,-962.267725,766.095498
1274.041400,-10140.821405,-1036.288319,1608.800546
1274.041721,-9548.656652,-1702.473667,2451.505594
1274.042042,-9178.553681,-2294.638420,1685.410096
1274.042362,-8956.491898,-1628.453072,1302.362347
1274.042683,-9622.677246,-296.082377,1225.752797
1274.043004,-11103.089130,74.020594,2757.943793
1274.043325,-11843.295072,2072.576638,4136.915689
1274.043645,-10658.965565,222.061783,2298.286494
1274.043966,-10807.006753,814.226536,1915.238745
1274.044287,-10955.047942,0.000000,2451.505594
1274.044608,-9622.677246,-2146.597232,1302.362347
1274.044928,-8512.368333,-2886.803174,-842.705048
1274.045249,-8290.306550,-444.123565,-1378.971896
1274.045570,-8586.388927,1924.535449,0.000000
1274.045891,-9992.780217,2294.638420,1685.410096
1274.046211,-10436.903782,962.267725,2451.505594
1274.046532,-9326.594869,296.082377,1225.752797
1274.046853,-10510.924376,-1332.370696,1838.629195
1274.047174,-10658.965565,-2368.659014,2451.505594
1274.047495,-9548.656652,-3775.050304,1838.629195
1274.047815,-9400.615463,-1850.514855,-306.438199
1274.048136,-8956.491898,962.267725,-153.219100
1274.048457,-9326.594869,1702.473667,76.609550
1274.048778,-9622.677246,1628.453072,536.266849
1274.049098,-9474.636058,1702.473667,-153.219100
1274.049419,-9918.759623,888.247130,459.657299
1274.049740,-9844.739029,-1332.370696,1149.143247
1274.050061,-9030.512492,-2960.823768,919.314598
1274.050381,-8438.347739,-3256.906145,306.438199
1274.050702,-9030.512492,-592.164754,-153.219100
1274.051023,-9474.636058,1406.391290,1302.362347
1274.051344,-10066.800811,1554.432478,1915.238745
1274.051665,-8956.491898,1332.370696,2221.676944
1274.051985,-9474.636058,296.082377,1072.533697
1274.052306,-9770.718434,-296.082377,1378.971896
1274.052627,-9770.718434,-2368.659014,2145.067394
1274.052948,-8290.306550,-3627.009116,536.266849
1274.053268,-8512.368333,-1850.514855,0.000000
1274.053589,-9696.697840,370.102971,766.095498
1274.053910,-9844.739029,2072.576638,1762.019645
1274.054231,-10436.903782,2220.617826,1455.581446
1274.054551,-9400.615463,1998.556043,1608.800546
1274.054872,-10881.027347,1480.411884,2145.067394
1274.055193,-11251.130318,-814.226536,2834.553343
1274.055514,-10066.800811,-2516.700203,1915.238745
1274.055834,-8882.471304,-3182.885551,459.657299
1274.056155,-8808.450710,-740.205942,0.000000
1274.056476,-9918.759623,1110.308913,1991.848295
1274.056797,-9992.780217,962.267725,1991.848295
1274.057118,-8586.388927,814.226536,689.485948
1274.057438,-8586.388927,0.000000,-306.438199
1274.057759,-9770.718434,0.000000,1302.362347
1274.058080,-10658.965565,-2220.617826,2298.286494
1274.058401,-9770.718434,-2368.659014,2374.896044
1274.058721,-9992.780217,-1258.350101,1225.752797
1274.059042,-10362.883188,0.000000,1838.629195
1274.059363,-11103.089130,518.144159,2604.724693
1274.059684,-10807.006753,518.144159,1838.629195
1274.060004,-9696.697840,1776.494261,0.000000
1274.060325,-9548.656652,1702.473667,459.657299
1274.060646,-9400.615463,0.000000,76.609550
1274.060967,-9104.533087,-2368.659014,-229.828649
1274.061287,-8438.347739,-2812.782580,-1532.190996
1274.061608,-8734.430116,-592.164754,-919.314598
1274.061929,-10066.800811,740.205942,1532.190996
1274.062250,-10066.800811,370.102971,2451.505594
1274.062571,-9844.739029,0.000000,2298.286494
1274.062891,-10140.821405,-962.267725,995.924147
1274.063212,-9474.636058,-962.267725,1608.800546
1274.063533,-9696.697840,-2442.679609,1685.410096
1274.063854,-8142.265362,-3182.885551,153.219100
1274.064174,-8438.347739,-1702.473667,-1685.410096
1274.064495,-8660.409521,296.082377,-306.438199
1274.064816,-9326.594869,592.164754,383.047749
1274.065137,-9770.718434,740.205942,612.876398
1274.065457,-9992.780217,1184.329507,306.438199
1274.065778,-9992.780217,1850.514855,1302.362347
1274.066099,-10955.047942,0.000000,2604.724693
1274.066420,-8808.450710,-1480.411884,1685.410096
1274.066740,-9252.574275,-3034.844362,-1072.533697
1274.067061,-8438.347739,962.267725,-995.924147
1274.067382,-9918.759623,1480.411884,1762.019645
1274.067703,-10066.800811,0.000000,2221.676944
1274.068024,-9252.574275,0.000000,1915.238745
1274.068344,-10288.862594,-814.226536,1455.581446
1274.068665,-9400.615463,-888.247130,2068.457845
1274.068986,-10955.047942,-2812.782580,3370.820191
1274.069307,-9548.656652,-2886.803174,2374.896044
1274.069627,-9474.636058,-1554.432478,1072.533697
1274.069948,-9918.759623,0.000000,766.095498
1274.070269,-9326.594869,222.061783,1302.362347
1274.070590,-9622.677246,222.061783,306.438199
1274.070910,-9770.718434,1628.453072,229.828649
1274.071231,-10510.924376,2516.700203,2604.724693
1274.071552,-10584.944971,222.061783,2298.286494
1274.071873,-9548.656652,-2442.679609,1302.362347
1274.072193,-9474.636058,-2886.803174,-306.438199
1274.072514,-9548.656652,-444.123565,76.609550
1274.072835,-10362.883188,1406.391290,2221.676944
1274.073156,-10436.903782,1406.391290,2911.162892
1274.073477,-8734.430116,222.061783,1302.362347
1274.073797,-8882.471304,74.020594,766.095498
1274.074118,-9918.759623,-962.267725,2298.286494
1274.074439,-9770.718434,-3404.947333,2145.067394
1274.074760,-8290.306550,-4515.256246,-229.828649
1274.075080,-7254.018232,-1776.494261,459.657299
1274.075401,-9992.780217,962.267725,689.485948
1274.075722,-9770.718434,1924.535449,2451.505594
1274.076043,-9474.636058,148.041188,0.000000
1274.076363,-9770.718434,2072.576638,0.000000
1274.076684,-9696.697840,1332.370696,-306.438199
1274.077005,-11029.068536,740.205942,2145.067394
1274.077326,-8882.471304,-1110.308913,536.266849
1274.077646,-8290.306550,-1554.432478,-1838.629195
1274.077967,-8956.491898,962.267725,0.000000
1274.078288,-9696.697840,1258.350101,1838.629195
1274.078609,-10510.924376,666.185348,2911.162892
1274.078930,-10066.800811,-148.041188,2374.896044
1274.079250,-8586.388927,222.061783,842.705048
1274.079571,-10066.800811,-962.267725,1838.629195
1274.079892,-9696.697840,-2664.741391,2451.505594
1274.080213,-8364.327145,-3552.988522,766.095498
1274.080533,-9030.512492,-2442.679609,0.000000
1274.080854,-9326.594869,-222.061783,0.000000
1274.081175,-9474.636058,814.226536,1378.971896
1274.081496,-10214.842000,1628.453072,1455.581446
1274.081816,-10214.842000,1998.556043,536.266849
1274.082137,-10436.903782,1924.535449,1225.752797
1274.082458,-10881.027347,-296.082377,766.095498
1274.082779,-9622.677246,-3108.864956,459.657299
1274.083100,-8956.491898,-2516.700203,-536.266849
1274.083420,-9844.739029,-740.205942,536.266849
1274.083741,-9474.636058,1554.432478,2221.676944
1274.084062,-9696.697840,444.123565,2221.676944
1274.084383,-9548.656652,-296.082377,1838.629195
1274.084703,-9474.636058,-518.144159,1762.019645
1274.085024,-10510.924376,-1258.350101,2911.162892
1274.085345,-9844.739029,-2738.761985,2528.115143
1274.085666,-8660.409521,-2442.679609,1149.143247
1274.085986,-9030.512492,-1406.391290,0.000000
1274.086307,-9474.636058,666.185348,766.095498
1274.086628,-9696.697840,888.247130,766.095498
1274.086949,-9622.677246,1406.391290,0.000000
1274.087269,-9770.718434,1850.514855,-689.485948
1274.087590,-10658.965565,2516.700203,536.266849
1274.087911,-11473.192101,0.000000,2068.457845
1274.088232,-9548.656652,-2146.597232,536.266849
1274.088553,-9030.512492,-2368.659014,-995.924147
1274.088873,-9326.594869,0.000000,-383.047749
1274.089194,-10288.862594,1184.329507,2374.896044
1274.089515,-10584.944971,0.000000,2681.334243
1274.089836,-8882.471304,222.061783,1225.752797
1274.090156,-9918.759623,-592.164754,1072.533697
1274.090477,-9104.533087,-962.267725,1072.533697
1274.090798,-9696.697840,-2072.576638,1685.410096
1274.091119,-8586.388927,-3701.029710,689.485948
1274.091439,-7698.141797,-740.205942,-536.266849
1274.091760,-9918.759623,-370.102971,612.876398
1274.092081,-9696.697840,-296.082377,1685.410096
1274.092402,-9992.780217,518.144159,766.095498
1274.092722,-10214.842000,1480.411884,766.095498
1274.093043,-10658.965565,1850.514855,1378.971896
1274.093364,-10584.944971,0.000000,1608.800546
1274.093685,-9474.636058,-2294.638420,459.657299
1274.094006,-7772.162391,-2220.617826,-1532.190996
1274.094326,-8956.491898,518.144159,306.438199
1274.094647,-10214.842000,592.164754,2068.457845
1274.094968,-9918.759623,814.226536,3217.601092
1274.095289,-9326.594869,-296.082377,1685.410096
1274.095609,-9474.636058,-444.123565,1608.800546
1274.095930,-10140.821405,-1702.473667,3140.991542
1274.096251,-9030.512492,-3404.947333,1225.752797
1274.096572,-7550.100608,-3404.947333,0.000000
1274.096892,-7550.100608,-1554.432478,-1532.190996
1274.097213,-8808.450710,1036.288319,0.000000
1274.097534,-10140.821405,1184.329507,1378.971896
1274.097855,-10140.821405,1850.514855,1608.800546
1274.098176,-11547.212695,1332.370696,1762.019645
1274.098496,-11547.212695,1036.288319,3064.381992
1274.098817,-11917.315666,-1554.432478,3294.210641
1274.099138,-11029.068536,-2072.576638,1225.752797
1274.099459,-9178.553681,-1332.370696,229.828649
1274.099779,-9178.553681,-222.061783,76.609550
1274.100100,-8512.368333,518.144159,306.438199
1274.100421,-9104.533087,592.164754,229.828649
1274.100742,-8734.430116,1554.432478,-306.438199
1274.101062,-9178.553681,592.164754,919.314598
1274.101383,-10732.986159,-1036.288319,2604.724693
1274.101704,-9696.697840,-3849.070898,1991.848295
1274.102025,-9474.636058,-4071.132681,1225.752797
1274.102346,-9400.615463,-1184.329507,1302.362347
1274.102666,-10288.862594,1628.453072,2221.676944
1274.102987,-10214.842000,2368.659014,2451.505594
1274.103308,-9918.759623,2368.659014,1225.752797
1274.103629,-9844.739029,2146.597232,229.828649
1274.103949,-10362.883188,1184.329507,1072.533697
1274.104270,-10436.903782,-1332.370696,1532.190996
1274.104591,-9252.574275,-2960.823768,306.438199
1274.104912,-8438.347739,-2146.597232,-1225.752797
1274.105232,-8660.409521,370.102971,0.000000
1274.105553,-9844.739029,1554.432478,1225.752797
1274.105874,-9104.533087,1998.556043,1915.238745
1274.106195,-9474.636058,222.061783,459.657299
1274.106516,-8290.306550,-296.082377,612.876398
1274.106836,-9844.739029,-2220.617826,1685.410096
1274.107157,-9178.553681,-3108.864956,1532.190996
1274.107478,-8142.265362,-2220.617826,612.876398
1274.107799,-8216.285956,-888.247130,1762.019645
1274.108119,-9474.636058,370.102971,1532.190996
1274.108440,-9696.697840,740.205942,919.314598
1274.108761,-10140.821405,1554.432478,766.095498
1274.109082,-9770.718434,2146.597232,842.705048
1274.109402,-10955.047942,1998.556043,1685.410096
1274.109723,-10436.903782,-888.247130,1149.143247
1274.110044,-8660.409521,-2590.720797,-766.095498
1274.110365,-9474.636058,-1332.370696,-1149.143247
1274.110686,-9548.656652,444.123565,612.876398
1274.111006,-10214.842000,592.164754,2681.334243
1274.111327,-9992.780217,296.082377,2528.115143
1274.111648,-9326.594869,-592.164754,919.314598
1274.111969,-9178.553681,666.185348,1149.143247
1274.112289,-10362.883188,-1702.473667,2681.334243
1274.112610,-9474.636058,-3923.091493,1838.629195
1274.112931,-8364.327145,-4071.132681,153.219100
1274.113252,-8808.450710,-1998.556043,-1608.800546
1274.113572,-9844.739029,592.164754,995.924147
1274.113893,-10510.924376,1184.329507,1455.581446
1274.114214,-9992.780217,1776.494261,766.095498
1274.114535,-10510.924376,2738.761985,306.438199
1274.114856,-10881.027347,2220.617826,1072.533697
1274.115176,-10807.006753,-370.102971,1378.971896
1274.115497,-9104.533087,-1998.556043,-689.485948
1274.115818,-8660.409521,0.000000,-1915.238745
1274.116139,-8216.285956,1628.453072,612.876398
1274.116459,-9548.656652,2442.679609,1608.800546
1274.116780,-10140.821405,296.082377,1838.629195
1274.117101,-9548.656652,-1110.308913,1302.362347
1274.117422,-9844.739029,-1036.288319,3600.648841
1274.117743,-11177.109724,-2368.659014,3447.429741
1274.118063,-9474.636058,-3182.885551,3140.991542
1274.118384,-8586.388927,-2812.782580,1149.143247
1274.118705,-8216.285956,-962.267725,229.828649
1274.119026,-8734.430116,888.247130,612.876398
1274.119346,-9252.574275,1036.288319,766.095498
1274.119667,-8734.430116,888.247130,0.000000
1274.119988,-8956.491898,1776.494261,0.000000
1274.120309,-9622.677246,370.102971,2604.724693
1274.120629,-9918.759623,-1258.350101,1991.848295
1274.120950,-9474.636058,-2220.617826,1149.143247
1274.121271,-9474.636058,-1184.329507,229.828649
1274.121592,-10510.924376,962.267725,3907.087040
1274.121913,-10807.006753,666.185348,3753.867940
1274.122233,-9474.636058,-148.041188,3447.429741
1274.122554,-9030.512492,-2072.576638,1991.848295
1274.122875,-8438.347739,-2220.617826,1685.410096
1274.123196,-9770.718434,-3775.050304,2987.772442
1274.123516,-8882.471304,-4071.132681,1762.019645
1274.123837,-8586.388927,-3108.864956,1149.143247
1274.124158,-9548.656652,-296.082377,1072.533697
1274.124479,-8882.471304,518.144159,1302.362347
1274.124799,-10807.006753,1036.288319,1455.581446
1274.125120,-9918.759623,1998.556043,689.485948
1274.125441,-10436.903782,1776.494261,0.000000
1274.125762,-10807.006753,814.226536,1455.581446
1274.126083,-9992.780217,-1184.329507,536.266849
1274.126403,-8882.471304,-2146.597232,-1378.971896
1274.126724,-8882.471304,-518.144159,-1838.629195
1274.127045,-9622.677246,1628.453072,0.000000
1274.127366,-10436.903782,2146.597232,2145.067394
1274.127686,-10214.842000,370.102971,1685.410096
1274.128007,-9622.677246,-666.185348,995.924147
1274.128328,-9918.759623,-1628.453072,1915.238745
1274.128649,-9696.697840,-3552.988522,2221.676944
1274.128969,-9030.512492,-3849.070898,1762.019645
1274.129290,-8808.450710,-2812.782580,306.438199
1274.129611,-8438.347739,370.102971,-229.828649
1274.129932,-9548.656652,1332.370696,689.485948
1274.130253,-10214.842000,1258.350101,383.047749
1274.130573,-9474.636058,1702.473667,-229.828649
1274.130894,-10140.821405,1776.494261,0.000000
1274.131215,-10140.821405,1036.288319,536.266849
1274.131536,-10362.883188,-740.205942,842.705048
1274.131856,-9474.636058,-1554.432478,-459.657299
1274.132177,-8956.491898,222.061783,-1149.143247
1274.132498,-10214.842000,2294.638420,1532.190996
1274.132819,-10510.924376,2368.659014,2757.943793
1274.133139,-9474.636058,-296.082377,2451.505594
1274.133460,-8956.491898,-1480.411884,919.314598
1274.133781,-8586.388927,-888.247130,1991.848295
1274.134102,-10140.821405,-1924.535449,4060.306139
1274.134423,-8586.388927,-3034.844362,2451.505594
1274.134743,-8586.388927,-2072.576638,229.828649
1274.135064,-8956.491898,148.041188,766.095498
1274.135385,-9474.636058,962.267725,1532.190996
1274.135706,-10288.862594,1628.453072,2451.505594
1274.136026,-9474.636058,592.164754,1072.533697
1274.136347,-9770.718434,1628.453072,612.876398
1274.136668,-10140.821405,1036.288319,2374.896044
1274.136989,-10436.903782,-1554.432478,1532.190996
1274.137309,-8882.471304,-2368.659014,0.000000
1274.137630,-8956.491898,-814.226536,-306.438199
1274.137951,-9252.574275,1480.411884,612.876398
1274.138272,-9992.780217,1850.514855,2528.115143
1274.138593,-9474.636058,-222.061783,2681.334243
1274.138913,-8956.491898,-1406.391290,1455.581446
1274.139234,-9844.739029,-2294.638420,2145.067394
1274.139555,-10510.924376,-3478.967927,2374.896044
1274.139876,-8808.450710,-3330.926739,2068.457845
1274.140196,-9474.636058,-2294.638420,689.485948
1274.140517,-9474.636058,1480.411884,766.095498
1274.140838,-10807.006753,1702.473667,1378.971896
1274.141159,-9252.574275,1480.411884,-306.438199
1274.141479,-9844.739029,1258.350101,-383.047749
1274.141800,-10288.862594,1406.391290,-306.438199
1274.142121,-10807.006753,74.020594,689.485948
1274.142442,-9548.656652,-1332.370696,-689.485948
1274.142763,-8956.491898,-2442.679609,-1991.848295
1274.143083,-8956.491898,-740.205942,-2068.457845
1274.143404,-10066.800811,1702.473667,536.266849
1274.143725,-10955.047942,1110.308913,1762.019645
1274.144046,-9918.759623,444.123565,2298.286494
1274.144366,-9400.615463,-814.226536,1225.752797
1274.144687,-9696.697840,-1406.391290,1608.800546
1274.145008,-9770.718434,-2368.659014,2145.067394
1274.145329,-9400.615463,-3330.926739,536.266849
1274.145649,-8364.327145,-1628.453072,-383.047749
1274.145970,-9178.553681,148.041188,0.000000
1274.146291,-9474.636058,1480.411884,766.095498
1274.146612,-10066.800811,740.205942,1455.581446
1274.146933,-9030.512492,740.205942,306.438199
1274.147253,-10140.821405,1406.391290,995.924147
1274.147574,-9992.780217,-814.226536,1762.019645
1274.147895,-9770.718434,-2516.700203,2068.457845
1274.148216,-9030.512492,-2738.761985,0.000000
1274.148536,-9104.533087,-592.164754,0.000000
1274.148857,-9622.677246,1924.535449,1838.629195
1274.149178,-9992.780217,2664.741391,3677.258390
1274.149499,-10140.821405,1258.350101,3294.210641
1274.149819,-8956.491898,148.041188,1685.410096
1274.150140,-9770.718434,-1480.411884,1991.848295
1274.150461,-9696.697840,-3182.885551,2834.553343
1274.150782,-8956.491898,-3478.967927,2374.896044
1274.151103,-9326.594869,-2738.761985,1302.362347
1274.151423,-9030.512492,814.226536,1838.629195
1274.151744,-10066.800811,1184.329507,2451.505594
1274.152065,-9696.697840,814.226536,2298.286494
1274.152386,-9474.636058,592.164754,1455.581446
1274.152706,-10732.986159,370.102971,1378.971896
1274.153027,-10214.842000,-888.247130,1915.238745
1274.153348,-9696.697840,-2738.761985,689.485948
1274.153669,-7846.182985,-3701.029710,1072.533697
1274.153989,-8882.471304,-1184.329507,-995.924147
1274.154310,-10140.821405,1332.370696,1072.533697
1274.154631,-10436.903782,1406.391290,2298.286494
1274.154952,-9548.656652,518.144159,1762.019645
1274.155273,-9770.718434,-518.144159,995.924147
1274.155593,-9844.739029,-740.205942,1455.581446
1274.155914,-9992.780217,-2368.659014,1608.800546
1274.156235,-9400.615463,-3330.926739,536.266849
1274.156556,-7698.141797,-1628.453072,-919.314598
1274.156876,-8512.368333,-148.041188,-1378.971896
1274.157197,-9252.574275,740.205942,-766.095498
1274.157518,-9326.594869,1776.494261,-229.828649
1274.157839,-9326.594869,2368.659014,-689.485948
1274.158159,-10807.006753,2220.617826,766.095498
1274.158480,-11547.212695,518.144159,2451.505594
1274.158801,-10732.986159,-1924.535449,2298.286494
1274.159122,-9770.718434,-2220.617826,-536.266849
1274.159443,-8956.491898,-444.123565,0.000000
1274.159763,-10066.800811,962.267725,1225.752797
1274.160084,-9400.615463,2072.576638,2068.457845
1274.160405,-9326.594869,-370.102971,306.438199
1274.160726,-7624.121203,74.020594,-153.219100
1274.161046,-9178.553681,-592.164754,919.314598
1274.161367,-10140.821405,-1924.535449,2451.505594
1274.161688,-9474.636058,-2886.803174,1838.629195
1274.162009,-9104.533087,-2738.761985,1838.629195
1274.162329,-9770.718434,0.000000,1378.971896
1274.162650,-10288.862594,592.164754,2068.457845
1274.162971,-10436.903782,1110.308913,2068.457845
1274.163292,-9400.615463,1480.411884,919.314598
1274.163613,-9770.718434,1998.556043,995.924147
1274.163933,-10066.800811,444.123565,2298.286494
1274.164254,-9548.656652,-1480.411884,2221.676944
1274.164575,-9474.636058,-2738.761985,919.314598
1274.164896,-9770.718434,-740.205942,1762.019645
1274.165216,-10510.924376,-222.061783,3753.867940
1274.165537,-10066.800811,-444.123565,4136.915689
1274.165858,-9844.739029,-1110.308913,3370.820191
1274.166179,-7402.059420,-1258.350101,1378.971896
1274.166500,-9178.553681,-962.267725,1762.019645
1274.166820,-8734.430116,-1184.329507,1762.019645
1274.167141,-8290.306550,-2590.720797,0.000000
1274.167462,-7698.141797,-1702.473667,-1302.362347
1274.167783,-9474.636058,296.082377,0.000000
1274.168103,-9844.739029,888.247130,766.095498
1274.168424,-10288.862594,518.144159,919.314598
1274.168745,-10732.986159,1258.350101,995.924147
1274.169066,-10288.862594,1258.350101,536.266849
1274.169386,-11177.109724,296.082377,1608.800546
1274.169707,-10436.903782,-666.185348,766.095498
1274.170028,-9104.533087,-1628.453072,-1838.629195
1274.170349,-9844.739029,962.267725,-2528.115143
1274.170670,-9622.677246,1628.453072,-229.828649
1274.170990,-9622.677246,1850.514855,536.266849
1274.171311,-9400.615463,148.041188,76.609550
1274.171632,-8882.471304,-518.144159,766.095498
1274.171953,-9770.718434,-1628.453072,842.705048
1274.172273,-10584.944971,-2812.782580,1149.143247
1274.172594,-9474.636058,-2442.679609,153.219100
1274.172915,-8734.430116,0.000000,-536.266849
1274.173236,-9844.739029,1998.556043,459.657299
1274.173556,-10288.862594,2220.617826,1302.362347
1274.173877,-9844.739029,518.144159,536.266849
1274.174198,-9178.553681,148.041188,-306.438199
1274.174519,-9844.739029,666.185348,766.095498
1274.174840,-10288.862594,-666.185348,1762.019645
1274.175160,-9474.636058,-2294.638420,766.095498
1274.175481,-8216.285956,-1776.494261,-383.047749
1274.175802,-9178.553681,370.102971,-383.047749
1274.176123,-9696.697840,1924.535449,1838.629195
1274.176443,-10658.965565,592.164754,3217.601092
1274.176764,-9918.759623,-814.226536,2451.505594
1274.177085,-8808.450710,-1554.432478,1378.971896
1274.177406,-9548.656652,-2368.659014,2451.505594
1274.177726,-9844.739029,-2516.700203,3294.210641
1274.178047,-9770.718434,-3034.844362,2987.772442
1274.178368,-8734.430116,-962.267725,1072.533697
1274.178689,-9474.636058,888.247130,536.266849
1274.179010,-9622.677246,1036.288319,1991.848295
1274.179330,-8956.491898,1036.288319,1685.410096
1274.179651,-9548.656652,666.185348,383.047749
1274.179972,-9474.636058,962.267725,1838.629195
1274.180293,-10288.862594,-1406.391290,2451.505594
1274.180613,-9400.615463,-3256.906145,1915.238745
1274.180934,-9326.594869,-2516.700203,536.266849
1274.181255,-9622.677246,296.082377,1225.752797
1274.181576,-10510.924376,1406.391290,2834.553343
1274.181896,-10658.965565,962.267725,3217.601092
1274.182217,-9844.739029,-296.082377,1838.629195
1274.182538,-9474.636058,-1036.288319,1302.362347
1274.182859,-10066.800811,-1406.391290,2604.724693
1274.183180,-9474.636058,-3552.988522,1532.190996
1274.183500,-8882.471304,-3552.988522,229.828649
1274.183821,-8364.327145,-1258.350101,-459.657299
1274.184142,-9992.780217,962.267725,612.876398
1274.184463,-10214.842000,1998.556043,1608.800546
1274.184783,-10288.862594,1480.411884,766.095498
1274.185104,-9844.739029,1332.370696,-153.219100
1274.185425,-10510.924376,1184.329507,383.047749
1274.185746,-10362.883188,-1480.411884,1762.019645
1274.186066,-9252.574275,-2738.761985,-612.876398
1274.186387,-8512.368333,-2146.597232,-1991.848295
1274.186708,-8956.491898,740.205942,-1149.143247
1274.187029,-9918.759623,1998.556043,2068.457845
1274.187350,-10214.842000,1258.350101,1762.019645
1274.187670,-9622.677246,0.000000,612.876398
1274.187991,-9474.636058,-666.185348,536.266849
1274.188312,-9918.759623,-1406.391290,1608.800546
1274.188633,-9770.718434,-2072.576638,1915.238745
1274.188953,-9104.533087,-1998.556043,842.705048
1274.189274,-8660.409521,-370.102971,-229.828649
1274.189595,-9474.636058,1406.391290,459.657299
1274.189916,-8956.491898,518.144159,689.485948
1274.190236,-8882.471304,222.061783,536.266849
1274.190557,-9030.512492,222.061783,0.000000
1274.190878,-9992.780217,814.226536,1302.362347
1274.191199,-9474.636058,-296.082377,2451.505594
1274.191520,-9326.594869,-2442.679609,1532.190996
1274.191840,-8808.450710,-2146.597232,-383.047749
1274.192161,-9030.512492,222.061783,383.047749
1274.192482,-10066.800811,1184.329507,2681.334243
1274.192803,-10066.800811,444.123565,2757.943793
1274.193123,-9178.553681,-518.144159,2068.457845
1274.193444,-9474.636058,-1702.473667,1225.752797
1274.193765,-9696.697840,-1998.556043,2451.505594
1274.194086,-9918.759623,-2738.761985,1838.629195
1274.194406,-9104.533087,-2664.741391,1302.362347
1274.194727,-9030.512492,-666.185348,0.000000
1274.195048,-9770.718434,1776.494261,766.095498
1274.195369,-10584.944971,3182.885551,2298.286494
1274.195690,-9918.759623,1776.494261,612.876398
1274.196010,-9918.759623,1998.556043,306.438199
1274.196331,-10436.903782,1776.494261,842.705048
1274.196652,-10658.965565,0.000000,995.924147
1274.196973,-10066.800811,-1850.514855,153.219100
1274.197293,-9030.512492,-1406.391290,-995.924147
1274.197614,-8882.471304,1036.288319,-459.657299
1274.197935,-10214.842000,1850.514855,1532.190996
1274.198256,-9844.739029,222.061783,2374.896044
1274.198577,-9474.636058,-222.061783,1378.971896
1274.198897,-9400.615463,-296.082377,1608.800546
1274.199218,-10288.862594,-1924.535449,2604.724693
1274.199539,-9474.636058,-2442.679609,1532.190996
1274.199860,-8660.409521,-2664.741391,919.314598
1274.200181,-8364.327145,-1332.370696,-842.705048
1274.200501,-8956.491898,888.247130,459.657299
1274.200822,-10288.862594,666.185348,1378.971896
1274.201143,-8734.430116,518.144159,689.485948
1274.201464,-9918.759623,666.185348,0.000000
1274.201785,-9918.759623,666.185348,1302.362347
1274.202105,-10066.800811,-1628.453072,1378.971896
1274.202426,-9992.780217,-2960.823768,995.924147
1274.202747,-8216.285956,-2442.679609,-842.705048
1274.203068,-8808.450710,-592.164754,-306.438199
1274.203389,-9326.594869,1554.432478,2068.457845
1274.203709,-10066.800811,518.144159,2451.505594
1274.204030,-9030.512492,-370.102971,1762.019645
1274.204351,-9548.656652,-666.185348,1685.410096
1274.204672,-9992.780217,-1776.494261,2834.553343
1274.204992,-9918.759623,-3997.112087,2374.896044
1274.205313,-8290.306550,-2886.803174,459.657299
1274.205634,-9104.533087,-1036.288319,0.000000
1274.205955,-9474.636058,666.185348,459.657299
1274.206276,-10214.842000,2664.741391,2374.896044
1274.206596,-10881.027347,888.247130,-229.828649
1274.206917,-8956.491898,1258.350101,0.000000
1274.207238,-11399.171507,148.041188,689.485948
1274.207559,-10584.944971,-518.144159,2145.067394
1274.207880,-10362.883188,-1702.473667,1532.190996
1274.208200,-9474.636058,-740.205942,383.047749
1274.208521,-9918.759623,814.226536,766.095498
1274.208842,-10584.944971,1628.453072,2298.286494
1274.209163,-10658.965565,148.041188,2528.115143
1274.209484,-9104.533087,-666.185348,1149.143247
1274.209804,-9178.553681,-444.123565,766.095498
1274.210125,-9770.718434,-1554.432478,2145.067394
1274.210446,-9252.574275,-2368.659014,1532.190996
1274.210767,-9178.553681,-3256.906145,-459.657299
1274.211087,-9030.512492,-1184.329507,-229.828649
1274.211408,-9474.636058,592.164754,1072.533697
1274.211729,-10732.986159,222.061783,1838.629195
1274.212050,-9326.594869,1036.288319,919.314598
1274.212371,-9918.759623,1110.308913,0.000000
1274.212691,-9474.636058,1480.411884,383.047749
1274.213012,-9918.759623,296.082377,766.095498
1274.213333,-9326.594869,-1258.350101,-153.219100
1274.213654,-8586.388927,0.000000,-1149.143247
1274.213975,-9400.615463,1258.350101,229.828649
1274.214295,-9770.718434,1406.391290,2451.505594
1274.214616,-10214.842000,-444.123565,2451.505594
1274.214937,-9622.677246,-1332.370696,2528.115143
1274.215258,-9178.553681,-1554.432478,1838.629195
1274.215579,-10436.903782,-1924.535449,3370.820191
1274.215899,-9400.615463,-2960.823768,2757.943793
1274.216220,-8438.347739,-2812.782580,536.266849
1274.216541,-7920.203579,-222.061783,-1072.533697
1274.216862,-8364.327145,1628.453072,-689.485948
1274.217183,-9104.533087,2442.679609,0.000000
1274.217503,-9474.636058,2146.597232,0.000000
1274.217824,-10140.821405,1110.308913,0.000000
1274.218145,-10807.006753,592.164754,1762.019645
1274.218466,-11547.212695,-2072.576638,2374.896044
1274.218786,-10881.027347,-2812.782580,1915.238745
1274.219107,-10362.883188,0.000000,383.047749
1274.219428,-10510.924376,1110.308913,1991.848295
1274.219749,-9696.697840,1036.288319,2374.896044
1274.220070,-9696.697840,-296.082377,1225.752797
1274.220390,-8364.327145,-962.267725,766.095498
1274.220711,-8734.430116,-1850.514855,0.000000
1274.221032,-9178.553681,-1480.411884,1915.238745
1274.221353,-9548.656652,-2960.823768,995.924147
1274.221674,-8290.306550,-1850.514855,306.438199
