#time,accel_x,accel_y,accel_z
948.718396,-9474.636058,-296.082377,1149.143247
948.718717,-9474.636058,-296.082377,1225.752797
948.719038,-9548.656652,-222.061783,1149.143247
948.719359,-9548.656652,-370.102971,919.314598
948.719680,-9474.636058,-518.144159,919.314598
948.720001,-9474.636058,-370.102971,919.314598
948.720323,-9622.677246,-296.082377,919.314598
948.720644,-9696.697840,0.000000,1685.410096
948.720965,-9770.718434,-370.102971,1225.752797
948.721286,-9622.677246,-222.061783,1149.143247
948.721607,-9474.636058,-592.164754,1072.533697
948.721928,-9474.636058,-814.226536,-842.705048
948.722249,-9474.636058,-296.082377,766.095498
948.722570,-9622.677246,-666.185348,612.876398
948.722892,-9400.615463,-518.144159,766.095498
948.723213,-9696.697840,-592.164754,229.828649
948.723534,-9474.636058,-296.082377,1149.143247
948.723855,-9770.718434,-148.041188,1149.143247
948.724176,-9770.718434,-222.061783,1225.752797
948.724497,-9474.636058,-666.185348,1149.143247
948.724818,-8882.471304,-444.123565,1532.190996
948.725140,-9622.677246,-444.123565,1149.143247
948.725461,-9474.636058,-518.144159,995.924147
948.725782,-9474.636058,-222.061783,919.314598
948.726103,-9770.718434,-592.164754,1072.533697
948.726424,-9326.594869,-1036.288319,766.095498
948.726745,-9252.574275,-1406.391290,306.438199
948.727066,-9474.636058,-962.267725,153.219100
948.727388,-9622.677246,-740.205942,229.828649
948.727709,-9326.594869,-1036.288319,766.095498
948.728030,-9474.636058,-1036.288319,306.438199
948.728351,-9548.656652,-888.247130,76.609550
948.728672,-9918.759623,-666.185348,0.000000
948.728993,-9770.718434,-962.267725,689.485948
948.729314,-9622.677246,-1480.411884,0.000000
948.729635,-9474.636058,-1406.391290,-306.438199
948.729957,-9548.656652,-1554.432478,-612.876398
948.730278,-9252.574275,-2220.617826,-459.657299
948.730599,-9474.636058,-2146.597232,-995.924147
948.730920,-9474.636058,-2368.659014,-1455.581446
948.731241,-9326.594869,-2516.700203,-1378.971896
948.731562,-9252.574275,-2960.823768,-1991.848295
948.731883,-9252.574275,-3923.091493,-2987.772442
948.732205,-9326.594869,-3404.947333,-3217.601092
948.732526,-9474.636058,-3182.885551,-3447.429741
948.732847,-9548.656652,-3478.967927,-3753.867940
948.733168,-9622.677246,-3404.947333,-3830.477490
948.733489,-10066.800811,-3552.988522,-3447.429741
948.733810,-9622.677246,-3627.009116,-3600.648841
948.734131,-9770.718434,-4219.173869,-3524.039291
948.734453,-9696.697840,-4219.173869,-2911.162892
948.734774,-9326.594869,-3923.091493,-2451.505594
948.735095,-9400.615463,-4737.318029,-2987.772442
948.735416,-9548.656652,-4737.318029,-2451.505594
948.735737,-9474.636058,-4367.215058,-2451.505594
948.736058,-9326.594869,-3775.050304,-3907.087040
948.736379,-9252.574275,-3330.926739,-2451.505594
948.736700,-9548.656652,-3330.926739,-2374.896044
948.737022,-9548.656652,-3256.906145,-2528.115143
948.737343,-9918.759623,-3330.926739,-2528.115143
948.737664,-9918.759623,-3182.885551,-2528.115143
948.737985,-9770.718434,-2812.782580,-2068.457845
948.738306,-9992.780217,-2886.803174,-919.314598
948.738627,-10214.842000,-2886.803174,-383.047749
948.738948,-9400.615463,-3330.926739,1838.629195
948.739270,-10584.944971,-2812.782580,1378.971896
948.739591,-10140.821405,-3034.844362,1685.410096
948.739912,-9770.718434,-3404.947333,1378.971896
948.740233,-9474.636058,-3034.844362,1072.533697
948.740554,-9178.553681,-2960.823768,689.485948
948.740875,-8882.471304,-2960.823768,0.000000
948.741196,-8808.450710,-2886.803174,-766.095498
948.741517,-8808.450710,-2886.803174,-1608.800546
948.741839,-8660.409521,-2738.761985,-612.876398
948.742160,-9474.636058,-2664.741391,-536.266849
948.742481,-10214.842000,-2664.741391,-306.438199
948.742802,-10436.903782,-3182.885551,-459.657299
948.743123,-10510.924376,-3627.009116,1072.533697
948.743444,-10362.883188,-2886.803174,-306.438199
948.743765,-9844.739029,-2442.679609,0.000000
948.744087,-9548.656652,-1998.556043,76.609550
948.744408,-9252.574275,-1184.329507,306.438199
948.744729,-9252.574275,-1258.350101,766.095498
948.745050,-9400.615463,-1036.288319,1225.752797
948.745371,-9178.553681,-1036.288319,1149.143247
948.745692,-9030.512492,-1184.329507,229.828649
948.746013,-9474.636058,-296.082377,0.000000
948.746335,-8808.450710,-1332.370696,-995.924147
948.746656,-8734.430116,-1628.453072,-2451.505594
948.746977,-8660.409521,-1998.556043,-2987.772442
948.747298,-9400.615463,-2146.597232,-3140.991542
948.747619,-10140.821405,-2294.638420,-3524.039291
948.747940,-10288.862594,-1998.556043,-3600.648841
948.748261,-10584.944971,-1480.411884,-3907.087040
948.748582,-10140.821405,-1184.329507,-3753.867940
948.748904,-10140.821405,-1110.308913,-1991.848295
948.749225,-10584.944971,-1406.391290,-1608.800546
948.749546,-9992.780217,-1628.453072,-842.705048
948.749867,-9696.697840,-1924.535449,-1532.190996
948.750188,-8586.388927,-1776.494261,-1302.362347
948.750509,-9252.574275,-740.205942,-2145.067394
948.750830,-8808.450710,444.123565,-2145.067394
948.751152,-8216.285956,592.164754,-2068.457845
948.751473,-8956.491898,-2146.597232,-3294.210641
948.751794,-7846.182985,-1776.494261,-3524.039291
948.752115,-10658.965565,-3256.906145,-3983.696590
948.752436,-10288.862594,-2146.597232,-1915.238745
948.752757,-10658.965565,-1998.556043,-612.876398
948.753078,-11769.274478,-1480.411884,1378.971896
948.753400,-11029.068536,-2442.679609,919.314598
948.753721,-11177.109724,-2738.761985,536.266849
948.754042,-10881.027347,-3182.885551,153.219100
948.754363,-8808.450710,-2516.700203,536.266849
948.754684,-8290.306550,-2516.700203,-1225.752797
948.755005,-8142.265362,-2886.803174,-995.924147
948.755326,-6809.894666,-3256.906145,-2528.115143
948.755647,-7698.141797,-3627.009116,-2451.505594
948.755969,-8216.285956,-3256.906145,-1225.752797
948.756290,-9474.636058,-3034.844362,153.219100
948.756611,-11621.233289,-3478.967927,2451.505594
948.756932,-11251.130318,-4219.173869,2298.286494
948.757253,-10658.965565,-4811.338623,766.095498
948.757574,-10732.986159,-3775.050304,1302.362347
948.757895,-10140.821405,-3627.009116,919.314598
948.758217,-9474.636058,-3552.988522,-536.266849
948.758538,-8586.388927,-2368.659014,-1302.362347
948.758859,-8068.244768,-962.267725,-2528.115143
948.759180,-8438.347739,-888.247130,-1302.362347
948.759501,-9030.512492,-1702.473667,-459.657299
948.759822,-9548.656652,-3330.926739,-766.095498
948.760143,-8216.285956,-4071.132681,-2528.115143
948.760464,-8808.450710,-3478.967927,-2068.457845
948.760786,-9474.636058,-2960.823768,-383.047749
948.761107,-10288.862594,-3775.050304,-919.314598
948.761428,-10658.965565,-4811.338623,-2068.457845
948.761749,-9400.615463,-3108.864956,-3600.648841
948.762070,-10288.862594,-3256.906145,-3524.039291
948.762391,-10881.027347,-2664.741391,-2451.505594
948.762712,-10436.903782,-2516.700203,-2681.334243
948.763034,-9548.656652,-2738.761985,-3370.820191
948.763355,-9252.574275,-2368.659014,-3447.429741
948.763676,-8956.491898,-2442.679609,-2681.334243
948.763997,-9918.759623,-2368.659014,-1532.190996
948.764318,-9548.656652,-1998.556043,-919.314598
948.764639,-9918.759623,-666.185348,-536.266849
948.764960,-9548.656652,-1332.370696,-766.095498
948.765282,-8956.491898,-1332.370696,-1838.629195
948.765603,-8882.471304,-1110.308913,-3140.991542
948.765924,-8290.306550,-1258.350101,-2145.067394
948.766245,-8734.430116,-2368.659014,-2221.676944
948.766566,-8882.471304,-1850.514855,-2604.724693
948.766887,-10288.862594,-1184.329507,-1762.019645
948.767208,-11325.150913,-1332.370696,-153.219100
948.767529,-10881.027347,-1702.473667,0.000000
948.767851,-11177.109724,-2146.597232,-612.876398
948.768172,-10807.006753,-1998.556043,-459.657299
948.768493,-9326.594869,-1480.411884,-919.314598
948.768814,-9770.718434,-444.123565,1608.800546
948.769135,-9992.780217,-740.205942,2528.115143
948.769456,-9252.574275,-1110.308913,1762.019645
948.769777,-9178.553681,-2664.741391,1072.533697
948.770099,-7920.203579,-2146.597232,536.266849
948.770420,-9030.512492,-1480.411884,1455.581446
948.770741,-9030.512492,-666.185348,2145.067394
948.771062,-8660.409521,-148.041188,1838.629195
948.771382,-9474.636058,-1110.308913,1532.190996
948.771703,-10510.924376,-2368.659014,1455.581446
948.772024,-9844.739029,-2664.741391,536.266849
948.772345,-10658.965565,-2590.720797,383.047749
948.772666,-10732.986159,-962.267725,0.000000
948.772987,-9474.636058,222.061783,536.266849
948.773307,-10288.862594,296.082377,1685.410096
948.773628,-11029.068536,-296.082377,1378.971896
948.773949,-9326.594869,-666.185348,-306.438199
948.774270,-8882.471304,-888.247130,0.000000
948.774591,-9548.656652,-1184.329507,-919.314598
948.774912,-8586.388927,-518.144159,-229.828649
948.775232,-8216.285956,0.000000,536.266849
948.775553,-8216.285956,-222.061783,0.000000
948.775874,-9770.718434,-814.226536,919.314598
948.776195,-9844.739029,-1554.432478,842.705048
948.776516,-9548.656652,-2886.803174,153.219100
948.776836,-10955.047942,666.185348,-229.828649
948.777157,-10436.903782,370.102971,842.705048
948.777478,-10288.862594,1776.494261,1225.752797
948.777799,-11103.089130,962.267725,306.438199
948.778120,-10288.862594,-222.061783,-1762.019645
948.778441,-9104.533087,-222.061783,-1762.019645
948.778761,-8956.491898,-222.061783,-1378.971896
948.779082,-9474.636058,222.061783,-536.266849
948.779403,-8586.388927,0.000000,1532.190996
948.779724,-9326.594869,-814.226536,1149.143247
948.780045,-9030.512492,-2146.597232,306.438199
948.780366,-9622.677246,-1258.350101,919.314598
948.780686,-9474.636058,-1258.350101,919.314598
948.781007,-10214.842000,1036.288319,612.876398
948.781328,-9622.677246,740.205942,0.000000
948.781649,-8660.409521,518.144159,306.438199
948.781970,-9474.636058,-1406.391290,-306.438199
948.782290,-9918.759623,-2146.597232,-229.828649
948.782611,-10362.883188,-2738.761985,0.000000
948.782932,-9622.677246,-1258.350101,306.438199
948.783253,-9918.759623,-148.041188,1225.752797
948.783574,-9474.636058,740.205942,2528.115143
948.783895,-10288.862594,0.000000,1991.848295
948.784215,-8882.471304,-1776.494261,612.876398
948.784536,-9104.533087,-2146.597232,383.047749
948.784857,-9400.615463,-1776.494261,1455.581446
948.785178,-10214.842000,-1628.453072,3294.210641
948.785499,-9992.780217,370.102971,4903.011187
948.785820,-10881.027347,296.082377,4596.572988
948.786140,-8808.450710,296.082377,1915.238745
948.786461,-9252.574275,1110.308913,0.000000
948.786782,-9030.512492,1332.370696,919.314598
948.787103,-8142.265362,0.000000,459.657299
948.787424,-7994.224174,-74.020594,1302.362347
948.787744,-8734.430116,-518.144159,1225.752797
948.788065,-9622.677246,-2072.576638,383.047749
948.788386,-10288.862594,-1184.329507,1838.629195
948.788707,-10658.965565,370.102971,2911.162892
948.789028,-10288.862594,2072.576638,2451.505594
948.789349,-9992.780217,1628.453072,3830.477490
948.789669,-10881.027347,-814.226536,4366.744339
948.789990,-9030.512492,-2146.597232,2451.505594
948.790311,-9030.512492,-3182.885551,0.000000
948.790632,-9030.512492,-592.164754,0.000000
948.790953,-9178.553681,740.205942,306.438199
948.791274,-9252.574275,2072.576638,76.609550
948.791594,-8734.430116,3108.864956,1225.752797
948.791915,-10140.821405,962.267725,1072.533697
948.792236,-10140.821405,-1036.288319,0.000000
948.792557,-10510.924376,-2368.659014,0.000000
948.792878,-10214.842000,-2220.617826,0.000000
948.793198,-9178.553681,-370.102971,766.095498
948.793519,-9918.759623,666.185348,2068.457845
948.793840,-9252.574275,1332.370696,2145.067394
948.794161,-10584.944971,0.000000,766.095498
948.794482,-9326.594869,0.000000,-383.047749
948.794803,-9696.697840,0.000000,-766.095498
948.795123,-9918.759623,148.041188,0.000000
948.795444,-9104.533087,962.267725,1225.752797
948.795765,-9474.636058,592.164754,1532.190996
948.796086,-9252.574275,-518.144159,1149.143247
948.796407,-9474.636058,-1184.329507,76.609550
948.796728,-10436.903782,-740.205942,536.266849
948.797048,-9548.656652,0.000000,459.657299
948.797369,-9918.759623,-296.082377,459.657299
948.797690,-9104.533087,444.123565,1302.362347
948.798011,-9992.780217,962.267725,2757.943793
948.798332,-9844.739029,-1480.411884,1149.143247
948.798653,-9622.677246,-1850.514855,0.000000
948.798973,-9178.553681,-1110.308913,-153.219100
948.799294,-9400.615463,148.041188,153.219100
948.799615,-9770.718434,1110.308913,1915.238745
948.799936,-10436.903782,740.205942,2604.724693
948.800257,-9326.594869,-370.102971,1302.362347
948.800577,-10066.800811,-1776.494261,919.314598
948.800898,-10066.800811,-1406.391290,842.705048
948.801219,-8808.450710,-1554.432478,612.876398
948.801540,-8808.450710,0.000000,1302.362347
948.801861,-8956.491898,0.000000,1838.629195
948.802182,-10658.965565,-888.247130,689.485948
948.802502,-9770.718434,-740.205942,612.876398
948.802823,-9696.697840,-962.267725,689.485948
948.803144,-9252.574275,-1110.308913,1149.143247
948.803465,-8660.409521,-740.205942,1532.190996
948.803786,-9252.574275,-592.164754,1991.848295
948.804107,-9474.636058,-814.226536,2451.505594
948.804427,-9992.780217,-1702.473667,2451.505594
948.804748,-9326.594869,-1702.473667,1762.019645
948.805069,-9400.615463,-148.041188,383.047749
948.805390,-9400.615463,1554.432478,1072.533697
948.805711,-9400.615463,1628.453072,2681.334243
948.806031,-8956.491898,222.061783,1532.190996
948.806352,-8660.409521,-1628.453072,1302.362347
948.806673,-8142.265362,-2072.576638,-1302.362347
948.806994,-8882.471304,-888.247130,-1225.752797
948.807315,-9770.718434,518.144159,612.876398
948.807636,-9696.697840,1702.473667,1302.362347
948.807956,-10436.903782,1554.432478,2068.457845
948.808277,-11399.171507,-370.102971,1608.800546
948.808598,-10436.903782,-1110.308913,919.314598
948.808919,-10584.944971,-1776.494261,1302.362347
948.809240,-10140.821405,-1332.370696,1149.143247
948.809561,-9030.512492,-518.144159,76.609550
948.809881,-9030.512492,1184.329507,1072.533697
948.810202,-9992.780217,592.164754,1302.362347
948.810523,-10436.903782,1258.350101,612.876398
948.810844,-10510.924376,370.102971,842.705048
948.811165,-9400.615463,-148.041188,842.705048
948.811485,-9548.656652,444.123565,689.485948
948.811806,-10436.903782,1184.329507,1991.848295
948.812127,-10362.883188,1184.329507,1915.238745
948.812448,-9548.656652,-370.102971,306.438199
948.812769,-9548.656652,-444.123565,919.314598
948.813090,-9326.594869,-592.164754,536.266849
948.813410,-9252.574275,-444.123565,306.438199
948.813731,-9326.594869,0.000000,1762.019645
948.814052,-9696.697840,296.082377,2451.505594
948.814373,-9548.656652,-1110.308913,1838.629195
948.814694,-9326.594869,-1998.556043,1608.800546
948.815015,-9400.615463,-1406.391290,1838.629195
948.815335,-9474.636058,-1554.432478,1225.752797
948.815656,-9992.780217,-592.164754,2374.896044
948.815977,-9474.636058,-1036.288319,1991.848295
948.816298,-8734.430116,296.082377,1149.143247
948.816619,-10362.883188,-740.205942,1685.410096
948.816939,-9030.512492,-2072.576638,459.657299
948.817260,-8956.491898,0.000000,0.000000
948.817581,-9400.615463,-1702.473667,1225.752797
948.817902,-8364.327145,-1332.370696,-1302.362347
948.818223,-7179.997637,-888.247130,536.266849
948.818544,-10732.986159,-1184.329507,306.438199
948.818864,-7772.162391,-444.123565,3524.039291
948.819185,-10214.842000,-740.205942,995.924147
948.819506,-12065.356855,74.020594,3753.867940
948.819827,-8956.491898,-1258.350101,306.438199
948.820148,-11843.295072,-888.247130,2757.943793
948.820469,-8438.347739,-444.123565,1149.143247
948.820789,-10066.800811,-1332.370696,-1072.533697
948.821110,-8956.491898,-740.205942,0.000000
948.821431,-8956.491898,-1036.288319,-1072.533697
948.821752,-8290.306550,0.000000,-536.266849
948.822073,-11177.109724,0.000000,1838.629195
948.822393,-9474.636058,-296.082377,1378.971896
948.822714,-10066.800811,-444.123565,0.000000
948.823035,-10955.047942,0.000000,766.095498
948.823356,-9400.615463,0.000000,459.657299
948.823677,-9548.656652,-1036.288319,153.219100
948.823998,-9696.697840,0.000000,995.924147
948.824318,-9548.656652,-222.061783,766.095498
948.824639,-9548.656652,-1702.473667,-383.047749
948.824960,-9474.636058,-888.247130,306.438199
948.825281,-9770.718434,-296.082377,536.266849
948.825602,-9548.656652,-962.267725,0.000000
948.825923,-9844.739029,1110.308913,2298.286494
948.826243,-9770.718434,0.000000,2451.505594
948.826564,-10066.800811,-1628.453072,1532.190996
948.826885,-9474.636058,-814.226536,1685.410096
948.827206,-9326.594869,148.041188,919.314598
948.827527,-9030.512492,740.205942,842.705048
948.827847,-9178.553681,518.144159,1762.019645
948.828168,-8586.388927,518.144159,1762.019645
948.828489,-8882.471304,-1184.329507,459.657299
948.828810,-9030.512492,-814.226536,306.438199
948.829131,-8956.491898,-222.061783,229.828649
948.829452,-9770.718434,-148.041188,1608.800546
948.829772,-8956.491898,1406.391290,2451.505594
948.830093,-10288.862594,1924.535449,3753.867940
948.830414,-10955.047942,0.000000,3830.477490
948.830735,-10140.821405,-740.205942,2374.896044
948.831056,-10584.944971,-740.205942,1685.410096
948.831377,-10140.821405,0.000000,2298.286494
948.831697,-9622.677246,518.144159,1608.800546
948.832018,-9548.656652,296.082377,1302.362347
948.832339,-8586.388927,-74.020594,459.657299
948.832660,-8438.347739,-666.185348,76.609550
948.832981,-9252.574275,-888.247130,-229.828649
948.833301,-9548.656652,-666.185348,0.000000
948.833622,-9770.718434,148.041188,1378.971896
948.833943,-10584.944971,1184.329507,2987.772442
948.834264,-10955.047942,370.102971,3447.429741
948.834585,-11251.130318,-740.205942,2757.943793
948.834906,-10288.862594,-370.102971,1685.410096
948.835226,-10140.821405,-518.144159,1302.362347
948.835547,-8660.409521,-518.144159,919.314598
948.835868,-8142.265362,-1036.288319,0.000000
948.836189,-8438.347739,-148.041188,-383.047749
948.836510,-8956.491898,-370.102971,0.000000
948.836831,-9696.697840,-888.247130,-612.876398
948.837151,-9844.739029,-962.267725,1225.752797
948.837472,-10510.924376,-1036.288319,995.924147
948.837793,-10288.862594,0.000000,1072.533697
948.838114,-10140.821405,1702.473667,2145.067394
948.838435,-10955.047942,1332.370696,2221.676944
948.838755,-9474.636058,148.041188,383.047749
948.839076,-9474.636058,-444.123565,-306.438199
948.839397,-9178.553681,-888.247130,-612.876398
948.839718,-8512.368333,-888.247130,76.609550
948.840039,-9178.553681,-1258.350101,76.609550
948.840360,-8586.388927,-1406.391290,-306.438199
948.840680,-9104.533087,-1628.453072,-1149.143247
948.841001,-9548.656652,-740.205942,459.657299
948.841322,-9992.780217,-1184.329507,689.485948
948.841643,-9326.594869,-370.102971,536.266849
948.841964,-10288.862594,0.000000,2374.896044
948.842285,-11029.068536,-666.185348,2911.162892
948.842605,-9844.739029,-1628.453072,2681.334243
948.842926,-9548.656652,-2960.823768,1149.143247
948.843247,-8290.306550,-1184.329507,383.047749
948.843568,-9326.594869,-1332.370696,76.609550
948.843889,-7624.121203,0.000000,536.266849
948.844209,-8142.265362,740.205942,995.924147
948.844530,-8734.430116,-148.041188,766.095498
948.844851,-9474.636058,-1702.473667,919.314598
948.845172,-9918.759623,222.061783,2221.676944
948.845493,-10362.883188,-222.061783,1685.410096
948.845814,-10066.800811,740.205942,2757.943793
948.846134,-10362.883188,1628.453072,4443.353888
948.846455,-10881.027347,444.123565,3907.087040
948.846776,-10510.924376,0.000000,2145.067394
948.847097,-9474.636058,0.000000,1455.581446
948.847418,-9474.636058,888.247130,1072.533697
948.847739,-9770.718434,1258.350101,1302.362347
948.848059,-8364.327145,0.000000,1149.143247
948.848380,-8734.430116,-888.247130,383.047749
948.848701,-8808.450710,-1776.494261,0.000000
948.849022,-9252.574275,-1184.329507,0.000000
948.849343,-10362.883188,222.061783,2298.286494
948.849663,-10658.965565,1332.370696,1991.848295
948.849984,-10140.821405,1702.473667,2528.115143
948.850305,-10436.903782,814.226536,2911.162892
948.850626,-9992.780217,-1184.329507,1685.410096
948.850947,-10214.842000,-814.226536,0.000000
948.851268,-9696.697840,-1480.411884,-76.609550
948.851588,-8438.347739,-296.082377,-153.219100
948.851909,-8660.409521,148.041188,306.438199
948.852230,-8734.430116,740.205942,766.095498
948.852551,-9696.697840,-518.144159,306.438199
948.852872,-9252.574275,-1258.350101,306.438199
948.853193,-9326.594869,-1628.453072,306.438199
948.853513,-9770.718434,-1110.308913,842.705048
948.853834,-9400.615463,-740.205942,919.314598
948.854155,-9474.636058,222.061783,2451.505594
948.854476,-9918.759623,518.144159,2528.115143
948.854797,-9992.780217,-666.185348,1378.971896
948.855117,-9918.759623,-1554.432478,2068.457845
948.855438,-8734.430116,0.000000,0.000000
948.855759,-8808.450710,740.205942,-919.314598
948.856080,-8734.430116,1850.514855,536.266849
948.856401,-8808.450710,740.205942,919.314598
948.856722,-9326.594869,-1480.411884,1225.752797
948.857042,-9030.512492,-2812.782580,-536.266849
948.857363,-10066.800811,-2220.617826,306.438199
948.857684,-11029.068536,-666.185348,1532.190996
948.858005,-10066.800811,444.123565,2528.115143
948.858326,-10436.903782,1406.391290,2757.943793
948.858647,-10807.006753,444.123565,2298.286494
948.858967,-10510.924376,-814.226536,1072.533697
948.859288,-11473.192101,-2812.782580,1838.629195
948.859609,-9918.759623,-1850.514855,995.924147
948.859930,-9918.759623,-1480.411884,383.047749
948.860251,-9178.553681,-888.247130,153.219100
948.860571,-8586.388927,-666.185348,0.000000
948.860892,-8290.306550,-1258.350101,-383.047749
948.861213,-9178.553681,-1258.350101,-383.047749
948.861534,-9696.697840,-814.226536,0.000000
948.861855,-9992.780217,-444.123565,306.438199
948.862176,-9548.656652,814.226536,459.657299
948.862496,-9844.739029,1554.432478,2221.676944
948.862817,-9770.718434,1036.288319,1991.848295
948.863138,-9400.615463,-296.082377,842.705048
948.863459,-9178.553681,592.164754,919.314598
948.863780,-10066.800811,-962.267725,1455.581446
948.864101,-8956.491898,-1184.329507,1455.581446
948.864421,-9918.759623,-666.185348,2528.115143
948.864742,-9178.553681,-814.226536,1378.971896
948.865063,-8734.430116,-1554.432478,689.485948
948.865384,-8660.409521,-962.267725,536.266849
948.865705,-8364.327145,-592.164754,383.047749
948.866025,-9252.574275,0.000000,919.314598
948.866346,-9696.697840,888.247130,2451.505594
948.866667,-9326.594869,1110.308913,2374.896044
948.866988,-10140.821405,-962.267725,1762.019645
948.867309,-9474.636058,-1184.329507,1608.800546
948.867630,-8808.450710,-592.164754,1455.581446
948.867950,-8438.347739,-888.247130,383.047749
948.868271,-9696.697840,74.020594,1149.143247
948.868592,-9400.615463,1258.350101,1072.533697
948.868913,-9474.636058,148.041188,612.876398
948.869234,-9030.512492,0.000000,229.828649
948.869555,-9548.656652,148.041188,536.266849
948.869875,-10436.903782,-1110.308913,919.314598
948.870196,-9474.636058,740.205942,1532.190996
948.870517,-11399.171507,1184.329507,2911.162892
948.870838,-10881.027347,74.020594,3370.820191
948.871159,-10214.842000,-518.144159,1685.410096
948.871479,-9844.739029,148.041188,459.657299
948.871800,-11029.068536,2072.576638,689.485948
948.872121,-8808.450710,1110.308913,995.924147
948.872442,-9548.656652,2072.576638,1685.410096
948.872763,-9474.636058,592.164754,1532.190996
948.873084,-9030.512492,-962.267725,919.314598
948.873404,-9400.615463,-1480.411884,612.876398
948.873725,-9770.718434,-1110.308913,306.438199
948.874046,-9548.656652,74.020594,1072.533697
948.874367,-9474.636058,0.000000,2298.286494
948.874688,-9770.718434,222.061783,3140.991542
948.875009,-10955.047942,-1998.556043,2068.457845
948.875329,-10362.883188,-2072.576638,1838.629195
948.875650,-9918.759623,-2590.720797,1378.971896
948.875971,-11473.192101,-518.144159,3064.381992
948.876292,-9770.718434,296.082377,2681.334243
948.876613,-10066.800811,444.123565,2681.334243
948.876934,-9400.615463,-370.102971,1225.752797
948.877255,-8956.491898,-1036.288319,-536.266849
948.877575,-8956.491898,-666.185348,-842.705048
948.877896,-8808.450710,592.164754,-842.705048
948.878217,-9400.615463,1406.391290,153.219100
948.878538,-10066.800811,888.247130,2451.505594
948.878859,-9474.636058,-814.226536,2681.334243
948.879180,-10362.883188,-2368.659014,1685.410096
948.879500,-10658.965565,-1998.556043,1302.362347
948.879821,-10436.903782,-740.205942,536.266849
948.880142,-8364.327145,666.185348,-1762.019645
948.880463,-7920.203579,1036.288319,-1608.800546
948.880784,-7920.203579,814.226536,-1302.362347
948.881105,-7772.162391,-1036.288319,-2451.505594
948.881425,-8882.471304,-2146.597232,-1532.190996
948.881746,-8586.388927,-2368.659014,-1149.143247
948.882067,-10362.883188,-1258.350101,76.609550
948.882388,-11177.109724,-444.123565,2834.553343
948.882709,-11843.295072,-1036.288319,3217.601092
948.883030,-9030.512492,-1110.308913,3294.210641
948.883350,-9696.697840,-2294.638420,995.924147
948.883671,-8438.347739,-962.267725,-383.047749
948.883992,-9844.739029,-962.267725,536.266849
948.884313,-8438.347739,740.205942,383.047749
948.884634,-8290.306550,1184.329507,1149.143247
948.884955,-9474.636058,0.000000,689.485948
948.885275,-8808.450710,-222.061783,229.828649
948.885596,-11029.068536,-666.185348,612.876398
948.885917,-10658.965565,-296.082377,1455.581446
948.886238,-10288.862594,0.000000,2145.067394
948.886559,-10214.842000,148.041188,3447.429741
948.886880,-10807.006753,-444.123565,3064.381992
948.887200,-10732.986159,-518.144159,2528.115143
948.887521,-9622.677246,370.102971,1762.019645
948.887842,-9400.615463,888.247130,919.314598
948.888163,-9326.594869,1628.453072,842.705048
948.888484,-9030.512492,1036.288319,2298.286494
948.888805,-9400.615463,740.205942,1838.629195
948.889126,-9326.594869,-1184.329507,1149.143247
948.889446,-9474.636058,-1850.514855,1072.533697
948.889767,-10510.924376,-814.226536,1378.971896
948.890088,-9696.697840,740.205942,1455.581446
948.890409,-9770.718434,1110.308913,2145.067394
948.890730,-9326.594869,962.267725,2604.724693
948.891051,-8882.471304,-1036.288319,919.314598
948.891371,-10362.883188,-962.267725,536.266849
948.891692,-9474.636058,-740.205942,919.314598
948.892013,-9696.697840,-370.102971,1762.019645
948.892334,-9622.677246,148.041188,2451.505594
948.892655,-9400.615463,74.020594,1149.143247
948.892976,-9474.636058,-148.041188,1838.629195
948.893296,-9030.512492,-1332.370696,1072.533697
948.893617,-8586.388927,-592.164754,612.876398
948.893938,-10066.800811,-814.226536,919.314598
948.894259,-8586.388927,-444.123565,153.219100
948.894580,-8660.409521,888.247130,1302.362347
948.894901,-9844.739029,370.102971,1838.629195
948.895221,-9992.780217,-666.185348,1915.238745
948.895542,-10214.842000,-962.267725,153.219100
948.895863,-10214.842000,-222.061783,0.000000
948.896184,-9474.636058,518.144159,0.000000
948.896505,-9622.677246,592.164754,919.314598
948.896826,-9474.636058,740.205942,1455.581446
948.897146,-10066.800811,-740.205942,153.219100
948.897467,-8808.450710,-1924.535449,-459.657299
948.897788,-9696.697840,-2072.576638,-229.828649
948.898109,-10140.821405,-592.164754,76.609550
948.898430,-9622.677246,666.185348,689.485948
948.898751,-10066.800811,1850.514855,2451.505594
948.899072,-10288.862594,518.144159,2298.286494
948.899392,-10510.924376,-1554.432478,919.314598
948.899713,-10214.842000,-1406.391290,-76.609550
948.900034,-9770.718434,-1332.370696,-689.485948
948.900355,-9622.677246,-1184.329507,-536.266849
948.900676,-9030.512492,-370.102971,689.485948
948.900997,-9474.636058,-592.164754,919.314598
948.901317,-9918.759623,-740.205942,459.657299
948.901638,-10362.883188,-1110.308913,1072.533697
948.901959,-10288.862594,-1258.350101,1225.752797
948.902280,-9622.677246,-444.123565,995.924147
948.902601,-9696.697840,370.102971,2145.067394
948.902922,-9622.677246,518.144159,3064.381992
948.903242,-9104.533087,-740.205942,1685.410096
948.903563,-9474.636058,-1258.350101,1149.143247
948.903884,-10436.903782,-1406.391290,766.095498
948.904205,-9474.636058,-370.102971,2298.286494
948.904526,-9474.636058,740.205942,2604.724693
948.904847,-8882.471304,222.061783,2757.943793
948.905167,-8142.265362,-1480.411884,2068.457845
948.905488,-7550.100608,-2146.597232,-306.438199
948.905809,-8290.306550,-1406.391290,0.000000
948.906130,-8586.388927,-1480.411884,0.000000
948.906451,-8586.388927,518.144159,1532.190996
948.906772,-9844.739029,962.267725,2451.505594
948.907092,-9844.739029,1110.308913,2451.505594
948.907413,-10362.883188,-518.144159,1762.019645
948.907734,-9770.718434,-1184.329507,306.438199
948.908055,-8734.430116,-148.041188,-1149.143247
948.908376,-8586.388927,-592.164754,-536.266849
948.908697,-8290.306550,1184.329507,689.485948
948.909018,-10362.883188,592.164754,1838.629195
948.909338,-9918.759623,444.123565,2068.457845
948.909659,-10955.047942,-888.247130,1762.019645
948.909980,-11251.130318,-740.205942,1685.410096
948.910301,-11029.068536,-592.164754,1455.581446
948.910622,-10066.800811,814.226536,1225.752797
948.910943,-9696.697840,444.123565,1608.800546
948.911263,-9326.594869,444.123565,459.657299
948.911584,-9770.718434,-444.123565,-612.876398
948.911905,-9326.594869,296.082377,-919.314598
948.912226,-9622.677246,1110.308913,1225.752797
948.912547,-9696.697840,1332.370696,1072.533697
948.912868,-10066.800811,888.247130,1838.629195
948.913188,-10584.944971,-222.061783,2298.286494
948.913509,-10066.800811,-1702.473667,1838.629195
948.913830,-10362.883188,-1036.288319,1762.019645
948.914151,-10510.924376,-1184.329507,1608.800546
948.914472,-8882.471304,0.000000,1378.971896
948.914793,-9400.615463,1110.308913,1302.362347
948.915113,-9696.697840,1110.308913,2451.505594
948.915434,-9474.636058,-222.061783,995.924147
948.915755,-9548.656652,-2368.659014,0.000000
948.916076,-9104.533087,-1702.473667,-229.828649
948.916397,-9474.636058,-1702.473667,766.095498
948.916718,-9474.636058,-888.247130,1685.410096
948.917038,-9326.594869,296.082377,2911.162892
948.917359,-10436.903782,666.185348,1685.410096
948.917680,-9770.718434,74.020594,995.924147
948.918001,-9622.677246,74.020594,919.314598
948.918322,-8290.306550,444.123565,689.485948
948.918643,-9548.656652,0.000000,689.485948
948.918964,-8956.491898,1110.308913,1915.238745
948.919284,-10140.821405,-814.226536,2145.067394
948.919605,-8586.388927,-1480.411884,306.438199
948.919926,-9030.512492,-1332.370696,0.000000
948.920247,-9770.718434,-814.226536,-76.609550
948.920568,-9400.615463,-148.041188,0.000000
948.920889,-8586.388927,962.267725,306.438199
948.921209,-8956.491898,-592.164754,-306.438199
948.921530,-8660.409521,-2590.720797,-459.657299
948.921851,-9770.718434,-3108.864956,0.000000
948.922172,-10362.883188,-2516.700203,383.047749
948.922493,-10066.800811,-740.205942,919.314598
948.922814,-10436.903782,1702.473667,3677.258390
948.923134,-12953.603985,148.041188,4979.620737
948.923455,-10881.027347,-1110.308913,3753.867940
948.923776,-10807.006753,-1850.514855,2374.896044
948.924097,-9252.574275,-2072.576638,1149.143247
948.924418,-8068.244768,-1036.288319,-995.924147
948.924739,-8438.347739,-370.102971,-459.657299
948.925059,-6735.874072,814.226536,-1225.752797
948.925380,-8068.244768,518.144159,0.000000
948.925701,-9252.574275,-222.061783,0.000000
948.926022,-10288.862594,0.000000,1302.362347
948.926343,-11843.295072,0.000000,1838.629195
948.926664,-11325.150913,148.041188,3217.601092
948.926984,-9918.759623,370.102971,3447.429741
948.927305,-10658.965565,-1036.288319,2681.334243
948.927626,-9770.718434,-1850.514855,689.485948
948.927947,-8586.388927,-740.205942,0.000000
948.928268,-8216.285956,-74.020594,-536.266849
948.928589,-8586.388927,814.226536,-689.485948
948.928909,-8660.409521,814.226536,612.876398
948.929230,-9326.594869,0.000000,1685.410096
948.929551,-9918.759623,-370.102971,1838.629195
948.929872,-10140.821405,-2146.597232,1608.800546
948.930193,-10288.862594,-1332.370696,1991.848295
948.930514,-10436.903782,-296.082377,1532.190996
948.930835,-9622.677246,1258.350101,1455.581446
948.931155,-9918.759623,1850.514855,2221.676944
948.931476,-9030.512492,1332.370696,1532.190996
948.931797,-9770.718434,-666.185348,229.828649
948.932118,-9474.636058,-592.164754,0.000000
948.932439,-9104.533087,0.000000,0.000000
948.932760,-9252.574275,-148.041188,1149.143247
948.933080,-9696.697840,0.000000,1991.848295
948.933401,-9474.636058,-444.123565,1915.238745
948.933722,-9770.718434,-1110.308913,1225.752797
948.934043,-9696.697840,-1406.391290,1378.971896
948.934364,-10214.842000,-740.205942,1915.238745
948.934685,-10066.800811,-296.082377,2298.286494
948.935005,-9178.553681,1036.288319,2451.505594
948.935326,-10362.883188,0.000000,3064.381992
948.935647,-9178.553681,-1110.308913,1378.971896
948.935968,-9326.594869,-1258.350101,0.000000
948.936289,-8956.491898,-518.144159,0.000000
948.936610,-8438.347739,148.041188,-995.924147
948.936930,-9252.574275,1036.288319,1149.143247
948.937251,-9474.636058,370.102971,919.314598
948.937572,-9252.574275,-962.267725,153.219100
948.937893,-9474.636058,-1332.370696,1838.629195
948.938214,-10140.821405,-2146.597232,919.314598
948.938535,-10584.944971,-1036.288319,459.657299
948.938855,-10140.821405,0.000000,1838.629195
948.939176,-9770.718434,666.185348,2757.943793
948.939497,-10362.883188,0.000000,1991.848295
948.939818,-9844.739029,-814.226536,383.047749
948.940139,-9326.594869,222.061783,-153.219100
948.940460,-10066.800811,0.000000,0.000000
948.940781,-9252.574275,-666.185348,306.438199
948.941101,-8364.327145,-1332.370696,0.000000
948.941422,-9326.594869,-1924.535449,-612.876398
948.941743,-9474.636058,-1776.494261,0.000000
948.942064,-10881.027347,-962.267725,842.705048
948.942385,-10140.821405,-148.041188,1149.143247
948.942706,-10955.047942,-148.041188,1225.752797
948.943026,-10288.862594,1480.411884,2221.676944
948.943347,-10807.006753,444.123565,2374.896044
948.943668,-9844.739029,-592.164754,1378.971896
948.943989,-9400.615463,-444.123565,306.438199
948.944310,-9474.636058,-814.226536,229.828649
948.944631,-8808.450710,-592.164754,76.609550
948.944951,-8660.409521,-814.226536,689.485948
948.945272,-8956.491898,-148.041188,1608.800546
948.945593,-8660.409521,-444.123565,766.095498
948.945914,-9770.718434,-888.247130,1225.752797
948.946235,-9474.636058,444.123565,383.047749
948.946556,-9844.739029,-296.082377,1149.143247
948.946876,-9474.636058,370.102971,2068.457845
948.947197,-9622.677246,370.102971,2681.334243
948.947518,-10436.903782,-444.123565,2911.162892
948.947839,-9992.780217,-444.123565,1991.848295
948.948160,-9844.739029,-666.185348,1302.362347
948.948481,-10066.800811,0.000000,919.314598
948.948801,-9696.697840,1406.391290,2451.505594
948.949122,-9178.553681,1332.370696,2604.724693
948.949443,-9474.636058,-148.041188,1378.971896
948.949764,-9326.594869,-148.041188,76.609550
948.950085,-8364.327145,-1554.432478,-1072.533697
948.950406,-7624.121203,296.082377,306.438199
948.950727,-9918.759623,1480.411884,1838.629195
948.951047,-9400.615463,148.041188,689.485948
948.951368,-8068.244768,962.267725,1762.019645
948.951689,-12805.562797,-1036.288319,1608.800546
948.952010,-10584.944971,0.000000,3830.477490
948.952331,-11029.068536,-222.061783,2681.334243
948.952652,-11843.295072,1702.473667,3217.601092
948.952972,-7846.182985,148.041188,-689.485948
948.953293,-8882.471304,0.000000,0.000000
948.953614,-7920.203579,518.144159,-766.095498
948.953935,-8142.265362,-592.164754,-2145.067394
948.954256,-8068.244768,-740.205942,-1072.533697
948.954577,-7994.224174,-444.123565,-919.314598
948.954897,-9400.615463,814.226536,153.219100
948.955218,-12731.542202,296.082377,4673.182538
948.955539,-10510.924376,0.000000,5975.544884
948.955860,-12731.542202,-2812.782580,3753.867940
948.956181,-10807.006753,-2368.659014,2068.457845
948.956502,-9326.594869,-1776.494261,536.266849
948.956822,-8586.388927,-666.185348,383.047749
948.957143,-8216.285956,-518.144159,-306.438199
948.957464,-5773.606348,1184.329507,-1302.362347
948.957785,-8882.471304,-1184.329507,-1378.971896
948.958106,-7994.224174,-1036.288319,-1149.143247
948.958427,-10881.027347,-1850.514855,1225.752797
948.958747,-10436.903782,-1554.432478,3294.210641
948.959068,-10881.027347,0.000000,2298.286494
948.959389,-11029.068536,518.144159,4060.306139
948.959710,-11769.274478,-888.247130,3830.477490
948.960031,-10066.800811,-592.164754,2911.162892
948.960352,-9992.780217,-2072.576638,0.000000
948.960672,-8512.368333,-666.185348,-1455.581446
948.960993,-8734.430116,-1332.370696,-1532.190996
948.961314,-7550.100608,-888.247130,-1225.752797
948.961635,-9400.615463,-592.164754,-153.219100
948.961956,-9326.594869,-1406.391290,0.000000
948.962277,-9400.615463,-2146.597232,306.438199
948.962598,-11325.150913,-2220.617826,1685.410096
948.962918,-11177.109724,-1850.514855,2298.286494
948.963239,-10288.862594,-1036.288319,2757.943793
948.963560,-10510.924376,-296.082377,3830.477490
948.963881,-9548.656652,-1480.411884,1915.238745
948.964202,-9400.615463,-1776.494261,1072.533697
948.964523,-9252.574275,-1480.411884,229.828649
948.964843,-8142.265362,0.000000,-459.657299
948.965164,-8882.471304,444.123565,612.876398
948.965485,-9474.636058,74.020594,919.314598
948.965806,-8216.285956,1258.350101,459.657299
948.966127,-9474.636058,-1406.391290,0.000000
948.966448,-8290.306550,222.061783,0.000000
948.966768,-10436.903782,-296.082377,612.876398
948.967089,-9548.656652,740.205942,536.266849
948.967410,-9548.656652,1332.370696,3217.601092
948.967731,-11029.068536,518.144159,4290.134789
948.968052,-10362.883188,-222.061783,3370.820191
948.968373,-11917.315666,814.226536,3370.820191
948.968693,-10436.903782,2146.597232,2987.772442
948.969014,-10214.842000,1036.288319,1762.019645
948.969335,-8586.388927,1258.350101,766.095498
948.969656,-8512.368333,-148.041188,-383.047749
948.969977,-6809.894666,444.123565,-2528.115143
948.970298,-8216.285956,-740.205942,-1915.238745
948.970618,-8068.244768,1406.391290,-1378.971896
948.970939,-10066.800811,1332.370696,612.876398
948.971260,-9844.739029,222.061783,2911.162892
948.971581,-11399.171507,814.226536,3600.648841
948.971902,-12139.377449,-1850.514855,3524.039291
948.972223,-10881.027347,-1258.350101,2834.553343
948.972544,-10140.821405,0.000000,1762.019645
948.972864,-9400.615463,592.164754,689.485948
948.973185,-7920.203579,740.205942,-612.876398
948.973506,-7402.059420,1332.370696,-689.485948
948.973827,-7698.141797,-370.102971,-919.314598
948.974147,-8956.491898,-1036.288319,-766.095498
948.974468,-9622.677246,-1332.370696,459.657299
948.974789,-9622.677246,-666.185348,1225.752797
948.975110,-10436.903782,-444.123565,2757.943793
948.975430,-10140.821405,1110.308913,3064.381992
948.975751,-11177.109724,370.102971,4213.525239
948.976072,-10214.842000,-1110.308913,1532.190996
948.976393,-9326.594869,-962.267725,229.828649
948.976714,-9030.512492,370.102971,-383.047749
948.977034,-8512.368333,962.267725,-689.485948
948.977355,-8586.388927,2220.617826,459.657299
948.977676,-9252.574275,1554.432478,1302.362347
948.977997,-8882.471304,-592.164754,1072.533697
948.978317,-9918.759623,-1628.453072,-306.438199
948.978638,-11029.068536,-1998.556043,1455.581446
948.978959,-10362.883188,-814.226536,1455.581446
948.979280,-10510.924376,148.041188,2451.505594
948.979600,-10140.821405,74.020594,3294.210641
948.979921,-9474.636058,-1332.370696,1685.410096
948.980242,-9622.677246,-1850.514855,459.657299
948.980563,-9770.718434,-2072.576638,229.828649
948.980883,-9474.636058,-1850.514855,76.609550
948.981204,-9326.594869,-1110.308913,842.705048
948.981525,-9548.656652,-296.082377,919.314598
948.981846,-10066.800811,-518.144159,1072.533697
948.982167,-9622.677246,-1554.432478,1149.143247
948.982487,-9992.780217,-2220.617826,536.266849
948.982808,-10214.842000,-2072.576638,383.047749
948.983129,-9696.697840,-2368.659014,766.095498
948.983450,-8808.450710,-1036.288319,1378.971896
948.983770,-9474.636058,-1036.288319,2451.505594
948.984091,-9696.697840,-2886.803174,995.924147
948.984412,-8734.430116,-2294.638420,229.828649
948.984733,-9918.759623,-1554.432478,0.000000
948.985053,-9326.594869,296.082377,459.657299
948.985374,-9400.615463,888.247130,1685.410096
948.985695,-8956.491898,740.205942,1302.362347
948.986016,-8956.491898,-518.144159,0.000000
948.986336,-8882.471304,-814.226536,-459.657299
948.986657,-9252.574275,-1036.288319,0.000000
948.986978,-9400.615463,0.000000,-459.657299
948.987299,-9622.677246,0.000000,0.000000
948.987620,-9400.615463,814.226536,1455.581446
948.987940,-10066.800811,0.000000,2298.286494
948.988261,-10510.924376,-1628.453072,1915.238745
948.988582,-9474.636058,-888.247130,459.657299
948.988903,-9770.718434,-370.102971,612.876398
948.989223,-9400.615463,518.144159,689.485948
948.989544,-8956.491898,1258.350101,3447.429741
948.989865,-9030.512492,1850.514855,995.924147
948.990186,-9474.636058,74.020594,689.485948
948.990506,-9474.636058,-888.247130,306.438199
948.990827,-10362.883188,-962.267725,1225.752797
948.991148,-9104.533087,-1332.370696,612.876398
948.991469,-9622.677246,148.041188,1302.362347
948.991790,-10362.883188,1554.432478,3524.039291
948.992110,-10288.862594,148.041188,2451.505594
948.992431,-9252.574275,222.061783,1455.581446
948.992752,-10807.006753,148.041188,1532.190996
948.993073,-9844.739029,148.041188,1302.362347
948.993393,-10140.821405,740.205942,2374.896044
948.993714,-10955.047942,518.144159,2068.457845
948.994035,-9252.574275,370.102971,2681.334243
948.994356,-10510.924376,-1480.411884,2221.676944
948.994676,-9696.697840,0.000000,1991.848295
948.994997,-9918.759623,814.226536,2068.457845
948.995318,-9844.739029,962.267725,1149.143247
948.995639,-8512.368333,1924.535449,1685.410096
948.995959,-9844.739029,1554.432478,1302.362347
948.996280,-9326.594869,-296.082377,919.314598
948.996601,-8734.430116,-518.144159,1455.581446
948.996922,-10881.027347,-296.082377,1225.752797
948.997243,-9474.636058,-518.144159,1608.800546
948.997563,-9844.739029,296.082377,3064.381992
948.997884,-10510.924376,-814.226536,2451.505594
948.998205,-9474.636058,-1924.535449,1302.362347
948.998526,-8364.327145,-2368.659014,-383.047749
948.998846,-8216.285956,-1702.473667,-995.924147
948.999167,-8216.285956,-1036.288319,-1225.752797
948.999488,-8364.327145,740.205942,383.047749
948.999809,-9844.739029,444.123565,1991.848295
949.000129,-9918.759623,0.000000,2068.457845
949.000450,-11177.109724,-2516.700203,1532.190996
949.000771,-10362.883188,-1110.308913,1915.238745
949.001092,-10732.986159,-296.082377,1378.971896
949.001412,-9844.739029,592.164754,612.876398
949.001733,-9548.656652,888.247130,919.314598
949.002054,-8142.265362,-518.144159,-1378.971896
949.002375,-8586.388927,-888.247130,-1532.190996
949.002696,-8586.388927,-1406.391290,-1532.190996
949.003016,-9474.636058,-1184.329507,-995.924147
949.003337,-9548.656652,0.000000,-153.219100
949.003658,-9770.718434,296.082377,919.314598
949.003979,-9844.739029,148.041188,2298.286494
949.004299,-10807.006753,-666.185348,3677.258390
949.004620,-11473.192101,-3330.926739,76.609550
949.004941,-7254.018232,-888.247130,229.828649
949.005262,-10732.986159,-1850.514855,-689.485948
949.005582,-7920.203579,1702.473667,1378.971896
949.005903,-9252.574275,-518.144159,-229.828649
949.006224,-9178.553681,1776.494261,1991.848295
949.006545,-8364.327145,-1850.514855,-1532.190996
949.006865,-9622.677246,-1776.494261,0.000000
949.007186,-9770.718434,-666.185348,2145.067394
949.007507,-10288.862594,-1406.391290,766.095498
949.007828,-9030.512492,1406.391290,3753.867940
949.008149,-9252.574275,74.020594,2757.943793
949.008469,-8586.388927,0.000000,459.657299
949.008790,-11029.068536,-1184.329507,1915.238745
949.009111,-7920.203579,0.000000,766.095498
949.009432,-8364.327145,444.123565,689.485948
949.009752,-9992.780217,962.267725,1762.019645
949.010073,-8512.368333,1480.411884,2068.457845
949.010394,-10140.821405,-888.247130,1991.848295
949.010715,-9918.759623,-1554.432478,1991.848295
949.011035,-9252.574275,-1480.411884,1378.971896
949.011356,-9918.759623,-1258.350101,689.485948
949.011677,-9104.533087,1332.370696,1302.362347
949.011998,-10362.883188,2886.803174,3983.696590
949.012318,-10214.842000,296.082377,3600.648841
949.012639,-9474.636058,-2146.597232,1762.019645
949.012960,-9844.739029,-2072.576638,1685.410096
949.013281,-9696.697840,-1850.514855,1608.800546
949.013602,-9918.759623,0.000000,3140.991542
949.013922,-9992.780217,666.185348,3983.696590
949.014243,-9474.636058,0.000000,842.705048
949.014564,-8808.450710,740.205942,0.000000
949.014885,-8216.285956,-962.267725,306.438199
949.015205,-9326.594869,888.247130,-459.657299
949.015526,-9252.574275,962.267725,536.266849
949.015847,-9400.615463,1406.391290,1455.581446
949.016168,-10288.862594,0.000000,1991.848295
949.016488,-10732.986159,-1258.350101,612.876398
949.016809,-11029.068536,-962.267725,1225.752797
949.017130,-10140.821405,-444.123565,536.266849
949.017451,-9844.739029,1184.329507,1072.533697
949.017771,-9992.780217,1628.453072,1072.533697
949.018092,-9030.512492,1406.391290,459.657299
949.018413,-8734.430116,-518.144159,-383.047749
949.018734,-8512.368333,-1184.329507,-995.924147
949.019055,-9400.615463,-2146.597232,-612.876398
949.019375,-9474.636058,-1332.370696,689.485948
949.019696,-9252.574275,-962.267725,1225.752797
949.020017,-9548.656652,592.164754,2298.286494
949.020338,-10510.924376,518.144159,2451.505594
949.020658,-10066.800811,-222.061783,995.924147
949.020979,-9548.656652,-518.144159,0.000000
949.021300,-8956.491898,-740.205942,-995.924147
949.021621,-9178.553681,-1332.370696,-153.219100
949.021941,-9104.533087,-1628.453072,612.876398
949.022262,-9326.594869,-1258.350101,536.266849
949.022583,-9030.512492,-2072.576638,-459.657299
949.022904,-9548.656652,-1480.411884,0.000000
949.023224,-10362.883188,-1110.308913,1378.971896
949.023545,-10066.800811,74.020594,1838.629195
949.023866,-10362.883188,962.267725,1685.410096
949.024187,-10436.903782,1406.391290,2834.553343
949.024508,-9252.574275,-296.082377,2145.067394
949.024828,-9030.512492,-1924.535449,229.828649
949.025149,-8734.430116,-1332.370696,536.266849
949.025470,-9770.718434,-1776.494261,229.828649
949.025791,-8734.430116,-1258.350101,612.876398
949.026111,-9326.594869,-444.123565,1072.533697
949.026432,-9770.718434,-370.102971,1838.629195
949.026753,-9770.718434,74.020594,1378.971896
949.027074,-10214.842000,888.247130,1991.848295
949.027394,-10436.903782,-370.102971,1838.629195
949.027715,-9474.636058,-666.185348,1685.410096
949.028036,-9622.677246,-444.123565,3064.381992
949.028357,-9770.718434,-962.267725,2298.286494
949.028678,-9844.739029,-1036.288319,1991.848295
949.028998,-9030.512492,-296.082377,1455.581446
949.029319,-8956.491898,-296.082377,153.219100
949.029640,-8734.430116,74.020594,536.266849
949.029961,-9474.636058,666.185348,1302.362347
949.030281,-9474.636058,0.000000,1532.190996
949.030602,-9474.636058,-1110.308913,1225.752797
949.030923,-9622.677246,-2220.617826,919.314598
949.031244,-9474.636058,-962.267725,459.657299
949.031564,-10288.862594,814.226536,766.095498
949.031885,-9992.780217,2516.700203,2068.457845
949.032206,-10288.862594,1702.473667,2911.162892
949.032527,-9622.677246,-1332.370696,1149.143247
949.032847,-9326.594869,-1480.411884,229.828649
949.033168,-9696.697840,-1702.473667,-689.485948
949.033489,-8660.409521,-148.041188,-383.047749
949.033810,-9178.553681,814.226536,1072.533697
949.034131,-9400.615463,1184.329507,919.314598
949.034451,-9104.533087,888.247130,766.095498
949.034772,-10140.821405,-370.102971,1225.752797
949.035093,-9770.718434,-814.226536,306.438199
949.035414,-10288.862594,-1110.308913,1532.190996
949.035734,-10066.800811,-888.247130,1685.410096
949.036055,-9992.780217,592.164754,1762.019645
949.036376,-10362.883188,0.000000,2451.505594
949.036697,-9622.677246,-814.226536,689.485948
949.037017,-9400.615463,-1184.329507,-383.047749
949.037338,-9696.697840,-370.102971,0.000000
949.037659,-9474.636058,666.185348,383.047749
949.037980,-9252.574275,1554.432478,1762.019645
949.038300,-9474.636058,0.000000,1762.019645
949.038621,-9400.615463,-666.185348,1685.410096
949.038942,-10214.842000,-1924.535449,995.924147
949.039263,-9622.677246,-592.164754,995.924147
949.039584,-10658.965565,296.082377,1838.629195
949.039904,-9252.574275,592.164754,1685.410096
949.040225,-10362.883188,518.144159,2757.943793
949.040546,-9770.718434,-814.226536,1532.190996
949.040867,-9548.656652,-1110.308913,0.000000
949.041187,-9326.594869,-888.247130,76.609550
949.041508,-9326.594869,-740.205942,229.828649
949.041829,-9474.636058,0.000000,766.095498
949.042150,-9622.677246,1776.494261,3294.210641
949.042470,-9992.780217,0.000000,1532.190996
949.042791,-9770.718434,-962.267725,383.047749
949.043112,-9474.636058,-1184.329507,0.000000
949.043433,-9548.656652,-222.061783,-842.705048
949.043753,-9474.636058,888.247130,-153.219100
949.044074,-8808.450710,1036.288319,383.047749
949.044395,-8734.430116,666.185348,1532.190996
949.044716,-9252.574275,-1406.391290,229.828649
949.045037,-10732.986159,-1036.288319,229.828649
949.045357,-10807.006753,-1924.535449,1838.629195
949.045678,-9696.697840,-1184.329507,1149.143247
949.045999,-11177.109724,-370.102971,2451.505594
949.046320,-10362.883188,0.000000,3370.820191
949.046640,-10066.800811,-518.144159,1302.362347
949.046961,-9992.780217,-814.226536,842.705048
949.047282,-9992.780217,-2664.741391,-1378.971896
949.047603,-7550.100608,666.185348,-1378.971896
949.047923,-9178.553681,-814.226536,-1072.533697
949.048244,-7920.203579,2368.659014,919.314598
949.048565,-9622.677246,-296.082377,1608.800546
949.048886,-8956.491898,-1924.535449,766.095498
949.049206,-8808.450710,-296.082377,689.485948
949.049527,-10436.903782,-370.102971,2068.457845
949.049848,-10881.027347,1406.391290,3524.039291
949.050169,-9548.656652,888.247130,2681.334243
949.050490,-9104.533087,666.185348,1149.143247
949.050810,-9104.533087,0.000000,0.000000
949.051131,-8882.471304,-1406.391290,-459.657299
949.051452,-9178.553681,-1184.329507,689.485948
949.051773,-9474.636058,-888.247130,995.924147
949.052093,-8068.244768,0.000000,1838.629195
949.052414,-10807.006753,740.205942,4060.306139
949.052735,-11103.089130,-888.247130,3830.477490
949.053056,-10066.800811,-1480.411884,2834.553343
949.053376,-10214.842000,-1036.288319,1915.238745
949.053697,-9104.533087,-592.164754,995.924147
949.054018,-8512.368333,222.061783,919.314598
949.054339,-8734.430116,592.164754,1915.238745
949.054659,-8586.388927,0.000000,919.314598
949.054980,-8734.430116,-1258.350101,-153.219100
949.055301,-9474.636058,-740.205942,612.876398
949.055622,-10362.883188,-370.102971,995.924147
949.055943,-10510.924376,222.061783,1685.410096
949.056263,-11177.109724,1480.411884,3294.210641
949.056584,-10288.862594,-370.102971,3524.039291
949.056905,-9622.677246,-2590.720797,1302.362347
949.057226,-9104.533087,-2146.597232,0.000000
949.057546,-9252.574275,-1110.308913,-536.266849
949.057867,-8216.285956,814.226536,-689.485948
949.058188,-9474.636058,1258.350101,1149.143247
949.058509,-8586.388927,2072.576638,1455.581446
949.058829,-10658.965565,-1036.288319,1072.533697
949.059150,-9918.759623,-1850.514855,842.705048
949.059471,-11103.089130,-1776.494261,1608.800546
949.059792,-10881.027347,-1480.411884,1762.019645
949.060112,-10214.842000,-518.144159,1685.410096
949.060433,-9622.677246,370.102971,0.000000
949.060754,-9252.574275,-666.185348,306.438199
949.061075,-8808.450710,-666.185348,-842.705048
949.061396,-8808.450710,-814.226536,-1072.533697
949.061716,-9030.512492,-518.144159,-995.924147
949.062037,-9474.636058,-592.164754,-766.095498
949.062358,-9252.574275,-518.144159,76.609550
949.062679,-9770.718434,-814.226536,536.266849
949.062999,-9918.759623,-888.247130,612.876398
949.063320,-10140.821405,-1406.391290,383.047749
949.063641,-9992.780217,-370.102971,0.000000
949.063962,-9474.636058,74.020594,-76.609550
949.064282,-9992.780217,888.247130,919.314598
949.064603,-9474.636058,1480.411884,3064.381992
949.064924,-9770.718434,-1480.411884,842.705048
949.065245,-9326.594869,-1480.411884,76.609550
949.065565,-9400.615463,-1480.411884,306.438199
949.065886,-9844.739029,-740.205942,1762.019645
949.066207,-10214.842000,296.082377,2374.896044
949.066528,-10658.965565,518.144159,3064.381992
949.066849,-10658.965565,592.164754,2757.943793
949.067169,-9474.636058,-592.164754,459.657299
949.067490,-9252.574275,-666.185348,76.609550
949.067811,-9326.594869,-962.267725,-766.095498
949.068132,-7994.224174,740.205942,-1072.533697
949.068452,-9326.594869,1406.391290,1072.533697
949.068773,-9622.677246,444.123565,919.314598
949.069094,-9548.656652,-518.144159,1685.410096
949.069415,-11103.089130,-370.102971,2528.115143
949.069735,-10214.842000,-814.226536,2145.067394
949.070056,-9696.697840,-740.205942,4060.306139
949.070377,-9992.780217,-962.267725,3140.991542
949.070698,-8438.347739,-666.185348,1302.362347
949.071019,-8734.430116,-740.205942,383.047749
949.071339,-9104.533087,-148.041188,612.876398
949.071660,-7920.203579,814.226536,766.095498
949.071981,-10436.903782,0.000000,919.314598
949.072302,-9918.759623,1258.350101,2834.553343
949.072622,-10214.842000,370.102971,2987.772442
949.072943,-10066.800811,222.061783,2528.115143
949.073264,-10362.883188,74.020594,2451.505594
949.073585,-9696.697840,0.000000,1685.410096
949.073905,-9252.574275,74.020594,1149.143247
949.074226,-9030.512492,74.020594,1302.362347
949.074547,-8438.347739,74.020594,536.266849
949.074868,-9178.553681,-592.164754,76.609550
949.075188,-9104.533087,-888.247130,0.000000
949.075509,-8660.409521,-962.267725,153.219100
949.075830,-9696.697840,-666.185348,459.657299
949.076151,-10881.027347,-518.144159,1532.190996
949.076471,-9844.739029,666.185348,2068.457845
949.076792,-11251.130318,-592.164754,3064.381992
949.077113,-8882.471304,-3182.885551,3370.820191
949.077434,-10140.821405,-2738.761985,459.657299
949.077754,-9178.553681,-1036.288319,-229.828649
949.078075,-9474.636058,-296.082377,689.485948
949.078396,-8734.430116,-148.041188,995.924147
949.078717,-8586.388927,296.082377,536.266849
949.079037,-9918.759623,-592.164754,0.000000
949.079358,-9474.636058,-814.226536,153.219100
949.079679,-9696.697840,-740.205942,1378.971896
949.080000,-10658.965565,-1554.432478,919.314598
949.080320,-9252.574275,-888.247130,306.438199
949.080641,-10214.842000,0.000000,2451.505594
949.080962,-9696.697840,-962.267725,1762.019645
949.081283,-9918.759623,-1776.494261,-1532.190996
949.081603,-10436.903782,-1110.308913,612.876398
949.081924,-9104.533087,0.000000,-229.828649
949.082245,-10436.903782,444.123565,0.000000
949.082566,-9622.677246,2220.617826,1762.019645
949.082886,-9474.636058,1480.411884,842.705048
949.083207,-10214.842000,148.041188,76.609550
949.083528,-9696.697840,-1184.329507,0.000000
949.083849,-9326.594869,-962.267725,-229.828649
949.084169,-9104.533087,-1110.308913,0.000000
949.084490,-9696.697840,-74.020594,1762.019645
949.084811,-9918.759623,222.061783,2374.896044
949.085132,-10066.800811,-1184.329507,1838.629195
949.085452,-9844.739029,-222.061783,1149.143247
949.085773,-9622.677246,-296.082377,1685.410096
949.086094,-9992.780217,-814.226536,1149.143247
949.086415,-9326.594869,0.000000,2145.067394
949.086735,-8808.450710,-888.247130,1762.019645
949.087056,-9252.574275,-2368.659014,229.828649
949.087377,-7994.224174,-1332.370696,612.876398
949.087698,-9918.759623,-1702.473667,0.000000
949.088018,-8660.409521,74.020594,-153.219100
949.088339,-8364.327145,1628.453072,689.485948
949.088660,-9326.594869,814.226536,1915.238745
949.088981,-9030.512492,296.082377,1762.019645
949.089301,-9696.697840,-592.164754,1762.019645
949.089622,-9548.656652,-444.123565,1455.581446
949.089943,-10584.944971,-370.102971,1838.629195
949.090264,-10214.842000,-370.102971,2987.772442
949.090584,-9696.697840,666.185348,2604.724693
949.090905,-10214.842000,666.185348,1378.971896
949.091226,-9770.718434,1258.350101,1225.752797
949.091547,-9844.739029,444.123565,1378.971896
949.091867,-9992.780217,0.000000,1149.143247
949.092188,-9030.512492,222.061783,766.095498
949.092509,-9104.533087,1184.329507,1149.143247
949.092830,-8364.327145,1628.453072,1532.190996
949.093150,-10066.800811,-962.267725,1762.019645
949.093471,-9178.553681,-518.144159,1378.971896
949.093792,-8882.471304,-592.164754,2068.457845
949.094113,-10362.883188,222.061783,1838.629195
949.094433,-10288.862594,666.185348,2911.162892
949.094754,-10807.006753,592.164754,3447.429741
949.095075,-11103.089130,-296.082377,3064.381992
949.095396,-9178.553681,-1628.453072,229.828649
949.095716,-9474.636058,-1554.432478,459.657299
949.096037,-9548.656652,-518.144159,919.314598
949.096358,-8734.430116,-592.164754,612.876398
949.096679,-8956.491898,-666.185348,2068.457845
949.096999,-9696.697840,0.000000,2374.896044
949.097320,-10436.903782,-1628.453072,919.314598
949.097641,-10066.800811,-1776.494261,689.485948
949.097962,-9918.759623,-814.226536,1225.752797
949.098282,-9104.533087,-444.123565,689.485948
949.098603,-9400.615463,-444.123565,612.876398
949.098924,-8956.491898,-444.123565,459.657299
949.099245,-9104.533087,-1480.411884,-383.047749
949.099565,-9030.512492,-1110.308913,-306.438199
949.099886,-9326.594869,148.041188,229.828649
949.100207,-9474.636058,0.000000,-306.438199
949.100528,-9474.636058,0.000000,689.485948
949.100848,-7920.203579,444.123565,1455.581446
949.101169,-9770.718434,-1036.288319,1608.800546
949.101490,-10362.883188,-2368.659014,76.609550
949.101811,-9696.697840,-1258.350101,-153.219100
949.102131,-9326.594869,-962.267725,-229.828649
949.102452,-8586.388927,-444.123565,-306.438199
949.102773,-8586.388927,370.102971,689.485948
949.103094,-9548.656652,-222.061783,612.876398
949.103414,-9474.636058,-1628.453072,-383.047749
949.103735,-9770.718434,-1258.350101,76.609550
949.104056,-10732.986159,-296.082377,1072.533697
949.104377,-12065.356855,962.267725,2374.896044
949.104697,-11399.171507,2590.720797,3753.867940
949.105018,-10510.924376,0.000000,2528.115143
949.105339,-9770.718434,-1628.453072,919.314598
949.105660,-9622.677246,-2812.782580,-229.828649
949.105980,-9030.512492,-2072.576638,-766.095498
949.106301,-9178.553681,-962.267725,-2145.067394
949.106622,-8364.327145,0.000000,-306.438199
949.106943,-8882.471304,1110.308913,1072.533697
949.107263,-10510.924376,0.000000,1532.190996
949.107584,-10510.924376,-444.123565,2068.457845
949.107905,-11399.171507,-666.185348,1838.629195
949.108226,-10436.903782,-222.061783,1685.410096
949.108546,-9474.636058,-444.123565,1838.629195
949.108867,-9622.677246,888.247130,3217.601092
949.109188,-9104.533087,-444.123565,2987.772442
949.109509,-8882.471304,-1036.288319,1225.752797
949.109829,-8290.306550,-1110.308913,459.657299
949.110150,-8734.430116,-666.185348,459.657299
949.110471,-9474.636058,1036.288319,2987.772442
949.110792,-10140.821405,1110.308913,4290.134789
949.111112,-9252.574275,74.020594,4136.915689
949.111433,-9844.739029,-1480.411884,3140.991542
949.111754,-9696.697840,-1998.556043,3140.991542
949.112075,-10214.842000,-1850.514855,1072.533697
949.112395,-8882.471304,518.144159,842.705048
949.112716,-8808.450710,1998.556043,612.876398
949.113037,-7698.141797,3478.967927,1225.752797
949.113358,-9622.677246,1184.329507,1608.800546
949.113678,-8956.491898,-666.185348,153.219100
949.113999,-9252.574275,-814.226536,0.000000
949.114320,-10214.842000,-888.247130,1149.143247
949.114641,-9844.739029,-296.082377,2374.896044
949.114961,-10288.862594,592.164754,3217.601092
949.115282,-10584.944971,-518.144159,2451.505594
949.115603,-9474.636058,-1480.411884,153.219100
949.115924,-8660.409521,-296.082377,-612.876398
949.116244,-9770.718434,-1036.288319,153.219100
949.116565,-8956.491898,1554.432478,0.000000
949.116886,-10214.842000,1406.391290,1685.410096
949.117207,-9622.677246,-444.123565,1072.533697
949.117527,-9770.718434,-1628.453072,-919.314598
949.117848,-10140.821405,-2516.700203,-536.266849
949.118169,-10288.862594,-148.041188,0.000000
949.118490,-10288.862594,666.185348,1378.971896
949.118810,-10140.821405,888.247130,1762.019645
949.119131,-9844.739029,296.082377,1378.971896
949.119452,-9104.533087,-1036.288319,-306.438199
949.119773,-9992.780217,-1406.391290,0.000000
949.120093,-10436.903782,-1332.370696,842.705048
949.120414,-9030.512492,0.000000,-383.047749
949.120735,-10140.821405,-592.164754,383.047749
949.121056,-8956.491898,814.226536,1762.019645
949.121376,-10140.821405,-814.226536,2221.676944
949.121697,-10510.924376,-2442.679609,2145.067394
949.122018,-9326.594869,-2590.720797,153.219100
949.122339,-8956.491898,-1480.411884,-612.876398
949.122660,-9622.677246,0.000000,459.657299
949.122980,-9474.636058,888.247130,1532.190996
949.123301,-10066.800811,296.082377,1072.533697
949.123622,-8956.491898,-592.164754,0.000000
949.123943,-9548.656652,-222.061783,-153.219100
949.124263,-10362.883188,-592.164754,919.314598
949.124584,-9178.553681,444.123565,1378.971896
949.124905,-9770.718434,444.123565,2221.676944
949.125226,-9030.512492,-370.102971,2298.286494
949.125546,-9474.636058,-2368.659014,842.705048
949.125867,-9030.512492,-2072.576638,689.485948
949.126188,-9696.697840,-1332.370696,459.657299
949.126509,-9326.594869,-888.247130,842.705048
949.126829,-8660.409521,222.061783,1378.971896
949.127150,-9548.656652,444.123565,2145.067394
949.127471,-10658.965565,-148.041188,2374.896044
949.127792,-9696.697840,-962.267725,1455.581446
949.128112,-9992.780217,-814.226536,1149.143247
949.128433,-10214.842000,-666.185348,919.314598
949.128754,-10955.047942,0.000000,1149.143247
949.129075,-8882.471304,1998.556043,3064.381992
949.129395,-9918.759623,-1110.308913,1991.848295
949.129716,-8660.409521,0.000000,995.924147
949.130037,-9844.739029,-888.247130,1915.238745
949.130358,-9400.615463,-814.226536,229.828649
949.130678,-9326.594869,962.267725,1762.019645
949.130999,-9474.636058,518.144159,2374.896044
949.131320,-8586.388927,1332.370696,1532.190996
949.131641,-10658.965565,-444.123565,1072.533697
949.131961,-9400.615463,-740.205942,1072.533697
949.132282,-9992.780217,-888.247130,536.266849
949.132603,-9622.677246,-370.102971,0.000000
949.132924,-9104.533087,1480.411884,-306.438199
949.133244,-9400.615463,1406.391290,1532.190996
949.133565,-8808.450710,666.185348,383.047749
949.133886,-9178.553681,370.102971,76.609550
949.134207,-9400.615463,666.185348,919.314598
949.134527,-9622.677246,-296.082377,1149.143247
949.134848,-10436.903782,592.164754,2451.505594
949.135169,-11103.089130,-296.082377,3447.429741
949.135490,-9696.697840,-1554.432478,1762.019645
949.135810,-9326.594869,-1924.535449,1149.143247
949.136131,-9992.780217,-814.226536,1072.533697
949.136452,-10214.842000,296.082377,1608.800546
949.136773,-9844.739029,1036.288319,2145.067394
949.137093,-9252.574275,740.205942,919.314598
949.137414,-9548.656652,518.144159,1302.362347
949.137735,-9548.656652,-1332.370696,229.828649
949.138056,-7772.162391,-1332.370696,-306.438199
949.138376,-8808.450710,-666.185348,-383.047749
949.138697,-8734.430116,-444.123565,459.657299
949.139018,-9696.697840,148.041188,2145.067394
949.139339,-10510.924376,-740.205942,2451.505594
949.139659,-10955.047942,-740.205942,2451.505594
949.139980,-11103.089130,-1702.473667,2604.724693
949.140301,-10214.842000,-1184.329507,1838.629195
949.140622,-9622.677246,-148.041188,1455.581446
949.140942,-9104.533087,0.000000,1072.533697
949.141263,-9252.574275,1406.391290,2374.896044
949.141584,-9844.739029,-1924.535449,995.924147
949.141905,-8586.388927,-2738.761985,-612.876398
949.142225,-9548.656652,-1628.453072,-919.314598
949.142546,-9770.718434,-222.061783,0.000000
949.142867,-9696.697840,518.144159,306.438199
949.143188,-9178.553681,814.226536,1072.533697
949.143508,-9696.697840,-222.061783,229.828649
949.143829,-9622.677246,-1776.494261,-536.266849
949.144150,-9918.759623,-1776.494261,306.438199
949.144471,-9770.718434,-1332.370696,306.438199
949.144791,-9992.780217,74.020594,153.219100
949.145112,-9474.636058,2146.597232,842.705048
949.145433,-10140.821405,3404.947333,2451.505594
949.145754,-9770.718434,1554.432478,689.485948
949.146074,-9992.780217,-1258.350101,919.314598
949.146395,-8808.450710,-2812.782580,-383.047749
949.146716,-9030.512492,-2590.720797,229.828649
949.147037,-9548.656652,-1628.453072,306.438199
949.147357,-8660.409521,0.000000,1302.362347
949.147678,-9030.512492,-296.082377,0.000000
949.147999,-8660.409521,0.000000,0.000000
949.148320,-9474.636058,-740.205942,-306.438199
949.148640,-10066.800811,0.000000,153.219100
949.148961,-10362.883188,74.020594,1455.581446
949.149282,-10658.965565,1628.453072,4060.306139
949.149603,-11621.233289,592.164754,4136.915689
949.149923,-10436.903782,-962.267725,2681.334243
949.150244,-10362.883188,-1480.411884,1838.629195
949.150565,-8956.491898,-1110.308913,153.219100
949.150886,-8364.327145,-518.144159,-536.266849
949.151206,-7698.141797,888.247130,229.828649
949.151527,-7994.224174,814.226536,0.000000
949.151848,-8068.244768,0.000000,383.047749
949.152169,-9252.574275,-1628.453072,919.314598
949.152489,-10066.800811,-1850.514855,1225.752797
949.152810,-11251.130318,-1184.329507,2298.286494
949.153131,-11325.150913,1406.391290,4290.134789
949.153452,-10807.006753,1850.514855,5209.449386
949.153772,-11029.068536,0.000000,3370.820191
949.154093,-8438.347739,-148.041188,1532.190996
949.154414,-8438.347739,-148.041188,0.000000
949.154735,-9030.512492,222.061783,229.828649
949.155055,-8956.491898,666.185348,1225.752797
949.155376,-8734.430116,1480.411884,1838.629195
949.155697,-9548.656652,370.102971,1915.238745
949.156018,-10288.862594,74.020594,2681.334243
949.156338,-11103.089130,-1554.432478,3064.381992
949.156659,-11325.150913,-1036.288319,3370.820191
949.156980,-10362.883188,-1184.329507,2145.067394
949.157301,-9770.718434,296.082377,2681.334243
949.157621,-10066.800811,222.061783,1991.848295
949.157942,-8438.347739,296.082377,1378.971896
949.158263,-8364.327145,444.123565,-1072.533697
949.158584,-8438.347739,518.144159,-919.314598
949.158904,-8956.491898,148.041188,-842.705048
949.159225,-10510.924376,148.041188,842.705048
949.159546,-9844.739029,-370.102971,1838.629195
949.159867,-10214.842000,-1850.514855,1302.362347
949.160187,-9844.739029,-1998.556043,689.485948
949.160508,-9844.739029,-740.205942,306.438199
949.160829,-10510.924376,0.000000,0.000000
949.161150,-9992.780217,814.226536,842.705048
949.161470,-8956.491898,962.267725,1455.581446
949.161791,-10066.800811,-1628.453072,153.219100
949.162112,-8290.306550,-1998.556043,-1608.800546
949.162433,-9696.697840,-1776.494261,-919.314598
949.162753,-8512.368333,-962.267725,-383.047749
949.163074,-9474.636058,0.000000,229.828649
949.163395,-9474.636058,814.226536,1455.581446
949.163716,-9844.739029,296.082377,766.095498
949.164036,-10362.883188,-518.144159,689.485948
949.164357,-9548.656652,-962.267725,306.438199
949.164678,-9770.718434,-1184.329507,0.000000
949.164999,-9696.697840,-148.041188,2604.724693
949.165319,-9474.636058,1110.308913,1532.190996
949.165640,-9622.677246,74.020594,2604.724693
949.165961,-9474.636058,-2072.576638,1149.143247
949.166282,-9474.636058,-1480.411884,153.219100
949.166602,-10140.821405,-1628.453072,1685.410096
949.166923,-9622.677246,-666.185348,766.095498
949.167244,-9178.553681,814.226536,1072.533697
949.167565,-9030.512492,222.061783,1608.800546
949.167885,-9770.718434,-1776.494261,153.219100
949.168206,-8290.306550,-2368.659014,536.266849
949.168527,-9474.636058,-2146.597232,229.828649
949.168848,-10510.924376,-1258.350101,1378.971896
949.169168,-10510.924376,0.000000,1838.629195
949.169489,-9918.759623,2146.597232,3600.648841
949.169810,-10510.924376,-296.082377,2834.553343
949.170131,-9030.512492,-296.082377,1225.752797
949.170451,-10288.862594,-1406.391290,2221.676944
949.170772,-8438.347739,-1850.514855,76.609550
949.171093,-9252.574275,-518.144159,842.705048
949.171414,-8660.409521,222.061783,1532.190996
949.171734,-7254.018232,1554.432478,919.314598
949.172055,-10140.821405,296.082377,995.924147
949.172376,-9770.718434,666.185348,1302.362347
949.172697,-9770.718434,0.000000,1608.800546
949.173017,-10732.986159,-1110.308913,1149.143247
949.173338,-9474.636058,518.144159,2298.286494
949.173659,-10140.821405,222.061783,2374.896044
949.173980,-10066.800811,-222.061783,2604.724693
949.174300,-9474.636058,-518.144159,1149.143247
949.174621,-9326.594869,-962.267725,76.609550
949.174942,-8586.388927,-1036.288319,-153.219100
949.175263,-9918.759623,296.082377,766.095498
949.175583,-8956.491898,1480.411884,1915.238745
949.175904,-9918.759623,444.123565,1072.533697
949.176224,-9474.636058,0.000000,1072.533697
949.176545,-9770.718434,-1332.370696,612.876398
949.176866,-10362.883188,-1184.329507,1302.362347
949.177186,-9770.718434,-444.123565,689.485948
949.177507,-9918.759623,222.061783,2145.067394
949.177828,-9696.697840,148.041188,2221.676944
949.178148,-9474.636058,-888.247130,-612.876398
949.178469,-9104.533087,-296.082377,-1149.143247
949.178789,-8216.285956,148.041188,-689.485948
949.179110,-8956.491898,518.144159,0.000000
949.179431,-10066.800811,814.226536,1991.848295
949.179751,-9992.780217,370.102971,1915.238745
949.180072,-11399.171507,-1628.453072,2145.067394
949.180392,-9696.697840,-1850.514855,1455.581446
949.180713,-10362.883188,-1776.494261,306.438199
949.181034,-9770.718434,74.020594,689.485948
949.181354,-9696.697840,444.123565,1455.581446
949.181675,-10436.903782,666.185348,3370.820191
949.181996,-9326.594869,-2146.597232,536.266849
949.182316,-8364.327145,-1480.411884,-1608.800546
949.182637,-9548.656652,0.000000,-2681.334243
949.182957,-7031.956449,1036.288319,-1302.362347
949.183278,-8808.450710,1480.411884,612.876398
949.183599,-8586.388927,1036.288319,2145.067394
949.183919,-10066.800811,-2146.597232,919.314598
949.184240,-9844.739029,-4219.173869,612.876398
949.184560,-10584.944971,-3775.050304,1149.143247
949.184881,-10140.821405,-2886.803174,2451.505594
949.185202,-10584.944971,-370.102971,1915.238745
949.185522,-7920.203579,3256.906145,2987.772442
949.185843,-11103.089130,-1924.535449,1608.800546
949.186164,-6883.915261,1776.494261,459.657299
949.186484,-10436.903782,-1850.514855,-459.657299
949.186805,-9696.697840,-1036.288319,1378.971896
949.187125,-7846.182985,-1184.329507,383.047749
949.187446,-10510.924376,-1480.411884,2757.943793
949.187767,-8438.347739,-1850.514855,3064.381992
949.188087,-8808.450710,-1702.473667,153.219100
949.188408,-11769.274478,0.000000,2757.943793
949.188729,-8142.265362,-296.082377,689.485948
949.189049,-10955.047942,1332.370696,689.485948
949.189370,-10140.821405,1110.308913,2451.505594
949.189690,-8364.327145,1332.370696,1532.190996
949.190011,-10658.965565,-444.123565,2068.457845
949.190332,-9992.780217,-1332.370696,1532.190996
949.190652,-8068.244768,148.041188,0.000000
949.190973,-10584.944971,-666.185348,919.314598
949.191293,-9770.718434,148.041188,1072.533697
949.191614,-9474.636058,1110.308913,3064.381992
949.191935,-9622.677246,-2516.700203,2911.162892
949.192255,-8956.491898,-1332.370696,536.266849
949.192576,-9104.533087,-962.267725,0.000000
949.192897,-9400.615463,-1110.308913,0.000000
949.193217,-8808.450710,296.082377,536.266849
949.193538,-9104.533087,1110.308913,1685.410096
949.193858,-10140.821405,1184.329507,2757.943793
949.194179,-11621.233289,-666.185348,2757.943793
949.194500,-9844.739029,-1110.308913,1378.971896
949.194820,-10732.986159,-888.247130,2145.067394
949.195141,-8808.450710,444.123565,919.314598
949.195462,-10362.883188,814.226536,995.924147
949.195782,-9326.594869,1554.432478,1225.752797
949.196103,-6883.915261,444.123565,1532.190996
949.196423,-9030.512492,-888.247130,-842.705048
949.196744,-8882.471304,-444.123565,-459.657299
949.197065,-9474.636058,0.000000,76.609550
949.197385,-10214.842000,740.205942,995.924147
949.197706,-9474.636058,1924.535449,2911.162892
949.198026,-10658.965565,222.061783,3140.991542
949.198347,-10436.903782,-1184.329507,1762.019645
949.198668,-9992.780217,-1036.288319,536.266849
949.198988,-9104.533087,-1184.329507,0.000000
949.199309,-8586.388927,-740.205942,-689.485948
949.199630,-9400.615463,814.226536,919.314598
949.199950,-9104.533087,740.205942,1608.800546
949.200271,-9918.759623,148.041188,1608.800546
949.200591,-9622.677246,-2294.638420,2068.457845
949.200912,-10140.821405,-2664.741391,1072.533697
949.201233,-10362.883188,-1258.350101,1302.362347
949.201553,-10288.862594,592.164754,2068.457845
949.201874,-9548.656652,518.144159,3064.381992
949.202194,-9696.697840,-2294.638420,919.314598
949.202515,-8216.285956,-3256.906145,-612.876398
949.202836,-8808.450710,-2664.741391,-1915.238745
949.203156,-9326.594869,-592.164754,76.609550
949.203477,-9770.718434,222.061783,1455.581446
949.203798,-9622.677246,592.164754,1915.238745
949.204118,-9992.780217,-444.123565,1302.362347
949.204439,-9918.759623,-740.205942,689.485948
949.204759,-10510.924376,-1036.288319,1149.143247
949.205080,-11251.130318,148.041188,1149.143247
949.205401,-9770.718434,888.247130,1455.581446
949.205721,-9400.615463,1184.329507,1455.581446
949.206042,-9844.739029,148.041188,1685.410096
949.206363,-9252.574275,-1628.453072,383.047749
949.206683,-9400.615463,-1924.535449,0.000000
949.207004,-9178.553681,-740.205942,229.828649
949.207324,-9844.739029,518.144159,612.876398
949.207645,-9770.718434,1406.391290,2068.457845
949.207966,-9252.574275,444.123565,1685.410096
949.208286,-9326.594869,-370.102971,919.314598
949.208607,-9622.677246,-444.123565,2834.553343
949.208927,-9992.780217,-1850.514855,995.924147
949.209248,-9844.739029,-1924.535449,612.876398
949.209569,-7846.182985,666.185348,612.876398
949.209889,-10140.821405,222.061783,1685.410096
949.210210,-8290.306550,1332.370696,2911.162892
949.210531,-9696.697840,-1258.350101,1991.848295
949.210851,-9326.594869,-1258.350101,306.438199
949.211172,-9104.533087,-370.102971,536.266849
949.211492,-9548.656652,-296.082377,842.705048
949.211813,-8216.285956,1406.391290,1915.238745
949.212134,-9770.718434,-518.144159,1378.971896
949.212454,-8808.450710,444.123565,536.266849
949.212775,-9918.759623,296.082377,1991.848295
949.213095,-9548.656652,-296.082377,842.705048
949.213416,-9770.718434,740.205942,1608.800546
949.213737,-9844.739029,1332.370696,1838.629195
949.214057,-9770.718434,1480.411884,3217.601092
949.214378,-9918.759623,-962.267725,1762.019645
949.214699,-9030.512492,-1258.350101,153.219100
949.215019,-9252.574275,74.020594,383.047749
949.215340,-10214.842000,0.000000,919.314598
949.215660,-8216.285956,518.144159,2221.676944
949.215981,-9622.677246,518.144159,2068.457845
949.216302,-9844.739029,222.061783,1149.143247
949.216622,-9548.656652,-222.061783,995.924147
949.216943,-9992.780217,222.061783,3447.429741
949.217264,-10436.903782,-148.041188,1455.581446
949.217584,-10436.903782,0.000000,1149.143247
949.217905,-9104.533087,814.226536,2681.334243
949.218225,-9770.718434,-814.226536,1762.019645
949.218546,-9770.718434,0.000000,689.485948
949.218867,-9992.780217,-518.144159,612.876398
949.219187,-8438.347739,-1184.329507,-842.705048
949.219508,-8882.471304,-962.267725,-842.705048
949.219828,-10140.821405,222.061783,-76.609550
949.220149,-9696.697840,814.226536,2298.286494
949.220470,-11103.089130,-1036.288319,1532.190996
949.220790,-10214.842000,-148.041188,2068.457845
949.221111,-10066.800811,-1110.308913,229.828649
949.221432,-10362.883188,-962.267725,842.705048
949.221752,-9474.636058,592.164754,2221.676944
949.222073,-9474.636058,-518.144159,1455.581446
949.222393,-8808.450710,-1258.350101,229.828649
949.222714,-8956.491898,-2146.597232,-1532.190996
949.223035,-8142.265362,-1184.329507,-1532.190996
949.223355,-8882.471304,-1110.308913,-1455.581446
949.223676,-9104.533087,0.000000,-306.438199
949.223997,-9696.697840,1702.473667,919.314598
949.224317,-10362.883188,-296.082377,1762.019645
949.224638,-11029.068536,-1406.391290,2374.896044
949.224958,-11695.253884,-2442.679609,2834.553343
949.225279,-11177.109724,-2442.679609,3983.696590
949.225600,-9326.594869,-2368.659014,1225.752797
949.225920,-9770.718434,-814.226536,2451.505594
949.226241,-9474.636058,444.123565,2834.553343
949.226561,-9474.636058,222.061783,1302.362347
949.226882,-8734.430116,222.061783,0.000000
949.227203,-8586.388927,0.000000,-919.314598
949.227523,-9104.533087,-592.164754,-459.657299
949.227844,-9992.780217,-888.247130,1149.143247
949.228165,-9992.780217,-1184.329507,1838.629195
949.228485,-10955.047942,-2146.597232,2145.067394
949.228806,-11177.109724,-1480.411884,1838.629195
949.229126,-11473.192101,-592.164754,2145.067394
949.229447,-10362.883188,-370.102971,919.314598
949.229768,-9474.636058,1110.308913,229.828649
949.230088,-8068.244768,2146.597232,459.657299
949.230409,-8290.306550,370.102971,229.828649
949.230729,-8882.471304,-2294.638420,0.000000
949.231050,-8438.347739,-1850.514855,-995.924147
949.231371,-8438.347739,-1776.494261,-919.314598
949.231691,-9696.697840,592.164754,383.047749
949.232012,-10214.842000,2294.638420,3524.039291
949.232333,-10214.842000,592.164754,5439.278036
949.232653,-10658.965565,0.000000,2451.505594
949.232974,-9030.512492,-1184.329507,766.095498
949.233294,-10288.862594,-1924.535449,76.609550
949.233615,-9178.553681,-74.020594,689.485948
949.233936,-8734.430116,1036.288319,1455.581446
949.234256,-8586.388927,1628.453072,1915.238745
949.234577,-9030.512492,74.020594,919.314598
949.234898,-9622.677246,-740.205942,-229.828649
949.235218,-10362.883188,814.226536,1225.752797
949.235539,-10066.800811,-370.102971,1378.971896
949.235859,-8734.430116,370.102971,1302.362347
949.236180,-10510.924376,74.020594,1991.848295
949.236501,-9252.574275,-740.205942,459.657299
949.236821,-9030.512492,-962.267725,536.266849
949.237142,-9548.656652,-740.205942,919.314598
949.237462,-9474.636058,-296.082377,0.000000
949.237783,-9548.656652,1924.535449,1072.533697
949.238104,-9548.656652,1924.535449,1915.238745
949.238424,-9178.553681,888.247130,1991.848295
949.238745,-11029.068536,-1184.329507,1685.410096
949.239066,-9844.739029,-1776.494261,1455.581446
949.239386,-10362.883188,-1850.514855,842.705048
949.239707,-10436.903782,-1702.473667,2068.457845
949.240027,-10214.842000,74.020594,2298.286494
949.240348,-10288.862594,296.082377,2145.067394
949.240669,-10066.800811,-1332.370696,459.657299
949.240989,-9326.594869,148.041188,383.047749
949.241310,-9400.615463,-592.164754,-1302.362347
949.241631,-7994.224174,0.000000,-1149.143247
949.241951,-9030.512492,0.000000,842.705048
949.242272,-9030.512492,518.144159,1838.629195
949.242592,-10807.006753,-1406.391290,1838.629195
949.242913,-10436.903782,-2812.782580,689.485948
949.243234,-9400.615463,-1554.432478,766.095498
949.243554,-11473.192101,-1924.535449,1225.752797
949.243875,-8882.471304,74.020594,459.657299
949.244195,-9696.697840,444.123565,1532.190996
949.244516,-8660.409521,0.000000,0.000000
949.244837,-9400.615463,-740.205942,0.000000
949.245157,-9548.656652,-740.205942,-612.876398
949.245478,-10140.821405,444.123565,0.000000
949.245799,-9696.697840,592.164754,229.828649
949.246119,-9770.718434,814.226536,1302.362347
949.246440,-10140.821405,-444.123565,2451.505594
949.246760,-10362.883188,-1406.391290,2145.067394
949.247081,-10658.965565,-1776.494261,1378.971896
949.247402,-9696.697840,-1258.350101,919.314598
949.247722,-8438.347739,-222.061783,153.219100
949.248043,-9326.594869,962.267725,995.924147
949.248363,-9030.512492,1036.288319,1762.019645
949.248684,-9252.574275,-1110.308913,689.485948
949.249005,-9400.615463,-1258.350101,0.000000
949.249325,-10362.883188,-3034.844362,459.657299
949.249646,-10362.883188,-1702.473667,1072.533697
949.249967,-9548.656652,1702.473667,2528.115143
949.250287,-10510.924376,1406.391290,2987.772442
949.250608,-8438.347739,814.226536,2451.505594
949.250928,-8956.491898,-1776.494261,-153.219100
949.251249,-8216.285956,-962.267725,-1378.971896
949.251570,-9326.594869,-666.185348,-1072.533697
949.251890,-8586.388927,1184.329507,76.609550
949.252211,-7772.162391,1554.432478,1378.971896
949.252532,-9474.636058,-518.144159,842.705048
949.252852,-9770.718434,-1036.288319,612.876398
949.253173,-10807.006753,0.000000,3524.039291
949.253493,-10807.006753,-740.205942,1685.410096
949.253814,-10510.924376,444.123565,2451.505594
949.254135,-9622.677246,444.123565,2681.334243
949.254455,-9474.636058,888.247130,2298.286494
949.254776,-9844.739029,148.041188,1991.848295
949.255096,-9400.615463,-592.164754,1378.971896
949.255417,-8438.347739,-444.123565,536.266849
949.255738,-9548.656652,-148.041188,153.219100
949.256058,-9326.594869,1258.350101,1532.190996
949.256379,-9252.574275,1628.453072,1455.581446
949.256700,-10066.800811,592.164754,2068.457845
949.257020,-10140.821405,-296.082377,1072.533697
949.257341,-10214.842000,-962.267725,1149.143247
949.257661,-9548.656652,-888.247130,919.314598
949.257982,-10140.821405,-370.102971,1762.019645
949.258303,-10214.842000,592.164754,3064.381992
949.258623,-9918.759623,222.061783,2604.724693
949.258944,-9992.780217,-888.247130,1455.581446
949.259265,-9030.512492,0.000000,0.000000
949.259585,-9844.739029,-148.041188,0.000000
949.259906,-9400.615463,-666.185348,536.266849
949.260226,-9104.533087,-962.267725,459.657299
949.260547,-9474.636058,-2072.576638,1072.533697
949.260868,-8956.491898,-2368.659014,-459.657299
949.261188,-9474.636058,-296.082377,306.438199
949.261509,-10658.965565,-222.061783,1455.581446
949.261829,-9030.512492,296.082377,689.485948
949.262150,-9622.677246,444.123565,1608.800546
949.262471,-9400.615463,-370.102971,1991.848295
949.262791,-9178.553681,-1776.494261,1378.971896
949.263112,-9844.739029,-2368.659014,1072.533697
949.263433,-9104.533087,-1850.514855,459.657299
949.263753,-8734.430116,-814.226536,-612.876398
949.264074,-9178.553681,370.102971,459.657299
949.264394,-9770.718434,1406.391290,-153.219100
949.264715,-9400.615463,0.000000,919.314598
949.265036,-9770.718434,-1628.453072,612.876398
949.265356,-9474.636058,-888.247130,842.705048
949.265677,-10955.047942,-1924.535449,1378.971896
949.265997,-9918.759623,-666.185348,689.485948
949.266318,-9918.759623,1184.329507,2451.505594
949.266639,-10362.883188,1258.350101,2757.943793
949.266959,-10807.006753,0.000000,2068.457845
949.267280,-9696.697840,740.205942,1225.752797
949.267601,-9992.780217,-1258.350101,-306.438199
949.267921,-8808.450710,-962.267725,-689.485948
949.268242,-8290.306550,-1406.391290,-1225.752797
949.268562,-7994.224174,-592.164754,-995.924147
949.268883,-9030.512492,-518.144159,-995.924147
949.269204,-8808.450710,0.000000,-383.047749
949.269524,-9992.780217,-740.205942,459.657299
949.269845,-11547.212695,-444.123565,1991.848295
949.270166,-11695.253884,518.144159,3524.039291
949.270486,-12065.356855,0.000000,5669.106685
949.270807,-11029.068536,-1702.473667,4596.572988
949.271127,-10214.842000,-2738.761985,2221.676944
949.271448,-9178.553681,-1554.432478,0.000000
949.271769,-7920.203579,-370.102971,-306.438199
949.272089,-8142.265362,1110.308913,-612.876398
949.272410,-7328.038826,2442.679609,919.314598
949.272730,-8660.409521,888.247130,1991.848295
949.273051,-9474.636058,-444.123565,995.924147
949.273372,-10436.903782,-1036.288319,2298.286494
949.273692,-10807.006753,-962.267725,2987.772442
949.274013,-10140.821405,0.000000,4136.915689
949.274334,-11177.109724,74.020594,3677.258390
949.274654,-9400.615463,148.041188,3370.820191
949.274975,-9474.636058,-1258.350101,459.657299
949.275295,-8956.491898,74.020594,-842.705048
949.275616,-7476.080014,1332.370696,-1455.581446
949.275937,-8068.244768,1110.308913,-1225.752797
949.276257,-7920.203579,2146.597232,76.609550
949.276578,-10288.862594,592.164754,2451.505594
949.276899,-10436.903782,-1184.329507,1915.238745
949.277219,-10214.842000,-1628.453072,2298.286494
949.277540,-11325.150913,-1480.411884,2834.553343
949.277860,-10436.903782,-444.123565,1991.848295
949.278181,-10288.862594,296.082377,1225.752797
949.278502,-8882.471304,888.247130,2145.067394
949.278822,-8290.306550,296.082377,842.705048
949.279143,-9918.759623,-592.164754,0.000000
949.279464,-9474.636058,-444.123565,-229.828649
949.279784,-8882.471304,-296.082377,383.047749
949.280105,-9474.636058,-518.144159,459.657299
949.280425,-10214.842000,222.061783,2145.067394
949.280746,-10955.047942,-518.144159,1762.019645
949.281067,-10288.862594,-1036.288319,919.314598
949.281387,-9548.656652,-962.267725,459.657299
949.281708,-9918.759623,-962.267725,383.047749
949.282029,-9622.677246,-1258.350101,-383.047749
949.282349,-8660.409521,1332.370696,0.000000
949.282670,-8734.430116,888.247130,153.219100
949.282990,-8808.450710,-444.123565,383.047749
949.283311,-9252.574275,-1406.391290,766.095498
949.283632,-10066.800811,-1998.556043,995.924147
949.283952,-10362.883188,-1554.432478,1378.971896
949.284273,-11325.150913,-296.082377,2987.772442
949.284594,-10362.883188,0.000000,3064.381992
949.284914,-10214.842000,-1628.453072,1532.190996
949.285235,-10214.842000,-1110.308913,383.047749
949.285556,-8808.450710,-1480.411884,-689.485948
949.285876,-8586.388927,-296.082377,-1685.410096
949.286197,-8438.347739,888.247130,-1455.581446
949.286517,-8438.347739,2368.659014,766.095498
949.286838,-9622.677246,1184.329507,1455.581446
949.287159,-9992.780217,-1332.370696,1762.019645
949.287479,-9548.656652,-2368.659014,1532.190996
949.287800,-10066.800811,-2516.700203,842.705048
949.288121,-10066.800811,-592.164754,1762.019645
949.288441,-9696.697840,1184.329507,2528.115143
949.288762,-8808.450710,1776.494261,2604.724693
949.289082,-9400.615463,-592.164754,1302.362347
949.289403,-8586.388927,-2368.659014,-306.438199
949.289724,-8882.471304,-3034.844362,-689.485948
949.290044,-9474.636058,-962.267725,0.000000
949.290365,-10066.800811,888.247130,2145.067394
949.290686,-10732.986159,814.226536,2681.334243
949.291006,-8660.409521,0.000000,2757.943793
949.291327,-9918.759623,-2960.823768,459.657299
949.291648,-9548.656652,-592.164754,459.657299
949.291968,-10955.047942,-1554.432478,1378.971896
949.292289,-8808.450710,666.185348,1378.971896
949.292609,-9030.512492,2368.659014,2604.724693
949.292930,-9548.656652,666.185348,2987.772442
949.293251,-9326.594869,0.000000,2298.286494
949.293571,-10658.965565,-1850.514855,2298.286494
949.293892,-9104.533087,-1406.391290,1455.581446
949.294213,-9770.718434,-222.061783,536.266849
949.294533,-9474.636058,1406.391290,1072.533697
949.294854,-9252.574275,1628.453072,995.924147
949.295174,-9030.512492,592.164754,153.219100
949.295495,-8882.471304,-444.123565,-995.924147
949.295816,-9104.533087,-296.082377,-459.657299
949.296136,-10288.862594,0.000000,612.876398
949.296457,-9918.759623,1184.329507,2068.457845
949.296778,-10066.800811,2368.659014,3524.039291
949.297098,-10584.944971,-444.123565,2451.505594
949.297419,-9770.718434,-888.247130,1532.190996
949.297740,-8882.471304,444.123565,2221.676944
949.298060,-11621.233289,-3478.967927,-229.828649
949.298381,-6513.812290,2220.617826,76.609550
949.298701,-10066.800811,222.061783,536.266849
949.299022,-9178.553681,1406.391290,2221.676944
949.299343,-9104.533087,-888.247130,-459.657299
949.299663,-11399.171507,-1480.411884,2451.505594
949.299984,-9474.636058,-1776.494261,153.219100
949.300305,-9178.553681,-1702.473667,-995.924147
949.300625,-11103.089130,1258.350101,3524.039291
949.300946,-8364.327145,74.020594,1532.190996
949.301266,-9918.759623,0.000000,383.047749
949.301587,-9326.594869,-962.267725,919.314598
949.301908,-7698.141797,-1776.494261,-1838.629195
949.302228,-10288.862594,-1998.556043,0.000000
949.302549,-9400.615463,-296.082377,1991.848295
949.302870,-7846.182985,370.102971,2451.505594
949.303190,-10510.924376,-2294.638420,1838.629195
949.303511,-9252.574275,-1702.473667,1608.800546
949.303832,-8956.491898,-1036.288319,0.000000
949.304152,-10658.965565,-1258.350101,383.047749
949.304473,-9326.594869,518.144159,919.314598
949.304793,-9548.656652,222.061783,1608.800546
949.305114,-9104.533087,-1998.556043,-229.828649
949.305435,-9474.636058,-1406.391290,-459.657299
949.305755,-9770.718434,-1628.453072,-153.219100
949.306076,-10214.842000,-518.144159,0.000000
949.306397,-9622.677246,814.226536,1608.800546
949.306717,-10288.862594,222.061783,1072.533697
949.307038,-9918.759623,1258.350101,2068.457845
949.307358,-10362.883188,0.000000,1302.362347
949.307679,-10066.800811,740.205942,2604.724693
949.308000,-10510.924376,74.020594,1608.800546
949.308320,-9474.636058,-1480.411884,0.000000
949.308641,-9400.615463,-370.102971,459.657299
949.308962,-10362.883188,-1332.370696,1915.238745
949.309282,-9030.512492,-2664.741391,1149.143247
949.309603,-10140.821405,-1332.370696,1072.533697
949.309924,-10066.800811,-444.123565,766.095498
949.310244,-9548.656652,814.226536,536.266849
949.310565,-11325.150913,1554.432478,2528.115143
949.310885,-9474.636058,1554.432478,2681.334243
949.311206,-9992.780217,-814.226536,1532.190996
949.311527,-9252.574275,-2664.741391,0.000000
949.311847,-8364.327145,-666.185348,-842.705048
949.312168,-9770.718434,-1110.308913,459.657299
949.312489,-8808.450710,592.164754,689.485948
949.312809,-8956.491898,2072.576638,2451.505594
949.313130,-9622.677246,-296.082377,1378.971896
949.313450,-9104.533087,-962.267725,995.924147
949.313771,-9844.739029,-888.247130,1838.629195
949.314092,-9474.636058,0.000000,1302.362347
949.314412,-9622.677246,148.041188,995.924147
949.314733,-9030.512492,2146.597232,1302.362347
949.315054,-8734.430116,666.185348,1149.143247
949.315374,-8586.388927,-148.041188,-536.266849
949.315695,-9400.615463,-1184.329507,76.609550
949.316016,-8438.347739,-1036.288319,-1685.410096
949.316336,-9030.512492,0.000000,0.000000
949.316657,-10584.944971,814.226536,2221.676944
949.316977,-9178.553681,1554.432478,3217.601092
949.317298,-11473.192101,-962.267725,2757.943793
949.317619,-9770.718434,0.000000,2987.772442
949.317939,-10658.965565,-1184.329507,2757.943793
949.318260,-10288.862594,-1184.329507,1762.019645
949.318581,-9474.636058,0.000000,1838.629195
949.318901,-7624.121203,592.164754,1149.143247
949.319222,-8808.450710,74.020594,689.485948
949.319542,-8586.388927,-814.226536,153.219100
949.319863,-9548.656652,-1110.308913,306.438199
949.320184,-10584.944971,74.020594,995.924147
949.320504,-10955.047942,148.041188,1302.362347
949.320825,-10066.800811,1258.350101,2528.115143
949.321146,-11029.068536,-222.061783,2834.553343
949.321466,-10214.842000,-1406.391290,1685.410096
949.321787,-9548.656652,-1554.432478,306.438199
949.322108,-9622.677246,-1628.453072,-689.485948
949.322428,-9326.594869,0.000000,-842.705048
949.322749,-9474.636058,444.123565,842.705048
949.323069,-9696.697840,1850.514855,3830.477490
949.323390,-9844.739029,-1184.329507,1072.533697
949.323711,-9844.739029,-2368.659014,229.828649
949.324031,-9474.636058,-2294.638420,-306.438199
949.324352,-10066.800811,-1776.494261,229.828649
949.324673,-10288.862594,-740.205942,1532.190996
949.324993,-8660.409521,222.061783,919.314598
949.325314,-9104.533087,-1110.308913,-229.828649
949.325634,-8882.471304,-814.226536,-995.924147
949.325955,-10140.821405,-296.082377,0.000000
949.326276,-10510.924376,0.000000,76.609550
949.326596,-9844.739029,666.185348,536.266849
949.326917,-9030.512492,1184.329507,1072.533697
949.327238,-9696.697840,518.144159,2298.286494
949.327558,-10214.842000,-1184.329507,1608.800546
949.327879,-9326.594869,-1702.473667,229.828649
949.328200,-8216.285956,-814.226536,-306.438199
949.328520,-9104.533087,0.000000,0.000000
949.328841,-8882.471304,962.267725,2221.676944
949.329161,-9844.739029,148.041188,3217.601092
949.329482,-10510.924376,-814.226536,2221.676944
949.329803,-9844.739029,-1036.288319,2145.067394
949.330123,-9622.677246,-1924.535449,1762.019645
949.330444,-9770.718434,-1258.350101,1072.533697
949.330765,-9622.677246,296.082377,1072.533697
949.331085,-8586.388927,962.267725,1838.629195
949.331406,-7994.224174,-1332.370696,-1072.533697
949.331726,-8882.471304,-1406.391290,0.000000
949.332047,-9844.739029,-1184.329507,1072.533697
949.332368,-9770.718434,-518.144159,689.485948
949.332688,-9474.636058,296.082377,1685.410096
949.333009,-9326.594869,1036.288319,2145.067394
949.333330,-9474.636058,962.267725,2374.896044
949.333650,-10066.800811,-296.082377,1762.019645
949.333971,-9622.677246,-370.102971,1762.019645
949.334292,-9918.759623,-814.226536,76.609550
949.334612,-9548.656652,-296.082377,766.095498
949.334933,-9400.615463,1406.391290,2451.505594
949.335253,-9992.780217,888.247130,2834.553343
949.335574,-9548.656652,74.020594,3064.381992
949.335895,-9696.697840,-592.164754,1455.581446
949.336215,-9326.594869,-666.185348,306.438199
949.336536,-10140.821405,-592.164754,689.485948
949.336857,-9918.759623,962.267725,2145.067394
949.337177,-9030.512492,666.185348,2221.676944
949.337498,-9252.574275,0.000000,383.047749
949.337818,-9178.553681,148.041188,612.876398
949.338139,-9252.574275,-444.123565,459.657299
949.338460,-9474.636058,-666.185348,153.219100
949.338780,-9622.677246,1406.391290,1378.971896
949.339101,-9548.656652,2072.576638,2681.334243
949.339422,-10288.862594,-370.102971,2298.286494
949.339742,-10140.821405,-1406.391290,1378.971896
949.340063,-9770.718434,-2146.597232,0.000000
949.340384,-9474.636058,-1110.308913,-383.047749
949.340704,-9178.553681,0.000000,229.828649
949.341025,-9622.677246,1258.350101,1685.410096
949.341345,-10436.903782,222.061783,1608.800546
949.341666,-9844.739029,148.041188,1072.533697
949.341987,-9474.636058,-1702.473667,153.219100
949.342307,-9474.636058,-2072.576638,-612.876398
949.342628,-8512.368333,-592.164754,-1532.190996
949.342949,-8956.491898,148.041188,919.314598
949.343269,-8364.327145,444.123565,1991.848295
949.343590,-8956.491898,-1184.329507,766.095498
949.343910,-9474.636058,-2072.576638,612.876398
949.344231,-9696.697840,-1406.391290,383.047749
949.344552,-10584.944971,-1702.473667,1225.752797
949.344872,-9918.759623,-962.267725,2068.457845
949.345193,-9104.533087,-888.247130,1149.143247
949.345514,-9178.553681,-1110.308913,383.047749
949.345834,-9770.718434,-1554.432478,383.047749
949.346155,-9400.615463,-1258.350101,536.266849
949.346476,-9844.739029,-666.185348,383.047749
949.346796,-10658.965565,370.102971,1455.581446
949.347117,-9474.636058,296.082377,2145.067394
949.347437,-9992.780217,-444.123565,2757.943793
949.347758,-10066.800811,-1332.370696,1378.971896
949.348079,-9030.512492,-370.102971,919.314598
949.348399,-9104.533087,-888.247130,229.828649
949.348720,-9104.533087,-814.226536,459.657299
949.349041,-8734.430116,296.082377,459.657299
949.349361,-9474.636058,0.000000,995.924147
949.349682,-9918.759623,0.000000,766.095498
949.350002,-10066.800811,-370.102971,536.266849
949.350323,-10362.883188,-962.267725,612.876398
949.350644,-10066.800811,148.041188,689.485948
949.350964,-9104.533087,1480.411884,3524.039291
949.351285,-10955.047942,1184.329507,3983.696590
949.351606,-10288.862594,-370.102971,3064.381992
949.351926,-10140.821405,-1110.308913,1608.800546
949.352247,-9474.636058,-148.041188,1762.019645
949.352568,-8882.471304,0.000000,229.828649
949.352888,-8512.368333,296.082377,459.657299
949.353209,-8290.306550,444.123565,1455.581446
949.353529,-8882.471304,-1332.370696,1072.533697
949.353850,-9400.615463,-1998.556043,229.828649
949.354171,-10140.821405,-1184.329507,306.438199
949.354491,-10066.800811,222.061783,766.095498
949.354812,-10584.944971,1110.308913,2145.067394
949.355133,-9326.594869,2072.576638,3983.696590
949.355453,-9696.697840,592.164754,2757.943793
949.355774,-10140.821405,-2516.700203,1608.800546
949.356094,-9178.553681,-1258.350101,766.095498
949.356415,-9918.759623,-1702.473667,842.705048
949.356736,-8660.409521,222.061783,76.609550
949.357056,-8512.368333,1628.453072,1455.581446
949.357377,-8438.347739,1110.308913,1915.238745
949.357698,-9030.512492,-222.061783,1378.971896
949.358018,-10066.800811,-666.185348,842.705048
949.358339,-9400.615463,-518.144159,459.657299
949.358660,-9992.780217,-962.267725,306.438199
949.358980,-8586.388927,1036.288319,612.876398
949.359301,-9474.636058,2146.597232,2681.334243
949.359621,-9622.677246,814.226536,1532.190996
949.359942,-10584.944971,-888.247130,1072.533697
949.360263,-10955.047942,74.020594,1302.362347
949.360583,-10214.842000,-962.267725,995.924147
949.360904,-9696.697840,-1998.556043,1072.533697
949.361225,-8364.327145,444.123565,612.876398
949.361545,-9326.594869,-962.267725,-536.266849
949.361866,-7624.121203,0.000000,-1915.238745
949.362186,-8512.368333,222.061783,0.000000
949.362507,-10214.842000,-888.247130,306.438199
949.362828,-10436.903782,-296.082377,919.314598
949.363148,-10807.006753,814.226536,2604.724693
949.363469,-11103.089130,814.226536,4290.134789
949.363790,-11991.336260,-962.267725,3677.258390
949.364110,-10288.862594,-1702.473667,3140.991542
949.364431,-9770.718434,-2738.761985,-612.876398
949.364752,-8586.388927,-962.267725,-1455.581446
949.365072,-8142.265362,0.000000,-1455.581446
949.365393,-7994.224174,1406.391290,-229.828649
949.365713,-9622.677246,666.185348,229.828649
949.366034,-8808.450710,-148.041188,0.000000
949.366355,-8808.450710,-888.247130,766.095498
949.366675,-10881.027347,-1702.473667,612.876398
949.366996,-10955.047942,-1110.308913,2068.457845
949.367317,-10436.903782,296.082377,3600.648841
949.367637,-9770.718434,1036.288319,2451.505594
949.367958,-10066.800811,-1184.329507,1608.800546
949.368278,-9474.636058,-1110.308913,383.047749
949.368599,-9252.574275,-962.267725,76.609550
949.368920,-8956.491898,74.020594,229.828649
949.369240,-8660.409521,296.082377,995.924147
949.369561,-7920.203579,-296.082377,306.438199
949.369882,-9030.512492,-1702.473667,229.828649
949.370202,-9474.636058,-3182.885551,1225.752797
949.370523,-10510.924376,-2738.761985,1762.019645
949.370844,-10584.944971,-1628.453072,1455.581446
949.371164,-10362.883188,0.000000,1838.629195
949.371485,-9844.739029,1258.350101,3064.381992
949.371805,-9474.636058,444.123565,1225.752797
949.372126,-8808.450710,370.102971,1455.581446
949.372447,-9622.677246,-740.205942,995.924147
949.372767,-7920.203579,-1480.411884,-612.876398
949.373088,-9104.533087,-1258.350101,229.828649
949.373409,-9622.677246,148.041188,2068.457845
949.373729,-9474.636058,666.185348,2987.772442
949.374050,-10732.986159,518.144159,2911.162892
949.374370,-9474.636058,370.102971,2145.067394
949.374691,-11029.068536,-1110.308913,1302.362347
949.375012,-10881.027347,-888.247130,1608.800546
949.375332,-9030.512492,1110.308913,1455.581446
949.375653,-9622.677246,888.247130,1225.752797
949.375974,-8660.409521,666.185348,-459.657299
949.376294,-8734.430116,518.144159,-306.438199
949.376615,-9770.718434,0.000000,306.438199
949.376936,-9326.594869,-296.082377,919.314598
949.377256,-9992.780217,74.020594,3600.648841
949.377576,-10362.883188,-296.082377,2451.505594
949.377897,-9918.759623,-962.267725,1149.143247
949.378218,-9548.656652,444.123565,1378.971896
949.378538,-9474.636058,222.061783,842.705048
949.378859,-9030.512492,148.041188,-459.657299
949.379180,-9104.533087,666.185348,459.657299
949.379501,-9178.553681,148.041188,1149.143247
949.379821,-9622.677246,-518.144159,919.314598
949.380142,-10288.862594,-1184.329507,842.705048
949.380463,-9770.718434,296.082377,995.924147
949.380784,-10288.862594,-444.123565,1072.533697
949.381104,-9696.697840,-740.205942,919.314598
949.381425,-9474.636058,0.000000,1532.190996
949.381746,-9548.656652,-1258.350101,612.876398
949.382067,-9474.636058,-962.267725,766.095498
949.382387,-9178.553681,-666.185348,0.000000
949.382708,-9030.512492,0.000000,-612.876398
949.383029,-9474.636058,296.082377,-1455.581446
949.383349,-9104.533087,666.185348,1455.581446
949.383670,-9844.739029,0.000000,2068.457845
949.383991,-10140.821405,-888.247130,1608.800546
949.384312,-10732.986159,-1776.494261,306.438199
949.384632,-9548.656652,0.000000,995.924147
949.384953,-9992.780217,0.000000,612.876398
949.385274,-9918.759623,148.041188,995.924147
949.385595,-9474.636058,592.164754,1991.848295
949.385915,-9548.656652,-2664.741391,2987.772442
949.386236,-10140.821405,-2442.679609,612.876398
949.386557,-10214.842000,-1480.411884,919.314598
949.386878,-9770.718434,-1480.411884,-536.266849
949.387198,-9104.533087,1110.308913,-766.095498
949.387519,-7994.224174,1850.514855,76.609550
949.387840,-9030.512492,592.164754,536.266849
949.388161,-9474.636058,-518.144159,0.000000
949.388481,-10362.883188,-1480.411884,1225.752797
949.388802,-10436.903782,-1184.329507,2911.162892
949.389123,-10658.965565,-740.205942,2374.896044
949.389443,-10807.006753,74.020594,3600.648841
949.389764,-9474.636058,0.000000,3140.991542
949.390085,-9696.697840,-518.144159,1915.238745
949.390406,-9030.512492,-1332.370696,612.876398
949.390726,-9030.512492,-1406.391290,-766.095498
949.391047,-8808.450710,-1110.308913,-1072.533697
949.391368,-8882.471304,0.000000,383.047749
949.391689,-8956.491898,296.082377,2987.772442
949.392009,-10140.821405,-1924.535449,2528.115143
949.392330,-10807.006753,-2516.700203,2528.115143
949.392651,-10066.800811,-2368.659014,1685.410096
949.392972,-10510.924376,-1554.432478,76.609550
949.393292,-9622.677246,814.226536,2068.457845
949.393613,-9104.533087,1850.514855,2451.505594
949.393934,-9030.512492,518.144159,842.705048
949.394254,-8586.388927,-518.144159,1532.190996
949.394575,-8808.450710,-1258.350101,-306.438199
949.394896,-9252.574275,-1554.432478,-689.485948
949.395217,-9918.759623,-740.205942,306.438199
949.395537,-9474.636058,814.226536,1762.019645
949.395858,-9992.780217,888.247130,2451.505594
949.396179,-10436.903782,-444.123565,2528.115143
949.396500,-10214.842000,-1036.288319,2298.286494
949.396820,-10362.883188,-1924.535449,995.924147
949.397141,-9326.594869,444.123565,0.000000
949.397462,-9474.636058,1258.350101,1149.143247
949.397783,-8882.471304,2220.617826,2374.896044
949.398103,-9178.553681,-148.041188,1378.971896
949.398424,-8956.491898,-1924.535449,-229.828649
949.398745,-8438.347739,-814.226536,-766.095498
949.399065,-9918.759623,-1406.391290,842.705048
949.399386,-9252.574275,888.247130,1685.410096
949.399707,-10584.944971,2220.617826,3524.039291
949.400028,-9918.759623,888.247130,2451.505594
949.400348,-9474.636058,518.144159,1608.800546
949.400669,-10510.924376,-1702.473667,766.095498
949.400990,-9400.615463,-222.061783,459.657299
949.401311,-9770.718434,962.267725,306.438199
949.401631,-8808.450710,1480.411884,1302.362347
949.401952,-8882.471304,1406.391290,1225.752797
949.402273,-10066.800811,0.000000,919.314598
949.402594,-9474.636058,0.000000,612.876398
949.402914,-10140.821405,-1258.350101,842.705048
949.403235,-9992.780217,-444.123565,383.047749
949.403556,-9474.636058,666.185348,1838.629195
949.403876,-9622.677246,370.102971,2681.334243
949.404197,-10214.842000,-1332.370696,1072.533697
949.404518,-9252.574275,-1184.329507,995.924147
949.404839,-8956.491898,-1480.411884,-229.828649
949.405159,-9474.636058,-518.144159,-229.828649
949.405480,-9696.697840,0.000000,1685.410096
949.405801,-9030.512492,1406.391290,1685.410096
949.406122,-10140.821405,-148.041188,1072.533697
949.406442,-9474.636058,-1924.535449,0.000000
949.406763,-9474.636058,-1628.453072,459.657299
949.407084,-9918.759623,-814.226536,153.219100
949.407405,-10066.800811,370.102971,1762.019645
949.407725,-9992.780217,1258.350101,2987.772442
949.408046,-9252.574275,-666.185348,2298.286494
949.408367,-9474.636058,-2294.638420,689.485948
949.408687,-9474.636058,-666.185348,612.876398
949.409008,-9844.739029,-1184.329507,459.657299
949.409329,-9178.553681,74.020594,536.266849
949.409650,-9770.718434,740.205942,1455.581446
949.409970,-9104.533087,-518.144159,842.705048
949.410291,-9548.656652,-1702.473667,153.219100
949.410612,-10288.862594,-1998.556043,919.314598
949.410933,-9696.697840,-2368.659014,306.438199
949.411253,-9844.739029,-814.226536,76.609550
949.411574,-9992.780217,148.041188,1532.190996
949.411895,-9252.574275,740.205942,2451.505594
949.412216,-10288.862594,-444.123565,1991.848295
949.412536,-9844.739029,-666.185348,1532.190996
949.412857,-9104.533087,-1406.391290,76.609550
949.413178,-9844.739029,-962.267725,0.000000
949.413498,-9696.697840,0.000000,689.485948
949.413819,-9030.512492,1850.514855,1608.800546
949.414140,-9770.718434,444.123565,1455.581446
949.414461,-10066.800811,-370.102971,1149.143247
949.414781,-9844.739029,-888.247130,689.485948
949.415102,-9918.759623,-1628.453072,-536.266849
949.415423,-9474.636058,0.000000,229.828649
949.415744,-8660.409521,1184.329507,0.000000
949.416064,-9104.533087,1036.288319,459.657299
949.416385,-9252.574275,0.000000,306.438199
949.416706,-9622.677246,-592.164754,842.705048
949.417027,-11251.130318,-1628.453072,1302.362347
949.417347,-9992.780217,-1702.473667,2374.896044
949.417668,-11621.233289,-1554.432478,3217.601092
949.417989,-9918.759623,222.061783,3294.210641
949.418310,-10510.924376,-1628.453072,2757.943793
949.418630,-8512.368333,0.000000,1302.362347
949.418951,-9104.533087,-1184.329507,536.266849
949.419272,-7698.141797,1332.370696,1225.752797
949.419592,-10881.027347,-1628.453072,-229.828649
949.419913,-5847.626942,2072.576638,2451.505594
949.420234,-10732.986159,-1628.453072,995.924147
949.420555,-8956.491898,-740.205942,2451.505594
949.420875,-9400.615463,-592.164754,842.705048
949.421196,-11177.109724,74.020594,4443.353888
949.421517,-10140.821405,-296.082377,1225.752797
949.421838,-9696.697840,222.061783,2374.896044
949.422158,-10288.862594,74.020594,3140.991542
949.422479,-8660.409521,-740.205942,383.047749
949.422800,-9252.574275,1036.288319,766.095498
949.423121,-9474.636058,-444.123565,766.095498
949.423441,-7624.121203,148.041188,-1225.752797
949.423762,-9844.739029,666.185348,1302.362347
949.424083,-9030.512492,148.041188,2298.286494
949.424403,-9918.759623,-518.144159,1072.533697
949.424724,-11547.212695,-296.082377,2145.067394
949.425045,-10066.800811,-666.185348,153.219100
949.425366,-9178.553681,666.185348,919.314598
949.425686,-10436.903782,-518.144159,689.485948
949.426007,-8364.327145,666.185348,689.485948
949.426328,-9474.636058,-370.102971,-536.266849
949.426649,-9252.574275,-1110.308913,-306.438199
949.426969,-10362.883188,-592.164754,383.047749
949.427290,-9918.759623,-1406.391290,-459.657299
949.427611,-9844.739029,962.267725,612.876398
949.427932,-9326.594869,2146.597232,2145.067394
949.428252,-9474.636058,-444.123565,1455.581446
949.428573,-10214.842000,-1702.473667,995.924147
949.428894,-9770.718434,-1258.350101,229.828649
949.429214,-9622.677246,-1406.391290,229.828649
949.429535,-10214.842000,-518.144159,1302.362347
949.429856,-9474.636058,518.144159,2911.162892
949.430177,-9992.780217,-444.123565,1991.848295
949.430497,-10955.047942,-1184.329507,1378.971896
949.430818,-9326.594869,-814.226536,383.047749
949.431139,-10288.862594,-1480.411884,-153.219100
949.431460,-9474.636058,-444.123565,-459.657299
949.431780,-8290.306550,1406.391290,842.705048
949.432101,-8882.471304,740.205942,1302.362347
949.432422,-8586.388927,-1480.411884,2068.457845
949.432743,-9622.677246,-1332.370696,689.485948
949.433063,-10066.800811,-740.205942,1225.752797
949.433384,-9548.656652,-666.185348,919.314598
949.433705,-9252.574275,1406.391290,1532.190996
949.434025,-8956.491898,2220.617826,1685.410096
949.434346,-9770.718434,888.247130,1378.971896
949.434667,-9400.615463,0.000000,1608.800546
949.434988,-9474.636058,-1554.432478,1532.190996
949.435308,-9844.739029,-1702.473667,1915.238745
949.435629,-10510.924376,0.000000,3217.601092
949.435950,-10584.944971,1998.556043,4903.011187
949.436271,-10362.883188,1924.535449,6052.154434
949.436591,-11251.130318,1036.288319,3907.087040
949.436912,-8586.388927,-666.185348,2451.505594
949.437233,-8734.430116,-1258.350101,919.314598
949.437554,-8438.347739,-296.082377,383.047749
949.437874,-8068.244768,962.267725,1149.143247
949.438195,-8290.306550,1554.432478,2145.067394
949.438516,-8216.285956,1554.432478,1378.971896
949.438836,-10436.903782,-518.144159,2451.505594
949.439157,-10066.800811,-444.123565,2987.772442
949.439478,-12361.439231,-740.205942,3830.477490
949.439799,-11621.233289,-1184.329507,3447.429741
949.440119,-9696.697840,814.226536,3600.648841
949.440440,-10214.842000,1184.329507,3140.991542
949.440761,-9104.533087,148.041188,2681.334243
949.441082,-8068.244768,592.164754,306.438199
949.441402,-8586.388927,592.164754,-919.314598
949.441723,-8956.491898,1332.370696,-383.047749
949.442044,-9104.533087,2886.803174,766.095498
949.442365,-8882.471304,3701.029710,3140.991542
949.442685,-10955.047942,1924.535449,3370.820191
949.443006,-10140.821405,1998.556043,4060.306139
949.443327,-10436.903782,296.082377,3677.258390
949.443647,-10436.903782,518.144159,3600.648841
949.443968,-9548.656652,1776.494261,3140.991542
949.444289,-9474.636058,1924.535449,2374.896044
949.444610,-7846.182985,4663.297435,2221.676944
949.444930,-9474.636058,4145.153275,3524.039291
949.445251,-10510.924376,3552.988522,3294.210641
949.445572,-9696.697840,2072.576638,2451.505594
949.445893,-10066.800811,1628.453072,1455.581446
949.446213,-10436.903782,1702.473667,2757.943793
949.446534,-9548.656652,1628.453072,3294.210641
949.446855,-9844.739029,1776.494261,4136.915689
949.447176,-10066.800811,814.226536,3294.210641
949.447496,-9918.759623,666.185348,3064.381992
949.447817,-9474.636058,0.000000,3140.991542
949.448138,-9474.636058,370.102971,2911.162892
949.448458,-9918.759623,1110.308913,3370.820191
949.448779,-9252.574275,1406.391290,3217.601092
949.449100,-8142.265362,3108.864956,5362.668486
949.449421,-9844.739029,2368.659014,3370.820191
949.449741,-10214.842000,2442.679609,4673.182538
949.450062,-10140.821405,962.267725,4979.620737
949.450383,-9548.656652,814.226536,3983.696590
949.450704,-9474.636058,1036.288319,2911.162892
949.451024,-8956.491898,2368.659014,3600.648841
949.451345,-9030.512492,2146.597232,3753.867940
949.451666,-8956.491898,2146.597232,3140.991542
949.451987,-8956.491898,1776.494261,3217.601092
949.452307,-9474.636058,1258.350101,4290.134789
949.452628,-10658.965565,444.123565,5515.887586
949.452949,-10362.883188,148.041188,4979.620737
949.453270,-9030.512492,592.164754,5592.497135
949.453590,-8882.471304,1998.556043,3524.039291
949.453911,-9104.533087,2072.576638,2987.772442
949.454232,-8956.491898,2146.597232,3064.381992
949.454552,-9030.512492,1258.350101,2757.943793
949.454873,-9474.636058,1110.308913,3064.381992
949.455194,-10214.842000,1924.535449,4903.011187
949.455515,-10658.965565,1406.391290,5439.278036
949.455835,-10510.924376,888.247130,4749.792088
949.456156,-9548.656652,1184.329507,3217.601092
949.456477,-9178.553681,1480.411884,2834.553343
949.456798,-9252.574275,2072.576638,2681.334243
949.457118,-9770.718434,1554.432478,2528.115143
949.457439,-9400.615463,740.205942,1149.143247
949.457760,-8808.450710,1184.329507,995.924147
949.458081,-9622.677246,1406.391290,2145.067394
949.458401,-10658.965565,2220.617826,3370.820191
949.458722,-11103.089130,2294.638420,4749.792088
949.459043,-10584.944971,1554.432478,3830.477490
949.459363,-10140.821405,1258.350101,3524.039291
949.459684,-10214.842000,1924.535449,3370.820191
949.460005,-10510.924376,1924.535449,3907.087040
949.460326,-9474.636058,814.226536,3140.991542
949.460646,-8882.471304,370.102971,1072.533697
949.460967,-8586.388927,740.205942,0.000000
949.461288,-9252.574275,1480.411884,995.924147
949.461609,-10066.800811,2146.597232,3600.648841
949.461929,-9918.759623,1998.556043,4826.401637
949.462250,-10214.842000,666.185348,4060.306139
949.462571,-10066.800811,296.082377,3447.429741
949.462892,-9622.677246,1110.308913,3600.648841
949.463212,-8808.450710,1332.370696,3830.477490
949.463533,-9178.553681,2368.659014,3370.820191
949.463854,-8586.388927,1924.535449,2298.286494
949.464174,-8364.327145,1110.308913,1455.581446
949.464495,-8956.491898,592.164754,1455.581446
949.464816,-9548.656652,370.102971,2757.943793
949.465137,-9696.697840,814.226536,3294.210641
949.465457,-9622.677246,1998.556043,4826.401637
949.465778,-9844.739029,2368.659014,4673.182538
949.466099,-10066.800811,2516.700203,5362.668486
949.466420,-10140.821405,2220.617826,5362.668486
949.466740,-9622.677246,2072.576638,4366.744339
949.467061,-9770.718434,2368.659014,3064.381992
949.467382,-9474.636058,2812.782580,2451.505594
949.467703,-8882.471304,3034.844362,2451.505594
949.468023,-8956.491898,2442.679609,2528.115143
949.468344,-9326.594869,1998.556043,2757.943793
949.468665,-9770.718434,1628.453072,1378.971896
949.468985,-10140.821405,814.226536,2911.162892
949.469306,-10584.944971,1184.329507,3370.820191
949.469627,-10807.006753,1850.514855,3983.696590
949.469948,-10140.821405,2442.679609,4290.134789
949.470268,-9696.697840,2368.659014,3753.867940
949.470589,-9474.636058,2368.659014,4060.306139
949.470910,-9918.759623,1776.494261,4519.963438
949.471231,-10066.800811,2220.617826,5286.058936
949.471551,-10214.842000,2368.659014,5975.544884
949.471872,-9918.759623,2516.700203,4749.792088
949.472193,-9548.656652,3034.844362,4136.915689
949.472514,-9474.636058,2812.782580,3140.991542
949.472834,-9178.553681,2146.597232,1838.629195
949.473155,-9104.533087,1628.453072,995.924147
949.473476,-8882.471304,1258.350101,153.219100
949.473796,-9030.512492,1258.350101,-459.657299
949.474117,-9474.636058,1184.329507,459.657299
949.474438,-10140.821405,1628.453072,1302.362347
949.474759,-10584.944971,2072.576638,2068.457845
949.475079,-10362.883188,1702.473667,2451.505594
949.475400,-10510.924376,1480.411884,3217.601092
949.475721,-10288.862594,1776.494261,4290.134789
949.476042,-10140.821405,1480.411884,4749.792088
949.476362,-9474.636058,1628.453072,4596.572988
949.476683,-8512.368333,1924.535449,3983.696590
949.477004,-8808.450710,3256.906145,3524.039291
949.477325,-8142.265362,1554.432478,3677.258390
949.477645,-8364.327145,1480.411884,3370.820191
949.477966,-9178.553681,1628.453072,3677.258390
949.478287,-9474.636058,1628.453072,3983.696590
949.478608,-10140.821405,1628.453072,4136.915689
949.478929,-10436.903782,1998.556043,4596.572988
949.479249,-10584.944971,2072.576638,4596.572988
949.479570,-10436.903782,1924.535449,4826.401637
949.479891,-10140.821405,1406.391290,4903.011187
949.480212,-9770.718434,1406.391290,4290.134789
949.480532,-9696.697840,1702.473667,4136.915689
949.480853,-9770.718434,1406.391290,4749.792088
949.481174,-9548.656652,1332.370696,4213.525239
949.481495,-9252.574275,1332.370696,3753.867940
949.481815,-9252.574275,1036.288319,3753.867940
949.482136,-9622.677246,888.247130,3677.258390
949.482457,-9918.759623,1258.350101,3447.429741
949.482778,-9252.574275,1258.350101,2834.553343
949.483099,-9622.677246,1628.453072,2298.286494
949.483419,-9918.759623,1554.432478,2068.457845
949.483740,-10066.800811,1702.473667,1838.629195
949.484061,-10362.883188,2664.741391,1915.238745
949.484382,-9992.780217,1702.473667,1915.238745
949.484702,-9992.780217,1406.391290,2145.067394
949.485023,-9918.759623,1480.411884,2221.676944
949.485344,-9918.759623,1406.391290,2451.505594
949.485665,-9844.739029,1184.329507,2834.553343
949.485986,-9474.636058,1258.350101,2604.724693
949.486306,-9474.636058,592.164754,2068.457845
949.486627,-9326.594869,0.000000,1072.533697
949.486948,-8290.306550,888.247130,229.828649
949.487269,-9474.636058,518.144159,536.266849
949.487589,-9400.615463,962.267725,1149.143247
949.487910,-9474.636058,222.061783,995.924147
949.488231,-10807.006753,518.144159,1149.143247
949.488552,-10066.800811,444.123565,1302.362347
949.488872,-10510.924376,888.247130,1685.410096
949.489193,-10436.903782,1554.432478,1991.848295
949.489514,-9252.574275,1406.391290,1455.581446
949.489835,-9400.615463,1184.329507,612.876398
949.490156,-8734.430116,1036.288319,536.266849
949.490476,-8882.471304,666.185348,842.705048
949.490797,-9474.636058,814.226536,1838.629195
949.491118,-9252.574275,1184.329507,2528.115143
949.491439,-9474.636058,814.226536,2374.896044
949.491759,-9918.759623,592.164754,3064.381992
949.492080,-9918.759623,592.164754,3370.820191
949.492401,-9622.677246,814.226536,2911.162892
949.492722,-10066.800811,666.185348,3064.381992
949.493043,-9696.697840,1480.411884,3447.429741
949.493363,-9622.677246,1702.473667,3753.867940
949.493684,-10066.800811,2146.597232,3907.087040
949.494005,-9696.697840,1998.556043,4366.744339
949.494326,-9844.739029,1998.556043,4443.353888
949.494646,-10288.862594,1998.556043,5209.449386
949.494967,-10140.821405,1776.494261,5592.497135
949.495288,-10140.821405,1850.514855,6052.154434
949.495609,-10066.800811,2368.659014,6588.421283
949.495929,-9770.718434,2368.659014,5898.935335
949.496250,-9622.677246,2368.659014,6281.983084
949.496571,-9622.677246,2812.782580,6894.859482
949.496892,-9474.636058,2442.679609,5362.668486
949.497213,-9474.636058,2664.741391,5745.716235
949.497533,-9548.656652,2812.782580,5592.497135
949.497854,-9474.636058,2960.823768,5745.716235
949.498175,-9622.677246,3182.885551,5669.106685
949.498496,-9844.739029,3034.844362,6052.154434
949.498816,-9770.718434,3034.844362,6128.763984
949.499137,-9844.739029,3034.844362,6205.373534
949.499458,-9474.636058,3552.988522,5056.230287
949.499779,-9622.677246,3552.988522,5132.839837
949.500100,-9104.533087,3108.864956,4443.353888
949.500420,-8882.471304,3108.864956,3983.696590
949.500741,-9030.512492,3404.947333,3830.477490
949.501062,-8956.491898,2664.741391,4060.306139
949.501383,-9326.594869,2516.700203,3447.429741
949.501703,-9474.636058,2442.679609,3294.210641
949.502024,-9622.677246,2146.597232,3064.381992
949.502345,-9474.636058,2368.659014,2604.724693
949.502666,-9548.656652,1998.556043,1455.581446
949.502986,-9252.574275,1776.494261,766.095498
949.503307,-8956.491898,1850.514855,229.828649
949.503628,-8808.450710,1480.411884,0.000000
949.503949,-9474.636058,1480.411884,383.047749
949.504270,-9622.677246,1702.473667,1072.533697
949.504590,-9844.739029,1332.370696,2068.457845
949.504911,-10214.842000,1776.494261,1225.752797
949.505232,-10288.862594,1702.473667,2911.162892
949.505553,-9918.759623,1998.556043,2757.943793
949.505873,-9548.656652,1776.494261,2528.115143
949.506194,-9252.574275,1628.453072,2451.505594
949.506515,-9326.594869,1332.370696,1915.238745
949.506836,-9178.553681,1184.329507,1991.848295
949.507157,-9474.636058,888.247130,1608.800546
949.507477,-9696.697840,666.185348,1072.533697
949.507798,-9326.594869,1110.308913,689.485948
949.508119,-9770.718434,1036.288319,459.657299
949.508440,-9918.759623,1258.350101,919.314598
949.508760,-10066.800811,592.164754,1991.848295
949.509081,-10584.944971,1110.308913,2681.334243
949.509402,-10584.944971,444.123565,3907.087040
949.509723,-10807.006753,444.123565,4903.011187
949.510043,-10658.965565,1332.370696,6205.373534
949.510364,-10288.862594,1998.556043,6741.640382
949.510685,-9918.759623,2516.700203,7354.516781
949.511006,-9474.636058,2072.576638,7277.907231
949.511327,-9326.594869,1110.308913,6128.763984
949.511647,-9178.553681,0.000000,4290.134789
949.511968,-8364.327145,222.061783,2068.457845
949.512289,-8068.244768,740.205942,1532.190996
949.512610,-8882.471304,1480.411884,1685.410096
949.512930,-9548.656652,1480.411884,2374.896044
949.513251,-10140.821405,666.185348,4060.306139
949.513572,-10881.027347,222.061783,2911.162892
949.513893,-11325.150913,0.000000,3447.429741
949.514214,-11621.233289,666.185348,5669.106685
949.514534,-10955.047942,1036.288319,7201.297681
949.514855,-10066.800811,888.247130,6971.469032
949.515176,-9622.677246,592.164754,5975.544884
949.515497,-8734.430116,296.082377,4366.744339
949.515817,-7846.182985,1258.350101,3064.381992
949.516138,-7624.121203,1998.556043,3447.429741
949.516459,-7698.141797,3182.885551,3370.820191
949.516780,-8808.450710,1850.514855,3370.820191
949.517100,-9104.533087,1776.494261,3217.601092
949.517421,-9918.759623,1480.411884,4519.963438
949.517742,-10955.047942,1702.473667,4136.915689
949.518063,-11103.089130,2516.700203,3600.648841
949.518384,-10658.965565,2590.720797,2451.505594
949.518704,-9178.553681,2886.803174,383.047749
949.519025,-8586.388927,3108.864956,229.828649
949.519346,-9252.574275,2738.761985,842.705048
949.519667,-9252.574275,1776.494261,1072.533697
949.519987,-8882.471304,1480.411884,459.657299
949.520308,-8290.306550,1628.453072,536.266849
949.520629,-9400.615463,2738.761985,3064.381992
949.520950,-10510.924376,3552.988522,5669.106685
949.521271,-11177.109724,2368.659014,5209.449386
949.521591,-9696.697840,3849.070898,4290.134789
949.521912,-9474.636058,2886.803174,2374.896044
949.522233,-9474.636058,3775.050304,3140.991542
949.522554,-10436.903782,3923.091493,3907.087040
949.522874,-9622.677246,4367.215058,3524.039291
949.523195,-9104.533087,4293.194464,2068.457845
949.523516,-9400.615463,3701.029710,1838.629195
949.523837,-10288.862594,2886.803174,2604.724693
949.524157,-10584.944971,3330.926739,3294.210641
