#time,accel_x,accel_y,accel_z
1143.801837,-9326.594869,-3701.029710,3447.429741
1143.802158,-9030.512492,-3701.029710,3217.601092
1143.802479,-8808.450710,-3849.070898,2528.115143
1143.802800,-8808.450710,-3182.885551,2068.457845
1143.803120,-9104.533087,-2442.679609,1685.410096
1143.803441,-9178.553681,-592.164754,1225.752797
1143.803762,-10584.944971,222.061783,459.657299
1143.804083,-9548.656652,1184.329507,766.095498
1143.804404,-10140.821405,1480.411884,153.219100
1143.804725,-10807.006753,1258.350101,689.485948
1143.805046,-10732.986159,740.205942,995.924147
1143.805367,-11029.068536,0.000000,1455.581446
1143.805688,-10732.986159,-962.267725,1608.800546
1143.806009,-9622.677246,-1776.494261,1225.752797
1143.806330,-9696.697840,-2368.659014,1302.362347
1143.806651,-8734.430116,-2812.782580,995.924147
1143.806972,-8586.388927,-2220.617826,612.876398
1143.807293,-8808.450710,-2220.617826,995.924147
1143.807613,-8586.388927,-1628.453072,1225.752797
1143.807934,-9178.553681,-888.247130,842.705048
1143.808255,-9326.594869,-592.164754,1378.971896
1143.808576,-9400.615463,296.082377,1915.238745
1143.808897,-9622.677246,74.020594,2145.067394
1143.809218,-9918.759623,370.102971,2604.724693
1143.809539,-9696.697840,0.000000,2757.943793
1143.809860,-9992.780217,-444.123565,3064.381992
1143.810181,-9696.697840,-1184.329507,3830.477490
1143.810502,-9400.615463,-1776.494261,3753.867940
1143.810823,-9252.574275,-2368.659014,3983.696590
1143.811144,-9252.574275,-3108.864956,3983.696590
1143.811465,-8586.388927,-3478.967927,4443.353888
1143.811786,-8956.491898,-3330.926739,4366.744339
1143.812106,-8438.347739,-3849.070898,4290.134789
1143.812427,-9030.512492,-2664.741391,4136.915689
1143.812748,-9104.533087,-1998.556043,4519.963438
1143.813069,-9622.677246,-1480.411884,4366.744339
1143.813390,-9474.636058,-814.226536,4213.525239
1143.813711,-9844.739029,-814.226536,4136.915689
1143.814032,-9844.739029,-962.267725,4366.744339
1143.814353,-9918.759623,-1998.556043,3983.696590
1143.814674,-9992.780217,-2590.720797,4060.306139
1143.814995,-9474.636058,-3182.885551,3524.039291
1143.815316,-9992.780217,-3330.926739,4060.306139
1143.815637,-9770.718434,-3849.070898,3907.087040
1143.815958,-9474.636058,-4219.173869,3524.039291
1143.816279,-8364.327145,-3108.864956,2681.334243
1143.816599,-9178.553681,-3997.112087,2681.334243
1143.816920,-9178.553681,-3701.029710,2528.115143
1143.817241,-9030.512492,-3478.967927,2451.505594
1143.817562,-9252.574275,-2960.823768,2987.772442
1143.817883,-9178.553681,-2664.741391,1455.581446
1143.818204,-9326.594869,-2220.617826,536.266849
1143.818525,-9548.656652,-1406.391290,459.657299
1143.818846,-9844.739029,-814.226536,76.609550
1143.819167,-9622.677246,-740.205942,-459.657299
1143.819488,-10140.821405,-148.041188,-689.485948
1143.819809,-9992.780217,-518.144159,-689.485948
1143.820130,-9992.780217,-518.144159,-383.047749
1143.820451,-10288.862594,-518.144159,-766.095498
1143.820772,-9622.677246,-1702.473667,0.000000
1143.821092,-9844.739029,-1924.535449,-153.219100
1143.821413,-9474.636058,-1998.556043,-76.609550
1143.821734,-9252.574275,-2368.659014,-153.219100
1143.822055,-8956.491898,-2072.576638,-612.876398
1143.822376,-9030.512492,-1776.494261,-1072.533697
1143.822697,-8882.471304,-1184.329507,-1378.971896
1143.823018,-9104.533087,-740.205942,-1762.019645
1143.823339,-8586.388927,0.000000,-1455.581446
1143.823660,-9548.656652,666.185348,-1838.629195
1143.823981,-9992.780217,1258.350101,-1685.410096
1143.824302,-10288.862594,1776.494261,-1608.800546
1143.824622,-9696.697840,1776.494261,-1455.581446
1143.824943,-10658.965565,2442.679609,-306.438199
1143.825264,-10584.944971,2220.617826,0.000000
1143.825585,-10288.862594,1776.494261,689.485948
1143.825905,-9696.697840,1036.288319,766.095498
1143.826226,-9326.594869,814.226536,1685.410096
1143.826547,-9178.553681,0.000000,1762.019645
1143.826867,-8882.471304,0.000000,2068.457845
1143.827188,-9030.512492,-296.082377,2834.553343
1143.827509,-8512.368333,0.000000,2451.505594
1143.827830,-9178.553681,0.000000,2911.162892
1143.828150,-9252.574275,592.164754,3370.820191
1143.828471,-9474.636058,962.267725,3447.429741
1143.828792,-8956.491898,1110.308913,2681.334243
1143.829113,-9696.697840,1998.556043,3140.991542
1143.829433,-9770.718434,1998.556043,2987.772442
1143.829754,-9548.656652,2294.638420,2604.724693
1143.830075,-9770.718434,2368.659014,2681.334243
1143.830395,-10214.842000,2368.659014,2681.334243
1143.830716,-9622.677246,1554.432478,2834.553343
1143.831037,-9548.656652,814.226536,2757.943793
1143.831358,-9474.636058,148.041188,2757.943793
1143.831678,-9030.512492,-296.082377,2911.162892
1143.831999,-9400.615463,-814.226536,3217.601092
1143.832320,-9326.594869,-1184.329507,2834.553343
1143.832640,-9326.594869,-1332.370696,2528.115143
1143.832961,-9104.533087,-1480.411884,4290.134789
1143.833282,-9252.574275,-1406.391290,2145.067394
1143.833603,-9474.636058,-666.185348,1685.410096
1143.833923,-9474.636058,0.000000,919.314598
1143.834244,-9696.697840,222.061783,689.485948
1143.834565,-9844.739029,666.185348,-153.219100
1143.834885,-10214.842000,1184.329507,-306.438199
1143.835206,-9918.759623,1480.411884,-1225.752797
1143.835527,-9918.759623,1258.350101,-1072.533697
1143.835848,-10066.800811,1406.391290,-2221.676944
1143.836168,-9696.697840,444.123565,-1455.581446
1143.836489,-9696.697840,0.000000,-1302.362347
1143.836810,-9548.656652,-888.247130,-995.924147
1143.837130,-9548.656652,-1480.411884,-612.876398
1143.837451,-9770.718434,-1850.514855,0.000000
1143.837772,-9474.636058,-2294.638420,459.657299
1143.838093,-9622.677246,-2442.679609,229.828649
1143.838413,-9400.615463,-2146.597232,842.705048
1143.838734,-9474.636058,-1776.494261,612.876398
1143.839055,-9474.636058,-1628.453072,919.314598
1143.839375,-9326.594869,-1554.432478,383.047749
1143.839696,-9400.615463,-1258.350101,0.000000
1143.840017,-9622.677246,0.000000,-306.438199
1143.840338,-9252.574275,-814.226536,0.000000
1143.840658,-9474.636058,-1036.288319,153.219100
1143.840979,-9548.656652,-740.205942,459.657299
1143.841300,-9548.656652,-814.226536,995.924147
1143.841621,-9548.656652,-1036.288319,1072.533697
1143.841941,-9918.759623,-1406.391290,1455.581446
1143.842262,-9622.677246,-1480.411884,1762.019645
1143.842583,-9474.636058,-1776.494261,2068.457845
1143.842903,-9400.615463,-2146.597232,2911.162892
1143.843224,-9326.594869,-2294.638420,2528.115143
1143.843545,-9400.615463,-2294.638420,2604.724693
1143.843866,-9474.636058,-1998.556043,2757.943793
1143.844186,-9400.615463,-1480.411884,2145.067394
1143.844507,-9474.636058,-1184.329507,2451.505594
1143.844828,-9474.636058,-592.164754,2068.457845
1143.845148,-9844.739029,0.000000,2068.457845
1143.845469,-9844.739029,222.061783,1762.019645
1143.845790,-9696.697840,814.226536,919.314598
1143.846111,-9992.780217,888.247130,919.314598
1143.846431,-10140.821405,962.267725,1072.533697
1143.846752,-10066.800811,1184.329507,1225.752797
1143.847073,-9770.718434,740.205942,919.314598
1143.847393,-9992.780217,592.164754,919.314598
1143.847714,-9918.759623,592.164754,1225.752797
1143.848035,-9622.677246,296.082377,1838.629195
1143.848356,-9770.718434,0.000000,1225.752797
1143.848676,-9400.615463,-666.185348,1455.581446
1143.848997,-9400.615463,-518.144159,1532.190996
1143.849318,-9326.594869,-666.185348,1532.190996
1143.849638,-9622.677246,-444.123565,1685.410096
1143.849959,-9474.636058,-148.041188,1532.190996
1143.850280,-9252.574275,0.000000,1072.533697
1143.850601,-9400.615463,0.000000,689.485948
1143.850921,-9400.615463,148.041188,383.047749
1143.851242,-8882.471304,222.061783,0.000000
1143.851563,-9474.636058,962.267725,-459.657299
1143.851884,-9474.636058,1406.391290,-612.876398
1143.852204,-9622.677246,1480.411884,-383.047749
1143.852525,-9770.718434,1332.370696,-766.095498
1143.852846,-9622.677246,1110.308913,0.000000
1143.853166,-9474.636058,1110.308913,306.438199
1143.853487,-9844.739029,0.000000,306.438199
1143.853808,-9548.656652,-296.082377,995.924147
1143.854129,-9770.718434,-518.144159,1455.581446
1143.854449,-9548.656652,-1110.308913,1915.238745
1143.854770,-9474.636058,-1332.370696,2068.457845
1143.855091,-9400.615463,-1332.370696,1608.800546
1143.855411,-9252.574275,-1184.329507,1302.362347
1143.855732,-9400.615463,-814.226536,919.314598
1143.856053,-9474.636058,-296.082377,612.876398
1143.856374,-9474.636058,222.061783,459.657299
1143.856694,-9104.533087,1702.473667,0.000000
1143.857015,-9770.718434,1406.391290,-153.219100
1143.857336,-10288.862594,1554.432478,0.000000
1143.857656,-10584.944971,1554.432478,0.000000
1143.857977,-10658.965565,1480.411884,383.047749
1143.858298,-10584.944971,814.226536,536.266849
1143.858619,-9918.759623,0.000000,1072.533697
1143.858939,-9992.780217,-592.164754,1455.581446
1143.859260,-9844.739029,-1258.350101,1838.629195
1143.859581,-9326.594869,-1998.556043,1991.848295
1143.859901,-9326.594869,-2368.659014,2298.286494
1143.860222,-9326.594869,-2146.597232,2604.724693
1143.860543,-9474.636058,-2072.576638,2528.115143
1143.860864,-8512.368333,-1628.453072,2528.115143
1143.861184,-9104.533087,-1554.432478,2451.505594
1143.861505,-9400.615463,-1184.329507,1915.238745
1143.861826,-9474.636058,-888.247130,1838.629195
1143.862147,-9474.636058,-814.226536,1608.800546
1143.862467,-9474.636058,-518.144159,919.314598
1143.862788,-9474.636058,-148.041188,689.485948
1143.863109,-9622.677246,74.020594,536.266849
1143.863429,-9622.677246,0.000000,995.924147
1143.863750,-9844.739029,-222.061783,2911.162892
1143.864071,-9548.656652,-814.226536,1455.581446
1143.864392,-9326.594869,-1628.453072,1762.019645
1143.864712,-9400.615463,-2220.617826,2068.457845
1143.865033,-9252.574275,-2590.720797,689.485948
1143.865354,-9104.533087,-2738.761985,1838.629195
1143.865674,-9252.574275,-2294.638420,1532.190996
1143.865995,-9178.553681,-1924.535449,1455.581446
1143.866316,-9474.636058,-1628.453072,1149.143247
1143.866637,-9770.718434,-1036.288319,689.485948
1143.866957,-9622.677246,-814.226536,229.828649
1143.867278,-9918.759623,0.000000,0.000000
1143.867599,-10066.800811,444.123565,-612.876398
1143.867919,-10214.842000,814.226536,-612.876398
1143.868240,-10214.842000,1332.370696,-536.266849
1143.868561,-10214.842000,1628.453072,-995.924147
1143.868882,-10214.842000,1110.308913,0.000000
1143.869202,-9918.759623,444.123565,-229.828649
1143.869523,-9992.780217,222.061783,383.047749
1143.869844,-10066.800811,-148.041188,536.266849
1143.870164,-9622.677246,-888.247130,1072.533697
1143.870485,-9474.636058,-1480.411884,1302.362347
1143.870806,-9622.677246,-1258.350101,919.314598
1143.871127,-9474.636058,-1036.288319,2068.457845
1143.871447,-9474.636058,-1110.308913,1608.800546
1143.871768,-9474.636058,-444.123565,1762.019645
1143.872089,-9474.636058,0.000000,1225.752797
1143.872409,-9474.636058,0.000000,1225.752797
1143.872730,-9474.636058,222.061783,1149.143247
1143.873051,-9696.697840,666.185348,842.705048
1143.873372,-9622.677246,814.226536,842.705048
1143.873692,-9844.739029,1332.370696,842.705048
1143.874013,-9770.718434,1184.329507,842.705048
1143.874334,-9770.718434,1184.329507,1072.533697
1143.874655,-9548.656652,888.247130,1302.362347
1143.874975,-9474.636058,592.164754,1378.971896
1143.875296,-9474.636058,-444.123565,1532.190996
1143.875617,-9252.574275,-888.247130,2145.067394
1143.875937,-9326.594869,-1332.370696,2451.505594
1143.876258,-8808.450710,-2146.597232,3370.820191
1143.876579,-9326.594869,-1998.556043,2604.724693
1143.876900,-9326.594869,-1628.453072,2221.676944
1143.877220,-9326.594869,-1258.350101,2221.676944
1143.877541,-9474.636058,-666.185348,1915.238745
1143.877862,-9548.656652,-370.102971,842.705048
1143.878182,-9400.615463,370.102971,306.438199
1143.878503,-9622.677246,888.247130,0.000000
1143.878824,-9548.656652,1480.411884,0.000000
1143.879145,-10140.821405,2368.659014,-459.657299
1143.879465,-10140.821405,2146.597232,-459.657299
1143.879786,-10066.800811,1776.494261,-229.828649
1143.880107,-9918.759623,1036.288319,229.828649
1143.880427,-9992.780217,0.000000,-229.828649
1143.880748,-9992.780217,74.020594,842.705048
1143.881069,-9844.739029,-444.123565,1149.143247
1143.881390,-9548.656652,-888.247130,1302.362347
1143.881710,-9400.615463,-1406.391290,1532.190996
1143.882031,-9622.677246,-1406.391290,995.924147
1143.882352,-9474.636058,-1480.411884,1608.800546
1143.882672,-9400.615463,-1332.370696,1378.971896
1143.882993,-9400.615463,-1184.329507,1378.971896
1143.883314,-9548.656652,-666.185348,1225.752797
1143.883635,-9474.636058,-592.164754,612.876398
1143.883955,-9326.594869,-148.041188,306.438199
1143.884276,-9622.677246,0.000000,306.438199
1143.884597,-9844.739029,518.144159,306.438199
1143.884918,-9770.718434,296.082377,229.828649
1143.885238,-9622.677246,0.000000,229.828649
1143.885559,-9622.677246,-222.061783,612.876398
1143.885880,-9622.677246,-814.226536,919.314598
1143.886200,-9844.739029,-1036.288319,1762.019645
1143.886521,-9474.636058,-1702.473667,1915.238745
1143.886842,-9178.553681,-2146.597232,2145.067394
1143.887163,-9252.574275,-2368.659014,2374.896044
1143.887483,-9252.574275,-2072.576638,1991.848295
1143.887804,-9474.636058,-1998.556043,2451.505594
1143.888125,-9474.636058,-1480.411884,1915.238745
1143.888445,-9474.636058,-740.205942,1532.190996
1143.888766,-9474.636058,-370.102971,842.705048
1143.889087,-9400.615463,74.020594,995.924147
1143.889408,-9622.677246,296.082377,459.657299
1143.889728,-9918.759623,1184.329507,612.876398
1143.890049,-10066.800811,1184.329507,459.657299
1143.890370,-9326.594869,888.247130,76.609550
1143.890690,-10214.842000,1036.288319,919.314598
1143.891011,-9992.780217,518.144159,1225.752797
1143.891332,-9770.718434,0.000000,1532.190996
1143.891653,-9548.656652,-740.205942,1532.190996
1143.891973,-9474.636058,-1110.308913,1838.629195
1143.892294,-9474.636058,-1258.350101,1838.629195
1143.892615,-9400.615463,-1480.411884,2145.067394
1143.892935,-9326.594869,-1184.329507,1838.629195
1143.893256,-9770.718434,-1184.329507,1225.752797
1143.893577,-9474.636058,-740.205942,1685.410096
1143.893898,-9548.656652,-370.102971,1532.190996
1143.894218,-9548.656652,-444.123565,1608.800546
1143.894539,-9918.759623,962.267725,76.609550
1143.894860,-9696.697840,666.185348,459.657299
1143.895181,-9770.718434,1036.288319,229.828649
1143.895501,-9918.759623,1480.411884,459.657299
1143.895822,-9844.739029,1628.453072,76.609550
1143.896143,-9548.656652,1036.288319,383.047749
1143.896463,-9844.739029,518.144159,459.657299
1143.896784,-9474.636058,0.000000,919.314598
1143.897105,-9918.759623,-222.061783,1378.971896
1143.897426,-9770.718434,-1110.308913,1072.533697
1143.897746,-9474.636058,-1480.411884,1762.019645
1143.898067,-9400.615463,-1776.494261,2374.896044
1143.898388,-9326.594869,-1702.473667,2374.896044
1143.898708,-9400.615463,-666.185348,3217.601092
1143.899029,-9326.594869,-1628.453072,1915.238745
1143.899350,-9474.636058,-962.267725,1532.190996
1143.899671,-9548.656652,-518.144159,766.095498
1143.899991,-9770.718434,296.082377,306.438199
1143.900312,-9474.636058,888.247130,-612.876398
1143.900633,-9918.759623,1480.411884,-459.657299
1143.900953,-9918.759623,1850.514855,-153.219100
1143.901274,-10288.862594,1776.494261,-536.266849
1143.901595,-10288.862594,1628.453072,153.219100
1143.901916,-10140.821405,888.247130,229.828649
1143.902236,-9992.780217,296.082377,459.657299
1143.902557,-9918.759623,0.000000,995.924147
1143.902878,-9474.636058,-814.226536,1608.800546
1143.903198,-9474.636058,-1110.308913,1762.019645
1143.903519,-9252.574275,-1702.473667,2145.067394
1143.903840,-9474.636058,-1702.473667,2145.067394
1143.904161,-9252.574275,-1702.473667,2374.896044
1143.904481,-9474.636058,-1406.391290,1762.019645
1143.904802,-9252.574275,-1332.370696,1762.019645
1143.905123,-9104.533087,-962.267725,1302.362347
1143.905443,-9474.636058,-222.061783,995.924147
1143.905764,-8660.409521,0.000000,612.876398
1143.906085,-9696.697840,74.020594,766.095498
1143.906406,-9696.697840,444.123565,536.266849
1143.906726,-9770.718434,370.102971,459.657299
1143.907047,-9992.780217,148.041188,1072.533697
1143.907368,-9548.656652,-296.082377,995.924147
1143.907689,-9548.656652,-740.205942,1455.581446
1143.908009,-9474.636058,-1628.453072,1608.800546
1143.908330,-9400.615463,-1924.535449,2221.676944
1143.908651,-9178.553681,-2590.720797,2374.896044
1143.908971,-9030.512492,-2516.700203,2145.067394
1143.909292,-9178.553681,-1924.535449,1991.848295
1143.909613,-9474.636058,-1554.432478,2068.457845
1143.909934,-9474.636058,-592.164754,3140.991542
1143.910254,-9326.594869,-962.267725,1149.143247
1143.910575,-9548.656652,-444.123565,612.876398
1143.910896,-9622.677246,0.000000,229.828649
1143.911216,-9844.739029,518.144159,-229.828649
1143.911537,-10140.821405,1036.288319,-153.219100
1143.911858,-10066.800811,1554.432478,0.000000
1143.912179,-10214.842000,1480.411884,-153.219100
1143.912499,-10066.800811,962.267725,76.609550
1143.912820,-9770.718434,814.226536,153.219100
1143.913141,-9844.739029,-296.082377,612.876398
1143.913461,-9548.656652,-962.267725,1149.143247
1143.913782,-9548.656652,-1184.329507,919.314598
1143.914103,-9252.574275,-444.123565,2681.334243
1143.914424,-9326.594869,-1554.432478,1608.800546
1143.914744,-9252.574275,-1702.473667,1302.362347
1143.915065,-9548.656652,-1406.391290,2221.676944
1143.915386,-9696.697840,-1332.370696,1838.629195
1143.915706,-9474.636058,-888.247130,1455.581446
1143.916027,-9770.718434,-444.123565,1225.752797
1143.916348,-9696.697840,0.000000,612.876398
1143.916669,-9548.656652,444.123565,459.657299
1143.916989,-9696.697840,740.205942,995.924147
1143.917310,-9992.780217,1184.329507,459.657299
1143.917631,-9770.718434,1036.288319,306.438199
1143.917952,-9844.739029,740.205942,383.047749
1143.918272,-9622.677246,222.061783,2604.724693
1143.918593,-9696.697840,0.000000,1149.143247
1143.918914,-9474.636058,-666.185348,1378.971896
1143.919234,-9474.636058,-1110.308913,1991.848295
1143.919555,-9548.656652,-1702.473667,2451.505594
1143.919876,-9474.636058,-2072.576638,2834.553343
1143.920197,-9474.636058,-1702.473667,2604.724693
1143.920517,-9400.615463,-1480.411884,2221.676944
1143.920838,-9474.636058,-1036.288319,1991.848295
1143.921159,-9622.677246,-666.185348,1455.581446
1143.921479,-9400.615463,-222.061783,689.485948
1143.921800,-9548.656652,518.144159,0.000000
1143.922121,-9548.656652,1406.391290,-306.438199
1143.922442,-9992.780217,1702.473667,-1149.143247
1143.922762,-10214.842000,2294.638420,-459.657299
1143.923083,-10140.821405,2368.659014,-306.438199
1143.923404,-10362.883188,1628.453072,-229.828649
1143.923724,-10214.842000,962.267725,229.828649
1143.924045,-9474.636058,74.020594,536.266849
1143.924366,-9770.718434,-592.164754,689.485948
1143.924687,-9474.636058,-1036.288319,1149.143247
1143.925007,-9252.574275,-1332.370696,1455.581446
1143.925328,-9104.533087,-1850.514855,2528.115143
1143.925649,-9326.594869,-1702.473667,2145.067394
1143.925970,-9400.615463,-1628.453072,2068.457845
1143.926291,-9178.553681,-1258.350101,1838.629195
1143.926611,-9474.636058,-1258.350101,2068.457845
1143.926932,-9474.636058,-592.164754,1225.752797
1143.927253,-9474.636058,-370.102971,842.705048
1143.927574,-9474.636058,0.000000,612.876398
1143.927894,-9474.636058,592.164754,689.485948
1143.928215,-9326.594869,740.205942,612.876398
1143.928536,-9696.697840,740.205942,995.924147
1143.928857,-9844.739029,148.041188,1149.143247
1143.929177,-9770.718434,0.000000,1455.581446
1143.929498,-10214.842000,-444.123565,995.924147
1143.929819,-9474.636058,-1480.411884,2374.896044
1143.930140,-9474.636058,-1702.473667,2374.896044
1143.930460,-9030.512492,-2146.597232,2298.286494
1143.930781,-9400.615463,-2072.576638,4213.525239
1143.931102,-9252.574275,-2146.597232,2298.286494
1143.931423,-9622.677246,-1554.432478,2298.286494
1143.931743,-9474.636058,-1184.329507,1915.238745
1143.932064,-9548.656652,-518.144159,919.314598
1143.932385,-9252.574275,-148.041188,1149.143247
1143.932706,-9622.677246,74.020594,383.047749
1143.933026,-9844.739029,888.247130,76.609550
1143.933347,-10140.821405,1184.329507,-383.047749
1143.933668,-10140.821405,1036.288319,-1378.971896
1143.933989,-9992.780217,1258.350101,-536.266849
1143.934309,-9918.759623,962.267725,0.000000
1143.934630,-9918.759623,518.144159,76.609550
1143.934951,-9770.718434,74.020594,229.828649
1143.935272,-9770.718434,-962.267725,919.314598
1143.935592,-9474.636058,-1480.411884,1149.143247
1143.935913,-9474.636058,-1406.391290,1149.143247
1143.936234,-9400.615463,-1776.494261,1685.410096
1143.936555,-9474.636058,-1258.350101,1838.629195
1143.936876,-9474.636058,-1406.391290,1302.362347
1143.937196,-9400.615463,-888.247130,1072.533697
1143.937517,-9400.615463,-666.185348,766.095498
1143.937838,-10436.903782,1036.288319,1072.533697
1143.938159,-9548.656652,-148.041188,383.047749
1143.938479,-9474.636058,444.123565,229.828649
1143.938800,-9622.677246,592.164754,0.000000
1143.939121,-9770.718434,888.247130,383.047749
1143.939442,-9918.759623,740.205942,229.828649
1143.939762,-9696.697840,518.144159,459.657299
1143.940083,-9844.739029,296.082377,1225.752797
1143.940404,-9474.636058,0.000000,1378.971896
1143.940725,-9474.636058,-592.164754,1838.629195
1143.941045,-9474.636058,-1258.350101,2374.896044
1143.941366,-9252.574275,-1776.494261,2068.457845
1143.941687,-9252.574275,-1850.514855,2451.505594
1143.942008,-9252.574275,-1554.432478,3217.601092
1143.942328,-9548.656652,-1406.391290,2604.724693
1143.942649,-9474.636058,-1036.288319,2451.505594
1143.942970,-9622.677246,-296.082377,1838.629195
1143.943291,-9622.677246,148.041188,1532.190996
1143.943611,-9770.718434,592.164754,383.047749
1143.943932,-9622.677246,1184.329507,153.219100
1143.944253,-10066.800811,1850.514855,-153.219100
1143.944574,-10214.842000,2072.576638,229.828649
1143.944894,-9992.780217,1628.453072,0.000000
1143.945215,-10362.883188,1406.391290,536.266849
1143.945536,-10214.842000,370.102971,1072.533697
1143.945857,-9770.718434,0.000000,1302.362347
1143.946177,-9548.656652,-740.205942,919.314598
1143.946498,-9400.615463,-1184.329507,1762.019645
1143.946819,-9474.636058,-1554.432478,1991.848295
1143.947140,-9252.574275,-1628.453072,2068.457845
1143.947461,-9252.574275,-1628.453072,1991.848295
1143.947781,-9400.615463,-1332.370696,1915.238745
1143.948102,-9326.594869,-1184.329507,1762.019645
1143.948423,-9474.636058,-888.247130,1455.581446
1143.948744,-9474.636058,-592.164754,919.314598
1143.949064,-9400.615463,370.102971,0.000000
1143.949385,-9474.636058,0.000000,689.485948
1143.949706,-9474.636058,148.041188,536.266849
1143.950027,-9548.656652,296.082377,306.438199
1143.950347,-9548.656652,296.082377,689.485948
1143.950668,-9622.677246,74.020594,842.705048
1143.950989,-9474.636058,-74.020594,919.314598
1143.951310,-9252.574275,-962.267725,1378.971896
1143.951630,-9326.594869,-1258.350101,1302.362347
1143.951951,-8882.471304,-1184.329507,1149.143247
1143.952272,-9326.594869,-1850.514855,1915.238745
1143.952593,-9474.636058,-1850.514855,2374.896044
1143.952913,-9326.594869,-1702.473667,2145.067394
1143.953234,-8512.368333,-1924.535449,919.314598
1143.953555,-9622.677246,-962.267725,1455.581446
1143.953876,-9622.677246,-370.102971,842.705048
1143.954196,-9696.697840,0.000000,459.657299
1143.954517,-9918.759623,370.102971,0.000000
1143.954838,-10140.821405,888.247130,0.000000
1143.955159,-10214.842000,1184.329507,-229.828649
1143.955479,-10140.821405,1258.350101,76.609550
1143.955800,-10436.903782,1036.288319,76.609550
1143.956121,-10066.800811,444.123565,153.219100
1143.956442,-9918.759623,0.000000,689.485948
1143.956762,-9918.759623,-740.205942,1225.752797
1143.957083,-9622.677246,-962.267725,1378.971896
1143.957404,-9474.636058,-666.185348,3064.381992
1143.957725,-9474.636058,-2072.576638,1991.848295
1143.958045,-9326.594869,-2072.576638,1915.238745
1143.958366,-9474.636058,-1406.391290,2145.067394
1143.958687,-9474.636058,-1406.391290,2068.457845
1143.959008,-9252.574275,-1110.308913,2298.286494
1143.959329,-9474.636058,-592.164754,1302.362347
1143.959649,-9474.636058,-296.082377,1149.143247
1143.959970,-9474.636058,0.000000,383.047749
1143.960291,-9474.636058,444.123565,306.438199
1143.960612,-9548.656652,444.123565,306.438199
1143.960932,-9770.718434,1036.288319,0.000000
1143.961253,-9696.697840,888.247130,306.438199
1143.961574,-9918.759623,888.247130,-76.609550
1143.961895,-9622.677246,222.061783,842.705048
1143.962215,-9548.656652,-222.061783,1302.362347
1143.962536,-9622.677246,-592.164754,1685.410096
1143.962857,-9326.594869,-1036.288319,1685.410096
1143.963178,-9474.636058,-1406.391290,1838.629195
1143.963498,-9252.574275,-1850.514855,2068.457845
1143.963819,-9104.533087,-1628.453072,2221.676944
1143.964140,-9474.636058,-1258.350101,1838.629195
1143.964461,-9400.615463,-1110.308913,919.314598
1143.964781,-9400.615463,-592.164754,1225.752797
1143.965102,-9400.615463,0.000000,229.828649
1143.965423,-9622.677246,444.123565,153.219100
1143.965744,-9104.533087,888.247130,1072.533697
1143.966064,-10066.800811,1776.494261,0.000000
1143.966385,-10066.800811,1924.535449,-153.219100
1143.966706,-10214.842000,1850.514855,76.609550
1143.967027,-10066.800811,1554.432478,153.219100
1143.967347,-10140.821405,814.226536,612.876398
1143.967668,-9918.759623,222.061783,766.095498
1143.967989,-9992.780217,-740.205942,1378.971896
1143.968310,-9548.656652,-888.247130,1685.410096
1143.968630,-9178.553681,-1332.370696,2374.896044
1143.968951,-9326.594869,-1258.350101,2221.676944
1143.969272,-9252.574275,-1406.391290,1838.629195
1143.969593,-9326.594869,-1184.329507,2145.067394
1143.969914,-9474.636058,-666.185348,3600.648841
1143.970234,-9326.594869,-740.205942,1685.410096
1143.970555,-9326.594869,-370.102971,1455.581446
1143.970876,-9400.615463,0.000000,1072.533697
1143.971197,-9548.656652,296.082377,995.924147
1143.971517,-9622.677246,740.205942,1302.362347
1143.971838,-9770.718434,592.164754,919.314598
1143.972159,-9622.677246,518.144159,842.705048
1143.972480,-9696.697840,0.000000,919.314598
1143.972800,-9548.656652,-296.082377,1762.019645
1143.973121,-9474.636058,-814.226536,1302.362347
1143.973442,-9252.574275,-1480.411884,1532.190996
1143.973763,-9252.574275,-2220.617826,1762.019645
1143.974083,-9548.656652,-1332.370696,689.485948
1143.974404,-9252.574275,-2220.617826,1915.238745
1143.974725,-9178.553681,-1924.535449,1915.238745
1143.975046,-9400.615463,-1480.411884,1532.190996
1143.975366,-9474.636058,-1184.329507,1225.752797
1143.975687,-9548.656652,-518.144159,766.095498
1143.976008,-9844.739029,0.000000,383.047749
1143.976329,-9770.718434,296.082377,0.000000
1143.976649,-9770.718434,814.226536,-306.438199
1143.976970,-9770.718434,1406.391290,-612.876398
1143.977291,-9844.739029,1258.350101,-842.705048
1143.977612,-10140.821405,888.247130,-383.047749
1143.977932,-10066.800811,518.144159,0.000000
1143.978253,-9918.759623,888.247130,-76.609550
1143.978574,-9844.739029,-222.061783,536.266849
1143.978895,-9770.718434,-962.267725,842.705048
1143.979215,-9474.636058,-1258.350101,1378.971896
1143.979536,-9622.677246,-1480.411884,1455.581446
1143.979857,-9622.677246,-1554.432478,1915.238745
1143.980178,-9474.636058,-1406.391290,1838.629195
1143.980499,-9474.636058,-1406.391290,1685.410096
1143.980819,-9400.615463,-1036.288319,1685.410096
1143.981140,-9104.533087,-592.164754,536.266849
1143.981461,-9326.594869,-592.164754,842.705048
1143.981782,-9474.636058,-296.082377,153.219100
1143.982102,-9474.636058,296.082377,383.047749
1143.982423,-9030.512492,1406.391290,1225.752797
1143.982744,-9770.718434,962.267725,536.266849
1143.983065,-9696.697840,740.205942,689.485948
1143.983385,-9548.656652,444.123565,689.485948
1143.983706,-9770.718434,148.041188,919.314598
1143.984027,-9844.739029,-148.041188,1762.019645
1143.984348,-9622.677246,-592.164754,1915.238745
1143.984668,-9474.636058,-1332.370696,2528.115143
1143.984989,-9400.615463,-1628.453072,2834.553343
1143.985310,-9474.636058,-1702.473667,2221.676944
1143.985631,-9178.553681,-1850.514855,2374.896044
1143.985951,-9474.636058,-1184.329507,2451.505594
1143.986272,-9104.533087,-814.226536,1991.848295
1143.986593,-9474.636058,-518.144159,1685.410096
1143.986914,-9548.656652,0.000000,766.095498
1143.987234,-9844.739029,740.205942,153.219100
1143.987555,-9918.759623,1406.391290,0.000000
1143.987876,-10288.862594,1998.556043,0.000000
1143.988197,-10436.903782,2072.576638,229.828649
1143.988517,-10362.883188,2294.638420,76.609550
1143.988838,-10436.903782,1406.391290,76.609550
1143.989159,-9918.759623,740.205942,459.657299
1143.989480,-9178.553681,-444.123565,536.266849
1143.989800,-9622.677246,-518.144159,919.314598
1143.990121,-9474.636058,-1184.329507,1225.752797
1143.990442,-9252.574275,-1480.411884,1149.143247
1143.990763,-9104.533087,-1406.391290,1991.848295
1143.991084,-9252.574275,-1702.473667,1762.019645
1143.991404,-9252.574275,-1924.535449,1991.848295
1143.991725,-9252.574275,-1998.556043,1378.971896
1143.992046,-9400.615463,-1554.432478,1302.362347
1143.992367,-9770.718434,-518.144159,1072.533697
1143.992687,-9474.636058,0.000000,995.924147
1143.993008,-9400.615463,296.082377,459.657299
1143.993329,-9400.615463,370.102971,536.266849
1143.993650,-9104.533087,592.164754,1149.143247
1143.993970,-9548.656652,444.123565,153.219100
1143.994291,-9474.636058,74.020594,459.657299
1143.994612,-9474.636058,-444.123565,1149.143247
1143.994933,-8734.430116,0.000000,1991.848295
1143.995253,-9326.594869,-1628.453072,1838.629195
1143.995574,-9474.636058,-1924.535449,2221.676944
1143.995895,-9400.615463,-2072.576638,2451.505594
1143.996216,-9326.594869,-2072.576638,2911.162892
1143.996536,-9844.739029,-1628.453072,2528.115143
1143.996857,-9400.615463,-1110.308913,2298.286494
1143.997178,-9474.636058,-962.267725,1915.238745
1143.997499,-9474.636058,-518.144159,1149.143247
1143.997819,-9326.594869,222.061783,1225.752797
1143.998140,-9770.718434,1036.288319,229.828649
1143.998461,-9844.739029,1258.350101,0.000000
1143.998782,-10140.821405,1554.432478,76.609550
1143.999102,-9770.718434,1850.514855,1532.190996
1143.999423,-10510.924376,1332.370696,229.828649
1143.999744,-10436.903782,666.185348,612.876398
1144.000065,-9992.780217,148.041188,612.876398
1144.000385,-9696.697840,0.000000,842.705048
1144.000706,-9844.739029,-888.247130,1762.019645
1144.001027,-9474.636058,-1332.370696,1532.190996
1144.001348,-9326.594869,-1702.473667,1915.238745
1144.001669,-9400.615463,-1702.473667,1915.238745
1144.001989,-9400.615463,-1184.329507,2145.067394
1144.002310,-9474.636058,-1480.411884,1685.410096
1144.002631,-9474.636058,-1184.329507,1762.019645
1144.002952,-9030.512492,-1110.308913,1149.143247
1144.003272,-9474.636058,-888.247130,1532.190996
1144.003593,-9252.574275,-296.082377,459.657299
1144.003914,-9474.636058,222.061783,306.438199
1144.004235,-9992.780217,814.226536,383.047749
1144.004555,-9770.718434,888.247130,459.657299
1144.004876,-9770.718434,740.205942,536.266849
1144.005197,-9844.739029,592.164754,612.876398
1144.005518,-9400.615463,148.041188,766.095498
1144.005838,-9474.636058,-148.041188,1455.581446
1144.006159,-9252.574275,-518.144159,1225.752797
1144.006480,-8956.491898,-1258.350101,2145.067394
1144.006801,-9252.574275,-1554.432478,2298.286494
1144.007121,-9474.636058,-1776.494261,1991.848295
1144.007442,-9326.594869,-1628.453072,1762.019645
1144.007763,-9474.636058,-1480.411884,2145.067394
1144.008084,-9474.636058,-814.226536,1838.629195
1144.008404,-9474.636058,-370.102971,1225.752797
1144.008725,-9696.697840,0.000000,766.095498
1144.009046,-9918.759623,814.226536,0.000000
1144.009367,-9918.759623,1406.391290,0.000000
1144.009687,-10214.842000,1776.494261,-536.266849
1144.010008,-10214.842000,1776.494261,76.609550
1144.010329,-9844.739029,1480.411884,-383.047749
1144.010650,-10288.862594,1110.308913,306.438199
1144.010970,-9918.759623,740.205942,919.314598
1144.011291,-9622.677246,-296.082377,536.266849
1144.011612,-8660.409521,-1998.556043,2451.505594
1144.011933,-9400.615463,-1258.350101,1685.410096
1144.012254,-9474.636058,-1702.473667,1838.629195
1144.012574,-9622.677246,-1702.473667,2451.505594
1144.012895,-9474.636058,-1406.391290,2528.115143
1144.013216,-9548.656652,-1332.370696,2834.553343
1144.013537,-9474.636058,-1258.350101,2451.505594
1144.013857,-9474.636058,-814.226536,1838.629195
1144.014178,-9474.636058,-518.144159,1302.362347
1144.014499,-9844.739029,0.000000,1838.629195
1144.014820,-9474.636058,148.041188,766.095498
1144.015140,-9548.656652,444.123565,536.266849
1144.015461,-9696.697840,666.185348,383.047749
1144.015782,-10288.862594,962.267725,-153.219100
1144.016103,-9548.656652,0.000000,995.924147
1144.016423,-9548.656652,-518.144159,1149.143247
1144.016744,-9474.636058,-1184.329507,919.314598
1144.017065,-9400.615463,-1554.432478,1302.362347
1144.017386,-9104.533087,-1628.453072,1915.238745
1144.017706,-9400.615463,-2072.576638,1991.848295
1144.018027,-9252.574275,-1702.473667,1991.848295
1144.018348,-9474.636058,-1554.432478,1225.752797
1144.018669,-9770.718434,-1258.350101,919.314598
1144.018989,-9252.574275,-888.247130,995.924147
1144.019310,-9548.656652,-296.082377,689.485948
1144.019631,-9696.697840,0.000000,0.000000
1144.019952,-9770.718434,444.123565,0.000000
1144.020272,-9696.697840,962.267725,-536.266849
1144.020593,-10066.800811,1406.391290,-536.266849
1144.020914,-10140.821405,1554.432478,-383.047749
1144.021235,-10362.883188,1702.473667,76.609550
1144.021555,-10140.821405,888.247130,383.047749
1144.021876,-10066.800811,296.082377,612.876398
1144.022197,-9696.697840,-370.102971,919.314598
1144.022518,-9622.677246,-962.267725,1378.971896
1144.022839,-9326.594869,-1554.432478,2068.457845
1144.023159,-9326.594869,-1480.411884,1608.800546
1144.023480,-9252.574275,-1554.432478,1762.019645
1144.023801,-9400.615463,-1480.411884,1991.848295
1144.024121,-8808.450710,-518.144159,2068.457845
1144.024442,-9474.636058,-962.267725,1915.238745
1144.024762,-9474.636058,-740.205942,1532.190996
1144.025083,-9474.636058,-518.144159,1225.752797
1144.025404,-9622.677246,0.000000,842.705048
1144.025724,-9696.697840,518.144159,612.876398
1144.026045,-9844.739029,962.267725,919.314598
1144.026366,-10214.842000,370.102971,612.876398
1144.026686,-9474.636058,666.185348,459.657299
1144.027007,-9252.574275,222.061783,459.657299
1144.027327,-9622.677246,0.000000,1378.971896
1144.027648,-9474.636058,-592.164754,1685.410096
1144.027969,-9326.594869,-1406.391290,1838.629195
1144.028289,-9326.594869,-1702.473667,1762.019645
1144.028610,-9252.574275,-2146.597232,2681.334243
1144.028931,-9474.636058,-2072.576638,2757.943793
1144.029251,-9400.615463,-1776.494261,2528.115143
1144.029572,-9474.636058,-1036.288319,2145.067394
1144.029892,-9400.615463,-740.205942,1762.019645
1144.030213,-9400.615463,-370.102971,1149.143247
1144.030534,-9770.718434,222.061783,536.266849
1144.030854,-9548.656652,888.247130,229.828649
1144.031175,-9622.677246,1406.391290,-766.095498
1144.031496,-10214.842000,1850.514855,-383.047749
1144.031816,-10140.821405,1998.556043,0.000000
1144.032137,-10214.842000,1702.473667,153.219100
1144.032457,-9918.759623,444.123565,-153.219100
1144.032778,-9844.739029,370.102971,689.485948
1144.033099,-9770.718434,-370.102971,766.095498
1144.033419,-9696.697840,-1110.308913,1225.752797
1144.033740,-9548.656652,-1406.391290,1455.581446
1144.034061,-9400.615463,-1924.535449,1532.190996
1144.034381,-9178.553681,-1850.514855,1991.848295
1144.034702,-9474.636058,-1702.473667,2451.505594
1144.035022,-9474.636058,-1776.494261,1838.629195
1144.035343,-9104.533087,-1554.432478,1685.410096
1144.035664,-9400.615463,-1184.329507,1072.533697
1144.035984,-9548.656652,-518.144159,766.095498
1144.036305,-9474.636058,-296.082377,689.485948
1144.036626,-9474.636058,0.000000,612.876398
1144.036946,-9474.636058,740.205942,306.438199
1144.037267,-9770.718434,592.164754,229.828649
1144.037587,-9696.697840,222.061783,536.266849
1144.037908,-9844.739029,0.000000,689.485948
1144.038229,-9622.677246,-222.061783,1302.362347
1144.038549,-9474.636058,-888.247130,1225.752797
1144.038870,-9252.574275,-1036.288319,1532.190996
1144.039191,-9252.574275,-1480.411884,1608.800546
1144.039511,-9474.636058,-2146.597232,1762.019645
1144.039832,-9474.636058,-1628.453072,2374.896044
1144.040152,-9474.636058,-1332.370696,1762.019645
1144.040473,-9622.677246,-1036.288319,1762.019645
1144.040794,-9548.656652,-370.102971,1072.533697
1144.041114,-9696.697840,0.000000,612.876398
1144.041435,-9918.759623,296.082377,153.219100
1144.041756,-9696.697840,740.205942,-229.828649
1144.042076,-9918.759623,1184.329507,0.000000
1144.042397,-10066.800811,1406.391290,-153.219100
1144.042717,-10214.842000,1628.453072,-306.438199
1144.043038,-10140.821405,1480.411884,306.438199
1144.043359,-10066.800811,592.164754,612.876398
1144.043679,-10066.800811,74.020594,766.095498
1144.044000,-9770.718434,-518.144159,995.924147
1144.044321,-9474.636058,-1110.308913,1302.362347
1144.044641,-9474.636058,-1480.411884,1455.581446
1144.044962,-9252.574275,-1480.411884,1915.238745
1144.045282,-9400.615463,-1184.329507,1685.410096
1144.045603,-9400.615463,-1036.288319,2145.067394
1144.045924,-9474.636058,-962.267725,2145.067394
1144.046244,-9400.615463,-666.185348,1532.190996
1144.046565,-9400.615463,-592.164754,1608.800546
1144.046886,-9474.636058,-74.020594,1072.533697
1144.047206,-9474.636058,296.082377,1072.533697
1144.047527,-9548.656652,814.226536,689.485948
1144.047847,-9548.656652,1332.370696,459.657299
1144.048168,-9474.636058,1332.370696,1378.971896
1144.048489,-9696.697840,962.267725,919.314598
1144.048809,-9696.697840,740.205942,1149.143247
1144.049130,-9622.677246,0.000000,1149.143247
1144.049451,-9548.656652,-592.164754,1455.581446
1144.049771,-9252.574275,-1110.308913,1838.629195
1144.050092,-9326.594869,-1776.494261,2221.676944
1144.050412,-9030.512492,-1924.535449,2221.676944
1144.050733,-9252.574275,-1850.514855,2145.067394
1144.051054,-9252.574275,-1036.288319,1685.410096
1144.051374,-9622.677246,-1110.308913,1838.629195
1144.051695,-9548.656652,-518.144159,1302.362347
1144.052016,-9474.636058,0.000000,766.095498
1144.052336,-8882.471304,1036.288319,1685.410096
1144.052657,-9844.739029,814.226536,-153.219100
1144.052977,-10140.821405,1406.391290,229.828649
1144.053298,-10436.903782,1406.391290,-306.438199
1144.053619,-9992.780217,1554.432478,-459.657299
1144.053939,-10362.883188,1332.370696,0.000000
1144.054260,-10066.800811,814.226536,229.828649
1144.054581,-9918.759623,148.041188,306.438199
1144.054901,-9548.656652,-740.205942,842.705048
1144.055222,-9622.677246,-1406.391290,689.485948
1144.055542,-9474.636058,-1702.473667,1532.190996
1144.055863,-9474.636058,-1850.514855,2145.067394
1144.056184,-9252.574275,-1628.453072,2145.067394
1144.056504,-9696.697840,-1258.350101,3447.429741
1144.056825,-9252.574275,-1702.473667,1685.410096
1144.057146,-9474.636058,-1110.308913,1608.800546
1144.057466,-9326.594869,-888.247130,1225.752797
1144.057787,-9474.636058,-370.102971,689.485948
1144.058107,-9474.636058,-370.102971,459.657299
1144.058428,-9696.697840,444.123565,306.438199
1144.058749,-9548.656652,740.205942,536.266849
1144.059069,-10140.821405,666.185348,995.924147
1144.059390,-9400.615463,148.041188,2145.067394
1144.059711,-9770.718434,-296.082377,1302.362347
1144.060031,-9548.656652,-592.164754,1225.752797
1144.060352,-9770.718434,-1110.308913,1838.629195
1144.060672,-9474.636058,-2664.741391,2298.286494
1144.060993,-9252.574275,-1850.514855,2221.676944
1144.061314,-9400.615463,-2294.638420,1762.019645
1144.061634,-9252.574275,-2146.597232,1915.238745
1144.061955,-9474.636058,-1554.432478,1915.238745
1144.062276,-9326.594869,-1110.308913,1455.581446
1144.062596,-9696.697840,-592.164754,1072.533697
1144.062917,-9622.677246,0.000000,842.705048
1144.063237,-10066.800811,148.041188,536.266849
1144.063558,-9696.697840,666.185348,1149.143247
1144.063879,-9918.759623,740.205942,0.000000
1144.064199,-9992.780217,1110.308913,0.000000
1144.064520,-9918.759623,1036.288319,153.219100
1144.064841,-10066.800811,888.247130,1378.971896
1144.065161,-9844.739029,370.102971,612.876398
1144.065482,-9770.718434,-444.123565,766.095498
1144.065802,-9548.656652,-814.226536,919.314598
1144.066123,-9548.656652,-1110.308913,1378.971896
1144.066444,-9474.636058,-1480.411884,1455.581446
1144.066764,-9252.574275,-1628.453072,1608.800546
1144.067085,-9400.615463,-1110.308913,1685.410096
1144.067406,-9474.636058,-814.226536,1838.629195
1144.067726,-9992.780217,-296.082377,1762.019645
1144.068047,-9548.656652,-666.185348,2068.457845
1144.068367,-9474.636058,-296.082377,1149.143247
1144.068688,-9696.697840,0.000000,306.438199
1144.069009,-9400.615463,592.164754,-383.047749
1144.069329,-9770.718434,962.267725,459.657299
1144.069650,-9844.739029,1184.329507,459.657299
1144.069971,-9622.677246,1036.288319,306.438199
1144.070291,-9770.718434,666.185348,383.047749
1144.070612,-9844.739029,518.144159,842.705048
1144.070932,-9548.656652,-444.123565,1149.143247
1144.071253,-9474.636058,-962.267725,1685.410096
1144.071574,-9474.636058,-1332.370696,1762.019645
1144.071894,-9104.533087,-1850.514855,1838.629195
1144.072215,-9474.636058,-1850.514855,2374.896044
1144.072536,-9474.636058,-1998.556043,2451.505594
1144.072856,-9622.677246,-1406.391290,2604.724693
1144.073177,-8586.388927,-1332.370696,3600.648841
1144.073497,-9474.636058,-592.164754,1378.971896
1144.073818,-9474.636058,-296.082377,919.314598
1144.074139,-9622.677246,222.061783,229.828649
1144.074459,-9770.718434,888.247130,-229.828649
1144.074780,-10066.800811,1332.370696,0.000000
1144.075101,-10066.800811,1850.514855,-153.219100
1144.075421,-10362.883188,1850.514855,229.828649
1144.075742,-10436.903782,1332.370696,612.876398
1144.076062,-10436.903782,814.226536,919.314598
1144.076383,-9918.759623,296.082377,766.095498
1144.076704,-9622.677246,-518.144159,1149.143247
1144.077024,-9548.656652,-888.247130,1225.752797
1144.077345,-9548.656652,-518.144159,1685.410096
1144.077666,-9474.636058,-1480.411884,1378.971896
1144.077986,-9326.594869,-1480.411884,1532.190996
1144.078307,-9474.636058,-1258.350101,1991.848295
1144.078627,-9252.574275,-1110.308913,1762.019645
1144.078948,-9400.615463,-888.247130,1149.143247
1144.079269,-9400.615463,-592.164754,1072.533697
1144.079589,-9474.636058,-370.102971,689.485948
1144.079910,-9474.636058,0.000000,1072.533697
1144.080231,-9918.759623,222.061783,612.876398
1144.080551,-9622.677246,296.082377,306.438199
1144.080872,-9622.677246,518.144159,229.828649
1144.081192,-9844.739029,222.061783,459.657299
1144.081513,-9474.636058,0.000000,229.828649
1144.081834,-9622.677246,-444.123565,1072.533697
1144.082154,-9400.615463,-962.267725,1225.752797
1144.082475,-9400.615463,-1332.370696,1455.581446
1144.082796,-9326.594869,-1702.473667,1762.019645
1144.083116,-9474.636058,-1850.514855,1608.800546
1144.083437,-9326.594869,-1702.473667,2298.286494
1144.083757,-9474.636058,-1184.329507,1915.238745
1144.084078,-9622.677246,-962.267725,1685.410096
1144.084399,-9400.615463,-666.185348,2068.457845
1144.084719,-9474.636058,-222.061783,1072.533697
1144.085040,-9696.697840,0.000000,229.828649
1144.085361,-9844.739029,666.185348,76.609550
1144.085681,-9696.697840,1480.411884,-153.219100
1144.086002,-9844.739029,1332.370696,0.000000
1144.086322,-10066.800811,1406.391290,0.000000
1144.086643,-10214.842000,666.185348,229.828649
1144.086964,-9770.718434,222.061783,383.047749
1144.087284,-10066.800811,0.000000,842.705048
1144.087605,-9770.718434,-740.205942,1072.533697
1144.087926,-9474.636058,-1258.350101,1685.410096
1144.088246,-9474.636058,-1258.350101,1991.848295
1144.088567,-9326.594869,-1406.391290,1225.752797
1144.088887,-8956.491898,-1184.329507,1915.238745
1144.089208,-9474.636058,-1406.391290,1991.848295
1144.089529,-9400.615463,-1036.288319,1915.238745
1144.089849,-9326.594869,-148.041188,2451.505594
1144.090170,-9400.615463,-592.164754,842.705048
1144.090491,-9474.636058,-370.102971,612.876398
1144.090811,-9326.594869,296.082377,766.095498
1144.091132,-9696.697840,296.082377,383.047749
1144.091452,-9474.636058,666.185348,536.266849
1144.091773,-9622.677246,666.185348,459.657299
1144.092094,-9696.697840,592.164754,766.095498
1144.092414,-9622.677246,296.082377,1072.533697
1144.092735,-9770.718434,0.000000,1225.752797
1144.093056,-9400.615463,-814.226536,1915.238745
1144.093376,-9400.615463,-1332.370696,2221.676944
1144.093697,-9400.615463,-1850.514855,2374.896044
1144.094017,-9474.636058,-1628.453072,1455.581446
1144.094338,-9104.533087,-1998.556043,2451.505594
1144.094659,-9178.553681,-1628.453072,1762.019645
1144.094979,-9252.574275,-962.267725,1532.190996
1144.095300,-9400.615463,-592.164754,919.314598
1144.095621,-9696.697840,-74.020594,536.266849
1144.095941,-9474.636058,222.061783,0.000000
1144.096262,-9992.780217,666.185348,-383.047749
1144.096582,-9992.780217,1258.350101,-153.219100
1144.096903,-9844.739029,1480.411884,-306.438199
1144.097224,-10362.883188,1998.556043,0.000000
1144.097544,-10140.821405,1332.370696,0.000000
1144.097865,-9992.780217,740.205942,229.828649
1144.098186,-9400.615463,666.185348,459.657299
1144.098506,-9770.718434,-444.123565,459.657299
1144.098827,-9622.677246,-814.226536,1149.143247
1144.099147,-9400.615463,-1406.391290,1378.971896
1144.099468,-9326.594869,-1554.432478,1378.971896
1144.099789,-9030.512492,-1406.391290,1915.238745
1144.100109,-9548.656652,-1332.370696,2145.067394
1144.100430,-9400.615463,-1258.350101,1915.238745
1144.100751,-9400.615463,-814.226536,1532.190996
1144.101071,-10140.821405,0.000000,1532.190996
1144.101392,-9474.636058,-222.061783,995.924147
1144.101712,-9474.636058,222.061783,612.876398
1144.102033,-9548.656652,518.144159,842.705048
1144.102354,-9770.718434,1184.329507,2374.896044
1144.102674,-9770.718434,666.185348,995.924147
1144.102995,-9770.718434,222.061783,842.705048
1144.103316,-9474.636058,-74.020594,1378.971896
1144.103636,-9548.656652,-592.164754,1838.629195
1144.103957,-9474.636058,-1406.391290,2145.067394
1144.104277,-9252.574275,-1998.556043,2298.286494
1144.104598,-9252.574275,-2368.659014,2451.505594
1144.104919,-9252.574275,-2146.597232,2221.676944
1144.105239,-8586.388927,-1924.535449,2834.553343
1144.105560,-9474.636058,-1628.453072,2298.286494
1144.105881,-9474.636058,-666.185348,1915.238745
1144.106201,-9622.677246,-296.082377,1532.190996
1144.106522,-9696.697840,962.267725,-995.924147
1144.106842,-9770.718434,296.082377,0.000000
1144.107163,-9770.718434,888.247130,-229.828649
1144.107484,-9770.718434,1332.370696,-306.438199
1144.107804,-9844.739029,1776.494261,0.000000
1144.108125,-10214.842000,1332.370696,229.828649
1144.108446,-10288.862594,1184.329507,459.657299
1144.108766,-10214.842000,370.102971,612.876398
1144.109087,-10140.821405,-296.082377,766.095498
1144.109407,-9770.718434,-1110.308913,1532.190996
1144.109728,-9474.636058,-1406.391290,1532.190996
1144.110049,-9474.636058,-1628.453072,1762.019645
1144.110369,-9474.636058,-1776.494261,1532.190996
1144.110690,-9400.615463,-1850.514855,2221.676944
1144.111011,-9474.636058,-1110.308913,1225.752797
1144.111331,-9474.636058,-740.205942,1149.143247
1144.111652,-9474.636058,0.000000,766.095498
1144.111972,-9548.656652,0.000000,229.828649
1144.112293,-9548.656652,148.041188,-459.657299
1144.112614,-9622.677246,592.164754,153.219100
1144.112934,-9992.780217,888.247130,0.000000
1144.113255,-10066.800811,888.247130,459.657299
1144.113576,-10362.883188,1258.350101,689.485948
1144.113896,-9844.739029,444.123565,766.095498
1144.114217,-9548.656652,0.000000,919.314598
1144.114537,-9474.636058,-444.123565,1455.581446
1144.114858,-8512.368333,-2516.700203,2911.162892
1144.115179,-8882.471304,-1702.473667,2068.457845
1144.115499,-9178.553681,-2072.576638,1915.238745
1144.115820,-9178.553681,-2368.659014,2221.676944
1144.116141,-9326.594869,-1850.514855,2298.286494
1144.116461,-9326.594869,-1554.432478,2298.286494
1144.116782,-9474.636058,-888.247130,1762.019645
1144.117102,-9474.636058,-296.082377,1225.752797
1144.117423,-9844.739029,0.000000,689.485948
1144.117744,-9326.594869,296.082377,76.609550
1144.118064,-9770.718434,1184.329507,229.828649
1144.118385,-10066.800811,1480.411884,153.219100
1144.118706,-9992.780217,1628.453072,229.828649
1144.119026,-10584.944971,1184.329507,0.000000
1144.119347,-9992.780217,1184.329507,229.828649
1144.119667,-9844.739029,592.164754,689.485948
1144.119988,-9918.759623,0.000000,1072.533697
1144.120309,-9474.636058,-518.144159,1532.190996
1144.120629,-9326.594869,-1184.329507,1838.629195
1144.120950,-9474.636058,-1406.391290,1838.629195
1144.121271,-9474.636058,-1258.350101,1915.238745
1144.121591,-9548.656652,-1332.370696,2221.676944
1144.121912,-9400.615463,-962.267725,2298.286494
1144.122232,-9844.739029,-814.226536,1991.848295
1144.122553,-9474.636058,-1036.288319,1685.410096
1144.122874,-9770.718434,-592.164754,1072.533697
1144.123194,-10584.944971,592.164754,1225.752797
1144.123515,-9474.636058,-74.020594,459.657299
1144.123836,-9548.656652,0.000000,536.266849
1144.124156,-9474.636058,148.041188,153.219100
1144.124477,-9474.636058,0.000000,0.000000
1144.124797,-9548.656652,222.061783,842.705048
1144.125118,-9400.615463,-666.185348,459.657299
1144.125439,-9326.594869,-888.247130,1072.533697
1144.125759,-9474.636058,-1258.350101,1532.190996
1144.126080,-9252.574275,-1480.411884,1685.410096
1144.126401,-9474.636058,-1998.556043,2221.676944
1144.126721,-9548.656652,-1776.494261,2068.457845
1144.127042,-9474.636058,-1554.432478,2068.457845
1144.127362,-9918.759623,-888.247130,1225.752797
1144.127683,-9474.636058,-888.247130,1532.190996
1144.128003,-9474.636058,-444.123565,1072.533697
1144.128324,-9548.656652,0.000000,919.314598
1144.128645,-9474.636058,148.041188,153.219100
1144.128965,-9474.636058,962.267725,0.000000
1144.129286,-9770.718434,1110.308913,-229.828649
1144.129606,-9992.780217,1406.391290,-229.828649
1144.129927,-10066.800811,1332.370696,153.219100
1144.130247,-10066.800811,1036.288319,1378.971896
1144.130568,-9992.780217,296.082377,842.705048
1144.130889,-9770.718434,0.000000,919.314598
1144.131209,-9770.718434,-740.205942,1378.971896
1144.131530,-9474.636058,-518.144159,3217.601092
1144.131850,-9326.594869,-1480.411884,1838.629195
1144.132171,-9252.574275,-1554.432478,2068.457845
1144.132491,-9548.656652,-1628.453072,2374.896044
1144.132812,-9252.574275,-1554.432478,2298.286494
1144.133133,-9030.512492,-1258.350101,2068.457845
1144.133453,-9326.594869,-1110.308913,1378.971896
1144.133774,-9548.656652,-740.205942,1378.971896
1144.134094,-9622.677246,0.000000,995.924147
1144.134415,-9178.553681,666.185348,-689.485948
1144.134735,-9696.697840,740.205942,383.047749
1144.135056,-9844.739029,1110.308913,306.438199
1144.135377,-9696.697840,962.267725,459.657299
1144.135697,-9770.718434,666.185348,1608.800546
1144.136018,-9474.636058,74.020594,689.485948
1144.136338,-9548.656652,0.000000,995.924147
1144.136659,-9474.636058,-518.144159,1455.581446
1144.136979,-9474.636058,-962.267725,1685.410096
1144.137300,-9030.512492,-1998.556043,1762.019645
1144.137621,-9474.636058,-1776.494261,1915.238745
1144.137941,-9326.594869,-1850.514855,1991.848295
1144.138262,-9400.615463,-1702.473667,2145.067394
1144.138582,-8660.409521,-888.247130,1838.629195
1144.138903,-9474.636058,-740.205942,1072.533697
1144.139223,-9474.636058,-74.020594,306.438199
1144.139544,-9622.677246,518.144159,0.000000
1144.139865,-9696.697840,1332.370696,153.219100
1144.140185,-9918.759623,1776.494261,-153.219100
1144.140506,-9918.759623,2072.576638,-229.828649
1144.140826,-10288.862594,1924.535449,-459.657299
1144.141147,-10066.800811,1258.350101,153.219100
1144.141467,-9844.739029,222.061783,0.000000
1144.141788,-9622.677246,-370.102971,919.314598
1144.142109,-9622.677246,-888.247130,1225.752797
1144.142429,-9548.656652,-1110.308913,1685.410096
1144.142750,-8956.491898,-1702.473667,1685.410096
1144.143070,-9326.594869,-1776.494261,1991.848295
1144.143391,-9326.594869,-1554.432478,2374.896044
1144.143711,-9474.636058,-1406.391290,2604.724693
1144.144032,-9400.615463,-1258.350101,2451.505594
1144.144353,-9474.636058,-1110.308913,1608.800546
1144.144673,-9400.615463,-592.164754,995.924147
1144.144994,-9474.636058,296.082377,1072.533697
1144.145314,-9918.759623,740.205942,995.924147
1144.145635,-9622.677246,740.205942,536.266849
1144.145955,-9770.718434,740.205942,459.657299
1144.146276,-9770.718434,518.144159,842.705048
1144.146597,-9770.718434,296.082377,1225.752797
1144.146917,-9474.636058,370.102971,766.095498
1144.147238,-9622.677246,-814.226536,1378.971896
1144.147558,-9252.574275,-1258.350101,1532.190996
1144.147879,-9252.574275,-1850.514855,1762.019645
1144.148199,-9326.594869,-2072.576638,3064.381992
1144.148520,-9326.594869,-1924.535449,1991.848295
1144.148841,-9326.594869,-1776.494261,1838.629195
1144.149161,-9474.636058,-1406.391290,1532.190996
1144.149482,-9474.636058,-1184.329507,1072.533697
1144.149802,-9326.594869,-740.205942,1608.800546
1144.150123,-9696.697840,0.000000,459.657299
1144.150443,-9844.739029,296.082377,229.828649
1144.150764,-9770.718434,814.226536,-612.876398
1144.151085,-11029.068536,1702.473667,-612.876398
1144.151405,-10214.842000,1406.391290,0.000000
1144.151726,-10066.800811,1036.288319,76.609550
1144.152046,-9918.759623,592.164754,0.000000
1144.152367,-9622.677246,444.123565,153.219100
1144.152687,-9844.739029,-518.144159,383.047749
1144.153008,-9400.615463,-1110.308913,1455.581446
1144.153329,-9400.615463,-1554.432478,842.705048
1144.153649,-9474.636058,-1480.411884,1378.971896
1144.153970,-9400.615463,-1628.453072,1302.362347
1144.154290,-9474.636058,-1332.370696,1762.019645
1144.154611,-9474.636058,-1036.288319,1915.238745
1144.154931,-9326.594869,-888.247130,1455.581446
1144.155252,-9844.739029,0.000000,383.047749
1144.155573,-9474.636058,-444.123565,842.705048
1144.155893,-9696.697840,74.020594,459.657299
1144.156214,-9548.656652,296.082377,306.438199
1144.156534,-9548.656652,444.123565,0.000000
1144.156855,-9696.697840,814.226536,229.828649
1144.157175,-9770.718434,814.226536,383.047749
1144.157496,-9918.759623,370.102971,1149.143247
1144.157817,-9548.656652,-296.082377,1532.190996
1144.158137,-9252.574275,-888.247130,1762.019645
1144.158458,-9474.636058,-1036.288319,1991.848295
1144.158778,-9474.636058,-1480.411884,2451.505594
1144.159099,-9326.594869,-1554.432478,2451.505594
1144.159419,-9622.677246,-2146.597232,4366.744339
1144.159740,-9622.677246,-1480.411884,2451.505594
1144.160061,-9696.697840,-962.267725,2221.676944
1144.160381,-9548.656652,-518.144159,1838.629195
1144.160702,-9548.656652,0.000000,1608.800546
1144.161022,-9622.677246,222.061783,459.657299
1144.161343,-9696.697840,888.247130,0.000000
1144.161663,-9918.759623,1554.432478,0.000000
1144.161984,-10140.821405,1850.514855,0.000000
1144.162305,-10732.986159,2368.659014,153.219100
1144.162625,-10214.842000,1702.473667,306.438199
1144.162946,-10288.862594,1258.350101,459.657299
1144.163266,-9622.677246,666.185348,383.047749
1144.163587,-9400.615463,296.082377,2604.724693
1144.163908,-9548.656652,-814.226536,1072.533697
1144.164228,-9326.594869,-1184.329507,1225.752797
1144.164549,-9474.636058,-1702.473667,1532.190996
1144.164869,-9104.533087,-1702.473667,1532.190996
1144.165190,-9030.512492,-1406.391290,1685.410096
1144.165510,-9400.615463,-1184.329507,1838.629195
1144.165831,-9400.615463,-1184.329507,1072.533697
1144.166152,-9252.574275,-740.205942,1225.752797
1144.166472,-9474.636058,-814.226536,459.657299
1144.166793,-9474.636058,0.000000,306.438199
1144.167113,-9696.697840,518.144159,0.000000
1144.167434,-9622.677246,518.144159,0.000000
1144.167754,-9770.718434,888.247130,1302.362347
1144.168075,-9770.718434,296.082377,919.314598
1144.168396,-9844.739029,0.000000,536.266849
1144.168716,-9474.636058,-74.020594,1225.752797
1144.169037,-9474.636058,-1036.288319,1225.752797
1144.169357,-9474.636058,-1332.370696,1991.848295
1144.169678,-9400.615463,-1628.453072,2298.286494
1144.169998,-9326.594869,-2072.576638,2451.505594
1144.170319,-9474.636058,-2072.576638,2757.943793
1144.170640,-9104.533087,-2072.576638,2451.505594
1144.170960,-9696.697840,-1406.391290,2451.505594
1144.171281,-9474.636058,-962.267725,1991.848295
1144.171601,-9844.739029,-370.102971,1838.629195
1144.171922,-10362.883188,0.000000,-229.828649
1144.172242,-9770.718434,296.082377,536.266849
1144.172563,-10140.821405,444.123565,536.266849
1144.172884,-9992.780217,1110.308913,306.438199
1144.173204,-10288.862594,1036.288319,153.219100
1144.173525,-10140.821405,1036.288319,536.266849
1144.173845,-9844.739029,444.123565,612.876398
1144.174166,-9770.718434,148.041188,1149.143247
1144.174486,-10066.800811,-592.164754,1378.971896
1144.174807,-9622.677246,-1110.308913,1915.238745
1144.175128,-9548.656652,-1850.514855,1991.848295
1144.175448,-9474.636058,-2146.597232,1455.581446
1144.175769,-9178.553681,-1998.556043,1455.581446
1144.176089,-9622.677246,-1702.473667,1532.190996
1144.176410,-9474.636058,-1332.370696,1608.800546
1144.176730,-9474.636058,-1184.329507,1072.533697
1144.177051,-9474.636058,-962.267725,612.876398
1144.177372,-9548.656652,-814.226536,0.000000
1144.177692,-9696.697840,0.000000,0.000000
1144.178013,-9696.697840,518.144159,-153.219100
1144.178333,-9622.677246,962.267725,-306.438199
1144.178654,-9622.677246,1110.308913,-306.438199
1144.178974,-10140.821405,1332.370696,0.000000
1144.179295,-9696.697840,592.164754,153.219100
1144.179616,-9622.677246,370.102971,459.657299
1144.179936,-9548.656652,-296.082377,1072.533697
1144.180257,-8882.471304,0.000000,842.705048
1144.180577,-9474.636058,-1258.350101,1455.581446
1144.180898,-9474.636058,-1776.494261,1915.238745
1144.181218,-9474.636058,-1776.494261,2145.067394
1144.181539,-9326.594869,-1332.370696,2068.457845
1144.181860,-9400.615463,-1036.288319,1608.800546
1144.182180,-9400.615463,-444.123565,1149.143247
1144.182501,-9622.677246,148.041188,842.705048
1144.182821,-9696.697840,888.247130,383.047749
1144.183142,-9474.636058,1554.432478,0.000000
1144.183462,-10066.800811,1850.514855,0.000000
1144.183783,-10066.800811,1924.535449,0.000000
1144.184104,-10214.842000,2072.576638,0.000000
1144.184424,-9770.718434,1702.473667,459.657299
1144.184745,-10140.821405,1184.329507,153.219100
1144.185065,-9770.718434,370.102971,766.095498
1144.185386,-9770.718434,-148.041188,1378.971896
1144.185706,-9474.636058,-888.247130,2145.067394
1144.186027,-9252.574275,-1184.329507,2221.676944
1144.186348,-9104.533087,-1850.514855,2681.334243
1144.186668,-9178.553681,-1702.473667,2681.334243
1144.186989,-9252.574275,-1480.411884,2604.724693
1144.187309,-9030.512492,-1110.308913,2298.286494
1144.187630,-9178.553681,-962.267725,2298.286494
1144.187950,-9104.533087,-518.144159,1915.238745
1144.188271,-9474.636058,-148.041188,1455.581446
1144.188592,-9030.512492,518.144159,2451.505594
1144.188912,-9696.697840,666.185348,995.924147
1144.189233,-9548.656652,666.185348,919.314598
1144.189553,-9622.677246,740.205942,919.314598
1144.189874,-9770.718434,296.082377,995.924147
1144.190194,-9548.656652,-222.061783,1378.971896
1144.190515,-9696.697840,-518.144159,1302.362347
1144.190836,-9400.615463,-1184.329507,1685.410096
1144.191156,-9326.594869,-1406.391290,1762.019645
1144.191477,-9104.533087,-1850.514855,1838.629195
1144.191797,-9252.574275,-1924.535449,2068.457845
1144.192118,-9252.574275,-1850.514855,1532.190996
1144.192438,-9474.636058,-1776.494261,1532.190996
1144.192759,-9474.636058,-1702.473667,689.485948
1144.193080,-9474.636058,-1184.329507,459.657299
1144.193400,-9770.718434,-444.123565,0.000000
1144.193721,-9844.739029,444.123565,-306.438199
1144.194041,-10140.821405,740.205942,-612.876398
1144.194362,-10288.862594,1406.391290,-766.095498
1144.194682,-10436.903782,1776.494261,-995.924147
1144.195003,-10288.862594,1258.350101,-919.314598
1144.195324,-10214.842000,666.185348,0.000000
1144.195644,-10288.862594,74.020594,-612.876398
1144.195965,-9918.759623,-370.102971,76.609550
1144.196285,-9622.677246,-888.247130,536.266849
1144.196606,-9474.636058,-1332.370696,1149.143247
1144.196926,-8512.368333,-2146.597232,2528.115143
1144.197247,-9400.615463,-1702.473667,1685.410096
1144.197568,-9400.615463,-1480.411884,1838.629195
1144.197888,-9622.677246,-1110.308913,2068.457845
1144.198209,-9474.636058,-814.226536,1915.238745
1144.198529,-9770.718434,-814.226536,1838.629195
1144.198850,-9400.615463,-444.123565,1302.362347
1144.199170,-9622.677246,-148.041188,995.924147
1144.199491,-9548.656652,370.102971,842.705048
1144.199812,-9918.759623,444.123565,766.095498
1144.200132,-9622.677246,1036.288319,995.924147
1144.200453,-9622.677246,1036.288319,842.705048
1144.200773,-9770.718434,666.185348,919.314598
1144.201094,-9326.594869,962.267725,1762.019645
1144.201415,-9622.677246,-370.102971,1915.238745
1144.201735,-9326.594869,-888.247130,2451.505594
1144.202056,-9474.636058,-1184.329507,2681.334243
1144.202376,-9400.615463,-1776.494261,2757.943793
1144.202697,-9474.636058,-1776.494261,2757.943793
1144.203017,-9326.594869,-1702.473667,2374.896044
1144.203338,-9474.636058,-1406.391290,2298.286494
1144.203659,-9326.594869,-1258.350101,1685.410096
1144.203979,-9770.718434,-518.144159,383.047749
1144.204300,-9548.656652,0.000000,536.266849
1144.204620,-9622.677246,370.102971,459.657299
1144.204941,-9844.739029,1110.308913,-229.828649
1144.205261,-10436.903782,2516.700203,-536.266849
1144.205582,-10066.800811,2146.597232,-536.266849
1144.205903,-10288.862594,2294.638420,0.000000
1144.206223,-10288.862594,1406.391290,229.828649
1144.206544,-10066.800811,592.164754,153.219100
1144.206864,-9992.780217,0.000000,306.438199
1144.207185,-9770.718434,-370.102971,766.095498
1144.207505,-9770.718434,-1110.308913,1532.190996
1144.207826,-9252.574275,-1480.411884,1378.971896
1144.208147,-9326.594869,-1258.350101,1685.410096
1144.208467,-9104.533087,-1628.453072,1608.800546
1144.208788,-9474.636058,-1554.432478,2221.676944
1144.209108,-9622.677246,-1258.350101,2145.067394
1144.209429,-10066.800811,-148.041188,306.438199
1144.209749,-9474.636058,-592.164754,1149.143247
1144.210070,-9474.636058,-148.041188,995.924147
1144.210391,-9474.636058,148.041188,689.485948
1144.210711,-9770.718434,370.102971,612.876398
1144.211032,-9474.636058,148.041188,689.485948
1144.211352,-9548.656652,148.041188,383.047749
1144.211673,-9474.636058,0.000000,612.876398
1144.211993,-9474.636058,-370.102971,919.314598
1144.212314,-8734.430116,-148.041188,2374.896044
1144.212635,-9400.615463,-1036.288319,1991.848295
1144.212955,-9474.636058,-1850.514855,1915.238745
1144.213276,-9252.574275,-1924.535449,2068.457845
1144.213596,-9474.636058,-2072.576638,1838.629195
1144.213917,-9326.594869,-1924.535449,2757.943793
1144.214237,-9548.656652,-1702.473667,1838.629195
1144.214558,-9400.615463,-1406.391290,1455.581446
1144.214879,-9474.636058,-740.205942,766.095498
1144.215199,-9622.677246,-222.061783,1838.629195
1144.215520,-9918.759623,370.102971,306.438199
1144.215840,-9844.739029,888.247130,0.000000
1144.216161,-10066.800811,1332.370696,0.000000
1144.216481,-10066.800811,1628.453072,0.000000
1144.216802,-10510.924376,888.247130,689.485948
1144.217123,-10140.821405,740.205942,383.047749
1144.217443,-9918.759623,444.123565,689.485948
1144.217764,-9770.718434,-148.041188,689.485948
1144.218084,-9622.677246,-592.164754,995.924147
1144.218405,-9622.677246,-962.267725,1455.581446
1144.218725,-9474.636058,-1258.350101,1455.581446
1144.219046,-9474.636058,-1258.350101,1608.800546
1144.219367,-9474.636058,-1258.350101,1608.800546
1144.219687,-9696.697840,-962.267725,766.095498
1144.220008,-9474.636058,-1110.308913,1838.629195
1144.220328,-9474.636058,-666.185348,1302.362347
1144.220649,-9548.656652,-444.123565,1072.533697
1144.220969,-9326.594869,-518.144159,0.000000
1144.221290,-9474.636058,296.082377,459.657299
1144.221611,-9548.656652,518.144159,459.657299
1144.221931,-9474.636058,888.247130,383.047749
1144.222252,-9548.656652,740.205942,459.657299
1144.222572,-9548.656652,518.144159,383.047749
1144.222893,-9548.656652,74.020594,689.485948
1144.223213,-9400.615463,-518.144159,995.924147
1144.223534,-9474.636058,-814.226536,1685.410096
1144.223855,-9474.636058,-1406.391290,1455.581446
1144.224175,-9252.574275,-1850.514855,2298.286494
1144.224496,-9474.636058,-2072.576638,2374.896044
1144.224816,-9474.636058,-1924.535449,2451.505594
1144.225137,-9548.656652,-2146.597232,2528.115143
1144.225457,-9548.656652,-1258.350101,1838.629195
1144.225778,-9474.636058,-888.247130,1302.362347
1144.226099,-9474.636058,-148.041188,689.485948
1144.226419,-9622.677246,740.205942,1991.848295
1144.226740,-9474.636058,1036.288319,0.000000
1144.227060,-9992.780217,1480.411884,0.000000
1144.227381,-9918.759623,1702.473667,-153.219100
1144.227702,-10436.903782,1776.494261,0.000000
1144.228022,-10658.965565,1036.288319,-229.828649
1144.228343,-10362.883188,444.123565,229.828649
1144.228663,-10066.800811,-148.041188,766.095498
1144.228984,-10066.800811,-740.205942,995.924147
1144.229305,-9400.615463,-1184.329507,1762.019645
1144.229625,-9622.677246,-1554.432478,1762.019645
1144.229946,-9400.615463,-1628.453072,1991.848295
1144.230266,-9400.615463,-1480.411884,2145.067394
1144.230587,-9548.656652,-962.267725,1991.848295
1144.230908,-9474.636058,-1184.329507,1838.629195
1144.231228,-9178.553681,-1184.329507,1608.800546
1144.231549,-9474.636058,-518.144159,919.314598
1144.231869,-9474.636058,-296.082377,766.095498
1144.232190,-9622.677246,-148.041188,0.000000
1144.232511,-9548.656652,296.082377,229.828649
1144.232831,-9622.677246,444.123565,459.657299
1144.233152,-9622.677246,592.164754,229.828649
1144.233473,-9696.697840,0.000000,1302.362347
1144.233793,-9622.677246,0.000000,1149.143247
1144.234114,-9474.636058,-740.205942,1455.581446
1144.234434,-9474.636058,-1184.329507,1838.629195
1144.234755,-9400.615463,-1702.473667,1838.629195
1144.235076,-9104.533087,-1924.535449,2221.676944
1144.235396,-9252.574275,-2072.576638,2145.067394
1144.235717,-9326.594869,-1628.453072,1991.848295
1144.236037,-9474.636058,-1332.370696,2068.457845
1144.236358,-8512.368333,-1332.370696,1455.581446
1144.236679,-9474.636058,-592.164754,1225.752797
1144.236999,-9548.656652,-296.082377,612.876398
1144.237320,-9992.780217,370.102971,0.000000
1144.237640,-9918.759623,1998.556043,1532.190996
1144.237961,-10066.800811,1406.391290,0.000000
1144.238282,-10214.842000,1480.411884,76.609550
1144.238602,-9918.759623,1628.453072,0.000000
1144.238923,-9918.759623,888.247130,459.657299
1144.239243,-9918.759623,592.164754,612.876398
1144.239564,-9474.636058,0.000000,612.876398
1144.239885,-9474.636058,-666.185348,995.924147
1144.240205,-9326.594869,-1110.308913,1302.362347
1144.240526,-9474.636058,-962.267725,2068.457845
1144.240846,-9400.615463,-1406.391290,1915.238745
1144.241167,-9474.636058,-1406.391290,2221.676944
1144.241488,-9770.718434,-1406.391290,2374.896044
1144.241808,-9400.615463,-1184.329507,2221.676944
1144.242129,-9622.677246,-740.205942,1532.190996
1144.242449,-9474.636058,-296.082377,919.314598
1144.242770,-9474.636058,0.000000,536.266849
1144.243091,-9474.636058,592.164754,229.828649
1144.243411,-9548.656652,1110.308913,0.000000
1144.243732,-9622.677246,1184.329507,76.609550
1144.244052,-9548.656652,666.185348,153.219100
1144.244373,-9474.636058,814.226536,0.000000
1144.244694,-9844.739029,370.102971,459.657299
1144.245014,-9548.656652,0.000000,919.314598
1144.245335,-9474.636058,-518.144159,1455.581446
1144.245655,-9474.636058,-1480.411884,1915.238745
1144.245976,-9326.594869,-1258.350101,2298.286494
1144.246297,-9474.636058,-2220.617826,2145.067394
1144.246617,-9400.615463,-1776.494261,2221.676944
1144.246938,-9400.615463,-1480.411884,2068.457845
1144.247258,-9178.553681,-1258.350101,1378.971896
1144.247579,-9400.615463,-370.102971,1072.533697
1144.247900,-9474.636058,0.000000,612.876398
1144.248220,-9548.656652,518.144159,0.000000
1144.248541,-9548.656652,1110.308913,-306.438199
1144.248861,-10066.800811,1480.411884,-995.924147
1144.249182,-10288.862594,2368.659014,-612.876398
1144.249503,-10288.862594,1776.494261,0.000000
1144.249823,-10066.800811,1332.370696,383.047749
1144.250144,-9622.677246,444.123565,0.000000
1144.250464,-9992.780217,-370.102971,1072.533697
1144.250785,-9770.718434,-1332.370696,1608.800546
1144.251106,-9400.615463,-1776.494261,1991.848295
1144.251426,-9474.636058,-1850.514855,2451.505594
1144.251747,-9474.636058,-1702.473667,2145.067394
1144.252067,-9326.594869,-1776.494261,2374.896044
1144.252388,-9474.636058,-1776.494261,2451.505594
1144.252709,-9474.636058,-1554.432478,2298.286494
1144.253029,-9474.636058,-962.267725,2298.286494
1144.253350,-9548.656652,-518.144159,1532.190996
1144.253670,-9474.636058,-296.082377,995.924147
1144.253991,-9474.636058,370.102971,612.876398
1144.254312,-9622.677246,0.000000,-612.876398
1144.254632,-9918.759623,814.226536,612.876398
1144.254953,-9844.739029,518.144159,612.876398
1144.255273,-9844.739029,0.000000,919.314598
1144.255594,-9622.677246,-296.082377,1532.190996
1144.255915,-9622.677246,-592.164754,1455.581446
1144.256235,-9252.574275,-1332.370696,1838.629195
1144.256556,-9252.574275,-1776.494261,2068.457845
1144.256876,-9178.553681,-2220.617826,1915.238745
1144.257197,-8808.450710,-1776.494261,995.924147
1144.257518,-9326.594869,-1258.350101,1915.238745
1144.257838,-9400.615463,-740.205942,1378.971896
1144.258159,-9474.636058,-666.185348,1072.533697
1144.258479,-9252.574275,-666.185348,1915.238745
1144.258800,-9696.697840,296.082377,383.047749
1144.259121,-9918.759623,518.144159,0.000000
1144.259441,-10214.842000,962.267725,-383.047749
1144.259762,-10214.842000,1332.370696,-306.438199
1144.260082,-9844.739029,1406.391290,229.828649
1144.260403,-10066.800811,962.267725,0.000000
1144.260724,-9844.739029,666.185348,306.438199
1144.261044,-9622.677246,0.000000,383.047749
1144.261365,-9178.553681,-296.082377,1532.190996
1144.261685,-9474.636058,-1110.308913,1072.533697
1144.262006,-9252.574275,-1480.411884,1455.581446
1144.262327,-9030.512492,-1924.535449,1378.971896
1144.262647,-9104.533087,-1406.391290,2068.457845
1144.262968,-9400.615463,-1110.308913,1915.238745
1144.263288,-9770.718434,-888.247130,2145.067394
1144.263609,-9474.636058,-740.205942,1685.410096
1144.263930,-9474.636058,-592.164754,1762.019645
1144.264250,-9770.718434,-222.061783,919.314598
1144.264571,-9548.656652,148.041188,842.705048
1144.264891,-9770.718434,666.185348,919.314598
1144.265212,-9548.656652,888.247130,383.047749
1144.265533,-8808.450710,1036.288319,842.705048
1144.265853,-9548.656652,1110.308913,612.876398
1144.266174,-9770.718434,740.205942,919.314598
1144.266494,-9474.636058,0.000000,1455.581446
1144.266815,-9548.656652,-518.144159,0.000000
1144.267136,-9326.594869,-888.247130,1838.629195
1144.267456,-9474.636058,-1258.350101,2298.286494
1144.267777,-9474.636058,-1702.473667,2681.334243
1144.268097,-9252.574275,-1850.514855,2298.286494
1144.268418,-9548.656652,-1554.432478,1915.238745
1144.268739,-9474.636058,-1184.329507,1991.848295
1144.269059,-9474.636058,-740.205942,1915.238745
1144.269380,-9548.656652,0.000000,1072.533697
1144.269700,-9474.636058,444.123565,306.438199
1144.270021,-9844.739029,888.247130,76.609550
1144.270342,-9770.718434,1110.308913,0.000000
1144.270662,-10066.800811,1480.411884,-306.438199
1144.270983,-9918.759623,1850.514855,766.095498
1144.271303,-10214.842000,1554.432478,-229.828649
1144.271624,-10214.842000,1332.370696,76.609550
1144.271945,-9918.759623,444.123565,536.266849
1144.272265,-9844.739029,0.000000,842.705048
1144.272586,-9844.739029,-518.144159,1225.752797
1144.272906,-9400.615463,-1406.391290,1608.800546
1144.273227,-9252.574275,-1776.494261,1378.971896
1144.273548,-9400.615463,-1554.432478,1685.410096
1144.273868,-8586.388927,-1702.473667,919.314598
1144.274189,-9474.636058,-1480.411884,2068.457845
1144.274509,-9326.594869,-962.267725,1838.629195
1144.274830,-9252.574275,-1258.350101,1225.752797
1144.275151,-9474.636058,-962.267725,383.047749
1144.275471,-9548.656652,-444.123565,612.876398
1144.275792,-9696.697840,74.020594,689.485948
1144.276112,-9474.636058,222.061783,536.266849
1144.276433,-9770.718434,592.164754,689.485948
1144.276754,-9548.656652,444.123565,536.266849
1144.277074,-9696.697840,-148.041188,766.095498
1144.277395,-9548.656652,-592.164754,1225.752797
1144.277715,-9696.697840,-962.267725,1532.190996
1144.278036,-8438.347739,-2072.576638,3370.820191
1144.278357,-9400.615463,-1776.494261,1915.238745
1144.278677,-9474.636058,-2072.576638,2298.286494
1144.278998,-9474.636058,-1776.494261,2145.067394
1144.279318,-9548.656652,-1406.391290,1838.629195
1144.279639,-9696.697840,-1036.288319,1915.238745
1144.279960,-9622.677246,-592.164754,1302.362347
1144.280280,-9696.697840,-370.102971,1225.752797
1144.280601,-9696.697840,0.000000,689.485948
1144.280921,-9918.759623,592.164754,76.609550
1144.281242,-10214.842000,1036.288319,0.000000
1144.281563,-10140.821405,1406.391290,0.000000
1144.281883,-10066.800811,1332.370696,-153.219100
1144.282204,-10140.821405,1110.308913,0.000000
1144.282524,-9918.759623,592.164754,383.047749
1144.282845,-9696.697840,0.000000,612.876398
1144.283166,-9622.677246,-666.185348,689.485948
1144.283486,-9252.574275,-1924.535449,2374.896044
1144.283807,-9326.594869,-1480.411884,1762.019645
1144.284127,-9474.636058,-1554.432478,1838.629195
1144.284448,-8956.491898,-1480.411884,1532.190996
1144.284769,-9474.636058,-1332.370696,2221.676944
1144.285089,-9400.615463,-1258.350101,1455.581446
1144.285410,-9474.636058,-1036.288319,1608.800546
1144.285730,-9474.636058,-814.226536,919.314598
1144.286051,-9400.615463,-370.102971,842.705048
1144.286372,-9178.553681,0.000000,1378.971896
1144.286692,-9622.677246,444.123565,459.657299
1144.287013,-9696.697840,962.267725,229.828649
1144.287333,-9622.677246,1110.308913,153.219100
1144.287654,-9696.697840,1184.329507,766.095498
1144.287975,-9548.656652,592.164754,689.485948
1144.288295,-9474.636058,222.061783,1225.752797
1144.288616,-9548.656652,-444.123565,1915.238745
1144.288936,-9474.636058,-1036.288319,1685.410096
1144.289257,-9178.553681,-1554.432478,2528.115143
1144.289578,-9400.615463,-1850.514855,2451.505594
1144.289898,-9474.636058,-1702.473667,2528.115143
1144.290219,-9400.615463,-1554.432478,2145.067394
1144.290539,-9992.780217,-296.082377,1532.190996
1144.290860,-9622.677246,-518.144159,1378.971896
1144.291181,-9474.636058,-296.082377,919.314598
1144.291501,-9770.718434,518.144159,612.876398
1144.291822,-9696.697840,740.205942,153.219100
1144.292142,-9918.759623,1406.391290,0.000000
1144.292463,-10214.842000,1850.514855,-306.438199
1144.292784,-10362.883188,2072.576638,-229.828649
1144.293104,-10362.883188,1702.473667,229.828649
1144.293425,-10584.944971,1406.391290,229.828649
1144.293745,-9918.759623,518.144159,689.485948
1144.294066,-9548.656652,-518.144159,919.314598
1144.294387,-9770.718434,-962.267725,1915.238745
1144.294707,-9474.636058,-1702.473667,1455.581446
1144.295028,-9474.636058,-2072.576638,1455.581446
1144.295348,-9178.553681,-2072.576638,1685.410096
1144.295669,-9252.574275,-1480.411884,1838.629195
1144.295990,-9474.636058,-1184.329507,1991.848295
1144.296310,-9400.615463,-1184.329507,2451.505594
1144.296631,-9400.615463,-666.185348,1225.752797
1144.296951,-9548.656652,-296.082377,1072.533697
1144.297272,-9548.656652,0.000000,689.485948
1144.297593,-9474.636058,370.102971,536.266849
1144.297913,-9252.574275,518.144159,306.438199
1144.298234,-9474.636058,666.185348,0.000000
1144.298554,-9548.656652,296.082377,459.657299
1144.298875,-9622.677246,222.061783,766.095498
1144.299196,-9696.697840,-592.164754,1378.971896
1144.299516,-9474.636058,-814.226536,1455.581446
1144.299837,-9474.636058,-1480.411884,1608.800546
1144.300157,-9178.553681,-2072.576638,1991.848295
1144.300478,-9178.553681,-2368.659014,2298.286494
1144.300799,-9474.636058,-1776.494261,1762.019645
1144.301119,-9474.636058,-1110.308913,1685.410096
1144.301440,-9474.636058,-888.247130,1915.238745
1144.301760,-9696.697840,-444.123565,1378.971896
1144.302081,-9104.533087,-370.102971,1072.533697
1144.302402,-9770.718434,370.102971,306.438199
1144.302722,-9770.718434,814.226536,0.000000
1144.303043,-10066.800811,1258.350101,-153.219100
1144.303363,-9770.718434,1480.411884,-229.828649
1144.303684,-10214.842000,1924.535449,0.000000
1144.304005,-10140.821405,1628.453072,229.828649
1144.304325,-10214.842000,1036.288319,229.828649
1144.304646,-10066.800811,444.123565,766.095498
1144.304966,-10066.800811,-296.082377,1225.752797
1144.305287,-9474.636058,-1110.308913,1685.410096
1144.305608,-9400.615463,-1924.535449,1838.629195
1144.305928,-9252.574275,-2072.576638,2068.457845
1144.306249,-9696.697840,-1110.308913,1838.629195
1144.306569,-9474.636058,-1258.350101,1915.238745
1144.306890,-9474.636058,-1110.308913,1838.629195
1144.307211,-9622.677246,-962.267725,1762.019645
1144.307531,-9326.594869,-1036.288319,536.266849
1144.307852,-9548.656652,-444.123565,1072.533697
1144.308172,-9474.636058,0.000000,919.314598
1144.308493,-9474.636058,74.020594,766.095498
1144.308814,-9400.615463,222.061783,459.657299
1144.309134,-9474.636058,296.082377,306.438199
1144.309455,-9474.636058,444.123565,459.657299
1144.309775,-9474.636058,518.144159,689.485948
1144.310096,-9474.636058,0.000000,842.705048
1144.310417,-9474.636058,-370.102971,1762.019645
1144.310737,-9178.553681,-1258.350101,1991.848295
1144.311058,-9252.574275,-1850.514855,1915.238745
1144.311378,-8956.491898,-2220.617826,1838.629195
1144.311699,-9252.574275,-888.247130,4136.915689
1144.312020,-9252.574275,-1702.473667,2374.896044
1144.312340,-9548.656652,-1110.308913,1838.629195
1144.312661,-9474.636058,-592.164754,1455.581446
1144.312981,-9548.656652,74.020594,612.876398
1144.313302,-10140.821405,666.185348,306.438199
1144.313623,-9770.718434,814.226536,0.000000
1144.313943,-10066.800811,1258.350101,-153.219100
1144.314264,-10214.842000,1776.494261,-229.828649
1144.314585,-10066.800811,2220.617826,383.047749
1144.314905,-10658.965565,1628.453072,0.000000
1144.315226,-10288.862594,1110.308913,153.219100
1144.315546,-10140.821405,370.102971,383.047749
1144.315867,-9252.574275,-592.164754,1455.581446
1144.316188,-9770.718434,-666.185348,1302.362347
1144.316508,-9474.636058,-1406.391290,1608.800546
1144.316829,-9474.636058,-1776.494261,1915.238745
1144.317149,-9326.594869,-1776.494261,1532.190996
1144.317470,-9400.615463,-1554.432478,1991.848295
1144.317791,-9548.656652,-1480.411884,1838.629195
1144.318111,-9400.615463,-1332.370696,1991.848295
1144.318432,-9400.615463,-444.123565,1532.190996
1144.318752,-9622.677246,-444.123565,459.657299
1144.319073,-9474.636058,0.000000,766.095498
1144.319394,-9474.636058,0.000000,536.266849
1144.319714,-9474.636058,74.020594,306.438199
1144.320035,-9548.656652,666.185348,612.876398
1144.320355,-9474.636058,296.082377,459.657299
1144.320676,-9474.636058,222.061783,1225.752797
1144.320997,-9326.594869,-296.082377,1378.971896
1144.321317,-9474.636058,-740.205942,1608.800546
1144.321638,-9326.594869,-1480.411884,1608.800546
1144.321958,-9030.512492,-1850.514855,1991.848295
1144.322279,-9178.553681,-1924.535449,2145.067394
1144.322600,-9326.594869,-1554.432478,1991.848295
1144.322920,-8142.265362,-1184.329507,1532.190996
1144.323241,-9474.636058,-666.185348,1378.971896
1144.323561,-9474.636058,-148.041188,919.314598
1144.323882,-9622.677246,222.061783,612.876398
1144.324203,-9770.718434,666.185348,459.657299
1144.324523,-9770.718434,1110.308913,-153.219100
1144.324844,-10140.821405,1480.411884,-153.219100
1144.325164,-10140.821405,1776.494261,-383.047749
1144.325485,-10214.842000,1702.473667,229.828649
1144.325806,-10436.903782,1332.370696,153.219100
1144.326126,-10066.800811,518.144159,383.047749
1144.326447,-9918.759623,222.061783,766.095498
1144.326767,-9918.759623,-518.144159,1072.533697
1144.327088,-9252.574275,-1036.288319,2451.505594
1144.327409,-9622.677246,-1480.411884,1762.019645
1144.327729,-9400.615463,-1628.453072,1762.019645
1144.328050,-9252.574275,-1554.432478,1685.410096
1144.328371,-9474.636058,-1554.432478,2451.505594
1144.328691,-9474.636058,-1554.432478,1685.410096
1144.329012,-9474.636058,-1036.288319,1149.143247
1144.329333,-9474.636058,-888.247130,995.924147
1144.329654,-9474.636058,-592.164754,459.657299
1144.329974,-9104.533087,-518.144159,459.657299
1144.330295,-9474.636058,74.020594,153.219100
1144.330616,-9622.677246,518.144159,459.657299
1144.330937,-9548.656652,444.123565,229.828649
1144.331257,-9326.594869,148.041188,1225.752797
1144.331578,-9474.636058,74.020594,842.705048
1144.331899,-9548.656652,0.000000,1378.971896
1144.332220,-9474.636058,-814.226536,1915.238745
1144.332540,-9030.512492,-1480.411884,1378.971896
1144.332861,-9178.553681,-1998.556043,2221.676944
1144.333182,-9252.574275,-2294.638420,2221.676944
1144.333503,-9178.553681,-2294.638420,2145.067394
1144.333823,-9400.615463,-1702.473667,1915.238745
1144.334144,-9548.656652,-1184.329507,1532.190996
1144.334465,-9474.636058,-592.164754,1225.752797
1144.334786,-9622.677246,0.000000,612.876398
1144.335106,-9770.718434,666.185348,0.000000
1144.335427,-9844.739029,1406.391290,919.314598
1144.335748,-10140.821405,1628.453072,-229.828649
1144.336069,-10140.821405,1480.411884,-229.828649
1144.336389,-10436.903782,1554.432478,0.000000
1144.336710,-10214.842000,962.267725,76.609550
1144.337031,-10140.821405,444.123565,76.609550
1144.337352,-9992.780217,148.041188,459.657299
1144.337672,-9844.739029,-518.144159,995.924147
1144.337993,-9696.697840,-1110.308913,1302.362347
1144.338314,-9622.677246,-1850.514855,1915.238745
1144.338635,-9326.594869,-1998.556043,1838.629195
1144.338955,-9326.594869,-2146.597232,2068.457845
1144.339276,-9548.656652,-1776.494261,1838.629195
1144.339597,-7550.100608,-2220.617826,2451.505594
1144.339918,-9474.636058,-1406.391290,1762.019645
1144.340238,-9622.677246,-814.226536,1608.800546
1144.340559,-9548.656652,0.000000,1302.362347
1144.340880,-9622.677246,0.000000,1532.190996
1144.341201,-9474.636058,222.061783,1149.143247
1144.341521,-9474.636058,222.061783,919.314598
1144.341842,-9474.636058,296.082377,842.705048
1144.342163,-9252.574275,0.000000,1149.143247
1144.342484,-9104.533087,-444.123565,1838.629195
1144.342804,-9474.636058,-518.144159,1532.190996
1144.343125,-9326.594869,-1332.370696,1685.410096
1144.343446,-9326.594869,-1628.453072,1991.848295
1144.343767,-9326.594869,-2220.617826,1762.019645
1144.344087,-9400.615463,-1850.514855,2451.505594
1144.344408,-9252.574275,-1702.473667,2221.676944
1144.344729,-9474.636058,-1184.329507,2374.896044
1144.345050,-9474.636058,-592.164754,2451.505594
1144.345370,-9474.636058,74.020594,1072.533697
1144.345691,-9696.697840,666.185348,919.314598
1144.346012,-9696.697840,1036.288319,306.438199
1144.346333,-9770.718434,1406.391290,-153.219100
1144.346653,-9696.697840,1406.391290,-612.876398
1144.346974,-10140.821405,1480.411884,-153.219100
1144.347295,-10140.821405,1110.308913,-383.047749
1144.347616,-10066.800811,740.205942,0.000000
1144.347936,-10066.800811,370.102971,1225.752797
1144.348257,-9992.780217,0.000000,459.657299
1144.348578,-9844.739029,-444.123565,766.095498
1144.348899,-9622.677246,-1036.288319,995.924147
1144.349220,-9474.636058,-1406.391290,1608.800546
1144.349540,-9474.636058,-1480.411884,1608.800546
1144.349861,-9326.594869,-1628.453072,1838.629195
1144.350182,-9548.656652,-1554.432478,1762.019645
1144.350503,-9474.636058,-1332.370696,1532.190996
1144.350823,-9252.574275,-962.267725,1455.581446
1144.351144,-9622.677246,-888.247130,1072.533697
1144.351465,-9548.656652,74.020594,536.266849
1144.351786,-9474.636058,444.123565,229.828649
1144.352106,-9400.615463,740.205942,383.047749
1144.352427,-9474.636058,1258.350101,0.000000
1144.352748,-9770.718434,962.267725,689.485948
1144.353069,-9622.677246,1110.308913,459.657299
1144.353389,-9548.656652,518.144159,919.314598
1144.353710,-9548.656652,74.020594,1072.533697
1144.354031,-9178.553681,-444.123565,1608.800546
1144.354352,-9474.636058,-1036.288319,1915.238745
1144.354672,-9326.594869,-1332.370696,2221.676944
1144.354993,-9178.553681,-1702.473667,2068.457845
1144.355314,-9178.553681,-1776.494261,2298.286494
1144.355635,-9400.615463,-1702.473667,1915.238745
1144.355955,-9400.615463,-1480.411884,1991.848295
1144.356276,-9474.636058,-740.205942,842.705048
1144.356597,-9474.636058,-148.041188,1072.533697
1144.356918,-9548.656652,74.020594,612.876398
1144.357238,-9548.656652,962.267725,76.609550
1144.357559,-9992.780217,1184.329507,306.438199
1144.357880,-10362.883188,1628.453072,0.000000
1144.358201,-10214.842000,1406.391290,0.000000
1144.358521,-10214.842000,1110.308913,-229.828649
1144.358842,-9770.718434,444.123565,229.828649
1144.359163,-9844.739029,0.000000,1149.143247
1144.359484,-9548.656652,-888.247130,1378.971896
1144.359804,-9474.636058,-1258.350101,1378.971896
1144.360125,-9474.636058,-2072.576638,1685.410096
1144.360446,-8808.450710,-1776.494261,2374.896044
1144.360767,-9548.656652,-1702.473667,2145.067394
1144.361087,-9548.656652,-1554.432478,2298.286494
1144.361408,-9474.636058,-1480.411884,2145.067394
1144.361729,-9474.636058,-1110.308913,1532.190996
1144.362050,-9622.677246,-666.185348,1455.581446
1144.362370,-9474.636058,-370.102971,1378.971896
1144.362691,-9474.636058,-74.020594,995.924147
1144.363012,-9548.656652,0.000000,383.047749
1144.363333,-9622.677246,666.185348,153.219100
1144.363653,-9474.636058,296.082377,459.657299
1144.363974,-9622.677246,222.061783,842.705048
1144.364295,-9844.739029,-222.061783,689.485948
1144.364616,-9474.636058,-740.205942,1685.410096
1144.364936,-9622.677246,-1184.329507,1608.800546
1144.365257,-9474.636058,-1480.411884,1915.238745
1144.365578,-9326.594869,-1850.514855,1762.019645
1144.365899,-9252.574275,-1924.535449,2145.067394
1144.366219,-9178.553681,-1776.494261,1762.019645
1144.366540,-9474.636058,-1332.370696,1685.410096
1144.366861,-9474.636058,-962.267725,1378.971896
1144.367182,-9474.636058,-444.123565,842.705048
1144.367502,-10066.800811,-148.041188,0.000000
1144.367823,-9696.697840,296.082377,229.828649
1144.368144,-9844.739029,666.185348,229.828649
1144.368465,-10362.883188,1184.329507,229.828649
1144.368785,-9918.759623,1628.453072,0.000000
1144.369106,-10066.800811,888.247130,76.609550
1144.369427,-10066.800811,814.226536,383.047749
1144.369748,-9770.718434,518.144159,306.438199
1144.370068,-9622.677246,0.000000,919.314598
1144.370389,-9548.656652,-518.144159,1225.752797
1144.370710,-9548.656652,-1110.308913,1072.533697
1144.371031,-9474.636058,-1332.370696,1685.410096
1144.371351,-9474.636058,-1480.411884,1762.019645
1144.371672,-9474.636058,-1480.411884,2451.505594
1144.371993,-9696.697840,-1184.329507,2221.676944
1144.372314,-9622.677246,-1036.288319,2298.286494
1144.372634,-9474.636058,-740.205942,1685.410096
1144.372955,-8808.450710,74.020594,1532.190996
1144.373276,-9548.656652,-148.041188,306.438199
1144.373597,-9474.636058,296.082377,459.657299
1144.373917,-9474.636058,666.185348,0.000000
1144.374238,-9548.656652,1110.308913,76.609550
1144.374559,-9474.636058,1184.329507,306.438199
1144.374880,-9622.677246,1184.329507,612.876398
1144.375200,-9844.739029,666.185348,919.314598
1144.375521,-9474.636058,74.020594,1608.800546
1144.375842,-9770.718434,-296.082377,2374.896044
1144.376163,-9400.615463,-888.247130,2374.896044
1144.376483,-9474.636058,-1554.432478,2068.457845
1144.376804,-9104.533087,-1628.453072,2451.505594
1144.377125,-8882.471304,-1998.556043,2911.162892
1144.377446,-9178.553681,-1110.308913,2298.286494
1144.377766,-9474.636058,-962.267725,1302.362347
1144.378087,-9326.594869,-222.061783,1149.143247
1144.378408,-9474.636058,0.000000,689.485948
1144.378729,-9474.636058,592.164754,0.000000
1144.379049,-9696.697840,1258.350101,0.000000
1144.379370,-10066.800811,1850.514855,-306.438199
1144.379691,-10140.821405,2072.576638,-153.219100
1144.380012,-9918.759623,1702.473667,153.219100
1144.380332,-10140.821405,1258.350101,459.657299
1144.380653,-9992.780217,592.164754,76.609550
1144.380974,-9844.739029,74.020594,842.705048
1144.381295,-9770.718434,-592.164754,995.924147
1144.381615,-9474.636058,-1332.370696,1532.190996
1144.381936,-9474.636058,-1850.514855,1685.410096
1144.382257,-9252.574275,-2146.597232,1685.410096
1144.382578,-9326.594869,-1998.556043,2451.505594
1144.382898,-9326.594869,-2146.597232,2221.676944
1144.383219,-9400.615463,-1628.453072,2068.457845
1144.383540,-9252.574275,-1332.370696,1762.019645
1144.383861,-9474.636058,-740.205942,1302.362347
1144.384181,-9918.759623,-148.041188,689.485948
1144.384502,-9622.677246,148.041188,612.876398
1144.384823,-9474.636058,592.164754,459.657299
1144.385144,-9696.697840,888.247130,459.657299
1144.385464,-9104.533087,1332.370696,1838.629195
1144.385785,-9548.656652,222.061783,919.314598
1144.386106,-9622.677246,-296.082377,995.924147
1144.386427,-9696.697840,-962.267725,1149.143247
1144.386747,-9474.636058,-1258.350101,1072.533697
1144.387068,-9326.594869,-2072.576638,1608.800546
1144.387389,-9178.553681,-2146.597232,2374.896044
1144.387710,-9326.594869,-2146.597232,1991.848295
1144.388030,-9474.636058,-1924.535449,1838.629195
1144.388351,-9770.718434,-1110.308913,1915.238745
1144.388672,-9474.636058,-1036.288319,1302.362347
1144.388993,-9622.677246,-814.226536,612.876398
1144.389313,-9770.718434,0.000000,459.657299
1144.389634,-9400.615463,518.144159,0.000000
1144.389955,-10066.800811,888.247130,0.000000
1144.390276,-9992.780217,1406.391290,-229.828649
1144.390596,-10362.883188,1406.391290,0.000000
1144.390917,-10362.883188,1258.350101,229.828649
1144.391238,-10214.842000,592.164754,383.047749
1144.391559,-9844.739029,0.000000,459.657299
1144.391879,-9696.697840,-740.205942,689.485948
1144.392200,-9622.677246,-1110.308913,1225.752797
1144.392521,-9474.636058,-1184.329507,1149.143247
1144.392842,-9178.553681,-1480.411884,1608.800546
1144.393162,-9474.636058,-1184.329507,1608.800546
1144.393483,-9474.636058,-1184.329507,1838.629195
1144.393804,-9548.656652,-666.185348,3064.381992
1144.394125,-9474.636058,-962.267725,2221.676944
1144.394445,-9400.615463,-814.226536,1378.971896
1144.394766,-9474.636058,-370.102971,1072.533697
1144.395087,-9474.636058,-148.041188,2145.067394
1144.395408,-9474.636058,296.082377,306.438199
1144.395729,-9622.677246,962.267725,306.438199
1144.396049,-9474.636058,1036.288319,0.000000
1144.396370,-9622.677246,814.226536,153.219100
1144.396691,-10066.800811,1036.288319,1072.533697
1144.397012,-9474.636058,222.061783,919.314598
1144.397332,-9548.656652,0.000000,1225.752797
1144.397653,-9474.636058,-888.247130,1762.019645
1144.397974,-8956.491898,-962.267725,1762.019645
1144.398295,-9400.615463,-1776.494261,2374.896044
1144.398615,-9178.553681,-1554.432478,2451.505594
1144.398936,-9474.636058,-1406.391290,2145.067394
1144.399257,-9474.636058,-1258.350101,2451.505594
1144.399578,-9474.636058,-444.123565,1532.190996
1144.399898,-9622.677246,-444.123565,995.924147
1144.400219,-9622.677246,296.082377,766.095498
1144.400540,-9548.656652,592.164754,153.219100
1144.400861,-9770.718434,1110.308913,306.438199
1144.401181,-10066.800811,1702.473667,76.609550
1144.401502,-10362.883188,2072.576638,0.000000
1144.401823,-10288.862594,1924.535449,76.609550
1144.402144,-10436.903782,740.205942,0.000000
1144.402464,-9992.780217,740.205942,229.828649
1144.402785,-9696.697840,-148.041188,612.876398
1144.403106,-9844.739029,-592.164754,1302.362347
1144.403427,-9474.636058,-1258.350101,1455.581446
1144.403747,-9400.615463,-1850.514855,1532.190996
1144.404068,-9252.574275,-1702.473667,1838.629195
1144.404389,-9400.615463,-1776.494261,1838.629195
1144.404710,-9400.615463,-1406.391290,2298.286494
1144.405030,-9252.574275,-1702.473667,1532.190996
1144.405351,-9326.594869,-1110.308913,1149.143247
1144.405672,-9622.677246,-888.247130,612.876398
1144.405993,-9474.636058,0.000000,612.876398
1144.406313,-9104.533087,962.267725,689.485948
1144.406634,-9474.636058,222.061783,229.828649
1144.406955,-9548.656652,296.082377,153.219100
1144.407276,-9474.636058,370.102971,306.438199
1144.407596,-9770.718434,0.000000,1915.238745
1144.407917,-9474.636058,-148.041188,995.924147
1144.408238,-9474.636058,-888.247130,995.924147
1144.408559,-9326.594869,-1406.391290,1072.533697
1144.408879,-9400.615463,-1702.473667,1915.238745
1144.409200,-9326.594869,-2368.659014,1991.848295
1144.409521,-9326.594869,-2146.597232,1915.238745
1144.409842,-9696.697840,-1998.556043,2298.286494
1144.410162,-9770.718434,-1406.391290,2374.896044
1144.410483,-9104.533087,-370.102971,995.924147
1144.410804,-9696.697840,-518.144159,1455.581446
1144.411125,-9770.718434,0.000000,919.314598
1144.411445,-9770.718434,1036.288319,383.047749
1144.411766,-10214.842000,1184.329507,76.609550
1144.412087,-10214.842000,1258.350101,459.657299
1144.412408,-10066.800811,1332.370696,153.219100
1144.412728,-10140.821405,888.247130,612.876398
1144.413049,-9992.780217,518.144159,459.657299
1144.413370,-9770.718434,-148.041188,689.485948
1144.413691,-9918.759623,-444.123565,1149.143247
1144.414011,-9474.636058,-814.226536,1072.533697
1144.414332,-9326.594869,-1184.329507,1685.410096
1144.414653,-9474.636058,-1184.329507,1915.238745
1144.414974,-9474.636058,-1332.370696,1685.410096
1144.415294,-9326.594869,-1332.370696,2068.457845
1144.415615,-9474.636058,-1184.329507,1838.629195
1144.415936,-9252.574275,-1036.288319,536.266849
1144.416257,-9474.636058,-888.247130,1225.752797
1144.416577,-9474.636058,-518.144159,766.095498
1144.416898,-9474.636058,74.020594,0.000000
1144.417219,-9548.656652,444.123565,0.000000
1144.417540,-9548.656652,1110.308913,0.000000
1144.417860,-9548.656652,962.267725,-76.609550
1144.418181,-9548.656652,888.247130,-229.828649
1144.418502,-9696.697840,592.164754,76.609550
1144.418823,-9770.718434,370.102971,-306.438199
1144.419143,-9474.636058,-296.082377,612.876398
1144.419464,-9474.636058,-666.185348,1378.971896
1144.419785,-9400.615463,-1036.288319,1532.190996
1144.420106,-9178.553681,-1332.370696,1838.629195
1144.420426,-9474.636058,-1406.391290,1915.238745
1144.420747,-9252.574275,-1406.391290,1838.629195
1144.421068,-9474.636058,-1332.370696,1608.800546
1144.421389,-9548.656652,-1110.308913,1072.533697
1144.421709,-9400.615463,-370.102971,919.314598
1144.422030,-9770.718434,0.000000,153.219100
1144.422351,-9622.677246,666.185348,76.609550
1144.422672,-9992.780217,1258.350101,0.000000
1144.422992,-10807.006753,2220.617826,-459.657299
1144.423313,-10214.842000,2072.576638,0.000000
1144.423634,-10214.842000,1702.473667,306.438199
1144.423955,-10288.862594,1258.350101,842.705048
1144.424275,-9844.739029,518.144159,1225.752797
1144.424596,-9992.780217,-296.082377,1149.143247
1144.424917,-9474.636058,-1184.329507,1762.019645
1144.425238,-9622.677246,-1554.432478,2298.286494
1144.425558,-9400.615463,-1998.556043,2298.286494
1144.425879,-9400.615463,-1776.494261,2374.896044
1144.426200,-9326.594869,-1628.453072,2451.505594
1144.426521,-9474.636058,-1332.370696,2451.505594
1144.426841,-9474.636058,-1110.308913,2451.505594
1144.427162,-8882.471304,-296.082377,1991.848295
1144.427483,-9474.636058,-444.123565,1378.971896
1144.427804,-9548.656652,-148.041188,1149.143247
1144.428124,-9696.697840,444.123565,919.314598
1144.428445,-9770.718434,888.247130,536.266849
1144.428766,-9696.697840,888.247130,612.876398
1144.429087,-9548.656652,592.164754,536.266849
1144.429407,-9696.697840,148.041188,766.095498
1144.429728,-9474.636058,-296.082377,1225.752797
1144.430049,-8660.409521,-1332.370696,1149.143247
1144.430369,-9252.574275,-1850.514855,2145.067394
1144.430690,-9178.553681,-2294.638420,1762.019645
1144.431011,-9178.553681,-2368.659014,1838.629195
1144.431332,-9252.574275,-2368.659014,1532.190996
1144.431652,-9400.615463,-1850.514855,2068.457845
1144.431973,-9326.594869,-1480.411884,1378.971896
1144.432294,-9400.615463,-814.226536,1072.533697
1144.432614,-9548.656652,-148.041188,229.828649
1144.432935,-9622.677246,74.020594,306.438199
1144.433256,-9844.739029,814.226536,0.000000
1144.433577,-9992.780217,1184.329507,-536.266849
1144.433897,-9992.780217,1406.391290,-766.095498
1144.434218,-10214.842000,1628.453072,-459.657299
1144.434539,-9474.636058,1184.329507,-229.828649
1144.434859,-10140.821405,740.205942,229.828649
1144.435180,-9844.739029,74.020594,76.609550
1144.435501,-9474.636058,-518.144159,612.876398
1144.435822,-9548.656652,-1110.308913,1378.971896
1144.436142,-9622.677246,-1406.391290,1685.410096
1144.436463,-9400.615463,-1924.535449,1991.848295
1144.436784,-9474.636058,-1554.432478,1838.629195
1144.437105,-9474.636058,-1332.370696,1991.848295
1144.437425,-9104.533087,-1258.350101,1685.410096
1144.437746,-9474.636058,-962.267725,1608.800546
1144.438067,-9474.636058,-518.144159,1532.190996
1144.438387,-9622.677246,-222.061783,689.485948
1144.438708,-9104.533087,0.000000,1149.143247
1144.439029,-9844.739029,518.144159,383.047749
1144.439350,-9844.739029,1110.308913,229.828649
1144.439670,-9844.739029,962.267725,459.657299
1144.439991,-9696.697840,740.205942,1149.143247
1144.440312,-9474.636058,0.000000,995.924147
1144.440632,-9474.636058,-222.061783,1685.410096
1144.440953,-9326.594869,-962.267725,1915.238745
1144.441274,-9252.574275,-1332.370696,2451.505594
1144.441595,-9030.512492,-1924.535449,2604.724693
1144.441915,-9030.512492,-1998.556043,2451.505594
1144.442236,-9104.533087,-2072.576638,2987.772442
1144.442557,-9252.574275,-1924.535449,2451.505594
1144.442878,-8882.471304,-1184.329507,2451.505594
1144.443198,-9474.636058,-888.247130,1608.800546
1144.443519,-9474.636058,-444.123565,995.924147
1144.443840,-9548.656652,296.082377,459.657299
1144.444160,-9844.739029,962.267725,0.000000
1144.444481,-9918.759623,1628.453072,-306.438199
1144.444802,-10066.800811,1998.556043,0.000000
1144.445123,-10140.821405,1924.535449,0.000000
1144.445443,-10140.821405,1332.370696,-383.047749
1144.445764,-9992.780217,962.267725,383.047749
1144.446085,-9770.718434,74.020594,459.657299
1144.446405,-9548.656652,-592.164754,689.485948
1144.446726,-9548.656652,-1110.308913,1455.581446
1144.447047,-9548.656652,-1998.556043,842.705048
1144.447368,-9252.574275,-1702.473667,1608.800546
1144.447688,-9252.574275,-1480.411884,1915.238745
1144.448009,-9474.636058,-1184.329507,1991.848295
1144.448330,-9548.656652,-1184.329507,1762.019645
1144.448651,-9400.615463,-1184.329507,1532.190996
1144.448971,-9696.697840,-740.205942,689.485948
1144.449292,-9696.697840,-296.082377,1225.752797
1144.449613,-9770.718434,74.020594,766.095498
1144.449933,-9622.677246,370.102971,842.705048
1144.450254,-9844.739029,814.226536,612.876398
1144.450575,-9696.697840,518.144159,612.876398
1144.450896,-9696.697840,370.102971,612.876398
1144.451216,-9178.553681,-666.185348,76.609550
1144.451537,-9474.636058,-444.123565,1455.581446
1144.451858,-9474.636058,-888.247130,1455.581446
1144.452178,-9474.636058,-1406.391290,1685.410096
1144.452499,-9474.636058,-1776.494261,2068.457845
1144.452820,-9474.636058,-1628.453072,2298.286494
1144.453141,-9326.594869,-1554.432478,2298.286494
1144.453461,-9474.636058,-1184.329507,1991.848295
1144.453782,-9548.656652,-1036.288319,1838.629195
1144.454103,-9474.636058,-444.123565,1838.629195
1144.454423,-9474.636058,-222.061783,766.095498
1144.454744,-9844.739029,148.041188,383.047749
1144.455065,-9696.697840,666.185348,229.828649
1144.455386,-8660.409521,814.226536,689.485948
1144.455706,-9696.697840,1332.370696,-306.438199
1144.456027,-10140.821405,1776.494261,229.828649
1144.456348,-10288.862594,1036.288319,229.828649
1144.456669,-10066.800811,444.123565,612.876398
1144.456989,-9770.718434,-296.082377,689.485948
1144.457310,-9622.677246,-592.164754,766.095498
1144.457631,-9474.636058,-1184.329507,1149.143247
1144.457951,-9474.636058,-1480.411884,1762.019645
1144.458272,-8808.450710,-1776.494261,2298.286494
1144.458593,-9326.594869,-1628.453072,1838.629195
1144.458914,-9548.656652,-1184.329507,2068.457845
1144.459234,-9548.656652,-1184.329507,1762.019645
1144.459555,-9696.697840,-888.247130,919.314598
1144.459876,-9548.656652,-814.226536,1302.362347
1144.460196,-9474.636058,-666.185348,689.485948
1144.460517,-9548.656652,74.020594,536.266849
1144.460838,-9548.656652,518.144159,76.609550
1144.461159,-9770.718434,1110.308913,229.828649
1144.461479,-9770.718434,1258.350101,153.219100
1144.461800,-9696.697840,814.226536,459.657299
1144.462121,-9622.677246,592.164754,459.657299
1144.462442,-9622.677246,222.061783,689.485948
1144.462762,-9474.636058,-370.102971,1532.190996
1144.463083,-9474.636058,-1036.288319,2068.457845
1144.463404,-9326.594869,-1554.432478,2298.286494
1144.463724,-9474.636058,-1702.473667,4903.011187
1144.464045,-9178.553681,-1998.556043,2528.115143
1144.464366,-9474.636058,-1850.514855,2681.334243
1144.464687,-9474.636058,-1480.411884,2298.286494
1144.465007,-9326.594869,-962.267725,1762.019645
1144.465328,-9474.636058,-370.102971,1072.533697
1144.465649,-9770.718434,296.082377,459.657299
1144.465969,-9918.759623,814.226536,306.438199
1144.466290,-9918.759623,1184.329507,76.609550
1144.466611,-10436.903782,2072.576638,1302.362347
1144.466932,-10584.944971,2072.576638,0.000000
1144.467252,-10658.965565,1406.391290,536.266849
1144.467573,-9918.759623,740.205942,383.047749
1144.467894,-9696.697840,296.082377,1302.362347
1144.468215,-9770.718434,-518.144159,1455.581446
1144.468535,-9548.656652,-1184.329507,1455.581446
1144.468856,-9474.636058,-1702.473667,1838.629195
1144.469177,-9030.512492,-1998.556043,1838.629195
1144.469497,-9326.594869,-1850.514855,1915.238745
1144.469818,-9400.615463,-1554.432478,1915.238745
1144.470139,-9400.615463,-1406.391290,1915.238745
1144.470460,-9474.636058,-962.267725,1608.800546
1144.470780,-9770.718434,-666.185348,766.095498
1144.471101,-9770.718434,0.000000,612.876398
1144.471422,-9474.636058,222.061783,536.266849
1144.471742,-9622.677246,592.164754,0.000000
1144.472063,-9770.718434,444.123565,-766.095498
1144.472384,-9844.739029,1110.308913,229.828649
1144.472705,-9770.718434,666.185348,536.266849
1144.473025,-9696.697840,0.000000,766.095498
1144.473346,-9400.615463,-666.185348,1149.143247
1144.473667,-9252.574275,-1036.288319,1455.581446
1144.473988,-9030.512492,-1406.391290,1685.410096
1144.474308,-9030.512492,-1776.494261,1838.629195
1144.474629,-9326.594869,-1850.514855,1838.629195
1144.474950,-9326.594869,-1850.514855,1838.629195
1144.475270,-9474.636058,-1184.329507,1532.190996
1144.475591,-9770.718434,-814.226536,1532.190996
1144.475912,-9622.677246,-148.041188,1225.752797
1144.476233,-9622.677246,740.205942,1378.971896
1144.476553,-9770.718434,888.247130,0.000000
1144.476874,-9770.718434,1332.370696,0.000000
1144.477195,-10066.800811,1554.432478,0.000000
1144.477515,-10140.821405,1776.494261,76.609550
1144.477836,-10066.800811,1554.432478,383.047749
1144.478157,-9992.780217,962.267725,459.657299
1144.478478,-9770.718434,592.164754,766.095498
1144.478798,-9844.739029,0.000000,1072.533697
1144.479119,-9474.636058,-666.185348,1072.533697
1144.479440,-9474.636058,-1258.350101,1762.019645
1144.479760,-9400.615463,-1332.370696,2068.457845
1144.480081,-9326.594869,-1554.432478,2145.067394
1144.480402,-9474.636058,-1924.535449,1532.190996
1144.480723,-9474.636058,-1110.308913,2298.286494
1144.481043,-9400.615463,-740.205942,1915.238745
1144.481364,-9548.656652,-592.164754,1685.410096
1144.481685,-9622.677246,-370.102971,1455.581446
1144.482006,-9844.739029,0.000000,842.705048
1144.482326,-9622.677246,518.144159,459.657299
1144.482647,-9770.718434,518.144159,459.657299
1144.482968,-9770.718434,740.205942,536.266849
1144.483288,-9770.718434,592.164754,229.828649
1144.483609,-9474.636058,222.061783,612.876398
1144.483930,-9474.636058,0.000000,842.705048
1144.484251,-9474.636058,-740.205942,1072.533697
1144.484571,-8882.471304,-1850.514855,995.924147
1144.484892,-9030.512492,-1702.473667,1762.019645
1144.485213,-9178.553681,-1850.514855,2221.676944
1144.485533,-9326.594869,-1850.514855,2221.676944
1144.485854,-9326.594869,-1554.432478,1149.143247
1144.486175,-9474.636058,-1480.411884,2068.457845
1144.486496,-9400.615463,-962.267725,1378.971896
1144.486816,-9548.656652,-370.102971,919.314598
1144.487137,-9474.636058,0.000000,612.876398
1144.487458,-9474.636058,74.020594,76.609550
1144.487779,-9918.759623,814.226536,-383.047749
1144.488099,-10140.821405,1110.308913,-306.438199
1144.488420,-10140.821405,1406.391290,-766.095498
1144.488741,-10140.821405,1110.308913,0.000000
1144.489061,-10066.800811,814.226536,76.609550
1144.489382,-9992.780217,148.041188,229.828649
1144.489703,-9844.739029,-148.041188,536.266849
1144.490024,-9770.718434,-740.205942,1072.533697
1144.490344,-9548.656652,-1332.370696,1225.752797
1144.490665,-9326.594869,-1702.473667,1838.629195
1144.490986,-9400.615463,-1776.494261,1762.019645
1144.491306,-9474.636058,-1406.391290,1991.848295
1144.491627,-9326.594869,-1554.432478,2145.067394
1144.491948,-9696.697840,-1110.308913,2298.286494
1144.492269,-9622.677246,-1110.308913,1838.629195
1144.492589,-9548.656652,-666.185348,1532.190996
1144.492910,-9548.656652,-592.164754,612.876398
1144.493231,-9474.636058,0.000000,919.314598
1144.493552,-9696.697840,444.123565,459.657299
1144.493872,-9622.677246,592.164754,459.657299
1144.494193,-9622.677246,1036.288319,1072.533697
1144.494514,-9622.677246,222.061783,1225.752797
1144.494834,-9474.636058,-148.041188,1225.752797
1144.495155,-9400.615463,-592.164754,1378.971896
1144.495476,-9326.594869,-962.267725,1915.238745
1144.495797,-8364.327145,-2146.597232,2221.676944
1144.496117,-9326.594869,-1924.535449,2145.067394
1144.496438,-9252.574275,-1702.473667,2145.067394
1144.496759,-9252.574275,-1702.473667,1915.238745
1144.497079,-9400.615463,-1480.411884,1762.019645
1144.497400,-9474.636058,-814.226536,1608.800546
1144.497721,-9474.636058,-296.082377,1225.752797
1144.498042,-9474.636058,0.000000,536.266849
1144.498362,-9622.677246,666.185348,229.828649
1144.498683,-9918.759623,888.247130,0.000000
1144.499004,-9770.718434,1184.329507,0.000000
1144.499324,-9918.759623,1480.411884,-229.828649
1144.499645,-10066.800811,1110.308913,0.000000
1144.499966,-9474.636058,666.185348,153.219100
1144.500287,-9918.759623,370.102971,383.047749
1144.500607,-9622.677246,-222.061783,842.705048
1144.500928,-9770.718434,-666.185348,919.314598
1144.501249,-9104.533087,-1480.411884,2604.724693
1144.501570,-9400.615463,-1480.411884,1532.190996
1144.501890,-9400.615463,-1332.370696,1915.238745
1144.502211,-9474.636058,-1332.370696,2068.457845
1144.502532,-9844.739029,-1110.308913,2068.457845
1144.502852,-9400.615463,-1110.308913,1455.581446
1144.503173,-9400.615463,-592.164754,919.314598
1144.503494,-9548.656652,-370.102971,919.314598
1144.503815,-9696.697840,148.041188,536.266849
1144.504135,-9844.739029,370.102971,536.266849
1144.504456,-9696.697840,888.247130,306.438199
1144.504777,-9696.697840,814.226536,153.219100
1144.505097,-9918.759623,814.226536,153.219100
1144.505418,-9992.780217,444.123565,2604.724693
1144.505739,-9474.636058,222.061783,995.924147
1144.506060,-9474.636058,0.000000,1225.752797
1144.506380,-9400.615463,-888.247130,1685.410096
1144.506701,-9400.615463,-1554.432478,1532.190996
1144.507022,-8956.491898,-2072.576638,2298.286494
1144.507343,-9178.553681,-2368.659014,2221.676944
1144.507663,-9326.594869,-2146.597232,2451.505594
1144.507984,-9400.615463,-1480.411884,2298.286494
1144.508305,-9326.594869,-1036.288319,2987.772442
1144.508625,-9474.636058,-444.123565,1302.362347
1144.508946,-9770.718434,-222.061783,842.705048
1144.509267,-9622.677246,370.102971,306.438199
1144.509588,-9844.739029,814.226536,-229.828649
1144.509908,-10066.800811,1628.453072,0.000000
1144.510229,-10066.800811,1776.494261,-229.828649
1144.510550,-10066.800811,1480.411884,0.000000
1144.510870,-9992.780217,888.247130,0.000000
1144.511191,-9770.718434,74.020594,459.657299
1144.511512,-9696.697840,-296.082377,842.705048
1144.511833,-9548.656652,-888.247130,1302.362347
1144.512153,-9474.636058,-666.185348,1685.410096
1144.512474,-9622.677246,-1110.308913,1685.410096
1144.512795,-9622.677246,-1332.370696,2068.457845
1144.513116,-9548.656652,-1036.288319,2145.067394
1144.513436,-9548.656652,-1406.391290,2451.505594
1144.513757,-9844.739029,-1110.308913,1608.800546
1144.514078,-9474.636058,-888.247130,1608.800546
1144.514398,-9474.636058,-666.185348,995.924147
1144.514719,-9548.656652,74.020594,842.705048
1144.515040,-9474.636058,296.082377,536.266849
1144.515361,-9548.656652,518.144159,153.219100
1144.515681,-9548.656652,888.247130,306.438199
1144.516002,-9918.759623,666.185348,842.705048
1144.516323,-9844.739029,0.000000,995.924147
1144.516643,-9696.697840,-296.082377,1149.143247
1144.516964,-9622.677246,-888.247130,1608.800546
1144.517285,-9326.594869,-1184.329507,1838.629195
1144.517606,-9474.636058,-1850.514855,1685.410096
1144.517926,-9104.533087,-1480.411884,2911.162892
1144.518247,-9104.533087,-2220.617826,1685.410096
1144.518568,-9326.594869,-1628.453072,1915.238745
1144.518888,-9252.574275,-1776.494261,1762.019645
1144.519209,-9252.574275,-1184.329507,1302.362347
1144.519530,-9548.656652,-444.123565,919.314598
1144.519851,-9622.677246,-148.041188,536.266849
1144.520171,-9548.656652,222.061783,0.000000
1144.520492,-9992.780217,888.247130,0.000000
1144.520813,-9770.718434,1332.370696,-229.828649
1144.521134,-9918.759623,1258.350101,0.000000
1144.521454,-10140.821405,1332.370696,0.000000
1144.521775,-9918.759623,962.267725,306.438199
1144.522096,-9770.718434,-296.082377,-229.828649
1144.522416,-9548.656652,-444.123565,536.266849
1144.522737,-9474.636058,-666.185348,995.924147
1144.523058,-9400.615463,-888.247130,1302.362347
1144.523379,-9548.656652,-1110.308913,1915.238745
1144.523699,-9400.615463,-888.247130,2068.457845
1144.524020,-9474.636058,-1110.308913,2145.067394
1144.524341,-9696.697840,-1110.308913,2145.067394
1144.524661,-9548.656652,-1036.288319,1991.848295
1144.524982,-9622.677246,-370.102971,1762.019645
1144.525303,-9474.636058,-592.164754,1225.752797
1144.525624,-9474.636058,0.000000,766.095498
1144.525944,-9474.636058,74.020594,459.657299
1144.526265,-9474.636058,518.144159,306.438199
1144.526586,-9696.697840,962.267725,383.047749
1144.526906,-9918.759623,888.247130,536.266849
1144.527227,-9622.677246,592.164754,1072.533697
1144.527548,-9770.718434,74.020594,1302.362347
1144.527869,-9770.718434,0.000000,1378.971896
1144.528189,-9474.636058,-888.247130,1915.238745
1144.528510,-9474.636058,-1480.411884,2374.896044
1144.528831,-9474.636058,-1628.453072,2451.505594
1144.529151,-9400.615463,-1554.432478,2681.334243
1144.529472,-9326.594869,-1628.453072,2221.676944
1144.529793,-9474.636058,-1184.329507,2298.286494
1144.530113,-9326.594869,-666.185348,2374.896044
1144.530434,-9548.656652,-444.123565,2528.115143
1144.530755,-9326.594869,-222.061783,612.876398
1144.531076,-9622.677246,222.061783,306.438199
1144.531396,-9548.656652,1036.288319,-153.219100
1144.531717,-9918.759623,1554.432478,-306.438199
1144.532038,-9992.780217,1924.535449,-536.266849
1144.532358,-10140.821405,1850.514855,-153.219100
1144.532679,-9992.780217,888.247130,0.000000
1144.533000,-9770.718434,296.082377,229.828649
1144.533320,-9474.636058,-296.082377,76.609550
1144.533641,-9474.636058,-962.267725,919.314598
1144.533962,-9326.594869,-1332.370696,995.924147
1144.534282,-9326.594869,-1628.453072,1532.190996
1144.534603,-9104.533087,-1998.556043,1762.019645
1144.534924,-9104.533087,-1776.494261,1915.238745
1144.535245,-9474.636058,-1480.411884,1991.848295
1144.535565,-9252.574275,-1406.391290,1685.410096
1144.535886,-9400.615463,-1258.350101,1302.362347
1144.536207,-9474.636058,-962.267725,919.314598
1144.536527,-9548.656652,-222.061783,689.485948
1144.536848,-9548.656652,0.000000,306.438199
1144.537169,-9622.677246,740.205942,459.657299
1144.537489,-9622.677246,518.144159,842.705048
1144.537810,-9770.718434,740.205942,612.876398
1144.538131,-9696.697840,740.205942,612.876398
1144.538452,-9696.697840,-148.041188,919.314598
1144.538772,-9400.615463,-888.247130,1225.752797
1144.539093,-9474.636058,-1332.370696,1991.848295
1144.539414,-9400.615463,-1702.473667,2068.457845
1144.539734,-9474.636058,-1998.556043,2221.676944
1144.540055,-9326.594869,-1850.514855,2221.676944
1144.540376,-9178.553681,-1776.494261,1915.238745
1144.540696,-9622.677246,-1036.288319,2221.676944
1144.541017,-9622.677246,-740.205942,1838.629195
1144.541338,-9696.697840,-296.082377,1072.533697
1144.541659,-9770.718434,222.061783,229.828649
1144.541979,-9770.718434,370.102971,459.657299
1144.542300,-9918.759623,814.226536,76.609550
1144.542621,-10066.800811,1110.308913,0.000000
1144.542941,-9992.780217,1702.473667,-306.438199
1144.543262,-9992.780217,1406.391290,153.219100
1144.543583,-9992.780217,592.164754,842.705048
1144.543903,-9696.697840,148.041188,919.314598
1144.544224,-9622.677246,-518.144159,995.924147
1144.544545,-9178.553681,-1036.288319,1302.362347
1144.544866,-9252.574275,-1702.473667,1608.800546
1144.545186,-9474.636058,-1628.453072,1608.800546
1144.545507,-9178.553681,-1776.494261,1991.848295
1144.545828,-9252.574275,-1480.411884,1915.238745
1144.546148,-9474.636058,-1110.308913,1838.629195
1144.546469,-9326.594869,-1406.391290,1838.629195
1144.546790,-9474.636058,-814.226536,1455.581446
1144.547110,-9474.636058,-296.082377,919.314598
1144.547431,-9252.574275,222.061783,1072.533697
1144.547752,-9400.615463,592.164754,306.438199
1144.548072,-9622.677246,888.247130,536.266849
1144.548393,-9622.677246,888.247130,153.219100
1144.548714,-9696.697840,1110.308913,1302.362347
1144.549035,-9548.656652,592.164754,153.219100
1144.549355,-9622.677246,148.041188,383.047749
1144.549676,-9696.697840,-222.061783,1149.143247
1144.549997,-9400.615463,-1184.329507,1455.581446
1144.550317,-8808.450710,-1554.432478,2451.505594
1144.550638,-9474.636058,-2220.617826,2068.457845
1144.550959,-9326.594869,-2294.638420,2451.505594
1144.551279,-9474.636058,-2220.617826,2145.067394
1144.551600,-9918.759623,-666.185348,2145.067394
1144.551921,-9474.636058,-1036.288319,1532.190996
1144.552242,-9474.636058,-592.164754,919.314598
1144.552562,-9696.697840,-148.041188,536.266849
1144.552883,-9770.718434,518.144159,0.000000
1144.553204,-9992.780217,1110.308913,0.000000
1144.553524,-10214.842000,1850.514855,0.000000
1144.553845,-10288.862594,1850.514855,0.000000
1144.554166,-10214.842000,1628.453072,0.000000
1144.554486,-10140.821405,296.082377,229.828649
1144.554807,-10066.800811,296.082377,153.219100
1144.555128,-9622.677246,-296.082377,1302.362347
1144.555449,-9548.656652,-740.205942,1608.800546
1144.555769,-9474.636058,-1480.411884,1838.629195
1144.556090,-9252.574275,-1332.370696,2451.505594
1144.556411,-9326.594869,-1480.411884,2145.067394
1144.556731,-9178.553681,-1480.411884,2374.896044
1144.557052,-9474.636058,-1406.391290,2451.505594
1144.557373,-9104.533087,-1332.370696,1915.238745
1144.557693,-9252.574275,-1110.308913,1915.238745
1144.558014,-9474.636058,-370.102971,1302.362347
1144.558335,-9474.636058,0.000000,1225.752797
1144.558656,-9326.594869,1258.350101,2451.505594
1144.558976,-9622.677246,740.205942,459.657299
1144.559297,-9622.677246,814.226536,689.485948
1144.559618,-9770.718434,740.205942,612.876398
1144.559938,-9696.697840,0.000000,995.924147
1144.560259,-9400.615463,-518.144159,1302.362347
1144.560580,-9326.594869,-1036.288319,1149.143247
1144.560900,-9400.615463,-1332.370696,1838.629195
1144.561221,-9178.553681,-2072.576638,1685.410096
1144.561542,-9030.512492,-1924.535449,2221.676944
1144.561862,-9326.594869,-1776.494261,1608.800546
1144.562183,-9474.636058,-1480.411884,1532.190996
1144.562504,-9548.656652,-1036.288319,1455.581446
1144.562825,-9474.636058,-1628.453072,2298.286494
1144.563145,-9696.697840,-296.082377,689.485948
1144.563466,-10066.800811,296.082377,0.000000
1144.563787,-10140.821405,666.185348,-229.828649
1144.564107,-9992.780217,1332.370696,-383.047749
1144.564428,-10140.821405,1628.453072,-536.266849
1144.564749,-10066.800811,1702.473667,-229.828649
1144.565069,-10362.883188,1258.350101,0.000000
1144.565390,-9918.759623,1110.308913,383.047749
1144.565711,-9918.759623,148.041188,1149.143247
1144.566032,-9696.697840,-222.061783,1149.143247
1144.566352,-9474.636058,-592.164754,1149.143247
1144.566673,-9474.636058,-1332.370696,1685.410096
1144.566994,-9178.553681,-1406.391290,766.095498
1144.567314,-9178.553681,-1480.411884,1302.362347
1144.567635,-9474.636058,-1332.370696,2068.457845
1144.567956,-9474.636058,-1110.308913,1455.581446
1144.568276,-9474.636058,-814.226536,1685.410096
1144.568597,-9474.636058,-592.164754,1302.362347
1144.568918,-9474.636058,-296.082377,1302.362347
1144.569239,-9622.677246,0.000000,612.876398
1144.569559,-9622.677246,148.041188,689.485948
1144.569880,-9992.780217,370.102971,0.000000
1144.570201,-9252.574275,296.082377,306.438199
1144.570521,-9622.677246,0.000000,536.266849
1144.570842,-9474.636058,-74.020594,612.876398
1144.571163,-9326.594869,-296.082377,2145.067394
1144.571483,-9400.615463,-888.247130,1685.410096
1144.571804,-9252.574275,-1480.411884,2145.067394
1144.572125,-9326.594869,-1924.535449,2298.286494
1144.572445,-9252.574275,-1702.473667,2451.505594
1144.572766,-9178.553681,-1850.514855,2604.724693
1144.573087,-9474.636058,-1480.411884,2374.896044
1144.573408,-9400.615463,-1184.329507,2221.676944
1144.573728,-9474.636058,-814.226536,1608.800546
1144.574049,-9030.512492,-296.082377,229.828649
1144.574370,-9622.677246,296.082377,229.828649
1144.574690,-9770.718434,1184.329507,-229.828649
1144.575011,-9844.739029,1406.391290,-536.266849
1144.575332,-9400.615463,1554.432478,153.219100
1144.575652,-10362.883188,1924.535449,-383.047749
1144.575973,-10584.944971,1480.411884,0.000000
1144.576294,-10214.842000,1036.288319,229.828649
1144.576615,-10066.800811,222.061783,612.876398
1144.576935,-10066.800811,-148.041188,995.924147
1144.577256,-9770.718434,-444.123565,1225.752797
1144.577577,-9548.656652,-1110.308913,1149.143247
1144.577897,-9326.594869,-1332.370696,1378.971896
1144.578218,-8734.430116,-1480.411884,2298.286494
1144.578539,-9474.636058,-1554.432478,1532.190996
1144.578859,-9400.615463,-1332.370696,1838.629195
1144.579180,-9474.636058,-1406.391290,1762.019645
1144.579501,-9474.636058,-814.226536,2528.115143
1144.579822,-9622.677246,-1036.288319,1532.190996
1144.580142,-9548.656652,-296.082377,1378.971896
1144.580463,-9548.656652,-148.041188,919.314598
1144.580784,-9474.636058,0.000000,766.095498
1144.581104,-9918.759623,518.144159,1072.533697
1144.581425,-9622.677246,74.020594,995.924147
1144.581746,-9474.636058,0.000000,1149.143247
1144.582066,-9104.533087,-296.082377,1225.752797
1144.582387,-9252.574275,-740.205942,766.095498
1144.582708,-9030.512492,-1110.308913,1685.410096
1144.583029,-9252.574275,-1554.432478,1915.238745
1144.583349,-9252.574275,-1406.391290,2298.286494
1144.583670,-9400.615463,-740.205942,3907.087040
1144.583991,-9400.615463,-1332.370696,2298.286494
1144.584311,-9474.636058,-1036.288319,2068.457845
1144.584632,-9770.718434,-444.123565,1762.019645
1144.584953,-9696.697840,-370.102971,1302.362347
1144.585273,-9548.656652,0.000000,612.876398
1144.585594,-9770.718434,666.185348,459.657299
1144.585915,-9770.718434,1110.308913,0.000000
1144.586235,-9992.780217,1480.411884,-229.828649
1144.586556,-9992.780217,1924.535449,459.657299
1144.586877,-9844.739029,1184.329507,306.438199
1144.587198,-9844.739029,444.123565,153.219100
1144.587518,-9918.759623,-148.041188,459.657299
1144.587839,-9400.615463,-740.205942,1685.410096
1144.588160,-9696.697840,-888.247130,1149.143247
1144.588480,-9474.636058,-1480.411884,1302.362347
1144.588801,-9770.718434,-1332.370696,1685.410096
1144.589122,-9474.636058,-1110.308913,1378.971896
1144.589442,-9474.636058,-1184.329507,2145.067394
1144.589763,-9770.718434,-1184.329507,1685.410096
1144.590084,-9548.656652,-1036.288319,1225.752797
1144.590405,-9548.656652,-814.226536,995.924147
1144.590725,-9770.718434,-296.082377,229.828649
1144.591046,-9474.636058,148.041188,76.609550
1144.591367,-9474.636058,666.185348,-306.438199
1144.591687,-9474.636058,1258.350101,0.000000
1144.592008,-9622.677246,888.247130,995.924147
1144.592329,-9770.718434,888.247130,383.047749
1144.592649,-9770.718434,592.164754,306.438199
1144.592970,-9548.656652,-148.041188,1225.752797
1144.593291,-9474.636058,-592.164754,1378.971896
1144.593612,-9400.615463,-962.267725,1915.238745
1144.593932,-9252.574275,-2146.597232,2451.505594
1144.594253,-9326.594869,-2146.597232,2298.286494
1144.594574,-9178.553681,-2442.679609,2451.505594
