#time,accel_x,accel_y,accel_z
825.505748,-9474.636058,-1702.473667,0.000000
825.506069,-9326.594869,-962.267725,919.314598
825.506390,-10214.842000,-2072.576638,919.314598
825.506711,-9178.553681,-1406.391290,612.876398
825.507032,-9770.718434,-1184.329507,689.485948
825.507353,-9622.677246,0.000000,1072.533697
825.507674,-9474.636058,222.061783,689.485948
825.507996,-9770.718434,296.082377,1225.752797
825.508317,-9622.677246,-296.082377,1072.533697
825.508638,-9770.718434,-814.226536,306.438199
825.508959,-9992.780217,-592.164754,689.485948
825.509280,-9474.636058,518.144159,0.000000
825.509601,-10288.862594,0.000000,919.314598
825.509922,-9696.697840,-444.123565,1072.533697
825.510244,-9474.636058,-1332.370696,0.000000
825.510565,-9622.677246,-1628.453072,-689.485948
825.510886,-9622.677246,-1480.411884,-306.438199
825.511207,-9474.636058,-1554.432478,-306.438199
825.511528,-9622.677246,-1850.514855,229.828649
825.511849,-9844.739029,-2220.617826,-306.438199
825.512170,-9104.533087,-2368.659014,-689.485948
825.512492,-9474.636058,-3108.864956,-612.876398
825.512813,-9474.636058,-2812.782580,-306.438199
825.513134,-9252.574275,-2664.741391,-766.095498
825.513455,-9326.594869,-2368.659014,-1378.971896
825.513776,-8808.450710,-2664.741391,-1915.238745
825.514097,-8882.471304,-2960.823768,-2145.067394
825.514418,-9474.636058,-3108.864956,-2451.505594
825.514740,-9252.574275,-2960.823768,-2451.505594
825.515061,-9104.533087,-3256.906145,-3753.867940
825.515382,-9030.512492,-3701.029710,-3447.429741
825.515703,-9326.594869,-3923.091493,-4060.306139
825.516024,-9474.636058,-4145.153275,-3983.696590
825.516345,-9918.759623,-3775.050304,-3294.210641
825.516666,-9474.636058,-4293.194464,-4213.525239
825.516988,-9548.656652,-4293.194464,-4213.525239
825.517309,-9844.739029,-4293.194464,-4060.306139
825.517630,-9770.718434,-3923.091493,-2911.162892
825.517951,-9918.759623,-4145.153275,-3064.381992
825.518272,-9696.697840,-3923.091493,-3064.381992
825.518593,-9474.636058,-3775.050304,-2757.943793
825.518914,-9770.718434,-3404.947333,-1991.848295
825.519236,-9474.636058,-3404.947333,-1685.410096
825.519557,-9474.636058,-3330.926739,-1455.581446
825.519878,-9548.656652,-3404.947333,-1532.190996
825.520199,-9622.677246,-3108.864956,-1608.800546
825.520520,-9474.636058,-2664.741391,-1302.362347
825.520841,-9548.656652,-3478.967927,-1991.848295
825.521162,-9400.615463,-3923.091493,-1991.848295
825.521484,-9696.697840,-4515.256246,-2298.286494
825.521805,-10658.965565,-2960.823768,-2604.724693
825.522126,-10140.821405,-3849.070898,-919.314598
825.522447,-10436.903782,-2812.782580,-306.438199
825.522768,-10362.883188,-2220.617826,383.047749
825.523089,-10955.047942,-3256.906145,153.219100
825.523410,-9548.656652,-2516.700203,842.705048
825.523731,-10214.842000,-3034.844362,1302.362347
825.524053,-9696.697840,-2368.659014,1302.362347
825.524374,-8956.491898,-2220.617826,1378.971896
825.524695,-9474.636058,-1998.556043,1225.752797
825.525016,-8586.388927,-1332.370696,1302.362347
825.525337,-9326.594869,-1258.350101,1991.848295
825.525658,-9696.697840,-962.267725,3294.210641
825.525979,-8808.450710,-2220.617826,2298.286494
825.526301,-9474.636058,-1332.370696,2528.115143
825.526622,-9474.636058,-1480.411884,2221.676944
825.526943,-9326.594869,-1258.350101,1302.362347
825.527264,-9548.656652,-962.267725,689.485948
825.527585,-9474.636058,-1110.308913,-689.485948
825.527906,-9178.553681,-962.267725,-766.095498
825.528227,-9474.636058,-962.267725,-306.438199
825.528548,-9622.677246,-740.205942,0.000000
825.528869,-9770.718434,-740.205942,612.876398
825.529190,-9696.697840,-296.082377,229.828649
825.529510,-9622.677246,222.061783,766.095498
825.529831,-9844.739029,1258.350101,1302.362347
825.530152,-9918.759623,1776.494261,1991.848295
825.530473,-9918.759623,2072.576638,1991.848295
825.530794,-9918.759623,2960.823768,2068.457845
825.531115,-9992.780217,3034.844362,2145.067394
825.531435,-10214.842000,3330.926739,1991.848295
825.531756,-9844.739029,3404.947333,1225.752797
825.532077,-9252.574275,2590.720797,76.609550
825.532398,-8882.471304,2072.576638,-766.095498
825.532719,-9030.512492,1110.308913,-1608.800546
825.533040,-9252.574275,370.102971,-1378.971896
825.533360,-9252.574275,-518.144159,-842.705048
825.533681,-9992.780217,-444.123565,-1378.971896
825.534002,-10436.903782,-370.102971,-459.657299
825.534323,-10214.842000,74.020594,-153.219100
825.534644,-10584.944971,0.000000,306.438199
825.534965,-9696.697840,74.020594,1072.533697
825.535285,-9844.739029,0.000000,1378.971896
825.535606,-9548.656652,592.164754,1685.410096
825.535927,-9474.636058,888.247130,2221.676944
825.536248,-9030.512492,1110.308913,2528.115143
825.536569,-8956.491898,1258.350101,2451.505594
825.536890,-8882.471304,1036.288319,2451.505594
825.537210,-8734.430116,370.102971,1838.629195
825.537531,-8734.430116,-666.185348,536.266849
825.537852,-8660.409521,-1628.453072,-536.266849
825.538173,-9030.512492,-1924.535449,-306.438199
825.538494,-9992.780217,-1850.514855,76.609550
825.538814,-9770.718434,-1628.453072,536.266849
825.539135,-10436.903782,-1702.473667,1302.362347
825.539456,-10214.842000,-1184.329507,1685.410096
825.539777,-10214.842000,-962.267725,2298.286494
825.540098,-10658.965565,-1036.288319,3140.991542
825.540419,-9548.656652,-1184.329507,3064.381992
825.540739,-9474.636058,-1036.288319,3983.696590
825.541060,-9474.636058,-814.226536,5056.230287
825.541381,-9030.512492,-1184.329507,3830.477490
825.541702,-9400.615463,-962.267725,3600.648841
825.542023,-8956.491898,-962.267725,2451.505594
825.542344,-8586.388927,-962.267725,1455.581446
825.542664,-8882.471304,-1332.370696,459.657299
825.542985,-9104.533087,-1702.473667,-1149.143247
825.543306,-9326.594869,-2220.617826,-1608.800546
825.543627,-10066.800811,-2368.659014,-1378.971896
825.543948,-9400.615463,-3182.885551,-1302.362347
825.544269,-10955.047942,-2368.659014,-1072.533697
825.544589,-10732.986159,-1406.391290,-306.438199
825.544910,-11177.109724,-888.247130,306.438199
825.545231,-10584.944971,-518.144159,1455.581446
825.545552,-10510.924376,0.000000,1838.629195
825.545873,-9918.759623,-370.102971,2528.115143
825.546194,-8956.491898,-296.082377,3064.381992
825.546514,-8808.450710,0.000000,3064.381992
825.546835,-8660.409521,1332.370696,1991.848295
825.547156,-7994.224174,666.185348,995.924147
825.547477,-7994.224174,666.185348,0.000000
825.547798,-8586.388927,444.123565,-536.266849
825.548118,-8808.450710,0.000000,-1225.752797
825.548439,-9918.759623,-740.205942,-1991.848295
825.548760,-10362.883188,-740.205942,-842.705048
825.549081,-11251.130318,-1258.350101,-383.047749
825.549402,-11177.109724,-740.205942,76.609550
825.549723,-11399.171507,814.226536,919.314598
825.550043,-10807.006753,444.123565,1225.752797
825.550364,-10214.842000,888.247130,1685.410096
825.550685,-9844.739029,592.164754,2834.553343
825.551006,-9030.512492,1184.329507,3600.648841
825.551327,-8882.471304,370.102971,3447.429741
825.551648,-8290.306550,74.020594,3140.991542
825.551968,-8290.306550,444.123565,2834.553343
825.552289,-8216.285956,1036.288319,1685.410096
825.552610,-8068.244768,1332.370696,1072.533697
825.552931,-8512.368333,1184.329507,229.828649
825.553252,-8956.491898,814.226536,-919.314598
825.553573,-10214.842000,518.144159,-459.657299
825.553893,-10881.027347,814.226536,-459.657299
825.554214,-11251.130318,-888.247130,76.609550
825.554535,-11547.212695,-666.185348,383.047749
825.554856,-10955.047942,0.000000,766.095498
825.555177,-11251.130318,370.102971,1915.238745
825.555498,-10732.986159,814.226536,2987.772442
825.555818,-10140.821405,592.164754,3677.258390
825.556139,-9474.636058,666.185348,4366.744339
825.556460,-9178.553681,148.041188,3907.087040
825.556781,-8512.368333,740.205942,3447.429741
825.557102,-8586.388927,1332.370696,3140.991542
825.557423,-8364.327145,1184.329507,2221.676944
825.557743,-8216.285956,740.205942,919.314598
825.558064,-9104.533087,222.061783,-766.095498
825.558385,-9548.656652,-740.205942,-1225.752797
825.558706,-10510.924376,-1184.329507,-1532.190996
825.559027,-10584.944971,-1332.370696,-1225.752797
825.559347,-11399.171507,-1184.329507,-995.924147
825.559668,-11547.212695,-740.205942,-383.047749
825.559989,-10807.006753,-740.205942,76.609550
825.560310,-10658.965565,-370.102971,919.314598
825.560631,-9992.780217,-444.123565,2221.676944
825.560952,-9770.718434,222.061783,2604.724693
825.561272,-9030.512492,74.020594,3370.820191
825.561593,-8142.265362,-148.041188,2987.772442
825.561914,-7994.224174,0.000000,2451.505594
825.562235,-7624.121203,666.185348,3217.601092
825.562556,-8290.306550,-296.082377,1072.533697
825.562877,-8216.285956,-1184.329507,0.000000
825.563197,-8882.471304,-2294.638420,-1302.362347
825.563518,-9104.533087,-2368.659014,-2298.286494
825.563839,-10066.800811,-2516.700203,-2451.505594
825.564160,-10807.006753,-2368.659014,-1378.971896
825.564481,-11251.130318,-1998.556043,-1225.752797
825.564802,-10807.006753,-1776.494261,-995.924147
825.565122,-10214.842000,-1628.453072,-919.314598
825.565443,-10362.883188,-1110.308913,1149.143247
825.565764,-10066.800811,-1184.329507,2451.505594
825.566085,-9474.636058,-1036.288319,3753.867940
825.566406,-9474.636058,-814.226536,4519.963438
825.566727,-8882.471304,-518.144159,4060.306139
825.567047,-8438.347739,74.020594,3447.429741
825.567368,-8068.244768,444.123565,2757.943793
825.567689,-7994.224174,222.061783,1762.019645
825.568010,-8142.265362,-814.226536,76.609550
825.568331,-8956.491898,-1332.370696,-1302.362347
825.568651,-9548.656652,-1702.473667,-1455.581446
825.568972,-10436.903782,-1776.494261,-1302.362347
825.569293,-10658.965565,-1480.411884,-1149.143247
825.569614,-11917.315666,-962.267725,-306.438199
825.569935,-11843.295072,296.082377,383.047749
825.570256,-11473.192101,518.144159,1685.410096
825.570576,-11103.089130,444.123565,2451.505594
825.570897,-9622.677246,-222.061783,3294.210641
825.571218,-9474.636058,-296.082377,4136.915689
825.571539,-9104.533087,-296.082377,4826.401637
825.571860,-7920.203579,-296.082377,3983.696590
825.572181,-8068.244768,370.102971,3294.210641
825.572501,-7402.059420,1036.288319,2145.067394
825.572822,-7994.224174,666.185348,919.314598
825.573143,-8290.306550,-148.041188,0.000000
825.573464,-9400.615463,-1702.473667,-2221.676944
825.573785,-9770.718434,-1702.473667,-1991.848295
825.574106,-10732.986159,-1850.514855,-1225.752797
825.574426,-11103.089130,-1776.494261,-1532.190996
825.574747,-11399.171507,-592.164754,-842.705048
825.575068,-11103.089130,0.000000,0.000000
825.575389,-10288.862594,666.185348,229.828649
825.575710,-9770.718434,1036.288319,2068.457845
825.576031,-9770.718434,518.144159,3140.991542
825.576351,-9252.574275,296.082377,4519.963438
825.576672,-8808.450710,74.020594,4060.306139
825.576993,-8216.285956,444.123565,3677.258390
825.577314,-7550.100608,1036.288319,2451.505594
825.577635,-8364.327145,1258.350101,2987.772442
825.577956,-8216.285956,518.144159,153.219100
825.578276,-8808.450710,-444.123565,-1302.362347
825.578597,-9252.574275,-592.164754,-2451.505594
825.578918,-10214.842000,-1110.308913,-2451.505594
825.579239,-11251.130318,-444.123565,-1838.629195
825.579560,-11769.274478,-518.144159,-842.705048
825.579880,-12065.356855,-518.144159,-459.657299
825.580201,-11029.068536,222.061783,536.266849
825.580522,-10881.027347,74.020594,1685.410096
825.580843,-10362.883188,74.020594,3294.210641
825.581164,-9844.739029,0.000000,3677.258390
825.581485,-9474.636058,222.061783,4213.525239
825.581805,-8512.368333,222.061783,4673.182538
825.582126,-8142.265362,518.144159,3524.039291
825.582447,-8290.306550,0.000000,2604.724693
825.582768,-8068.244768,-296.082377,1455.581446
825.583089,-8660.409521,-666.185348,766.095498
825.583410,-8956.491898,-1184.329507,-1149.143247
825.583730,-9548.656652,-1480.411884,-1838.629195
825.584051,-10510.924376,-1628.453072,-1838.629195
825.584372,-10955.047942,-1554.432478,-1991.848295
825.584693,-11177.109724,-1628.453072,-1532.190996
825.585014,-10732.986159,-1184.329507,-1608.800546
825.585335,-10214.842000,-740.205942,-153.219100
825.585655,-10436.903782,-518.144159,1225.752797
825.585976,-8808.450710,0.000000,2451.505594
825.586297,-9030.512492,-296.082377,3753.867940
825.586618,-8734.430116,-444.123565,4060.306139
825.586939,-8216.285956,-370.102971,4290.134789
825.587260,-8068.244768,814.226536,3753.867940
825.587580,-7994.224174,0.000000,2681.334243
825.587901,-7994.224174,-296.082377,1685.410096
825.588222,-8660.409521,-1110.308913,536.266849
825.588543,-9030.512492,-1776.494261,-995.924147
825.588864,-9770.718434,-1406.391290,-1378.971896
825.589184,-10658.965565,-1258.350101,-1455.581446
825.589505,-10881.027347,-740.205942,-919.314598
825.589826,-11621.233289,-666.185348,153.219100
825.590147,-12139.377449,444.123565,1762.019645
825.590468,-11029.068536,-444.123565,1302.362347
825.590789,-10658.965565,0.000000,2451.505594
825.591109,-9844.739029,0.000000,3370.820191
825.591430,-9548.656652,74.020594,4903.011187
825.591751,-9326.594869,296.082377,5286.058936
825.592072,-8290.306550,814.226536,4596.572988
825.592393,-8142.265362,444.123565,3064.381992
825.592714,-8142.265362,592.164754,2374.896044
825.593034,-8734.430116,0.000000,1455.581446
825.593355,-8808.450710,-296.082377,-383.047749
825.593676,-9400.615463,-74.020594,-1225.752797
825.593997,-9844.739029,-518.144159,-1838.629195
825.594318,-11769.274478,-222.061783,-2451.505594
825.594639,-11769.274478,-1332.370696,-1302.362347
825.594959,-11843.295072,-1110.308913,-995.924147
825.595280,-11251.130318,-444.123565,-919.314598
825.595601,-10584.944971,296.082377,0.000000
825.595922,-9696.697840,370.102971,2068.457845
825.596243,-9474.636058,370.102971,2987.772442
825.596564,-9030.512492,0.000000,3753.867940
825.596884,-8216.285956,0.000000,3064.381992
825.597205,-7476.080014,-148.041188,3907.087040
825.597526,-8142.265362,222.061783,2987.772442
825.597847,-8364.327145,0.000000,2221.676944
825.598168,-8512.368333,-444.123565,1072.533697
825.598489,-8438.347739,-592.164754,-995.924147
825.598809,-9252.574275,-814.226536,-1532.190996
825.599130,-10436.903782,-740.205942,-1302.362347
825.599451,-11029.068536,-740.205942,-1225.752797
825.599772,-11325.150913,-666.185348,-2221.676944
825.600093,-11029.068536,148.041188,-1455.581446
825.600413,-10881.027347,740.205942,-229.828649
825.600734,-10732.986159,1110.308913,1455.581446
825.601055,-10066.800811,1036.288319,2451.505594
825.601376,-9474.636058,518.144159,3447.429741
825.601697,-8956.491898,222.061783,4136.915689
825.602018,-8364.327145,-222.061783,4366.744339
825.602338,-8068.244768,0.000000,4443.353888
825.602659,-8142.265362,-370.102971,4213.525239
825.602980,-8142.265362,296.082377,2374.896044
825.603301,-9030.512492,222.061783,1378.971896
825.603622,-9474.636058,-518.144159,76.609550
825.603943,-9400.615463,-666.185348,-766.095498
825.604263,-11103.089130,-1332.370696,-1378.971896
825.604584,-10955.047942,-1184.329507,-842.705048
825.604905,-11843.295072,-1628.453072,-1225.752797
825.605226,-11621.233289,-518.144159,-536.266849
825.605547,-10288.862594,518.144159,995.924147
825.605868,-10362.883188,0.000000,1225.752797
825.606188,-9918.759623,148.041188,2528.115143
825.606509,-9400.615463,0.000000,3677.258390
825.606830,-9178.553681,-296.082377,3753.867940
825.607151,-8142.265362,-444.123565,4366.744339
825.607472,-7846.182985,-740.205942,3677.258390
825.607793,-7994.224174,-222.061783,2757.943793
825.608113,-7772.162391,-592.164754,1532.190996
825.608434,-8512.368333,-518.144159,0.000000
825.608755,-8808.450710,-518.144159,-1072.533697
825.609076,-9474.636058,-962.267725,-2298.286494
825.609397,-10362.883188,-1036.288319,-2145.067394
825.609717,-11103.089130,-1480.411884,-2757.943793
825.610038,-10955.047942,-592.164754,-1378.971896
825.610359,-11325.150913,-222.061783,-612.876398
825.610680,-10584.944971,-296.082377,766.095498
825.611001,-10066.800811,-444.123565,1455.581446
825.611322,-9326.594869,-444.123565,2374.896044
825.611642,-9178.553681,-370.102971,3524.039291
825.611963,-8660.409521,148.041188,3524.039291
825.612284,-8216.285956,222.061783,3677.258390
825.612605,-7846.182985,296.082377,2834.553343
825.612926,-8216.285956,148.041188,2528.115143
825.613247,-8808.450710,-740.205942,1225.752797
825.613567,-9326.594869,-1184.329507,76.609550
825.613888,-9252.574275,-888.247130,-1838.629195
825.614209,-10288.862594,-1184.329507,-1455.581446
825.614530,-10807.006753,-962.267725,-1302.362347
825.614851,-11473.192101,-1036.288319,-1302.362347
825.615172,-11547.212695,-962.267725,-995.924147
825.615492,-11251.130318,74.020594,-229.828649
825.615813,-10658.965565,0.000000,536.266849
825.616134,-9770.718434,0.000000,1991.848295
825.616455,-9844.739029,-518.144159,3600.648841
825.616776,-9474.636058,-444.123565,5056.230287
825.617097,-8882.471304,0.000000,4749.792088
825.617417,-8586.388927,444.123565,5132.839837
825.617738,-8808.450710,666.185348,4213.525239
825.618059,-9696.697840,1184.329507,2068.457845
825.618380,-8660.409521,-222.061783,1149.143247
825.618701,-9104.533087,-444.123565,229.828649
825.619022,-9326.594869,-1110.308913,-1225.752797
825.619342,-10066.800811,-1554.432478,-2528.115143
825.619663,-10732.986159,-1110.308913,-1378.971896
825.619984,-11177.109724,-1406.391290,-995.924147
825.620305,-11251.130318,-592.164754,-919.314598
825.620626,-11029.068536,-518.144159,0.000000
825.620946,-9918.759623,-370.102971,383.047749
825.621267,-9696.697840,222.061783,2145.067394
825.621588,-9548.656652,0.000000,3217.601092
825.621909,-9030.512492,222.061783,4136.915689
825.622230,-8216.285956,-296.082377,3753.867940
825.622551,-7846.182985,296.082377,3217.601092
825.622871,-7994.224174,666.185348,2681.334243
825.623192,-8364.327145,296.082377,1532.190996
825.623513,-8660.409521,0.000000,229.828649
825.623834,-8808.450710,-148.041188,-1532.190996
825.624155,-9548.656652,-222.061783,-1991.848295
825.624476,-10288.862594,-814.226536,-2298.286494
825.624796,-10955.047942,-888.247130,-1838.629195
825.625117,-11917.315666,-1332.370696,-1915.238745
825.625438,-11103.089130,-740.205942,-1378.971896
825.625759,-10881.027347,-296.082377,-612.876398
825.626080,-10288.862594,74.020594,919.314598
825.626401,-10214.842000,-296.082377,2374.896044
825.626721,-9474.636058,-370.102971,3140.991542
825.627042,-9400.615463,-370.102971,3753.867940
825.627363,-8438.347739,-444.123565,4136.915689
825.627684,-7994.224174,-370.102971,3370.820191
825.628004,-8586.388927,74.020594,3294.210641
825.628325,-8438.347739,-592.164754,1608.800546
825.628645,-8586.388927,-1036.288319,536.266849
825.628966,-8882.471304,-1332.370696,-689.485948
825.629287,-8808.450710,-1702.473667,0.000000
825.629607,-10807.006753,-1110.308913,-1685.410096
825.629928,-11029.068536,-666.185348,-1302.362347
825.630249,-11251.130318,-740.205942,-1225.752797
825.630569,-11177.109724,222.061783,-153.219100
825.630890,-10807.006753,148.041188,766.095498
825.631210,-10436.903782,592.164754,1915.238745
825.631531,-9770.718434,222.061783,3294.210641
825.631852,-9696.697840,148.041188,4290.134789
825.632172,-9178.553681,0.000000,4749.792088
825.632493,-8216.285956,222.061783,4290.134789
825.632813,-7994.224174,148.041188,3677.258390
825.633134,-8068.244768,222.061783,2681.334243
825.633455,-8290.306550,370.102971,2757.943793
825.633775,-8586.388927,-740.205942,76.609550
825.634096,-9400.615463,-962.267725,-766.095498
825.634417,-9622.677246,-888.247130,-1378.971896
825.634737,-10881.027347,-1184.329507,-1072.533697
825.635058,-10732.986159,-1406.391290,-766.095498
825.635378,-10955.047942,-1258.350101,-689.485948
825.635699,-10807.006753,-1332.370696,-459.657299
825.636020,-9844.739029,-592.164754,306.438199
825.636340,-10658.965565,148.041188,1608.800546
825.636661,-9252.574275,-666.185348,2757.943793
825.636981,-8882.471304,-518.144159,3600.648841
825.637302,-8734.430116,0.000000,3907.087040
825.637623,-8068.244768,222.061783,3830.477490
825.637943,-8364.327145,518.144159,3447.429741
825.638264,-8438.347739,0.000000,2221.676944
825.638585,-8512.368333,-296.082377,612.876398
825.638905,-9252.574275,-666.185348,-229.828649
825.639226,-8290.306550,-962.267725,-1762.019645
825.639546,-10584.944971,-518.144159,-1685.410096
825.639867,-10955.047942,-148.041188,-1762.019645
825.640188,-11325.150913,-296.082377,-1532.190996
825.640508,-11473.192101,74.020594,-919.314598
825.640829,-11177.109724,444.123565,-153.219100
825.641149,-10658.965565,444.123565,459.657299
825.641470,-9844.739029,592.164754,1991.848295
825.641791,-9548.656652,0.000000,2987.772442
825.642111,-10140.821405,148.041188,4519.963438
825.642432,-9030.512492,222.061783,4290.134789
825.642753,-8734.430116,444.123565,4136.915689
825.643073,-8586.388927,592.164754,3217.601092
825.643394,-8660.409521,74.020594,1455.581446
825.643714,-9178.553681,74.020594,995.924147
825.644035,-9030.512492,-148.041188,-306.438199
825.644356,-9548.656652,-1480.411884,-1225.752797
825.644676,-9770.718434,-1628.453072,-2834.553343
825.644997,-10807.006753,-1998.556043,-1149.143247
825.645317,-10807.006753,-1628.453072,-1225.752797
825.645638,-10732.986159,-518.144159,-612.876398
825.645959,-10510.924376,370.102971,229.828649
825.646279,-10066.800811,444.123565,1532.190996
825.646600,-9844.739029,0.000000,2681.334243
825.646921,-9252.574275,-518.144159,3294.210641
825.647241,-9104.533087,-518.144159,3830.477490
825.647562,-7402.059420,-666.185348,4366.744339
825.647882,-8068.244768,74.020594,3524.039291
825.648203,-8290.306550,518.144159,2757.943793
825.648524,-8216.285956,148.041188,1762.019645
825.648844,-8364.327145,-222.061783,229.828649
825.649165,-8734.430116,-1258.350101,-1072.533697
825.649485,-9326.594869,-1480.411884,-1762.019645
825.649806,-10436.903782,-1702.473667,-1915.238745
825.650127,-10732.986159,-1554.432478,-1149.143247
825.650447,-10436.903782,-1850.514855,-1685.410096
825.650768,-11103.089130,-370.102971,-612.876398
825.651089,-11103.089130,0.000000,383.047749
825.651409,-10214.842000,444.123565,1685.410096
825.651730,-9844.739029,222.061783,2528.115143
825.652050,-9548.656652,0.000000,3600.648841
825.652371,-9474.636058,-74.020594,4519.963438
825.652692,-8512.368333,0.000000,4136.915689
825.653012,-8512.368333,222.061783,3677.258390
825.653333,-8438.347739,518.144159,2145.067394
825.653653,-8438.347739,148.041188,1302.362347
825.653974,-9030.512492,0.000000,0.000000
825.654295,-9474.636058,-666.185348,-1149.143247
825.654615,-10436.903782,-1184.329507,-1991.848295
825.654936,-11103.089130,-1110.308913,-1608.800546
825.655257,-11473.192101,-1184.329507,-1302.362347
825.655577,-11843.295072,-740.205942,-536.266849
825.655898,-11251.130318,518.144159,995.924147
825.656218,-10732.986159,592.164754,459.657299
825.656539,-10066.800811,444.123565,1608.800546
825.656860,-9844.739029,0.000000,3064.381992
825.657180,-9770.718434,-740.205942,3677.258390
825.657501,-8956.491898,-740.205942,4060.306139
825.657821,-8438.347739,-370.102971,3907.087040
825.658142,-7920.203579,222.061783,3140.991542
825.658463,-8068.244768,592.164754,2068.457845
825.658783,-8068.244768,814.226536,459.657299
825.659104,-8364.327145,-296.082377,-536.266849
825.659424,-8734.430116,-1258.350101,-1378.971896
825.659745,-9770.718434,-2146.597232,-1685.410096
825.660066,-10066.800811,-2072.576638,-1685.410096
825.660386,-10807.006753,-1258.350101,-919.314598
825.660707,-10807.006753,-592.164754,-459.657299
825.661028,-10214.842000,666.185348,76.609550
825.661348,-10362.883188,814.226536,1608.800546
825.661669,-10066.800811,444.123565,3830.477490
825.661989,-9548.656652,74.020594,4290.134789
825.662310,-9770.718434,-370.102971,4826.401637
825.662631,-8438.347739,0.000000,5132.839837
825.662951,-8290.306550,-296.082377,5515.887586
825.663272,-7846.182985,-148.041188,3447.429741
825.663592,-7476.080014,222.061783,1685.410096
825.663913,-8364.327145,-296.082377,76.609550
825.664234,-8882.471304,-814.226536,-1302.362347
825.664554,-9474.636058,-1110.308913,-1072.533697
825.664875,-10584.944971,-1110.308913,-1149.143247
825.665196,-11399.171507,-1332.370696,-919.314598
825.665516,-11621.233289,-1036.288319,-536.266849
825.665837,-11695.253884,-592.164754,0.000000
825.666157,-10807.006753,-148.041188,229.828649
825.666478,-10510.924376,148.041188,995.924147
825.666799,-9918.759623,74.020594,2221.676944
825.667119,-9104.533087,-666.185348,2911.162892
825.667440,-9326.594869,0.000000,3294.210641
825.667760,-8512.368333,222.061783,3600.648841
825.668081,-8364.327145,666.185348,3217.601092
825.668402,-8216.285956,666.185348,1991.848295
825.668722,-8512.368333,74.020594,1225.752797
825.669043,-8956.491898,-370.102971,-153.219100
825.669364,-9030.512492,-370.102971,-1302.362347
825.669684,-9844.739029,-592.164754,-1685.410096
825.670005,-10436.903782,-518.144159,-1915.238745
825.670325,-11399.171507,-962.267725,-1685.410096
825.670646,-11177.109724,-740.205942,-1532.190996
825.670967,-11177.109724,222.061783,-995.924147
825.671287,-10658.965565,888.247130,383.047749
825.671608,-10066.800811,740.205942,1378.971896
825.671928,-9770.718434,222.061783,2298.286494
825.672249,-9252.574275,0.000000,2834.553343
825.672570,-8808.450710,148.041188,3753.867940
825.672890,-8512.368333,444.123565,3830.477490
825.673211,-8142.265362,666.185348,2911.162892
825.673532,-7846.182985,222.061783,2145.067394
825.673852,-7846.182985,-222.061783,766.095498
825.674173,-8438.347739,-1332.370696,-383.047749
825.674493,-8882.471304,-1850.514855,-995.924147
825.674814,-9622.677246,-2368.659014,-1608.800546
825.675135,-10436.903782,-1998.556043,-1532.190996
825.675455,-11029.068536,-2072.576638,-2374.896044
825.675776,-11029.068536,-1184.329507,-995.924147
825.676096,-10658.965565,-444.123565,0.000000
825.676417,-10362.883188,-296.082377,766.095498
825.676738,-10066.800811,-296.082377,2528.115143
825.677058,-9474.636058,-666.185348,3524.039291
825.677379,-9474.636058,-666.185348,4443.353888
825.677700,-8734.430116,-148.041188,4749.792088
825.678020,-8512.368333,148.041188,4443.353888
825.678341,-7254.018232,370.102971,4443.353888
825.678661,-7994.224174,518.144159,2374.896044
825.678982,-8142.265362,-444.123565,995.924147
825.679303,-9252.574275,-962.267725,-459.657299
825.679623,-9104.533087,-1184.329507,-1072.533697
825.679944,-10510.924376,-1110.308913,-1378.971896
825.680264,-11325.150913,-666.185348,-1149.143247
825.680585,-11769.274478,-888.247130,-689.485948
825.680906,-11769.274478,-740.205942,-689.485948
825.681226,-10955.047942,-518.144159,306.438199
825.681547,-10955.047942,-296.082377,1608.800546
825.681868,-10584.944971,-444.123565,2451.505594
825.682188,-9474.636058,-370.102971,3217.601092
825.682509,-9178.553681,296.082377,4443.353888
825.682829,-8734.430116,222.061783,3983.696590
825.683150,-8142.265362,370.102971,3294.210641
825.683471,-8290.306550,444.123565,2681.334243
825.683791,-8290.306550,0.000000,1378.971896
825.684112,-8808.450710,-814.226536,229.828649
825.684432,-9252.574275,-1332.370696,-689.485948
825.684753,-9622.677246,-1554.432478,-1149.143247
825.685074,-10436.903782,-1628.453072,-1455.581446
825.685394,-10584.944971,-1628.453072,-1762.019645
825.685715,-11251.130318,-1332.370696,-1455.581446
825.686035,-10955.047942,-814.226536,-1302.362347
825.686356,-10140.821405,-148.041188,-536.266849
825.686677,-9992.780217,0.000000,306.438199
825.686997,-9474.636058,-296.082377,1915.238745
825.687318,-9400.615463,-148.041188,2911.162892
825.687639,-8882.471304,370.102971,4060.306139
825.687959,-9030.512492,-518.144159,3830.477490
825.688280,-7328.038826,888.247130,3217.601092
825.688600,-8734.430116,444.123565,2145.067394
825.688921,-8068.244768,444.123565,1762.019645
825.689242,-8142.265362,-666.185348,0.000000
825.689562,-9400.615463,-666.185348,-536.266849
825.689883,-9474.636058,-1332.370696,-1991.848295
825.690203,-10362.883188,-1110.308913,-2145.067394
825.690524,-11177.109724,-444.123565,-689.485948
825.690845,-11029.068536,-740.205942,-306.438199
825.691165,-11251.130318,444.123565,-536.266849
825.691486,-11029.068536,370.102971,842.705048
825.691807,-9918.759623,666.185348,1302.362347
825.692127,-10584.944971,888.247130,3370.820191
825.692448,-9844.739029,444.123565,4290.134789
825.692768,-8956.491898,296.082377,4443.353888
825.693089,-8734.430116,444.123565,4060.306139
825.693410,-8142.265362,814.226536,3370.820191
825.693730,-8734.430116,814.226536,2834.553343
825.694051,-8586.388927,0.000000,1915.238745
825.694371,-8734.430116,-222.061783,919.314598
825.694692,-9474.636058,-666.185348,-536.266849
825.695013,-9770.718434,-1184.329507,-766.095498
825.695333,-10584.944971,-1184.329507,-766.095498
825.695654,-10732.986159,-1332.370696,-1225.752797
825.695975,-11103.089130,-444.123565,-995.924147
825.696295,-10807.006753,518.144159,766.095498
825.696616,-10362.883188,592.164754,842.705048
825.696936,-10584.944971,740.205942,2604.724693
825.697257,-9548.656652,444.123565,3907.087040
825.697578,-9548.656652,-370.102971,4290.134789
825.697898,-8808.450710,0.000000,4213.525239
825.698219,-8142.265362,0.000000,3983.696590
825.698539,-7698.141797,0.000000,3677.258390
825.698860,-7698.141797,-222.061783,2451.505594
825.699181,-8068.244768,-814.226536,1072.533697
825.699501,-8438.347739,-1332.370696,-689.485948
825.699822,-9252.574275,-1480.411884,-1302.362347
825.700143,-9918.759623,-1332.370696,-1838.629195
825.700463,-10658.965565,-1406.391290,-1762.019645
825.700784,-11177.109724,-888.247130,-1532.190996
825.701104,-11103.089130,-592.164754,-1225.752797
825.701425,-11103.089130,-518.144159,-459.657299
825.701746,-10436.903782,-74.020594,689.485948
825.702066,-10140.821405,-296.082377,2068.457845
825.702387,-9696.697840,0.000000,2834.553343
825.702707,-9548.656652,222.061783,3447.429741
825.703028,-9104.533087,518.144159,4136.915689
825.703349,-8142.265362,296.082377,4673.182538
825.703669,-8512.368333,148.041188,3217.601092
825.703990,-8068.244768,-444.123565,1915.238745
825.704311,-8734.430116,-1110.308913,536.266849
825.704631,-8956.491898,-1480.411884,153.219100
825.704952,-9104.533087,-1258.350101,-1302.362347
825.705272,-10066.800811,-1036.288319,-1838.629195
825.705593,-11103.089130,-444.123565,-1455.581446
825.705914,-11547.212695,-518.144159,-1149.143247
825.706234,-11473.192101,-370.102971,0.000000
825.706555,-11103.089130,0.000000,153.219100
825.706875,-10362.883188,-222.061783,1455.581446
825.707196,-10066.800811,-444.123565,2987.772442
825.707517,-9622.677246,148.041188,3064.381992
825.707837,-8734.430116,296.082377,3983.696590
825.708158,-8512.368333,296.082377,3907.087040
825.708479,-7402.059420,666.185348,4060.306139
825.708799,-7920.203579,0.000000,3830.477490
825.709120,-7920.203579,-592.164754,1991.848295
825.709440,-8512.368333,-1332.370696,689.485948
825.709761,-9252.574275,-1480.411884,-766.095498
825.710082,-9474.636058,-1850.514855,-1532.190996
825.710402,-9918.759623,-1554.432478,-1838.629195
825.710723,-10214.842000,-888.247130,-2221.676944
825.711043,-10955.047942,-962.267725,-2221.676944
825.711364,-10807.006753,148.041188,-1532.190996
825.711685,-10140.821405,1332.370696,-842.705048
825.712005,-10066.800811,296.082377,689.485948
825.712326,-9548.656652,370.102971,2221.676944
825.712647,-9548.656652,0.000000,3677.258390
825.712967,-9400.615463,222.061783,4749.792088
825.713288,-8734.430116,518.144159,4903.011187
825.713608,-8734.430116,592.164754,4213.525239
825.713929,-8364.327145,296.082377,3753.867940
825.714250,-8438.347739,-666.185348,2068.457845
825.714570,-9104.533087,-962.267725,919.314598
825.714891,-9474.636058,-1184.329507,-76.609550
825.715211,-9770.718434,-1332.370696,-1072.533697
825.715532,-10140.821405,-1036.288319,-1455.581446
825.715853,-10584.944971,-296.082377,-1608.800546
825.716173,-11251.130318,0.000000,-1149.143247
825.716494,-11103.089130,888.247130,-459.657299
825.716814,-10584.944971,1036.288319,1225.752797
825.717135,-10807.006753,666.185348,2451.505594
825.717456,-9992.780217,74.020594,3830.477490
825.717776,-10140.821405,-296.082377,4519.963438
825.718097,-9326.594869,0.000000,5132.839837
825.718418,-8586.388927,370.102971,4366.744339
825.718738,-8068.244768,518.144159,3447.429741
825.719059,-7920.203579,0.000000,2451.505594
825.719379,-8142.265362,-444.123565,1072.533697
825.719700,-8586.388927,-1184.329507,-919.314598
825.720021,-8216.285956,-1110.308913,-2145.067394
825.720341,-9770.718434,-1110.308913,-1991.848295
825.720662,-10584.944971,-888.247130,-1915.238745
825.720982,-11547.212695,-888.247130,-1991.848295
825.721303,-11547.212695,444.123565,-383.047749
825.721624,-11177.109724,148.041188,-766.095498
825.721944,-10955.047942,74.020594,919.314598
825.722265,-10362.883188,74.020594,2298.286494
825.722586,-10066.800811,0.000000,3753.867940
825.722906,-9030.512492,0.000000,3983.696590
825.723227,-8660.409521,0.000000,3830.477490
825.723547,-7698.141797,148.041188,3447.429741
825.723868,-7846.182985,296.082377,2911.162892
825.724189,-7105.977043,-296.082377,2604.724693
825.724509,-8068.244768,-1036.288319,459.657299
825.724830,-8660.409521,-1628.453072,-766.095498
825.725150,-9474.636058,-1628.453072,-1378.971896
825.725471,-10066.800811,-888.247130,-2298.286494
825.725792,-11177.109724,-592.164754,-1225.752797
825.726112,-11547.212695,-518.144159,-1149.143247
825.726433,-11547.212695,-370.102971,-1072.533697
825.726754,-11029.068536,-148.041188,-306.438199
825.727074,-10510.924376,370.102971,612.876398
825.727395,-10436.903782,-148.041188,2374.896044
825.727715,-9622.677246,-296.082377,3370.820191
825.728036,-9400.615463,-296.082377,3983.696590
825.728357,-8512.368333,444.123565,4366.744339
825.728677,-8216.285956,296.082377,3677.258390
825.728998,-8364.327145,0.000000,3447.429741
825.729318,-7994.224174,-666.185348,1838.629195
825.729639,-8660.409521,-1406.391290,-689.485948
825.729960,-9326.594869,-1554.432478,-536.266849
825.730281,-9252.574275,-1480.411884,-1378.971896
825.730601,-10436.903782,-1554.432478,-1915.238745
825.730922,-10584.944971,-962.267725,-2068.457845
825.731243,-10955.047942,-814.226536,-2221.676944
825.731564,-11325.150913,0.000000,-1302.362347
825.731885,-10658.965565,-148.041188,-229.828649
825.732205,-10436.903782,-296.082377,1072.533697
825.732526,-10362.883188,148.041188,3294.210641
825.732847,-9548.656652,-814.226536,3983.696590
825.733168,-9178.553681,-444.123565,4903.011187
825.733489,-8512.368333,-148.041188,4979.620737
825.733810,-7994.224174,-222.061783,4366.744339
825.734130,-8142.265362,-222.061783,3677.258390
825.734451,-8216.285956,-740.205942,2145.067394
825.734772,-8956.491898,-814.226536,919.314598
825.735093,-8808.450710,-888.247130,-306.438199
825.735414,-9918.759623,-888.247130,-995.924147
825.735734,-10436.903782,-592.164754,-1915.238745
825.736055,-10881.027347,-666.185348,-2451.505594
825.736376,-11029.068536,-740.205942,-2068.457845
825.736697,-10881.027347,148.041188,-1991.848295
825.737018,-10584.944971,592.164754,-689.485948
825.737339,-10658.965565,1036.288319,1225.752797
825.737659,-9918.759623,148.041188,3140.991542
825.737980,-9400.615463,-370.102971,3830.477490
825.738301,-9252.574275,-740.205942,4136.915689
825.738622,-8290.306550,-592.164754,3983.696590
825.738943,-7698.141797,-518.144159,3140.991542
825.739263,-8068.244768,0.000000,2298.286494
825.739584,-7920.203579,222.061783,1608.800546
825.739905,-8438.347739,-222.061783,-536.266849
825.740226,-9474.636058,-222.061783,-1225.752797
825.740547,-10140.821405,-740.205942,-2145.067394
825.740868,-11251.130318,-444.123565,-1378.971896
825.741188,-11695.253884,-740.205942,-2221.676944
825.741509,-11399.171507,-592.164754,-1455.581446
825.741830,-11251.130318,222.061783,-919.314598
825.742151,-10732.986159,666.185348,459.657299
825.742472,-10436.903782,888.247130,1838.629195
825.742792,-9770.718434,814.226536,3677.258390
825.743113,-9770.718434,0.000000,4443.353888
825.743434,-8882.471304,222.061783,4826.401637
825.743755,-7846.182985,0.000000,4443.353888
825.744076,-8216.285956,0.000000,3983.696590
825.744397,-7772.162391,74.020594,3217.601092
825.744717,-8512.368333,-296.082377,1455.581446
825.745038,-8734.430116,-740.205942,-1378.971896
825.745359,-9252.574275,-148.041188,-1455.581446
825.745680,-10362.883188,-296.082377,-1455.581446
825.746001,-10732.986159,-296.082377,-1455.581446
825.746321,-11399.171507,-296.082377,-1532.190996
825.746642,-11177.109724,0.000000,-995.924147
825.746963,-10955.047942,148.041188,0.000000
825.747284,-10658.965565,666.185348,1991.848295
825.747605,-10584.944971,518.144159,3677.258390
825.747926,-9992.780217,74.020594,4136.915689
825.748246,-9326.594869,-518.144159,4903.011187
825.748567,-8364.327145,0.000000,4903.011187
825.748888,-7550.100608,0.000000,4366.744339
825.749209,-8142.265362,222.061783,2451.505594
825.749530,-7624.121203,-592.164754,1608.800546
825.749850,-7994.224174,-1184.329507,0.000000
825.750171,-8734.430116,-1406.391290,-1225.752797
825.750492,-9474.636058,-1184.329507,-1532.190996
825.750813,-10436.903782,-1184.329507,-2374.896044
825.751134,-11325.150913,-1036.288319,-1991.848295
825.751455,-11473.192101,-370.102971,-1915.238745
825.751775,-11695.253884,0.000000,-1225.752797
825.752096,-10881.027347,296.082377,153.219100
825.752417,-10510.924376,444.123565,1072.533697
825.752738,-10140.821405,0.000000,2451.505594
825.753059,-9252.574275,-666.185348,3294.210641
825.753380,-9104.533087,-888.247130,4136.915689
825.753700,-8216.285956,0.000000,3753.867940
825.754021,-7698.141797,0.000000,3370.820191
825.754342,-8216.285956,0.000000,2528.115143
825.754663,-7772.162391,-444.123565,919.314598
825.754984,-9030.512492,-1036.288319,-306.438199
825.755304,-9030.512492,-814.226536,-995.924147
825.755625,-9844.739029,-1406.391290,-2145.067394
825.755946,-10436.903782,-962.267725,-2221.676944
825.756267,-11325.150913,-666.185348,-1532.190996
825.756588,-11621.233289,-592.164754,-1378.971896
825.756909,-11473.192101,-148.041188,-842.705048
825.757229,-10732.986159,74.020594,995.924147
825.757550,-10362.883188,-518.144159,4060.306139
825.757871,-9622.677246,0.000000,3753.867940
825.758192,-9770.718434,-814.226536,4290.134789
825.758513,-8734.430116,74.020594,4826.401637
825.758833,-8142.265362,666.185348,4673.182538
825.759154,-7846.182985,740.205942,4213.525239
825.759475,-7476.080014,296.082377,2451.505594
825.759796,-8142.265362,-814.226536,1302.362347
825.760117,-8586.388927,-1702.473667,-383.047749
825.760438,-9178.553681,-1406.391290,-1532.190996
825.760758,-10288.862594,-888.247130,-1608.800546
825.761079,-10955.047942,-74.020594,-1302.362347
825.761400,-11695.253884,74.020594,-1072.533697
825.761721,-11177.109724,-296.082377,-2298.286494
825.762042,-11325.150913,0.000000,-153.219100
825.762362,-10658.965565,-74.020594,1149.143247
825.762683,-10214.842000,-222.061783,2834.553343
825.763004,-9548.656652,-666.185348,3907.087040
825.763325,-8734.430116,-1036.288319,4749.792088
825.763646,-8290.306550,-518.144159,4290.134789
825.763967,-7624.121203,-296.082377,4060.306139
825.764287,-7994.224174,0.000000,2987.772442
825.764608,-8438.347739,0.000000,1838.629195
825.764929,-8512.368333,-518.144159,766.095498
825.765250,-8882.471304,-740.205942,-536.266849
825.765571,-9400.615463,-888.247130,-1378.971896
825.765891,-10807.006753,-148.041188,-2528.115143
825.766212,-10955.047942,-666.185348,-1685.410096
825.766533,-11695.253884,-888.247130,-1915.238745
825.766854,-11103.089130,148.041188,-1532.190996
825.767175,-10658.965565,444.123565,-459.657299
825.767496,-10658.965565,962.267725,1149.143247
825.767816,-10214.842000,814.226536,2987.772442
825.768137,-9770.718434,0.000000,3983.696590
825.768458,-9104.533087,-148.041188,4290.134789
825.768779,-8956.491898,0.000000,4749.792088
825.769100,-8216.285956,0.000000,3907.087040
825.769420,-7994.224174,444.123565,3140.991542
825.769741,-7994.224174,74.020594,1455.581446
825.770062,-8364.327145,444.123565,536.266849
825.770383,-8956.491898,-518.144159,-1838.629195
825.770704,-9844.739029,-296.082377,-2298.286494
825.771025,-10584.944971,-666.185348,-2604.724693
825.771345,-11399.171507,-814.226536,-2145.067394
825.771666,-11843.295072,-888.247130,-1915.238745
825.771987,-11473.192101,-518.144159,-1072.533697
825.772308,-10732.986159,0.000000,76.609550
825.772629,-10436.903782,-148.041188,1762.019645
825.772949,-9918.759623,-370.102971,2451.505594
825.773270,-9474.636058,-1036.288319,3983.696590
825.773591,-8586.388927,-1110.308913,4903.011187
825.773912,-7994.224174,-518.144159,4519.963438
825.774233,-7920.203579,-444.123565,4213.525239
825.774554,-7476.080014,-444.123565,2528.115143
825.774874,-7920.203579,-666.185348,1455.581446
825.775195,-8808.450710,-740.205942,0.000000
825.775516,-8956.491898,-666.185348,-995.924147
825.775837,-9696.697840,-740.205942,-2068.457845
825.776158,-10732.986159,-518.144159,-1991.848295
825.776479,-11325.150913,-370.102971,-1532.190996
825.776799,-11695.253884,-814.226536,-1072.533697
825.777120,-11177.109724,0.000000,-1072.533697
825.777441,-10955.047942,-74.020594,1378.971896
825.777762,-10658.965565,-296.082377,2911.162892
825.778083,-9548.656652,-222.061783,3524.039291
825.778403,-9474.636058,-518.144159,5822.325785
825.778724,-8808.450710,-148.041188,4903.011187
825.779045,-7846.182985,-370.102971,3983.696590
825.779366,-7772.162391,-148.041188,3064.381992
825.779687,-7698.141797,-296.082377,2068.457845
825.780008,-7846.182985,-888.247130,766.095498
825.780328,-8660.409521,-1184.329507,-689.485948
825.780649,-9474.636058,-1332.370696,-1838.629195
825.780970,-10436.903782,-962.267725,-1838.629195
825.781291,-11177.109724,-592.164754,-1608.800546
825.781612,-11843.295072,-592.164754,-1302.362347
825.781932,-11917.315666,0.000000,-995.924147
825.782253,-11103.089130,518.144159,0.000000
825.782574,-10955.047942,74.020594,919.314598
825.782895,-10140.821405,0.000000,2451.505594
825.783216,-9474.636058,-518.144159,3140.991542
825.783537,-9252.574275,-888.247130,3677.258390
825.783857,-8364.327145,-296.082377,3753.867940
825.784178,-7994.224174,0.000000,3524.039291
825.784499,-8142.265362,518.144159,2911.162892
825.784820,-8142.265362,518.144159,1838.629195
825.785141,-8808.450710,-222.061783,766.095498
825.785461,-8956.491898,-740.205942,-306.438199
825.785782,-9696.697840,-518.144159,-1072.533697
825.786103,-10362.883188,-1258.350101,-1532.190996
825.786424,-10732.986159,-1036.288319,-1608.800546
825.786745,-11473.192101,-888.247130,-1532.190996
825.787066,-11103.089130,0.000000,-995.924147
825.787386,-10436.903782,222.061783,-383.047749
825.787707,-10510.924376,518.144159,1455.581446
825.788028,-9548.656652,0.000000,2451.505594
825.788349,-9474.636058,-518.144159,3600.648841
825.788670,-9252.574275,-296.082377,4443.353888
825.788990,-8364.327145,0.000000,3983.696590
825.789311,-8068.244768,370.102971,3677.258390
825.789632,-8142.265362,666.185348,2757.943793
825.789953,-8216.285956,592.164754,1455.581446
825.790274,-8734.430116,444.123565,0.000000
825.790595,-9252.574275,0.000000,-766.095498
825.790915,-9770.718434,-962.267725,-2145.067394
825.791236,-10436.903782,-888.247130,-1915.238745
825.791557,-11177.109724,-666.185348,-1225.752797
825.791878,-11769.274478,-888.247130,-1149.143247
825.792199,-11769.274478,0.000000,-612.876398
825.792519,-10584.944971,-222.061783,153.219100
825.792840,-10288.862594,0.000000,1838.629195
825.793161,-9474.636058,-740.205942,2834.553343
825.793482,-9622.677246,-740.205942,3907.087040
825.793803,-9104.533087,-148.041188,4213.525239
825.794124,-8438.347739,0.000000,4060.306139
825.794444,-8290.306550,222.061783,3600.648841
825.794765,-8586.388927,148.041188,2451.505594
825.795086,-8660.409521,0.000000,1532.190996
825.795407,-9178.553681,-518.144159,383.047749
825.795728,-9326.594869,-666.185348,-1072.533697
825.796048,-10140.821405,-666.185348,-1685.410096
825.796369,-10658.965565,-888.247130,-2068.457845
825.796690,-11621.233289,-518.144159,-2145.067394
825.797011,-11029.068536,-444.123565,-1302.362347
825.797332,-11029.068536,296.082377,-306.438199
825.797653,-10732.986159,740.205942,995.924147
825.797973,-10881.027347,148.041188,1838.629195
825.798294,-9548.656652,740.205942,3600.648841
825.798615,-9548.656652,888.247130,4596.572988
825.798936,-8882.471304,518.144159,4903.011187
825.799257,-7994.224174,222.061783,4443.353888
825.799578,-7994.224174,0.000000,3370.820191
825.799898,-7698.141797,-296.082377,2374.896044
825.800219,-8068.244768,-592.164754,459.657299
825.800540,-8956.491898,-1110.308913,-459.657299
825.800861,-9400.615463,-1036.288319,-1685.410096
825.801182,-9474.636058,-1332.370696,-1915.238745
825.801502,-10881.027347,-1184.329507,-1685.410096
825.801823,-11325.150913,-1184.329507,-1455.581446
825.802144,-11547.212695,-592.164754,-995.924147
825.802465,-11177.109724,0.000000,306.438199
825.802786,-10140.821405,-444.123565,1455.581446
825.803107,-9992.780217,-370.102971,2987.772442
825.803427,-9548.656652,-888.247130,3907.087040
825.803748,-8882.471304,-1036.288319,4749.792088
825.804069,-8290.306550,-1110.308913,4903.011187
825.804390,-7254.018232,-592.164754,3524.039291
825.804711,-7624.121203,-296.082377,2451.505594
825.805031,-7624.121203,-222.061783,1378.971896
825.805352,-8290.306550,-666.185348,612.876398
825.805673,-8882.471304,-518.144159,-842.705048
825.805994,-9474.636058,-814.226536,-1762.019645
825.806315,-11177.109724,-370.102971,-1838.629195
825.806636,-11325.150913,-296.082377,-1455.581446
825.806956,-11991.336260,-962.267725,-1378.971896
825.807277,-11325.150913,296.082377,-766.095498
825.807598,-11473.192101,222.061783,0.000000
825.807919,-11029.068536,666.185348,1455.581446
825.808240,-10214.842000,740.205942,2987.772442
825.808560,-9622.677246,0.000000,3217.601092
825.808881,-9474.636058,1036.288319,4443.353888
825.809202,-8882.471304,518.144159,5056.230287
825.809523,-8512.368333,518.144159,4136.915689
825.809844,-8290.306550,148.041188,3064.381992
825.810165,-8438.347739,-592.164754,1149.143247
825.810485,-8216.285956,-1184.329507,-1072.533697
825.810806,-9252.574275,-1406.391290,-1149.143247
825.811127,-9696.697840,-1110.308913,-1838.629195
825.811448,-10732.986159,-1258.350101,-2451.505594
825.811769,-11029.068536,-1184.329507,-2757.943793
825.812089,-11177.109724,-1036.288319,-1762.019645
825.812410,-11103.089130,-296.082377,-766.095498
825.812731,-10362.883188,-518.144159,459.657299
825.813052,-10066.800811,-666.185348,1991.848295
825.813373,-9548.656652,-1036.288319,3907.087040
825.813694,-9400.615463,-1110.308913,4519.963438
825.814014,-8660.409521,-518.144159,4903.011187
825.814335,-7846.182985,-370.102971,4519.963438
825.814656,-8438.347739,-222.061783,3524.039291
825.814977,-7476.080014,0.000000,2911.162892
825.815298,-8068.244768,-222.061783,1532.190996
825.815618,-8364.327145,-1110.308913,0.000000
825.815939,-8734.430116,-888.247130,-383.047749
825.816260,-9622.677246,-1036.288319,-1915.238745
825.816581,-10658.965565,-370.102971,-1608.800546
825.816902,-11177.109724,-518.144159,-1608.800546
825.817223,-11695.253884,-296.082377,-1225.752797
825.817543,-11103.089130,222.061783,-153.219100
825.817864,-11103.089130,592.164754,919.314598
825.818185,-10732.986159,148.041188,2987.772442
825.818506,-9918.759623,-296.082377,3677.258390
825.818827,-9622.677246,-222.061783,4519.963438
825.819147,-9030.512492,-518.144159,4519.963438
825.819468,-8216.285956,-148.041188,4366.744339
825.819789,-8142.265362,296.082377,3600.648841
825.820110,-7698.141797,444.123565,1225.752797
825.820431,-8364.327145,0.000000,383.047749
825.820752,-8512.368333,-814.226536,-1149.143247
825.821072,-9400.615463,-962.267725,-2068.457845
825.821393,-10510.924376,-1036.288319,-2221.676944
825.821714,-11029.068536,-740.205942,-2604.724693
825.822035,-11843.295072,-888.247130,-2068.457845
825.822356,-11843.295072,-222.061783,-1225.752797
825.822677,-11251.130318,296.082377,-536.266849
825.822997,-10066.800811,370.102971,383.047749
825.823318,-10288.862594,74.020594,2221.676944
825.823639,-9326.594869,296.082377,3447.429741
825.823960,-9474.636058,-370.102971,4290.134789
825.824281,-8438.347739,222.061783,3600.648841
825.824601,-7846.182985,0.000000,4443.353888
825.824922,-7846.182985,-296.082377,3217.601092
825.825243,-7476.080014,-592.164754,1991.848295
825.825564,-8512.368333,-1332.370696,459.657299
825.825885,-8586.388927,-1110.308913,-689.485948
825.826206,-9178.553681,-1258.350101,-1532.190996
825.826526,-10140.821405,-592.164754,-1915.238745
825.826847,-11251.130318,-962.267725,-1532.190996
825.827168,-11843.295072,-148.041188,-1149.143247
825.827489,-11695.253884,0.000000,-306.438199
825.827810,-11103.089130,592.164754,919.314598
825.828130,-10955.047942,222.061783,2451.505594
825.828451,-10288.862594,148.041188,2911.162892
825.828772,-9696.697840,-666.185348,4596.572988
825.829093,-8734.430116,-296.082377,4903.011187
825.829414,-8660.409521,-1036.288319,4596.572988
825.829734,-7105.977043,-296.082377,3370.820191
825.830055,-7550.100608,-518.144159,2298.286494
825.830376,-7402.059420,-370.102971,689.485948
825.830697,-8290.306550,-814.226536,-689.485948
825.831018,-8882.471304,-740.205942,-1302.362347
825.831338,-9696.697840,-814.226536,-2374.896044
825.831659,-10732.986159,-518.144159,-2221.676944
825.831980,-12065.356855,-296.082377,-1685.410096
825.832301,-12213.398043,-888.247130,-919.314598
825.832621,-12065.356855,296.082377,-536.266849
825.832942,-11399.171507,0.000000,995.924147
825.833263,-10362.883188,-518.144159,1915.238745
825.833584,-9696.697840,-814.226536,3140.991542
825.833905,-9474.636058,-1332.370696,3830.477490
825.834225,-8364.327145,-740.205942,4596.572988
825.834546,-7920.203579,-148.041188,3677.258390
825.834867,-7772.162391,0.000000,3140.991542
825.835188,-7328.038826,0.000000,2145.067394
825.835508,-7772.162391,-370.102971,-383.047749
825.835829,-9030.512492,-666.185348,-76.609550
825.836150,-9474.636058,-592.164754,-1225.752797
825.836471,-10362.883188,-1036.288319,-1915.238745
825.836791,-10807.006753,-370.102971,-1608.800546
825.837112,-11843.295072,-592.164754,-1762.019645
825.837433,-11695.253884,0.000000,-1378.971896
825.837754,-10955.047942,444.123565,-612.876398
825.838075,-10510.924376,444.123565,229.828649
825.838395,-9548.656652,0.000000,1838.629195
825.838716,-9400.615463,-370.102971,3294.210641
825.839037,-9326.594869,-814.226536,4060.306139
825.839358,-8512.368333,-296.082377,4366.744339
825.839678,-7031.956449,-962.267725,4673.182538
825.839999,-7994.224174,-296.082377,3140.991542
825.840320,-7698.141797,-148.041188,1762.019645
825.840641,-8586.388927,-296.082377,536.266849
825.840961,-8734.430116,-740.205942,-766.095498
825.841282,-9104.533087,-962.267725,-2068.457845
825.841603,-10066.800811,-1110.308913,-2374.896044
825.841924,-10732.986159,-814.226536,-2145.067394
825.842245,-11325.150913,-888.247130,-1608.800546
825.842565,-11547.212695,-518.144159,-1302.362347
825.842886,-11103.089130,296.082377,0.000000
825.843207,-10955.047942,518.144159,1685.410096
825.843528,-10807.006753,370.102971,3447.429741
825.843848,-10807.006753,888.247130,4596.572988
825.844169,-9622.677246,-222.061783,5592.497135
825.844490,-8734.430116,-444.123565,5132.839837
825.844811,-7920.203579,0.000000,4749.792088
825.845132,-7994.224174,148.041188,2987.772442
825.845452,-7476.080014,148.041188,1915.238745
825.845773,-7920.203579,-296.082377,306.438199
825.846094,-8586.388927,0.000000,-919.314598
825.846415,-9326.594869,-592.164754,-1378.971896
825.846735,-10807.006753,-518.144159,-1149.143247
825.847056,-11399.171507,-666.185348,-612.876398
825.847377,-12139.377449,-1258.350101,-536.266849
825.847698,-11547.212695,-370.102971,0.000000
825.848018,-11177.109724,-296.082377,536.266849
825.848339,-10214.842000,-592.164754,1225.752797
825.848660,-9474.636058,-666.185348,2145.067394
825.848981,-8882.471304,-666.185348,2451.505594
825.849302,-8438.347739,-74.020594,3524.039291
825.849622,-8142.265362,148.041188,2834.553343
825.849943,-7994.224174,0.000000,3140.991542
825.850264,-7920.203579,-74.020594,2374.896044
825.850585,-8438.347739,-518.144159,1149.143247
825.850905,-9030.512492,-666.185348,0.000000
825.851226,-9326.594869,-1036.288319,-1302.362347
825.851547,-9992.780217,-592.164754,-2757.943793
825.851868,-10510.924376,0.000000,-2987.772442
825.852188,-11769.274478,1554.432478,-2987.772442
825.852509,-11103.089130,222.061783,-2451.505594
825.852830,-10584.944971,518.144159,-1608.800546
825.853151,-10288.862594,0.000000,-612.876398
825.853472,-9918.759623,0.000000,1455.581446
825.853792,-9770.718434,-370.102971,3140.991542
825.854113,-9548.656652,0.000000,4213.525239
825.854434,-9474.636058,0.000000,5822.325785
825.854755,-8438.347739,74.020594,5362.668486
825.855075,-8364.327145,-444.123565,4290.134789
825.855396,-7846.182985,-444.123565,3064.381992
825.855717,-8438.347739,-962.267725,1685.410096
825.856038,-8512.368333,-1036.288319,153.219100
825.856358,-8808.450710,-1480.411884,-1532.190996
825.856679,-9474.636058,-518.144159,-1991.848295
825.857000,-10510.924376,-592.164754,-1915.238745
825.857321,-11473.192101,-1036.288319,-1762.019645
825.857642,-11547.212695,-1184.329507,459.657299
825.857962,-10807.006753,-962.267725,-306.438199
825.858283,-10732.986159,-370.102971,1302.362347
825.858604,-10807.006753,-444.123565,3140.991542
825.858925,-9844.739029,-666.185348,4443.353888
825.859245,-9400.615463,-296.082377,5822.325785
825.859566,-8734.430116,0.000000,5209.449386
825.859887,-8216.285956,0.000000,5132.839837
825.860208,-7920.203579,444.123565,3677.258390
825.860529,-8438.347739,74.020594,2451.505594
825.860849,-8290.306550,0.000000,919.314598
825.861170,-8586.388927,-148.041188,-306.438199
825.861491,-9104.533087,-592.164754,-1915.238745
825.861812,-10362.883188,-666.185348,-1685.410096
825.862132,-11473.192101,0.000000,-1302.362347
825.862453,-11843.295072,-296.082377,-1532.190996
825.862774,-11547.212695,-444.123565,-995.924147
825.863095,-11029.068536,-222.061783,76.609550
825.863415,-10584.944971,0.000000,1225.752797
825.863736,-10288.862594,-296.082377,2757.943793
825.864057,-9326.594869,-962.267725,3677.258390
825.864378,-8586.388927,-740.205942,3677.258390
825.864699,-7994.224174,-518.144159,4979.620737
825.865019,-7846.182985,-296.082377,3907.087040
825.865340,-8290.306550,0.000000,3370.820191
825.865661,-8068.244768,-74.020594,1532.190996
825.865982,-8586.388927,-518.144159,-536.266849
825.866302,-8956.491898,-444.123565,-1302.362347
825.866623,-9474.636058,-740.205942,-2221.676944
825.866944,-10288.862594,-666.185348,-2528.115143
825.867265,-10658.965565,-888.247130,-3064.381992
825.867585,-10362.883188,-1184.329507,-2757.943793
825.867906,-10955.047942,-666.185348,-2451.505594
825.868227,-10362.883188,-592.164754,-1072.533697
825.868548,-10288.862594,0.000000,919.314598
825.868869,-10214.842000,1036.288319,3294.210641
825.869189,-9548.656652,-148.041188,3677.258390
825.869510,-9474.636058,-592.164754,4826.401637
825.869831,-8808.450710,0.000000,4903.011187
825.870152,-8660.409521,-370.102971,4519.963438
825.870472,-8068.244768,74.020594,3370.820191
825.870793,-8290.306550,-148.041188,1608.800546
825.871114,-8364.327145,-222.061783,0.000000
825.871435,-9104.533087,-222.061783,-1149.143247
825.871756,-9548.656652,-370.102971,-2145.067394
825.872076,-10732.986159,-222.061783,-2451.505594
825.872397,-11325.150913,-814.226536,-1608.800546
825.872718,-11843.295072,-888.247130,-842.705048
825.873039,-11769.274478,-740.205942,-612.876398
825.873359,-11103.089130,-148.041188,1532.190996
825.873680,-10214.842000,-222.061783,2528.115143
825.874001,-9844.739029,-666.185348,3830.477490
825.874322,-9178.553681,-888.247130,4979.620737
825.874642,-8808.450710,-888.247130,5515.887586
825.874963,-7624.121203,-666.185348,4673.182538
825.875284,-8142.265362,0.000000,3677.258390
825.875605,-7846.182985,-222.061783,2757.943793
825.875926,-8216.285956,0.000000,1302.362347
825.876246,-8808.450710,-888.247130,76.609550
825.876567,-8956.491898,-1110.308913,-1072.533697
825.876888,-9770.718434,-1332.370696,-1915.238745
825.877209,-9622.677246,-1036.288319,-2681.334243
825.877529,-11177.109724,-1036.288319,-2145.067394
825.877850,-11399.171507,-444.123565,-1532.190996
825.878171,-10436.903782,370.102971,-689.485948
825.878492,-10510.924376,370.102971,383.047749
825.878812,-10510.924376,74.020594,2145.067394
825.879133,-9770.718434,-370.102971,3217.601092
825.879454,-9326.594869,-1036.288319,4290.134789
825.879775,-8734.430116,-296.082377,4596.572988
825.880096,-7920.203579,-370.102971,4443.353888
825.880416,-8216.285956,296.082377,3370.820191
825.880737,-7772.162391,-222.061783,1915.238745
825.881058,-8512.368333,-518.144159,76.609550
825.881379,-8660.409521,-666.185348,-1378.971896
825.881699,-9178.553681,-962.267725,-1608.800546
825.882020,-10362.883188,-592.164754,-2987.772442
825.882341,-11103.089130,-444.123565,-2451.505594
825.882662,-11399.171507,-518.144159,-2374.896044
825.882983,-11769.274478,-444.123565,-1532.190996
825.883303,-11177.109724,74.020594,-306.438199
825.883624,-10955.047942,-148.041188,1225.752797
825.883945,-10140.821405,-370.102971,2681.334243
825.884266,-9844.739029,-814.226536,3830.477490
825.884586,-9252.574275,-518.144159,4060.306139
825.884907,-8290.306550,0.000000,4290.134789
825.885228,-7846.182985,148.041188,3753.867940
825.885549,-8216.285956,444.123565,3064.381992
825.885869,-8142.265362,0.000000,1838.629195
825.886190,-8586.388927,-74.020594,229.828649
825.886511,-8956.491898,-740.205942,-919.314598
825.886832,-9696.697840,-444.123565,-1455.581446
825.887153,-10436.903782,-370.102971,0.000000
825.887473,-10881.027347,-666.185348,-1915.238745
825.887794,-11029.068536,-1184.329507,-1838.629195
825.888115,-11103.089130,-962.267725,-919.314598
825.888436,-10584.944971,-814.226536,459.657299
825.888756,-10510.924376,-592.164754,2145.067394
825.889077,-9770.718434,-518.144159,3830.477490
825.889398,-9400.615463,-296.082377,4136.915689
825.889719,-8660.409521,0.000000,5056.230287
825.890039,-8808.450710,0.000000,5669.106685
825.890360,-7994.224174,444.123565,4136.915689
825.890681,-7994.224174,0.000000,3217.601092
825.891002,-8142.265362,-592.164754,1149.143247
825.891323,-8364.327145,-814.226536,536.266849
825.891643,-9030.512492,-1036.288319,-766.095498
825.891964,-9696.697840,-962.267725,-1915.238745
825.892285,-10732.986159,-518.144159,-1991.848295
825.892606,-11177.109724,-296.082377,-1762.019645
825.892926,-11621.233289,-666.185348,-1532.190996
825.893247,-11029.068536,-518.144159,-689.485948
825.893568,-10510.924376,-444.123565,306.438199
825.893889,-10140.821405,0.000000,1685.410096
825.894209,-9770.718434,370.102971,3370.820191
825.894530,-9474.636058,-296.082377,4366.744339
825.894851,-9030.512492,0.000000,4749.792088
825.895172,-8364.327145,74.020594,4060.306139
825.895493,-8438.347739,444.123565,3983.696590
825.895813,-8142.265362,296.082377,2298.286494
825.896134,-8734.430116,222.061783,1072.533697
825.896455,-9252.574275,0.000000,-153.219100
825.896776,-9252.574275,0.000000,-1608.800546
825.897096,-10214.842000,-370.102971,-2221.676944
825.897417,-10732.986159,0.000000,-1915.238745
825.897738,-11399.171507,-592.164754,-2374.896044
825.898059,-11251.130318,0.000000,-1762.019645
825.898380,-10584.944971,0.000000,-1378.971896
825.898700,-10658.965565,666.185348,689.485948
825.899021,-10362.883188,592.164754,2451.505594
825.899342,-9696.697840,518.144159,3753.867940
825.899663,-9326.594869,-370.102971,4673.182538
825.899983,-8808.450710,0.000000,4903.011187
825.900304,-8068.244768,148.041188,4060.306139
825.900625,-8438.347739,222.061783,3217.601092
825.900946,-7846.182985,74.020594,2068.457845
825.901266,-7994.224174,-592.164754,0.000000
825.901587,-8364.327145,-1184.329507,-1455.581446
825.901908,-9030.512492,-1480.411884,-2374.896044
825.902229,-9992.780217,-1110.308913,-2451.505594
825.902550,-10658.965565,-1702.473667,-1915.238745
825.902870,-10881.027347,-1184.329507,-1608.800546
825.903191,-11177.109724,-962.267725,-459.657299
825.903512,-10362.883188,-296.082377,229.828649
825.903833,-10732.986159,-370.102971,1149.143247
825.904153,-9548.656652,0.000000,3370.820191
825.904474,-9400.615463,-296.082377,3983.696590
825.904795,-8808.450710,0.000000,4826.401637
825.905116,-8364.327145,-444.123565,4366.744339
825.905436,-7698.141797,-370.102971,3524.039291
825.905757,-7846.182985,0.000000,2987.772442
825.906078,-7994.224174,-814.226536,1532.190996
825.906399,-9030.512492,-296.082377,459.657299
825.906720,-9696.697840,296.082377,-459.657299
825.907040,-9992.780217,0.000000,-1455.581446
825.907361,-10807.006753,296.082377,-1455.581446
825.907682,-11695.253884,-74.020594,-1302.362347
825.908003,-12287.418637,-1036.288319,0.000000
825.908323,-11325.150913,-74.020594,-995.924147
825.908644,-11103.089130,-592.164754,76.609550
825.908965,-10066.800811,0.000000,1532.190996
825.909286,-10510.924376,-740.205942,3217.601092
825.909607,-9474.636058,-666.185348,3830.477490
825.909927,-9326.594869,0.000000,5056.230287
825.910248,-8660.409521,-296.082377,4519.963438
825.910569,-8438.347739,222.061783,4136.915689
825.910890,-8586.388927,74.020594,2911.162892
825.911210,-8364.327145,-518.144159,919.314598
825.911531,-7920.203579,-814.226536,-383.047749
825.911852,-9400.615463,-1258.350101,-1838.629195
825.912173,-9474.636058,-888.247130,-842.705048
825.912493,-10436.903782,-740.205942,-2068.457845
825.912814,-11103.089130,-814.226536,-1608.800546
825.913135,-11325.150913,-740.205942,-1608.800546
825.913456,-11029.068536,-148.041188,-383.047749
825.913777,-10658.965565,0.000000,919.314598
825.914097,-10066.800811,-296.082377,2451.505594
825.914418,-9400.615463,-814.226536,3600.648841
825.914739,-8734.430116,-1184.329507,4366.744339
825.915060,-8512.368333,-1036.288319,4519.963438
825.915380,-7698.141797,-370.102971,4213.525239
825.915701,-7920.203579,0.000000,3600.648841
825.916022,-7402.059420,296.082377,2451.505594
825.916343,-7994.224174,0.000000,995.924147
825.916663,-8586.388927,-296.082377,-306.438199
825.916984,-9178.553681,-518.144159,-1838.629195
825.917305,-10214.842000,-666.185348,-1532.190996
825.917626,-10732.986159,-444.123565,-1532.190996
825.917947,-11177.109724,-962.267725,-1762.019645
825.918267,-11399.171507,-222.061783,-1225.752797
825.918588,-10881.027347,148.041188,-153.219100
825.918909,-10658.965565,518.144159,1072.533697
825.919230,-10140.821405,1036.288319,2757.943793
825.919550,-9548.656652,74.020594,3677.258390
825.919871,-9474.636058,-296.082377,4673.182538
825.920192,-9030.512492,-666.185348,4826.401637
825.920513,-8512.368333,-296.082377,3370.820191
825.920834,-8364.327145,-444.123565,3524.039291
825.921154,-8438.347739,-148.041188,1915.238745
825.921475,-8734.430116,-370.102971,153.219100
825.921796,-9252.574275,-222.061783,-842.705048
825.922117,-9548.656652,-814.226536,-2374.896044
825.922437,-10510.924376,-370.102971,-2604.724693
825.922758,-10955.047942,-518.144159,-2451.505594
825.923079,-11399.171507,-962.267725,-1915.238745
825.923400,-11473.192101,0.000000,-995.924147
825.923720,-10658.965565,0.000000,0.000000
825.924041,-10510.924376,0.000000,995.924147
825.924362,-9992.780217,74.020594,3140.991542
825.924683,-9548.656652,222.061783,4290.134789
825.925004,-9104.533087,74.020594,5132.839837
825.925324,-8512.368333,74.020594,4903.011187
825.925645,-8068.244768,74.020594,4213.525239
825.925966,-7846.182985,-222.061783,3064.381992
825.926287,-7624.121203,-592.164754,1455.581446
825.926607,-8290.306550,-666.185348,0.000000
825.926928,-8660.409521,-666.185348,-919.314598
825.927249,-9474.636058,-814.226536,-1608.800546
825.927570,-9622.677246,0.000000,-2145.067394
825.927890,-11325.150913,-444.123565,-1838.629195
825.928211,-11621.233289,-148.041188,-1072.533697
825.928532,-11547.212695,148.041188,-612.876398
825.928853,-10807.006753,0.000000,612.876398
825.929174,-10362.883188,-148.041188,1915.238745
825.929494,-9696.697840,-740.205942,3140.991542
825.929815,-9326.594869,-1258.350101,3677.258390
825.930136,-8660.409521,-1110.308913,4366.744339
825.930457,-8512.368333,0.000000,4290.134789
825.930778,-8216.285956,222.061783,3447.429741
825.931099,-8216.285956,370.102971,2757.943793
825.931420,-8660.409521,74.020594,1072.533697
825.931740,-9178.553681,-370.102971,-153.219100
825.932061,-9474.636058,-1332.370696,-1685.410096
825.932382,-9844.739029,-1554.432478,-2451.505594
825.932703,-10584.944971,-1184.329507,-2068.457845
825.933024,-11251.130318,-814.226536,-1915.238745
825.933345,-11621.233289,-296.082377,-1225.752797
825.933666,-11029.068536,370.102971,-459.657299
825.933986,-10658.965565,148.041188,612.876398
825.934307,-10510.924376,74.020594,2451.505594
825.934628,-10288.862594,0.000000,2757.943793
825.934949,-9178.553681,-518.144159,4060.306139
825.935270,-8808.450710,-222.061783,4290.134789
825.935591,-8068.244768,0.000000,4060.306139
825.935911,-8512.368333,666.185348,5132.839837
825.936232,-8290.306550,296.082377,2451.505594
825.936553,-8512.368333,0.000000,842.705048
825.936874,-8734.430116,-370.102971,-536.266849
825.937195,-9178.553681,0.000000,-1915.238745
825.937516,-10066.800811,-518.144159,-2374.896044
825.937837,-10436.903782,-148.041188,-2068.457845
825.938157,-11177.109724,-962.267725,-2374.896044
825.938478,-10955.047942,-444.123565,-1762.019645
825.938799,-10955.047942,-148.041188,-306.438199
825.939120,-10658.965565,-148.041188,1072.533697
825.939441,-9992.780217,-296.082377,2528.115143
825.939762,-9548.656652,-888.247130,4060.306139
825.940082,-9400.615463,-222.061783,7354.516781
825.940403,-8882.471304,-1036.288319,5362.668486
825.940724,-8364.327145,-888.247130,4903.011187
825.941045,-8290.306550,-740.205942,3907.087040
825.941366,-7994.224174,-740.205942,2145.067394
825.941687,-8216.285956,-962.267725,689.485948
825.942008,-8438.347739,-518.144159,-995.924147
825.942328,-9252.574275,-74.020594,-1838.629195
825.942649,-10288.862594,0.000000,-2221.676944
825.942970,-11029.068536,148.041188,-2451.505594
825.943291,-11547.212695,-592.164754,-1378.971896
825.943612,-11621.233289,0.000000,-612.876398
825.943933,-11103.089130,-222.061783,229.828649
825.944254,-10584.944971,-1184.329507,2911.162892
825.944574,-10214.842000,-444.123565,3600.648841
825.944895,-9770.718434,-296.082377,4136.915689
825.945216,-9474.636058,-296.082377,4749.792088
825.945537,-8808.450710,-74.020594,4749.792088
825.945858,-8364.327145,0.000000,3677.258390
825.946179,-7846.182985,-370.102971,2987.772442
825.946499,-8068.244768,-740.205942,1455.581446
825.946820,-8364.327145,-740.205942,0.000000
825.947141,-8808.450710,-666.185348,-919.314598
825.947462,-9622.677246,-666.185348,-1991.848295
825.947783,-10436.903782,-296.082377,-2145.067394
825.948104,-11325.150913,-666.185348,-1532.190996
825.948425,-11695.253884,-1406.391290,-2298.286494
825.948745,-10732.986159,-518.144159,-1149.143247
825.949066,-11177.109724,74.020594,0.000000
825.949387,-10066.800811,222.061783,2068.457845
825.949708,-9696.697840,0.000000,3370.820191
825.950029,-9770.718434,-444.123565,4136.915689
825.950350,-8586.388927,-592.164754,4060.306139
825.950670,-8364.327145,-518.144159,4290.134789
825.950991,-8068.244768,0.000000,3830.477490
825.951312,-7772.162391,518.144159,1991.848295
825.951633,-8216.285956,74.020594,689.485948
825.951954,-8364.327145,-296.082377,-689.485948
825.952275,-8512.368333,-518.144159,-2298.286494
825.952596,-10436.903782,-592.164754,-2604.724693
825.952916,-10362.883188,-666.185348,-2604.724693
825.953237,-11177.109724,-592.164754,-2451.505594
825.953558,-11621.233289,-370.102971,-1685.410096
825.953879,-10955.047942,0.000000,-766.095498
825.954200,-10658.965565,0.000000,0.000000
825.954521,-10510.924376,-148.041188,2451.505594
825.954842,-9400.615463,-518.144159,3447.429741
825.955162,-9326.594869,-888.247130,4443.353888
825.955483,-9474.636058,-296.082377,4443.353888
825.955804,-7920.203579,-592.164754,4673.182538
825.956125,-7846.182985,-666.185348,3753.867940
825.956446,-7846.182985,-222.061783,2911.162892
825.956767,-8808.450710,-222.061783,2221.676944
825.957087,-9030.512492,-444.123565,0.000000
825.957408,-9474.636058,-370.102971,-1149.143247
825.957729,-10214.842000,-222.061783,-1608.800546
825.958050,-11251.130318,0.000000,-1072.533697
825.958371,-11917.315666,0.000000,-1149.143247
825.958692,-11547.212695,814.226536,-689.485948
825.959013,-11177.109724,888.247130,383.047749
825.959333,-11103.089130,222.061783,1838.629195
825.959654,-9696.697840,-148.041188,2911.162892
825.959975,-9696.697840,-740.205942,4213.525239
825.960296,-8808.450710,-296.082377,4903.011187
825.960617,-8586.388927,-518.144159,4979.620737
825.960938,-7550.100608,-148.041188,6205.373534
825.961258,-8438.347739,0.000000,4060.306139
825.961579,-8216.285956,-592.164754,2604.724693
825.961900,-9030.512492,-962.267725,1072.533697
825.962221,-9252.574275,-1036.288319,-766.095498
825.962542,-9696.697840,-1036.288319,-2374.896044
825.962863,-10362.883188,-1036.288319,-2681.334243
825.963184,-10732.986159,-592.164754,-2757.943793
825.963504,-10955.047942,-1036.288319,-3140.991542
825.963825,-10658.965565,-296.082377,-2528.115143
825.964146,-10436.903782,-296.082377,-1225.752797
825.964467,-10066.800811,-296.082377,229.828649
825.964788,-9844.739029,-444.123565,2298.286494
825.965109,-8956.491898,-1110.308913,2451.505594
825.965429,-9030.512492,-888.247130,3983.696590
825.965750,-8512.368333,-592.164754,4136.915689
825.966071,-8290.306550,-148.041188,3830.477490
825.966392,-7994.224174,0.000000,2757.943793
825.966713,-7994.224174,74.020594,1762.019645
825.967034,-8734.430116,-518.144159,229.828649
825.967355,-8808.450710,-370.102971,-1378.971896
825.967675,-9474.636058,-444.123565,-2145.067394
825.967996,-10584.944971,370.102971,-2221.676944
825.968317,-11251.130318,-296.082377,-2298.286494
825.968638,-11621.233289,-370.102971,-1915.238745
825.968959,-11029.068536,0.000000,-1072.533697
825.969280,-10066.800811,-1258.350101,1685.410096
825.969601,-10658.965565,0.000000,2145.067394
825.969921,-9918.759623,-518.144159,3370.820191
825.970242,-9696.697840,-740.205942,4443.353888
825.970563,-9474.636058,-222.061783,4903.011187
825.970884,-8734.430116,74.020594,5209.449386
825.971205,-8438.347739,740.205942,4213.525239
825.971526,-8364.327145,518.144159,3064.381992
825.971846,-8438.347739,74.020594,1532.190996
825.972167,-9252.574275,-222.061783,459.657299
825.972488,-9178.553681,-1258.350101,-1378.971896
825.972809,-9844.739029,-814.226536,-2145.067394
825.973130,-10955.047942,-518.144159,-1762.019645
825.973451,-11177.109724,-592.164754,-1608.800546
825.973772,-11325.150913,-296.082377,-1838.629195
825.974092,-10658.965565,74.020594,-995.924147
825.974413,-10510.924376,0.000000,383.047749
825.974734,-10140.821405,-148.041188,2298.286494
825.975055,-9474.636058,-370.102971,3524.039291
825.975376,-9326.594869,-962.267725,4290.134789
825.975697,-8734.430116,-518.144159,4903.011187
825.976017,-7920.203579,-518.144159,4443.353888
825.976338,-7994.224174,296.082377,3677.258390
825.976659,-7772.162391,370.102971,2528.115143
825.976980,-8142.265362,-148.041188,1149.143247
825.977301,-8216.285956,-592.164754,-229.828649
825.977622,-8808.450710,-1480.411884,-2298.286494
825.977943,-10066.800811,-518.144159,-1915.238745
825.978263,-10807.006753,-740.205942,-1762.019645
825.978584,-10732.986159,-962.267725,-1991.848295
825.978905,-11103.089130,-592.164754,-1608.800546
825.979226,-10436.903782,0.000000,-229.828649
825.979547,-10658.965565,0.000000,1072.533697
825.979868,-10140.821405,0.000000,2604.724693
825.980189,-9474.636058,-518.144159,3524.039291
825.980509,-8882.471304,-888.247130,4366.744339
825.980830,-8882.471304,0.000000,4290.134789
825.981151,-8438.347739,0.000000,4596.572988
825.981472,-8290.306550,222.061783,3217.601092
825.981793,-8290.306550,-296.082377,3140.991542
825.982114,-8882.471304,-518.144159,459.657299
825.982434,-9252.574275,-592.164754,-1149.143247
825.982755,-9622.677246,-444.123565,-2604.724693
825.983076,-10288.862594,-370.102971,-2987.772442
825.983397,-10955.047942,-592.164754,-2834.553343
825.983718,-11251.130318,-740.205942,-2374.896044
825.984039,-11621.233289,-444.123565,-1685.410096
825.984360,-11103.089130,-666.185348,-306.438199
825.984680,-9918.759623,-962.267725,1072.533697
825.985001,-9992.780217,-888.247130,2834.553343
825.985322,-9918.759623,-1110.308913,4290.134789
825.985643,-9400.615463,-740.205942,5439.278036
825.985964,-8586.388927,-740.205942,4060.306139
825.986285,-8142.265362,-148.041188,4749.792088
825.986605,-8216.285956,0.000000,3600.648841
825.986926,-8290.306550,0.000000,2451.505594
825.987247,-8808.450710,-370.102971,919.314598
825.987568,-8882.471304,-296.082377,-995.924147
825.987889,-9400.615463,-222.061783,-1838.629195
825.988210,-10436.903782,-518.144159,-1762.019645
825.988531,-10881.027347,-666.185348,-1762.019645
825.988851,-10510.924376,-1480.411884,-2068.457845
825.989172,-10658.965565,-296.082377,-1302.362347
825.989493,-10658.965565,0.000000,306.438199
825.989814,-10214.842000,444.123565,2451.505594
825.990135,-9400.615463,-222.061783,2528.115143
825.990456,-9474.636058,0.000000,3983.696590
825.990777,-8956.491898,0.000000,4979.620737
825.991097,-8438.347739,-444.123565,4673.182538
825.991418,-8290.306550,-222.061783,4213.525239
825.991739,-8068.244768,-518.144159,2604.724693
825.992060,-8216.285956,-222.061783,1225.752797
825.992381,-8734.430116,-592.164754,-306.438199
825.992702,-9104.533087,-1036.288319,-1838.629195
825.993022,-10362.883188,-592.164754,-3140.991542
825.993343,-10955.047942,-814.226536,-2681.334243
825.993664,-11177.109724,-740.205942,-2681.334243
825.993985,-11547.212695,-740.205942,-2451.505594
825.994306,-10288.862594,222.061783,-1302.362347
825.994627,-10881.027347,518.144159,536.266849
825.994948,-10807.006753,444.123565,2298.286494
825.995268,-9992.780217,296.082377,3677.258390
825.995589,-9770.718434,0.000000,4519.963438
825.995910,-9400.615463,222.061783,4673.182538
825.996231,-8364.327145,296.082377,4366.744339
825.996552,-8290.306550,518.144159,3677.258390
825.996873,-8068.244768,444.123565,2528.115143
825.997193,-9622.677246,1258.350101,383.047749
825.997514,-9252.574275,0.000000,-612.876398
825.997835,-9400.615463,-148.041188,-1685.410096
825.998156,-10066.800811,0.000000,-1762.019645
825.998477,-11177.109724,74.020594,-1608.800546
825.998798,-11621.233289,74.020594,-1685.410096
825.999119,-11325.150913,518.144159,-1302.362347
825.999439,-10584.944971,518.144159,-383.047749
825.999760,-10584.944971,518.144159,1455.581446
826.000081,-9844.739029,0.000000,3140.991542
826.000402,-9622.677246,-1184.329507,4213.525239
826.000723,-8734.430116,-1332.370696,4903.011187
826.001044,-8512.368333,-1258.350101,4903.011187
826.001365,-7105.977043,-1036.288319,4519.963438
826.001685,-8216.285956,-222.061783,3830.477490
826.002006,-7846.182985,-814.226536,2374.896044
826.002327,-8290.306550,-888.247130,459.657299
826.002648,-9400.615463,-296.082377,-1225.752797
826.002969,-9030.512492,-1480.411884,-1991.848295
826.003290,-10362.883188,-1258.350101,-2221.676944
826.003610,-10510.924376,-592.164754,-2221.676944
826.003931,-10955.047942,-1110.308913,-1915.238745
826.004252,-11103.089130,-222.061783,-1225.752797
826.004573,-10955.047942,0.000000,0.000000
826.004894,-10140.821405,0.000000,1378.971896
826.005215,-9770.718434,0.000000,3370.820191
826.005536,-9622.677246,-592.164754,4979.620737
826.005856,-9252.574275,-370.102971,5132.839837
826.006177,-8660.409521,-222.061783,4903.011187
826.006498,-8142.265362,-148.041188,4519.963438
826.006819,-8660.409521,222.061783,3830.477490
826.007140,-8586.388927,0.000000,1915.238745
826.007461,-9104.533087,-296.082377,229.828649
826.007781,-9474.636058,0.000000,-1302.362347
826.008102,-9696.697840,0.000000,-1991.848295
826.008423,-10658.965565,666.185348,-2221.676944
826.008744,-11843.295072,-74.020594,-2298.286494
826.009065,-11695.253884,0.000000,-2068.457845
826.009386,-11547.212695,-370.102971,-919.314598
826.009707,-11695.253884,-296.082377,0.000000
826.010027,-10807.006753,-296.082377,1915.238745
826.010348,-10066.800811,-1332.370696,3217.601092
826.010669,-9178.553681,-1258.350101,3907.087040
826.010990,-8956.491898,-962.267725,4673.182538
826.011311,-8290.306550,-814.226536,4596.572988
826.011632,-8216.285956,-444.123565,3677.258390
826.011953,-8142.265362,0.000000,2298.286494
826.012273,-8216.285956,-296.082377,1378.971896
826.012594,-8882.471304,-370.102971,-459.657299
826.012915,-9178.553681,-518.144159,-1302.362347
826.013236,-9770.718434,-666.185348,-2298.286494
826.013557,-10732.986159,-444.123565,-2451.505594
826.013878,-10955.047942,-370.102971,-2221.676944
826.014198,-11177.109724,-296.082377,-1762.019645
826.014519,-10658.965565,148.041188,-766.095498
826.014840,-10214.842000,-296.082377,153.219100
826.015161,-9696.697840,222.061783,2451.505594
826.015482,-9474.636058,-666.185348,3294.210641
826.015803,-9104.533087,-222.061783,4443.353888
826.016124,-8956.491898,-148.041188,4749.792088
826.016444,-8068.244768,148.041188,4826.401637
826.016765,-8438.347739,370.102971,4596.572988
826.017086,-8068.244768,444.123565,2911.162892
826.017407,-9030.512492,74.020594,1685.410096
826.017728,-9400.615463,0.000000,76.609550
826.018049,-9622.677246,-444.123565,-995.924147
826.018369,-9992.780217,-592.164754,-2145.067394
826.018690,-10658.965565,-370.102971,-1838.629195
826.019011,-11399.171507,-888.247130,-1762.019645
826.019332,-11029.068536,-148.041188,-153.219100
826.019653,-10807.006753,222.061783,-306.438199
826.019974,-10732.986159,370.102971,995.924147
826.020295,-10214.842000,814.226536,3294.210641
826.020615,-9992.780217,0.000000,4519.963438
826.020936,-9400.615463,-370.102971,5286.058936
826.021257,-8660.409521,-222.061783,4903.011187
826.021578,-8734.430116,-518.144159,4903.011187
826.021899,-8734.430116,0.000000,4136.915689
826.022220,-8882.471304,518.144159,2374.896044
826.022541,-8808.450710,0.000000,536.266849
826.022861,-9030.512492,74.020594,-689.485948
826.023182,-9326.594869,-222.061783,-2221.676944
826.023503,-9992.780217,148.041188,-1225.752797
826.023824,-10807.006753,-962.267725,-2145.067394
826.024145,-10807.006753,-1110.308913,-1608.800546
826.024466,-10807.006753,-888.247130,-842.705048
826.024786,-10510.924376,-740.205942,536.266849
826.025107,-10584.944971,-444.123565,1915.238745
826.025428,-9548.656652,-370.102971,3140.991542
826.025749,-9474.636058,-148.041188,4136.915689
826.026070,-9030.512492,-222.061783,4673.182538
826.026391,-7698.141797,-666.185348,5056.230287
826.026712,-8068.244768,-1036.288319,3983.696590
826.027032,-7994.224174,-592.164754,3064.381992
826.027353,-8068.244768,-1332.370696,1302.362347
826.027674,-8364.327145,-1258.350101,2068.457845
826.027995,-8882.471304,-666.185348,-1149.143247
826.028316,-9622.677246,-592.164754,-2528.115143
826.028637,-10214.842000,0.000000,-2221.676944
826.028957,-10955.047942,0.000000,-2374.896044
826.029278,-11399.171507,-296.082377,-2911.162892
826.029599,-11251.130318,666.185348,-1532.190996
826.029920,-11029.068536,592.164754,0.000000
826.030241,-10510.924376,666.185348,1378.971896
826.030562,-9844.739029,296.082377,2757.943793
826.030883,-9992.780217,0.000000,3907.087040
826.031203,-8956.491898,-296.082377,4826.401637
826.031524,-9104.533087,-370.102971,4366.744339
826.031845,-8734.430116,-222.061783,3753.867940
826.032166,-8364.327145,0.000000,2834.553343
826.032486,-8586.388927,-370.102971,1149.143247
826.032807,-9252.574275,-666.185348,-459.657299
826.033128,-9252.574275,-740.205942,-1532.190996
826.033448,-10362.883188,-1258.350101,-1838.629195
826.033769,-10510.924376,-740.205942,-2528.115143
826.034090,-11325.150913,-1184.329507,-1991.848295
826.034410,-11251.130318,-666.185348,-1532.190996
826.034731,-10732.986159,-370.102971,-383.047749
826.035052,-10140.821405,-370.102971,306.438199
826.035372,-8956.491898,-1480.411884,2374.896044
826.035693,-9400.615463,-1332.370696,2911.162892
826.036014,-9252.574275,-1184.329507,3983.696590
826.036334,-8882.471304,-592.164754,4596.572988
826.036655,-8290.306550,-370.102971,4826.401637
826.036976,-8438.347739,592.164754,3753.867940
826.037296,-8290.306550,222.061783,2911.162892
826.037617,-8882.471304,-148.041188,1302.362347
826.037938,-8882.471304,-518.144159,-383.047749
826.038259,-9104.533087,-592.164754,-1378.971896
826.038579,-9474.636058,-814.226536,-3140.991542
826.038900,-10214.842000,-148.041188,-2298.286494
826.039221,-10807.006753,-444.123565,-1838.629195
826.039541,-10807.006753,-296.082377,-1302.362347
826.039862,-10288.862594,-296.082377,-383.047749
826.040183,-11325.150913,518.144159,2145.067394
826.040503,-9918.759623,-592.164754,2681.334243
826.040824,-9844.739029,-1406.391290,3830.477490
826.041145,-9326.594869,-1110.308913,4596.572988
826.041465,-9030.512492,-1110.308913,4673.182538
826.041786,-8882.471304,-370.102971,4136.915689
826.042107,-8290.306550,0.000000,3907.087040
826.042427,-8882.471304,-222.061783,2145.067394
826.042748,-8734.430116,-370.102971,919.314598
826.043069,-9326.594869,-888.247130,-1378.971896
826.043389,-9252.574275,-888.247130,-1991.848295
826.043710,-10732.986159,-740.205942,-2298.286494
826.044031,-10881.027347,-296.082377,-2451.505594
826.044351,-11325.150913,-222.061783,-2451.505594
826.044672,-11177.109724,74.020594,-2068.457845
826.044993,-10807.006753,0.000000,-766.095498
826.045313,-10510.924376,0.000000,919.314598
826.045634,-10214.842000,-370.102971,2757.943793
826.045955,-9770.718434,-814.226536,2834.553343
826.046275,-9474.636058,-518.144159,3907.087040
826.046596,-8734.430116,-296.082377,4596.572988
826.046917,-8364.327145,0.000000,4136.915689
826.047238,-7772.162391,74.020594,3600.648841
826.047558,-7920.203579,-370.102971,2145.067394
826.047879,-8364.327145,-444.123565,383.047749
826.048200,-9104.533087,-666.185348,-842.705048
826.048520,-9474.636058,-222.061783,-1302.362347
826.048841,-9696.697840,1036.288319,-1455.581446
826.049162,-10658.965565,0.000000,-1378.971896
826.049482,-11029.068536,-666.185348,-1455.581446
826.049803,-10436.903782,0.000000,-766.095498
826.050124,-10584.944971,296.082377,-153.219100
826.050444,-10214.842000,0.000000,2298.286494
826.050765,-9474.636058,-370.102971,3370.820191
826.051086,-9326.594869,-370.102971,4060.306139
826.051406,-9252.574275,0.000000,4903.011187
826.051727,-8512.368333,222.061783,4903.011187
826.052048,-8586.388927,296.082377,4213.525239
826.052368,-8216.285956,666.185348,2757.943793
826.052689,-8512.368333,296.082377,1302.362347
826.053010,-7772.162391,370.102971,536.266849
826.053330,-9178.553681,-592.164754,-1762.019645
826.053651,-9770.718434,-370.102971,-2604.724693
826.053972,-10436.903782,-296.082377,-2911.162892
826.054292,-10955.047942,-148.041188,-1455.581446
826.054613,-11103.089130,0.000000,-2221.676944
826.054934,-10955.047942,592.164754,-995.924147
826.055254,-10732.986159,-148.041188,-76.609550
826.055575,-9918.759623,0.000000,1838.629195
826.055896,-10362.883188,-444.123565,3370.820191
826.056217,-9770.718434,-888.247130,4979.620737
826.056537,-9326.594869,-1258.350101,5362.668486
826.056858,-8734.430116,-1110.308913,5056.230287
826.057179,-7920.203579,-1406.391290,5209.449386
826.057499,-8142.265362,-1110.308913,2987.772442
826.057820,-8216.285956,-1184.329507,1378.971896
826.058141,-8882.471304,-1332.370696,-153.219100
826.058461,-8660.409521,444.123565,-1838.629195
826.058782,-9622.677246,-592.164754,-1915.238745
826.059103,-10510.924376,74.020594,-1455.581446
826.059423,-11029.068536,0.000000,-1455.581446
826.059744,-11177.109724,148.041188,-536.266849
826.060065,-11029.068536,444.123565,-536.266849
826.060385,-10584.944971,296.082377,1378.971896
826.060706,-10436.903782,0.000000,3294.210641
826.061027,-9474.636058,-592.164754,4213.525239
826.061347,-8734.430116,-740.205942,4366.744339
826.061668,-8808.450710,-518.144159,4443.353888
826.061989,-7994.224174,0.000000,3907.087040
826.062309,-8364.327145,296.082377,3447.429741
826.062630,-7994.224174,518.144159,2221.676944
826.062951,-8660.409521,0.000000,919.314598
826.063271,-9400.615463,-740.205942,-612.876398
826.063592,-9474.636058,-1036.288319,-1762.019645
826.063913,-10584.944971,-962.267725,-2145.067394
826.064233,-10807.006753,-740.205942,-1991.848295
826.064554,-11029.068536,-518.144159,-1991.848295
826.064875,-11029.068536,0.000000,-1302.362347
826.065196,-10288.862594,370.102971,-536.266849
826.065516,-10955.047942,592.164754,612.876398
826.065837,-9918.759623,-74.020594,2451.505594
826.066158,-9474.636058,-814.226536,3447.429741
826.066478,-9252.574275,-740.205942,4519.963438
826.066799,-8808.450710,-296.082377,4136.915689
826.067120,-8512.368333,-740.205942,3907.087040
826.067440,-8142.265362,0.000000,3140.991542
826.067761,-8142.265362,-370.102971,1608.800546
826.068082,-8882.471304,-592.164754,459.657299
826.068402,-9178.553681,-814.226536,-689.485948
826.068723,-9622.677246,-740.205942,-1225.752797
826.069044,-10584.944971,-592.164754,-1455.581446
826.069364,-10955.047942,0.000000,-1378.971896
826.069685,-11547.212695,0.000000,-2068.457845
826.070006,-10955.047942,444.123565,-995.924147
826.070326,-10214.842000,148.041188,-306.438199
826.070647,-9844.739029,370.102971,1149.143247
826.070968,-9548.656652,444.123565,2145.067394
826.071288,-9474.636058,0.000000,3753.867940
826.071609,-9474.636058,148.041188,4826.401637
826.071930,-8882.471304,222.061783,4673.182538
826.072250,-8586.388927,370.102971,4290.134789
826.072571,-8438.347739,296.082377,2681.334243
826.072892,-8512.368333,222.061783,1378.971896
826.073212,-8882.471304,-296.082377,0.000000
826.073533,-8734.430116,-814.226536,-1532.190996
826.073854,-10288.862594,-888.247130,-2145.067394
826.074175,-10362.883188,-1110.308913,-2528.115143
826.074495,-10881.027347,-1036.288319,-2834.553343
826.074816,-11251.130318,-592.164754,-1915.238745
826.075137,-10584.944971,518.144159,1991.848295
826.075457,-10658.965565,0.000000,612.876398
826.075778,-10362.883188,-370.102971,2374.896044
826.076099,-9696.697840,-666.185348,3907.087040
826.076419,-9770.718434,-1110.308913,4826.401637
826.076740,-9178.553681,-740.205942,4826.401637
826.077061,-8586.388927,-222.061783,4826.401637
826.077381,-8438.347739,370.102971,3677.258390
826.077702,-7698.141797,518.144159,2604.724693
826.078023,-8364.327145,148.041188,1532.190996
826.078343,-8882.471304,-592.164754,-306.438199
826.078664,-9252.574275,-740.205942,-1915.238745
826.078985,-9918.759623,-1184.329507,-2221.676944
826.079305,-10066.800811,-1110.308913,-3217.601092
826.079626,-11029.068536,-962.267725,-1838.629195
826.079947,-11325.150913,-666.185348,-1378.971896
826.080267,-10658.965565,0.000000,-383.047749
826.080588,-10807.006753,222.061783,1149.143247
826.080909,-10288.862594,222.061783,2757.943793
826.081229,-9696.697840,-592.164754,3830.477490
826.081550,-9400.615463,-592.164754,4519.963438
826.081871,-9030.512492,-740.205942,4749.792088
826.082191,-8290.306550,-592.164754,4673.182538
826.082512,-8290.306550,-296.082377,3217.601092
826.082833,-8290.306550,-148.041188,2068.457845
826.083154,-8660.409521,-444.123565,689.485948
826.083474,-8734.430116,-370.102971,-229.828649
826.083795,-9400.615463,-666.185348,-2068.457845
826.084116,-9992.780217,-666.185348,-2298.286494
826.084436,-10584.944971,-592.164754,-2451.505594
826.084757,-11103.089130,-814.226536,-2145.067394
826.085078,-10881.027347,-592.164754,-1762.019645
826.085398,-10436.903782,-518.144159,-766.095498
826.085719,-10066.800811,-962.267725,383.047749
826.086040,-9844.739029,-370.102971,2221.676944
826.086360,-9696.697840,-518.144159,4060.306139
826.086681,-9474.636058,74.020594,4826.401637
826.087002,-9178.553681,0.000000,4903.011187
826.087322,-8734.430116,0.000000,4366.744339
826.087643,-8586.388927,296.082377,4519.963438
826.087964,-8364.327145,-296.082377,2298.286494
826.088284,-8956.491898,-444.123565,766.095498
826.088605,-8734.430116,-888.247130,-1225.752797
826.088926,-9474.636058,-518.144159,-1762.019645
826.089246,-10436.903782,-222.061783,-2451.505594
826.089567,-11103.089130,74.020594,-2145.067394
826.089888,-11029.068536,-444.123565,-2145.067394
826.090208,-10881.027347,370.102971,-1685.410096
826.090529,-9622.677246,-222.061783,-153.219100
826.090850,-10066.800811,74.020594,1378.971896
826.091170,-9326.594869,-148.041188,3140.991542
826.091491,-9474.636058,-814.226536,4060.306139
826.091812,-9178.553681,-370.102971,5362.668486
826.092132,-8808.450710,-592.164754,4979.620737
826.092453,-8512.368333,-222.061783,4443.353888
826.092774,-8364.327145,74.020594,3294.210641
826.093095,-8364.327145,-296.082377,1378.971896
826.093415,-8512.368333,-666.185348,0.000000
826.093736,-9178.553681,-1110.308913,-1378.971896
826.094057,-9548.656652,-592.164754,-2145.067394
826.094377,-10584.944971,-592.164754,-2068.457845
826.094698,-11103.089130,-518.144159,-1762.019645
826.095019,-11251.130318,-666.185348,-1762.019645
826.095339,-10955.047942,74.020594,-459.657299
826.095660,-10658.965565,74.020594,383.047749
826.095981,-10066.800811,0.000000,1455.581446
826.096301,-9844.739029,74.020594,3907.087040
826.096622,-9622.677246,-222.061783,4443.353888
826.096943,-9030.512492,222.061783,5132.839837
826.097263,-8660.409521,0.000000,4596.572988
826.097584,-8586.388927,740.205942,3907.087040
826.097905,-8586.388927,888.247130,3524.039291
826.098225,-9252.574275,296.082377,1608.800546
826.098546,-8882.471304,222.061783,0.000000
826.098867,-9844.739029,-592.164754,-2221.676944
826.099187,-9844.739029,0.000000,-2221.676944
826.099508,-11251.130318,74.020594,-1762.019645
826.099829,-11177.109724,0.000000,-2451.505594
826.100149,-11177.109724,1702.473667,-1608.800546
826.100470,-10436.903782,370.102971,-1225.752797
826.100791,-10214.842000,296.082377,459.657299
826.101111,-10288.862594,-370.102971,2681.334243
826.101432,-9326.594869,-1036.288319,3677.258390
826.101753,-9400.615463,-1406.391290,4596.572988
826.102074,-8438.347739,-1110.308913,4673.182538
826.102394,-8142.265362,-740.205942,4290.134789
826.102715,-8216.285956,-222.061783,3753.867940
826.103036,-8068.244768,-222.061783,1838.629195
826.103356,-8290.306550,-1036.288319,689.485948
826.103677,-8882.471304,-1332.370696,-766.095498
826.103998,-9104.533087,-1258.350101,-2068.457845
826.104318,-10214.842000,-592.164754,-4290.134789
826.104639,-10584.944971,-296.082377,-2145.067394
826.104960,-10955.047942,-666.185348,-1915.238745
826.105280,-10658.965565,74.020594,-1225.752797
826.105601,-10288.862594,74.020594,-383.047749
826.105922,-10214.842000,-148.041188,1608.800546
826.106242,-10066.800811,0.000000,2987.772442
826.106563,-9400.615463,-148.041188,3677.258390
826.106884,-9474.636058,-296.082377,4903.011187
826.107204,-8808.450710,0.000000,5362.668486
826.107525,-8290.306550,0.000000,4979.620737
826.107846,-8364.327145,0.000000,3217.601092
826.108166,-8512.368333,74.020594,2221.676944
826.108487,-9474.636058,0.000000,995.924147
826.108808,-9178.553681,-444.123565,-766.095498
826.109128,-9548.656652,-518.144159,-1838.629195
826.109449,-10436.903782,-444.123565,-2681.334243
826.109770,-11177.109724,-592.164754,-2298.286494
826.110090,-11399.171507,-1258.350101,-1838.629195
826.110411,-10881.027347,-666.185348,-1685.410096
826.110732,-10658.965565,-888.247130,-536.266849
826.111053,-10214.842000,-444.123565,995.924147
826.111373,-10214.842000,-518.144159,2604.724693
826.111694,-10066.800811,-962.267725,4136.915689
826.112015,-8956.491898,-814.226536,4903.011187
826.112335,-8808.450710,-962.267725,4749.792088
826.112656,-8216.285956,0.000000,3447.429741
826.112977,-8438.347739,-370.102971,3370.820191
826.113297,-8438.347739,-370.102971,1915.238745
826.113618,-8660.409521,-592.164754,0.000000
826.113939,-8808.450710,-888.247130,-1685.410096
826.114259,-9400.615463,-740.205942,-2374.896044
826.114580,-10658.965565,-666.185348,-2528.115143
826.114901,-10732.986159,-222.061783,-2374.896044
826.115221,-11029.068536,-296.082377,-1838.629195
826.115542,-10807.006753,222.061783,-1991.848295
826.115863,-10658.965565,0.000000,459.657299
826.116183,-10214.842000,0.000000,2451.505594
826.116504,-9696.697840,-222.061783,3677.258390
826.116825,-9474.636058,-370.102971,3140.991542
826.117145,-9400.615463,0.000000,5132.839837
826.117466,-8290.306550,296.082377,4903.011187
826.117787,-8290.306550,518.144159,3830.477490
826.118107,-7994.224174,814.226536,2757.943793
826.118428,-8438.347739,0.000000,1455.581446
826.118749,-9030.512492,-148.041188,0.000000
826.119069,-9104.533087,-592.164754,-1608.800546
826.119390,-9770.718434,-518.144159,-1915.238745
826.119711,-10288.862594,-1184.329507,-842.705048
826.120032,-11177.109724,-740.205942,-1608.800546
826.120352,-11399.171507,0.000000,-1378.971896
826.120673,-10658.965565,518.144159,-459.657299
826.120994,-10436.903782,-222.061783,383.047749
826.121314,-10066.800811,518.144159,2604.724693
826.121635,-9918.759623,-814.226536,3830.477490
826.121956,-9178.553681,-592.164754,3983.696590
826.122276,-8586.388927,-666.185348,4749.792088
826.122597,-8438.347739,-148.041188,4519.963438
826.122918,-8438.347739,74.020594,4213.525239
826.123238,-8364.327145,74.020594,2604.724693
826.123559,-8586.388927,0.000000,842.705048
826.123880,-7994.224174,-74.020594,0.000000
826.124200,-9474.636058,-518.144159,-2068.457845
826.124521,-10436.903782,-1036.288319,-2451.505594
826.124842,-10658.965565,-740.205942,-2757.943793
826.125162,-10955.047942,-962.267725,-2451.505594
826.125483,-11473.192101,74.020594,-1608.800546
826.125804,-10807.006753,0.000000,-766.095498
826.126124,-10436.903782,-222.061783,1378.971896
826.126445,-9918.759623,-222.061783,2604.724693
826.126766,-9104.533087,-814.226536,3753.867940
826.127086,-9400.615463,-666.185348,4979.620737
826.127407,-8586.388927,-888.247130,4749.792088
826.127728,-8216.285956,-814.226536,4596.572988
826.128048,-8142.265362,-592.164754,3294.210641
826.128369,-8142.265362,-1036.288319,1915.238745
826.128690,-8660.409521,-592.164754,229.828649
826.129011,-9030.512492,-370.102971,-536.266849
826.129331,-9622.677246,0.000000,-2528.115143
826.129652,-9992.780217,-444.123565,-2757.943793
826.129973,-10510.924376,-888.247130,-2681.334243
826.130293,-10881.027347,-740.205942,-2604.724693
826.130614,-11177.109724,-814.226536,-995.924147
826.130935,-10436.903782,-296.082377,0.000000
826.131255,-10436.903782,-518.144159,1072.533697
826.131576,-9918.759623,0.000000,2681.334243
826.131897,-9770.718434,-296.082377,4366.744339
826.132217,-8512.368333,-740.205942,5132.839837
826.132538,-9030.512492,-518.144159,4903.011187
826.132859,-8586.388927,-370.102971,3983.696590
826.133179,-8216.285956,-370.102971,2987.772442
826.133500,-8734.430116,-740.205942,1302.362347
826.133821,-9030.512492,-1184.329507,-153.219100
826.134141,-9030.512492,-888.247130,-1915.238745
826.134462,-9548.656652,-1036.288319,-2681.334243
826.134783,-10214.842000,-592.164754,-2757.943793
826.135103,-10955.047942,-444.123565,-2374.896044
826.135424,-11325.150913,-444.123565,-1608.800546
826.135745,-10510.924376,0.000000,-689.485948
826.136065,-10140.821405,-444.123565,0.000000
826.136386,-9178.553681,-962.267725,2451.505594
826.136707,-9400.615463,-518.144159,3064.381992
826.137027,-9178.553681,-296.082377,4749.792088
826.137348,-8882.471304,-74.020594,5132.839837
826.137669,-8068.244768,74.020594,5056.230287
826.137989,-8364.327145,296.082377,4903.011187
826.138310,-8290.306550,-148.041188,3447.429741
826.138631,-8364.327145,-444.123565,2068.457845
826.138951,-9178.553681,-740.205942,383.047749
826.139272,-8512.368333,-296.082377,-1225.752797
826.139593,-9696.697840,-444.123565,-1991.848295
826.139913,-10362.883188,0.000000,-1762.019645
826.140234,-11177.109724,-296.082377,-2068.457845
826.140555,-10807.006753,-296.082377,-1915.238745
826.140875,-10732.986159,74.020594,-612.876398
826.141196,-10214.842000,-370.102971,689.485948
826.141517,-9992.780217,-74.020594,2528.115143
826.141837,-10066.800811,-888.247130,4060.306139
826.142158,-9104.533087,-1184.329507,4136.915689
826.142479,-8882.471304,-592.164754,4596.572988
826.142799,-8512.368333,-296.082377,4443.353888
826.143120,-8512.368333,518.144159,3753.867940
826.143441,-8882.471304,962.267725,3600.648841
826.143761,-9030.512492,74.020594,612.876398
826.144082,-8882.471304,-592.164754,-1302.362347
826.144403,-9474.636058,-370.102971,-2681.334243
826.144723,-10658.965565,-444.123565,-2528.115143
826.145044,-11473.192101,-222.061783,-2221.676944
826.145365,-11177.109724,-666.185348,-2451.505594
826.145685,-11325.150913,-370.102971,-1685.410096
826.146006,-10436.903782,148.041188,-689.485948
826.146327,-9844.739029,518.144159,2145.067394
826.146647,-10362.883188,296.082377,2911.162892
826.146968,-9400.615463,74.020594,3524.039291
826.147289,-9252.574275,-296.082377,4136.915689
826.147609,-8808.450710,-148.041188,4903.011187
826.147930,-8068.244768,-296.082377,4290.134789
826.148251,-8586.388927,0.000000,3677.258390
826.148571,-8438.347739,0.000000,2451.505594
826.148892,-8734.430116,-444.123565,459.657299
826.149213,-9252.574275,-518.144159,-766.095498
826.149533,-9474.636058,-740.205942,-1378.971896
826.149854,-10510.924376,-222.061783,-1838.629195
826.150175,-10658.965565,-296.082377,-2145.067394
826.150495,-10510.924376,0.000000,-1685.410096
826.150816,-10658.965565,0.000000,-1608.800546
826.151137,-10288.862594,-222.061783,0.000000
826.151457,-10214.842000,-444.123565,1685.410096
826.151778,-9622.677246,-666.185348,2911.162892
826.152099,-9474.636058,-1406.391290,3983.696590
826.152419,-9178.553681,-1480.411884,4903.011187
826.152740,-8512.368333,-962.267725,4903.011187
826.153061,-8808.450710,-444.123565,4596.572988
826.153381,-7920.203579,-518.144159,3677.258390
826.153702,-8216.285956,-592.164754,1915.238745
826.154023,-8956.491898,-962.267725,612.876398
826.154343,-9104.533087,-962.267725,-1378.971896
826.154664,-8734.430116,-740.205942,-306.438199
826.154985,-10362.883188,-296.082377,-2528.115143
826.155305,-10732.986159,148.041188,-2221.676944
826.155626,-11769.274478,148.041188,-1378.971896
826.155947,-10955.047942,518.144159,-2681.334243
826.156267,-10436.903782,0.000000,229.828649
826.156588,-10214.842000,-222.061783,1915.238745
826.156909,-9696.697840,-592.164754,3524.039291
826.157229,-9918.759623,-1110.308913,4596.572988
826.157550,-8882.471304,-222.061783,5132.839837
826.157871,-8512.368333,-370.102971,4749.792088
826.158191,-8068.244768,0.000000,4060.306139
826.158512,-8364.327145,-592.164754,2834.553343
826.158833,-8216.285956,-592.164754,842.705048
826.159153,-9030.512492,-888.247130,-383.047749
826.159474,-9030.512492,-962.267725,-1455.581446
826.159795,-9992.780217,-962.267725,-2374.896044
826.160115,-10658.965565,-296.082377,-2451.505594
826.160436,-11399.171507,-740.205942,-1762.019645
826.160757,-10955.047942,-666.185348,-1532.190996
826.161077,-10510.924376,0.000000,-612.876398
826.161398,-10214.842000,-370.102971,536.266849
826.161719,-10066.800811,-444.123565,2451.505594
826.162039,-9474.636058,-888.247130,3753.867940
826.162360,-9104.533087,-740.205942,4213.525239
826.162681,-8808.450710,-518.144159,4596.572988
826.163001,-8438.347739,-518.144159,3983.696590
826.163322,-8364.327145,0.000000,3447.429741
826.163643,-8068.244768,0.000000,2068.457845
826.163963,-8512.368333,0.000000,76.609550
826.164284,-8956.491898,-518.144159,-2298.286494
826.164605,-9474.636058,-222.061783,-1991.848295
826.164925,-10362.883188,0.000000,-2681.334243
826.165246,-10807.006753,518.144159,-2834.553343
826.165567,-10881.027347,74.020594,-2681.334243
826.165887,-10881.027347,296.082377,-2298.286494
826.166208,-10658.965565,148.041188,-919.314598
826.166529,-9918.759623,-296.082377,229.828649
826.166849,-9474.636058,-296.082377,2298.286494
826.167170,-10288.862594,-666.185348,3064.381992
826.167491,-9252.574275,-1036.288319,4903.011187
826.167811,-8882.471304,-444.123565,5286.058936
826.168132,-8808.450710,-222.061783,5286.058936
826.168453,-8660.409521,222.061783,4596.572988
826.168773,-8734.430116,0.000000,3524.039291
826.169094,-9400.615463,-962.267725,1915.238745
826.169415,-9252.574275,-592.164754,306.438199
826.169735,-9918.759623,-518.144159,-766.095498
826.170056,-10436.903782,148.041188,-1532.190996
826.170377,-10658.965565,592.164754,-1378.971896
826.170697,-11251.130318,148.041188,-1225.752797
826.171018,-10214.842000,518.144159,-612.876398
826.171339,-9474.636058,814.226536,306.438199
826.171659,-10807.006753,-888.247130,2221.676944
826.171980,-9104.533087,-666.185348,3600.648841
826.172301,-10066.800811,-1258.350101,4596.572988
826.172621,-9474.636058,-296.082377,5898.935335
826.172942,-8438.347739,0.000000,5132.839837
826.173263,-9030.512492,0.000000,4673.182538
826.173583,-8364.327145,-296.082377,3370.820191
826.173904,-7994.224174,-814.226536,612.876398
826.174225,-9326.594869,-962.267725,-229.828649
826.174545,-8216.285956,-962.267725,-2298.286494
826.174866,-9770.718434,-518.144159,-2911.162892
826.175187,-10288.862594,-222.061783,-2451.505594
826.175507,-10732.986159,-888.247130,-4060.306139
826.175828,-11177.109724,-148.041188,-2451.505594
826.176149,-11325.150913,296.082377,-1072.533697
826.176469,-10510.924376,0.000000,383.047749
826.176790,-10658.965565,-222.061783,306.438199
826.177111,-9548.656652,-814.226536,2681.334243
826.177431,-9104.533087,-1184.329507,3370.820191
826.177752,-8734.430116,-1480.411884,4060.306139
826.178073,-8290.306550,-666.185348,3907.087040
826.178393,-8364.327145,-962.267725,3524.039291
826.178714,-8068.244768,-444.123565,2145.067394
826.179035,-8364.327145,-370.102971,995.924147
826.179355,-9252.574275,-740.205942,-383.047749
826.179676,-8956.491898,-592.164754,-1991.848295
826.179997,-10362.883188,-296.082377,-1762.019645
826.180317,-10955.047942,74.020594,-1838.629195
826.180638,-11399.171507,-148.041188,-1762.019645
826.180959,-11325.150913,0.000000,-536.266849
826.181279,-10658.965565,592.164754,-612.876398
826.181600,-10881.027347,666.185348,1072.533697
826.181921,-9770.718434,888.247130,2145.067394
826.182241,-9400.615463,148.041188,2911.162892
826.182562,-8956.491898,-296.082377,4136.915689
826.182883,-8734.430116,0.000000,4903.011187
826.183203,-8364.327145,-1110.308913,4826.401637
826.183524,-8290.306550,-888.247130,3830.477490
826.183845,-8586.388927,-962.267725,4213.525239
826.184165,-8956.491898,-1332.370696,1302.362347
826.184486,-9400.615463,-1480.411884,0.000000
826.184807,-9400.615463,-1036.288319,-1685.410096
826.185127,-10066.800811,-1184.329507,-1838.629195
826.185448,-10066.800811,-666.185348,-2298.286494
826.185769,-10807.006753,-888.247130,-1915.238745
826.186089,-11103.089130,-518.144159,-1838.629195
826.186410,-10214.842000,-148.041188,-459.657299
826.186731,-10066.800811,0.000000,306.438199
826.187051,-9770.718434,-814.226536,2604.724693
826.187372,-9770.718434,-962.267725,3983.696590
826.187693,-9252.574275,-962.267725,4903.011187
826.188013,-7624.121203,0.000000,6435.202183
826.188334,-9030.512492,-222.061783,5209.449386
826.188655,-8586.388927,444.123565,4213.525239
826.188975,-8808.450710,74.020594,2834.553343
826.189296,-8808.450710,-222.061783,842.705048
826.189617,-8734.430116,-74.020594,-536.266849
826.189937,-9474.636058,0.000000,-1838.629195
826.190258,-10436.903782,740.205942,-2374.896044
826.190579,-10362.883188,444.123565,-2221.676944
826.190899,-10881.027347,370.102971,-1532.190996
826.191220,-10732.986159,148.041188,-1378.971896
826.191541,-10436.903782,0.000000,0.000000
826.191861,-10214.842000,-148.041188,1455.581446
826.192182,-9104.533087,-444.123565,4060.306139
826.192503,-9548.656652,-814.226536,4443.353888
826.192823,-9474.636058,-518.144159,5209.449386
826.193144,-8956.491898,-296.082377,4903.011187
826.193465,-8734.430116,-222.061783,4290.134789
826.193785,-8216.285956,222.061783,3217.601092
826.194106,-8512.368333,-296.082377,1455.581446
826.194427,-8660.409521,-518.144159,-689.485948
826.194747,-9178.553681,-888.247130,-2145.067394
826.195068,-9696.697840,-1332.370696,-2987.772442
826.195389,-10214.842000,-666.185348,-3140.991542
826.195709,-10807.006753,-592.164754,-3524.039291
826.196030,-11103.089130,-444.123565,-2681.334243
826.196351,-10881.027347,0.000000,-2451.505594
826.196671,-10362.883188,-740.205942,-536.266849
826.196992,-9548.656652,-370.102971,919.314598
826.197313,-9548.656652,-888.247130,2604.724693
826.197633,-9326.594869,-592.164754,3753.867940
826.197954,-8956.491898,-74.020594,4979.620737
826.198275,-8364.327145,222.061783,4749.792088
826.198595,-8586.388927,296.082377,4443.353888
826.198916,-8438.347739,74.020594,3370.820191
826.199237,-8586.388927,-370.102971,1991.848295
826.199557,-9326.594869,-666.185348,383.047749
826.199878,-9474.636058,-222.061783,-842.705048
826.200199,-10066.800811,0.000000,-1302.362347
826.200519,-10436.903782,740.205942,-1455.581446
826.200840,-10807.006753,962.267725,-2451.505594
826.201161,-11029.068536,666.185348,-1762.019645
826.201481,-10436.903782,370.102971,-842.705048
826.201802,-10807.006753,-148.041188,383.047749
826.202123,-10140.821405,0.000000,2528.115143
826.202443,-9696.697840,-592.164754,4060.306139
826.202764,-9548.656652,-592.164754,5362.668486
826.203085,-9696.697840,-444.123565,5975.544884
826.203405,-8882.471304,0.000000,5056.230287
826.203726,-8808.450710,222.061783,4366.744339
826.204047,-8438.347739,0.000000,2604.724693
826.204367,-8660.409521,-592.164754,919.314598
826.204688,-9622.677246,-1406.391290,-1608.800546
826.205009,-8882.471304,-1110.308913,-2451.505594
826.205329,-9992.780217,-1184.329507,-2757.943793
826.205650,-10436.903782,-592.164754,-2451.505594
826.205971,-10955.047942,-444.123565,-1532.190996
826.206291,-10881.027347,-444.123565,-1608.800546
826.206612,-10436.903782,-370.102971,-459.657299
826.206933,-10436.903782,-962.267725,1225.752797
826.207253,-9474.636058,-1036.288319,3140.991542
826.207574,-9622.677246,-1258.350101,3907.087040
826.207895,-9030.512492,-1036.288319,5286.058936
826.208215,-8438.347739,-888.247130,5286.058936
826.208536,-8586.388927,-222.061783,4443.353888
826.208857,-7698.141797,222.061783,3983.696590
826.209177,-8216.285956,0.000000,2451.505594
826.209498,-8660.409521,-296.082377,153.219100
826.209819,-8882.471304,-148.041188,-1072.533697
826.210139,-9548.656652,-592.164754,-2451.505594
826.210460,-10658.965565,148.041188,-2068.457845
826.210781,-11029.068536,444.123565,-2528.115143
826.211101,-11251.130318,0.000000,-2298.286494
826.211422,-11103.089130,518.144159,-1915.238745
826.211743,-10584.944971,814.226536,0.000000
826.212063,-10436.903782,-444.123565,1302.362347
826.212384,-9400.615463,-296.082377,2911.162892
826.212705,-10066.800811,-1258.350101,4749.792088
826.213025,-8882.471304,-962.267725,4596.572988
826.213346,-9326.594869,-592.164754,5056.230287
826.213667,-8586.388927,-370.102971,4290.134789
826.213987,-8438.347739,148.041188,3370.820191
826.214308,-8956.491898,518.144159,1149.143247
826.214629,-9178.553681,0.000000,0.000000
826.214949,-9400.615463,-370.102971,-1532.190996
826.215270,-9992.780217,-666.185348,-2451.505594
826.215591,-10584.944971,-296.082377,-2987.772442
826.215911,-11029.068536,-222.061783,-2987.772442
826.216232,-10881.027347,-592.164754,-2451.505594
826.216553,-10584.944971,74.020594,-1378.971896
826.216873,-10362.883188,-518.144159,0.000000
826.217194,-10066.800811,148.041188,1378.971896
826.217515,-9844.739029,-518.144159,4136.915689
826.217835,-9474.636058,-592.164754,4826.401637
826.218156,-9178.553681,0.000000,5286.058936
826.218477,-8364.327145,814.226536,5898.935335
826.218797,-8882.471304,740.205942,4979.620737
826.219118,-8290.306550,592.164754,3907.087040
826.219439,-8586.388927,0.000000,1991.848295
826.219759,-8734.430116,0.000000,459.657299
826.220080,-9030.512492,-222.061783,-1225.752797
826.220401,-9770.718434,74.020594,-1915.238745
826.220721,-10362.883188,518.144159,-1608.800546
826.221042,-10658.965565,74.020594,-2374.896044
826.221363,-10510.924376,370.102971,-2374.896044
826.221683,-10288.862594,74.020594,-1149.143247
826.222004,-10584.944971,222.061783,1302.362347
826.222325,-10140.821405,0.000000,2987.772442
826.222645,-9622.677246,-518.144159,4903.011187
826.222966,-9326.594869,-1036.288319,4903.011187
826.223287,-8882.471304,-518.144159,5439.278036
826.223607,-8586.388927,-592.164754,4903.011187
826.223928,-8438.347739,0.000000,4366.744339
826.224249,-7846.182985,-666.185348,2145.067394
826.224569,-8586.388927,-592.164754,612.876398
826.224890,-8956.491898,-740.205942,-842.705048
826.225211,-9474.636058,-740.205942,-2451.505594
826.225531,-9770.718434,-296.082377,-2528.115143
826.225852,-10658.965565,0.000000,-3217.601092
826.226173,-11029.068536,-518.144159,-3064.381992
826.226493,-11029.068536,-148.041188,-2145.067394
826.226814,-10658.965565,740.205942,-766.095498
826.227135,-10214.842000,-444.123565,306.438199
826.227455,-9992.780217,-296.082377,2298.286494
826.227776,-9844.739029,-592.164754,3677.258390
826.228097,-9696.697840,-518.144159,4673.182538
826.228417,-9178.553681,-592.164754,5439.278036
826.228738,-8734.430116,-592.164754,5209.449386
826.229059,-8438.347739,-666.185348,3983.696590
826.229379,-8734.430116,-962.267725,2298.286494
826.229700,-9474.636058,-1406.391290,1072.533697
826.230021,-8956.491898,-1036.288319,-1225.752797
826.230341,-9474.636058,-592.164754,-2068.457845
826.230662,-10214.842000,-296.082377,-2298.286494
826.230983,-10362.883188,-444.123565,-2068.457845
826.231303,-11177.109724,-592.164754,-2528.115143
826.231624,-10955.047942,-518.144159,-1685.410096
826.231945,-10362.883188,0.000000,0.000000
826.232265,-10362.883188,74.020594,1838.629195
826.232586,-9622.677246,-148.041188,3677.258390
826.232907,-9474.636058,-518.144159,5056.230287
826.233227,-9252.574275,-592.164754,5439.278036
826.233548,-8882.471304,-296.082377,5592.497135
826.233869,-7994.224174,-296.082377,4673.182538
826.234189,-8216.285956,0.000000,3907.087040
826.234510,-8290.306550,-962.267725,1991.848295
826.234831,-8438.347739,-962.267725,-229.828649
826.235152,-8734.430116,-814.226536,-1532.190996
826.235472,-9474.636058,-962.267725,-2374.896044
826.235793,-10288.862594,-888.247130,-3064.381992
826.236114,-10732.986159,-592.164754,-2834.553343
826.236435,-11029.068536,-888.247130,-2604.724693
826.236756,-10288.862594,0.000000,-1378.971896
826.237076,-10584.944971,-444.123565,153.219100
826.237397,-10214.842000,-888.247130,2451.505594
826.237718,-9622.677246,-1554.432478,3524.039291
826.238039,-9400.615463,-1554.432478,4596.572988
826.238359,-9178.553681,-740.205942,4979.620737
826.238680,-8068.244768,-296.082377,4979.620737
826.239001,-8438.347739,296.082377,4749.792088
826.239322,-8068.244768,370.102971,3217.601092
826.239642,-7994.224174,0.000000,1072.533697
826.239963,-9030.512492,0.000000,0.000000
826.240284,-9474.636058,74.020594,-1608.800546
826.240605,-10436.903782,222.061783,-2145.067394
826.240925,-10214.842000,518.144159,-1991.848295
826.241246,-11029.068536,74.020594,-2681.334243
826.241567,-11029.068536,148.041188,-1991.848295
826.241888,-10955.047942,-222.061783,-919.314598
826.242209,-10584.944971,-666.185348,0.000000
826.242529,-9992.780217,-444.123565,2221.676944
826.242850,-9844.739029,-962.267725,3294.210641
826.243171,-9400.615463,-962.267725,4366.744339
826.243492,-9030.512492,-592.164754,4979.620737
826.243812,-8216.285956,-592.164754,4749.792088
826.244133,-8290.306550,0.000000,3983.696590
826.244454,-8734.430116,-444.123565,2757.943793
826.244775,-9104.533087,-518.144159,1455.581446
826.245095,-9622.677246,-666.185348,-1225.752797
826.245416,-9474.636058,-444.123565,-2145.067394
826.245737,-10362.883188,-444.123565,-2451.505594
826.246058,-10436.903782,0.000000,-2987.772442
826.246378,-10807.006753,0.000000,-2145.067394
826.246699,-10732.986159,0.000000,-2451.505594
826.247020,-10510.924376,444.123565,-995.924147
826.247341,-10362.883188,0.000000,842.705048
826.247662,-9918.759623,-962.267725,2604.724693
826.247982,-9474.636058,-1480.411884,3830.477490
826.248303,-9474.636058,-1184.329507,4979.620737
826.248624,-8882.471304,-148.041188,5669.106685
826.248945,-8512.368333,0.000000,5209.449386
826.249265,-8956.491898,518.144159,4519.963438
826.249586,-8290.306550,222.061783,2604.724693
826.249907,-8586.388927,-740.205942,995.924147
826.250228,-8882.471304,-1184.329507,-689.485948
826.250548,-8808.450710,-370.102971,-1762.019645
826.250869,-10362.883188,-444.123565,-2451.505594
826.251190,-10362.883188,-148.041188,-2528.115143
826.251511,-10658.965565,-370.102971,-2451.505594
826.251831,-10881.027347,444.123565,-1455.581446
826.252152,-10807.006753,0.000000,153.219100
826.252473,-10140.821405,0.000000,1685.410096
826.252794,-9918.759623,-962.267725,3370.820191
826.253115,-9474.636058,-1332.370696,4366.744339
826.253435,-8734.430116,-888.247130,5592.497135
826.253756,-8512.368333,-148.041188,4903.011187
826.254077,-8290.306550,0.000000,4673.182538
826.254398,-8216.285956,444.123565,3140.991542
826.254718,-7698.141797,-444.123565,2681.334243
826.255039,-8956.491898,-370.102971,0.000000
826.255360,-9252.574275,-740.205942,-1915.238745
826.255681,-9696.697840,-296.082377,-2451.505594
826.256001,-10584.944971,0.000000,-2681.334243
826.256322,-11029.068536,148.041188,-2681.334243
826.256643,-11695.253884,0.000000,-2221.676944
826.256964,-11029.068536,222.061783,-1378.971896
826.257285,-10732.986159,0.000000,0.000000
826.257605,-10510.924376,74.020594,2298.286494
826.257926,-10066.800811,-444.123565,3294.210641
826.258247,-9622.677246,-1184.329507,4366.744339
826.258568,-8882.471304,-1036.288319,5056.230287
826.258888,-8290.306550,-1258.350101,5362.668486
826.259209,-8364.327145,-1110.308913,4290.134789
826.259530,-8364.327145,-592.164754,3447.429741
826.259851,-8956.491898,-814.226536,2221.676944
826.260171,-8956.491898,-592.164754,612.876398
826.260492,-9400.615463,-592.164754,-1149.143247
826.260813,-10066.800811,-296.082377,-1915.238745
826.261134,-10214.842000,-222.061783,-2528.115143
826.261454,-10732.986159,-222.061783,-2374.896044
826.261775,-11029.068536,-148.041188,-1838.629195
826.262096,-10066.800811,444.123565,-1225.752797
826.262417,-10584.944971,518.144159,612.876398
826.262738,-9918.759623,148.041188,2451.505594
826.263058,-9474.636058,-296.082377,4903.011187
826.263379,-9474.636058,-518.144159,4903.011187
826.263700,-9030.512492,-370.102971,5209.449386
826.264021,-8512.368333,0.000000,4979.620737
826.264341,-8512.368333,518.144159,4136.915689
826.264662,-8216.285956,518.144159,2604.724693
826.264983,-8956.491898,-148.041188,689.485948
826.265304,-9252.574275,-296.082377,-919.314598
826.265624,-9400.615463,-444.123565,-2451.505594
826.265945,-10436.903782,148.041188,-3217.601092
826.266266,-10584.944971,296.082377,-2757.943793
826.266587,-10955.047942,-222.061783,-2681.334243
826.266907,-10807.006753,296.082377,-1915.238745
826.267228,-10881.027347,148.041188,0.000000
826.267549,-10066.800811,-222.061783,1302.362347
826.267870,-9992.780217,-592.164754,2987.772442
826.268191,-9474.636058,-1332.370696,4366.744339
826.268511,-9326.594869,-1628.453072,4749.792088
826.268832,-8512.368333,-814.226536,5209.449386
826.269153,-8512.368333,-444.123565,4903.011187
826.269474,-8290.306550,0.000000,4290.134789
826.269794,-8364.327145,0.000000,2604.724693
826.270115,-9178.553681,-740.205942,689.485948
826.270436,-8956.491898,0.000000,-689.485948
826.270757,-9548.656652,-518.144159,-1762.019645
826.271077,-10140.821405,0.000000,-2451.505594
826.271398,-10955.047942,0.000000,-2834.553343
826.271719,-10881.027347,0.000000,-2451.505594
826.272040,-10658.965565,666.185348,-1532.190996
826.272360,-10510.924376,296.082377,0.000000
826.272681,-10140.821405,296.082377,1838.629195
826.273002,-9844.739029,-296.082377,3524.039291
826.273323,-9622.677246,-518.144159,4443.353888
826.273644,-9326.594869,-592.164754,4979.620737
826.273964,-8956.491898,0.000000,5669.106685
826.274285,-8586.388927,814.226536,5209.449386
826.274606,-8512.368333,518.144159,3600.648841
826.274927,-8512.368333,0.000000,1608.800546
826.275247,-8882.471304,-222.061783,0.000000
826.275568,-9104.533087,-1110.308913,-919.314598
826.275889,-9696.697840,-814.226536,-2681.334243
826.276210,-10436.903782,-518.144159,-2757.943793
826.276530,-10732.986159,-592.164754,-3064.381992
826.276851,-10807.006753,-296.082377,-2451.505594
826.277172,-10807.006753,0.000000,-1685.410096
826.277493,-10214.842000,-296.082377,-689.485948
826.277813,-9918.759623,-888.247130,766.095498
826.278134,-9696.697840,-1184.329507,2528.115143
826.278455,-9474.636058,-592.164754,3370.820191
826.278776,-9178.553681,-592.164754,4290.134789
826.279097,-8438.347739,0.000000,4826.401637
826.279417,-8808.450710,-222.061783,4290.134789
826.279738,-8364.327145,518.144159,4443.353888
826.280059,-8660.409521,-814.226536,1532.190996
826.280380,-9030.512492,-1110.308913,76.609550
826.280700,-8956.491898,-1110.308913,-1532.190996
826.281021,-9992.780217,-1332.370696,-2221.676944
826.281342,-9474.636058,-1036.288319,-2068.457845
826.281663,-10584.944971,-888.247130,-2145.067394
826.281983,-10362.883188,74.020594,-1455.581446
826.282304,-10214.842000,814.226536,-383.047749
826.282625,-10436.903782,814.226536,1532.190996
826.282946,-10066.800811,666.185348,4213.525239
826.283266,-9474.636058,-1184.329507,4596.572988
826.283587,-9696.697840,-1184.329507,5439.278036
826.283908,-9030.512492,-1110.308913,5592.497135
826.284229,-8808.450710,-666.185348,5975.544884
826.284550,-8290.306550,0.000000,5056.230287
826.284870,-8586.388927,-296.082377,3064.381992
826.285191,-8586.388927,-888.247130,919.314598
826.285512,-9030.512492,-888.247130,-1302.362347
826.285833,-9030.512492,-888.247130,-1072.533697
826.286153,-10584.944971,-222.061783,-2681.334243
826.286474,-10658.965565,0.000000,-2604.724693
826.286795,-11177.109724,-592.164754,-2374.896044
826.287116,-11621.233289,-370.102971,-1685.410096
826.287436,-11103.089130,296.082377,459.657299
826.287757,-10436.903782,0.000000,1532.190996
826.288078,-10066.800811,-888.247130,2681.334243
826.288399,-9474.636058,-1258.350101,3447.429741
826.288720,-9252.574275,-1628.453072,4136.915689
826.289040,-8438.347739,-1036.288319,4443.353888
826.289361,-8364.327145,-518.144159,3907.087040
826.289682,-8142.265362,0.000000,3140.991542
826.290003,-8364.327145,-222.061783,1685.410096
826.290323,-8660.409521,-296.082377,536.266849
826.290644,-9104.533087,-444.123565,-995.924147
826.290965,-9770.718434,-592.164754,-2374.896044
826.291286,-10362.883188,222.061783,-2757.943793
826.291606,-11029.068536,148.041188,-2451.505594
826.291927,-11103.089130,222.061783,-2451.505594
826.292248,-10807.006753,888.247130,-1532.190996
826.292569,-10510.924376,814.226536,0.000000
826.292889,-10140.821405,592.164754,1685.410096
826.293210,-9548.656652,-222.061783,2834.553343
826.293531,-9400.615463,-740.205942,3907.087040
826.293852,-8956.491898,-518.144159,4749.792088
826.294173,-8438.347739,-740.205942,4903.011187
826.294493,-8438.347739,-888.247130,4366.744339
826.294814,-7476.080014,-1184.329507,2834.553343
826.295135,-8660.409521,-962.267725,1532.190996
826.295456,-8882.471304,-740.205942,-306.438199
826.295776,-9252.574275,-592.164754,-1532.190996
826.296097,-9770.718434,-666.185348,-2374.896044
826.296418,-10288.862594,-148.041188,-2298.286494
826.296739,-10955.047942,-296.082377,-1991.848295
826.297059,-11103.089130,0.000000,-1608.800546
826.297380,-10881.027347,0.000000,-536.266849
826.297701,-9992.780217,-148.041188,1302.362347
826.298022,-10140.821405,-592.164754,2451.505594
826.298342,-9770.718434,-1036.288319,3753.867940
826.298663,-9326.594869,-1258.350101,4826.401637
826.298984,-8882.471304,-222.061783,4826.401637
826.299305,-8364.327145,-814.226536,4903.011187
826.299626,-8882.471304,-592.164754,4366.744339
826.299946,-8586.388927,148.041188,3524.039291
826.300267,-9252.574275,-370.102971,1532.190996
826.300588,-9474.636058,0.000000,842.705048
826.300909,-9474.636058,0.000000,-1149.143247
826.301229,-10362.883188,0.000000,-2298.286494
826.301550,-10584.944971,740.205942,-2221.676944
826.301871,-11399.171507,666.185348,-2298.286494
826.302192,-10584.944971,1110.308913,-1991.848295
826.302512,-10584.944971,1406.391290,-459.657299
826.302833,-10436.903782,1258.350101,995.924147
826.303154,-9770.718434,148.041188,3064.381992
826.303475,-9474.636058,-1332.370696,3600.648841
826.303795,-9030.512492,-1258.350101,4366.744339
826.304116,-8808.450710,-888.247130,4673.182538
826.304437,-8438.347739,-222.061783,5132.839837
826.304758,-8068.244768,-592.164754,4136.915689
826.305079,-8142.265362,-592.164754,2604.724693
826.305399,-9104.533087,-962.267725,612.876398
826.305720,-9400.615463,-1110.308913,-919.314598
826.306041,-10362.883188,-814.226536,-1302.362347
826.306362,-10066.800811,-518.144159,-3064.381992
826.306682,-10436.903782,0.000000,-2987.772442
