#time,accel_x,accel_y,accel_z
923.122420,-9696.697840,0.000000,1149.143247
923.122741,-9548.656652,-370.102971,995.924147
923.123062,-9474.636058,-296.082377,1149.143247
923.123384,-9548.656652,-296.082377,919.314598
923.123705,-9474.636058,-370.102971,1302.362347
923.124026,-9474.636058,222.061783,766.095498
923.124347,-9474.636058,-296.082377,1072.533697
923.124668,-9622.677246,-370.102971,1149.143247
923.124989,-9548.656652,-222.061783,842.705048
923.125310,-9400.615463,0.000000,919.314598
923.125632,-9474.636058,-222.061783,842.705048
923.125953,-9770.718434,-296.082377,1072.533697
923.126274,-9622.677246,-148.041188,842.705048
923.126595,-9696.697840,-666.185348,919.314598
923.126916,-9474.636058,-222.061783,536.266849
923.127237,-9474.636058,-370.102971,995.924147
923.127559,-10066.800811,-592.164754,766.095498
923.127880,-9474.636058,-222.061783,919.314598
923.128201,-9918.759623,-444.123565,612.876398
923.128522,-9770.718434,-444.123565,995.924147
923.128843,-9770.718434,-518.144159,1225.752797
923.129164,-9770.718434,-370.102971,1072.533697
923.129485,-9474.636058,-444.123565,1378.971896
923.129807,-9474.636058,-148.041188,919.314598
923.130128,-9474.636058,-296.082377,1302.362347
923.130449,-9622.677246,-666.185348,995.924147
923.130770,-9548.656652,-888.247130,689.485948
923.131091,-9622.677246,-888.247130,612.876398
923.131412,-9622.677246,-962.267725,536.266849
923.131734,-9696.697840,-740.205942,459.657299
923.132055,-9696.697840,-962.267725,536.266849
923.132376,-9030.512492,-1184.329507,0.000000
923.132697,-9844.739029,-740.205942,0.000000
923.133018,-9548.656652,-592.164754,0.000000
923.133339,-9548.656652,-814.226536,0.000000
923.133661,-10214.842000,0.000000,612.876398
923.133982,-9548.656652,-1480.411884,-229.828649
923.134303,-9178.553681,-1554.432478,-612.876398
923.134624,-9326.594869,-2368.659014,-842.705048
923.134945,-9252.574275,-2368.659014,-1072.533697
923.135266,-9178.553681,-2442.679609,-1072.533697
923.135587,-9400.615463,-2368.659014,-1762.019645
923.135909,-9252.574275,-2516.700203,-2451.505594
923.136230,-9400.615463,-2738.761985,-2528.115143
923.136551,-9770.718434,-2368.659014,-1991.848295
923.136872,-9622.677246,-2960.823768,-2987.772442
923.137193,-9548.656652,-3552.988522,-3677.258390
923.137514,-9548.656652,-3552.988522,-4060.306139
923.137836,-9030.512492,-4071.132681,-3217.601092
923.138157,-9474.636058,-3923.091493,-3830.477490
923.138478,-9548.656652,-3849.070898,-3524.039291
923.138799,-9548.656652,-4071.132681,-2987.772442
923.139120,-9622.677246,-4515.256246,-2834.553343
923.139441,-9400.615463,-4663.297435,-2604.724693
923.139762,-9548.656652,-4663.297435,-2451.505594
923.140084,-9622.677246,-4737.318029,-1991.848295
923.140405,-9104.533087,-4293.194464,-1991.848295
923.140726,-9252.574275,-4071.132681,-1608.800546
923.141047,-9400.615463,-3701.029710,-2681.334243
923.141368,-9474.636058,-3701.029710,-2604.724693
923.141689,-9622.677246,-3404.947333,-2145.067394
923.142011,-9474.636058,-3330.926739,-1225.752797
923.142332,-9548.656652,-3182.885551,-1762.019645
923.142653,-9918.759623,-3108.864956,-995.924147
923.142974,-10140.821405,-3182.885551,-229.828649
923.143295,-10288.862594,-3034.844362,612.876398
923.143616,-9918.759623,-3034.844362,1455.581446
923.143938,-9770.718434,-2886.803174,1532.190996
923.144259,-10214.842000,-2738.761985,1608.800546
923.144580,-9622.677246,-2886.803174,1532.190996
923.144901,-9548.656652,-2146.597232,536.266849
923.145222,-9030.512492,-2960.823768,-306.438199
923.145543,-8882.471304,-2812.782580,-842.705048
923.145864,-9030.512492,-2960.823768,-1149.143247
923.146186,-9252.574275,-1998.556043,-459.657299
923.146507,-9696.697840,-2812.782580,-383.047749
923.146828,-10288.862594,-3108.864956,-229.828649
923.147149,-10436.903782,-3478.967927,-153.219100
923.147470,-10288.862594,-3330.926739,-229.828649
923.147791,-10140.821405,-3330.926739,-229.828649
923.148113,-9844.739029,-2664.741391,153.219100
923.148434,-9622.677246,-2368.659014,0.000000
923.148755,-9252.574275,-1850.514855,153.219100
923.149076,-9770.718434,-814.226536,153.219100
923.149397,-9252.574275,-518.144159,689.485948
923.149718,-9252.574275,-592.164754,919.314598
923.150039,-8956.491898,-370.102971,0.000000
923.150361,-9030.512492,-888.247130,-1608.800546
923.150682,-8808.450710,-1406.391290,-1608.800546
923.151003,-8734.430116,-1702.473667,-2757.943793
923.151324,-8956.491898,-1924.535449,-3217.601092
923.151645,-9548.656652,-1998.556043,-3217.601092
923.151966,-9992.780217,-2220.617826,-3447.429741
923.152288,-10436.903782,-1850.514855,-3370.820191
923.152609,-10510.924376,-1480.411884,-3830.477490
923.152930,-10214.842000,-962.267725,-2681.334243
923.153251,-11103.089130,-1406.391290,-1532.190996
923.153572,-10510.924376,-1110.308913,-842.705048
923.153893,-10362.883188,-1480.411884,0.000000
923.154215,-9992.780217,-2294.638420,-766.095498
923.154536,-9030.512492,-1036.288319,-76.609550
923.154857,-8586.388927,-962.267725,-2221.676944
923.155178,-8068.244768,-740.205942,-2681.334243
923.155499,-7624.121203,0.000000,-2834.553343
923.155820,-8290.306550,-1184.329507,-3370.820191
923.156141,-9252.574275,-2368.659014,-3370.820191
923.156463,-9992.780217,-3108.864956,-3447.429741
923.156784,-10436.903782,-3182.885551,-1991.848295
923.157105,-10955.047942,-2072.576638,-306.438199
923.157426,-10881.027347,-1924.535449,459.657299
923.157747,-11473.192101,-1406.391290,1762.019645
923.158068,-11103.089130,-3108.864956,0.000000
923.158390,-9770.718434,-2738.761985,-689.485948
923.158711,-9252.574275,-2516.700203,-2221.676944
923.159032,-8956.491898,-2368.659014,-612.876398
923.159353,-7698.141797,-2072.576638,-689.485948
923.159674,-8290.306550,-2442.679609,-1838.629195
923.159995,-7698.141797,-2220.617826,-1991.848295
923.160316,-8808.450710,-1702.473667,-1225.752797
923.160638,-10436.903782,-1406.391290,1532.190996
923.160959,-10955.047942,-2590.720797,1838.629195
923.161280,-11029.068536,-4293.194464,612.876398
923.161601,-10362.883188,-4071.132681,-229.828649
923.161922,-9992.780217,-3552.988522,-306.438199
923.162243,-10362.883188,-3404.947333,459.657299
923.162565,-9696.697840,-3478.967927,-612.876398
923.162886,-8216.285956,-2960.823768,-1838.629195
923.163207,-8660.409521,-2072.576638,-1991.848295
923.163528,-8660.409521,-1628.453072,0.000000
923.163849,-10066.800811,-2960.823768,1532.190996
923.164170,-9992.780217,-4367.215058,383.047749
923.164492,-8734.430116,-4071.132681,-1762.019645
923.164813,-8216.285956,-4293.194464,-2298.286494
923.165134,-7846.182985,-3330.926739,-1838.629195
923.165455,-9844.739029,-3849.070898,-1762.019645
923.165776,-7624.121203,-2738.761985,-3370.820191
923.166097,-8808.450710,-2738.761985,-4366.744339
923.166418,-9918.759623,-2294.638420,-2451.505594
923.166740,-11177.109724,-2146.597232,-536.266849
923.167061,-11843.295072,-2072.576638,2374.896044
923.167382,-10658.965565,-1480.411884,153.219100
923.167703,-9474.636058,-1924.535449,-383.047749
923.168024,-10214.842000,-2294.638420,459.657299
923.168345,-9474.636058,-2146.597232,153.219100
923.168667,-8142.265362,-222.061783,689.485948
923.168988,-9178.553681,518.144159,995.924147
923.169309,-8956.491898,592.164754,1378.971896
923.169630,-9400.615463,0.000000,536.266849
923.169951,-8808.450710,-1184.329507,-536.266849
923.170272,-9844.739029,-1480.411884,-383.047749
923.170593,-9178.553681,-1628.453072,-689.485948
923.170915,-9474.636058,-1480.411884,-1608.800546
923.171236,-9474.636058,0.000000,-3140.991542
923.171557,-10955.047942,0.000000,-383.047749
923.171878,-11103.089130,222.061783,153.219100
923.172199,-10955.047942,148.041188,-536.266849
923.172520,-11325.150913,-370.102971,-459.657299
923.172842,-10362.883188,-518.144159,612.876398
923.173163,-9770.718434,-962.267725,1302.362347
923.173484,-9844.739029,148.041188,3294.210641
923.173805,-9252.574275,0.000000,3447.429741
923.174126,-8512.368333,0.000000,3294.210641
923.174447,-9030.512492,-888.247130,1685.410096
923.174769,-8364.327145,296.082377,536.266849
923.175090,-8734.430116,1850.514855,1532.190996
923.175411,-8364.327145,1776.494261,612.876398
923.175732,-8068.244768,0.000000,-306.438199
923.176053,-8290.306550,0.000000,-612.876398
923.176374,-10362.883188,-370.102971,1225.752797
923.176695,-11251.130318,-296.082377,2911.162892
923.177017,-11103.089130,-592.164754,2604.724693
923.177338,-10436.903782,296.082377,2987.772442
923.177659,-10288.862594,0.000000,2451.505594
923.177980,-9474.636058,0.000000,3140.991542
923.178301,-9178.553681,370.102971,3294.210641
923.178621,-8956.491898,370.102971,2298.286494
923.178942,-8290.306550,-518.144159,1378.971896
923.179263,-7846.182985,-74.020594,919.314598
923.179584,-7846.182985,370.102971,459.657299
923.179905,-9104.533087,1406.391290,995.924147
923.180226,-9104.533087,592.164754,689.485948
923.180547,-9252.574275,74.020594,383.047749
923.180868,-10436.903782,-740.205942,689.485948
923.181189,-11029.068536,-888.247130,2221.676944
923.181510,-10732.986159,-1628.453072,1455.581446
923.181831,-10732.986159,-740.205942,612.876398
923.182151,-10658.965565,-296.082377,-306.438199
923.182472,-9178.553681,222.061783,-612.876398
923.182793,-8956.491898,-1184.329507,-612.876398
923.183114,-9326.594869,-592.164754,0.000000
923.183435,-9696.697840,-148.041188,766.095498
923.183756,-10140.821405,0.000000,1532.190996
923.184077,-9474.636058,962.267725,1455.581446
923.184398,-10584.944971,962.267725,1915.238745
923.184719,-9474.636058,592.164754,1532.190996
923.185040,-8660.409521,-888.247130,612.876398
923.185361,-9326.594869,-1332.370696,-1685.410096
923.185682,-9622.677246,-1776.494261,-689.485948
923.186002,-10140.821405,-1258.350101,0.000000
923.186323,-10288.862594,-1258.350101,766.095498
923.186644,-9770.718434,-888.247130,383.047749
923.186965,-10732.986159,-740.205942,459.657299
923.187286,-9770.718434,-1332.370696,153.219100
923.187607,-10066.800811,-888.247130,1072.533697
923.187928,-10362.883188,370.102971,2145.067394
923.188249,-9474.636058,74.020594,2681.334243
923.188570,-9548.656652,-296.082377,2757.943793
923.188891,-9474.636058,-1110.308913,1532.190996
923.189212,-8068.244768,-1036.288319,842.705048
923.189532,-7920.203579,-1184.329507,383.047749
923.189853,-7624.121203,-740.205942,0.000000
923.190174,-8142.265362,-1184.329507,153.219100
923.190495,-8808.450710,-814.226536,1455.581446
923.190816,-9770.718434,-2220.617826,1762.019645
923.191137,-9696.697840,-2516.700203,1608.800546
923.191458,-10584.944971,-1998.556043,1762.019645
923.191779,-10881.027347,-962.267725,1762.019645
923.192100,-9474.636058,-518.144159,1608.800546
923.192421,-8956.491898,222.061783,3370.820191
923.192742,-9918.759623,592.164754,2451.505594
923.193063,-10362.883188,-370.102971,2528.115143
923.193383,-9474.636058,-370.102971,2451.505594
923.193704,-9474.636058,-592.164754,1608.800546
923.194025,-9252.574275,0.000000,1762.019645
923.194346,-8660.409521,0.000000,2068.457845
923.194667,-8364.327145,-370.102971,1149.143247
923.194988,-8956.491898,592.164754,459.657299
923.195309,-10140.821405,296.082377,1762.019645
923.195630,-9844.739029,592.164754,1225.752797
923.195951,-10807.006753,370.102971,842.705048
923.196272,-10510.924376,1480.411884,153.219100
923.196593,-8882.471304,1480.411884,76.609550
923.196913,-9696.697840,518.144159,689.485948
923.197234,-9918.759623,296.082377,1302.362347
923.197555,-10214.842000,0.000000,689.485948
923.197876,-10732.986159,-370.102971,1225.752797
923.198197,-9548.656652,-148.041188,612.876398
923.198518,-9178.553681,666.185348,842.705048
923.198839,-9474.636058,740.205942,1455.581446
923.199160,-8882.471304,74.020594,842.705048
923.199481,-8216.285956,-74.020594,0.000000
923.199802,-9030.512492,-592.164754,-306.438199
923.200123,-9400.615463,74.020594,995.924147
923.200444,-10955.047942,444.123565,1838.629195
923.200764,-10807.006753,1776.494261,1838.629195
923.201085,-10288.862594,1554.432478,842.705048
923.201406,-9474.636058,148.041188,-153.219100
923.201727,-9474.636058,-518.144159,0.000000
923.202048,-9770.718434,222.061783,1302.362347
923.202369,-10362.883188,-1480.411884,1991.848295
923.202690,-9918.759623,-1924.535449,1838.629195
923.203011,-9400.615463,-2368.659014,1225.752797
923.203332,-8808.450710,-1480.411884,459.657299
923.203653,-9474.636058,-444.123565,1838.629195
923.203974,-9104.533087,-592.164754,1532.190996
923.204294,-8364.327145,-370.102971,689.485948
923.204615,-9622.677246,0.000000,1762.019645
923.204936,-10066.800811,-592.164754,1685.410096
923.205257,-10214.842000,-1184.329507,1838.629195
923.205578,-10288.862594,0.000000,995.924147
923.205899,-9770.718434,148.041188,0.000000
923.206220,-9030.512492,740.205942,-536.266849
923.206541,-9474.636058,740.205942,536.266849
923.206862,-9622.677246,814.226536,1455.581446
923.207183,-10732.986159,-888.247130,2068.457845
923.207504,-10140.821405,-2368.659014,1072.533697
923.207825,-9474.636058,-1850.514855,459.657299
923.208145,-9474.636058,-1184.329507,536.266849
923.208466,-9474.636058,-296.082377,1532.190996
923.208787,-8586.388927,-1184.329507,766.095498
923.209108,-9178.553681,-1110.308913,612.876398
923.209429,-9474.636058,-1924.535449,306.438199
923.209750,-9918.759623,-1924.535449,1762.019645
923.210071,-10288.862594,-1184.329507,2145.067394
923.210392,-10807.006753,74.020594,2834.553343
923.210713,-9622.677246,0.000000,2145.067394
923.211034,-8882.471304,-1406.391290,2145.067394
923.211355,-9252.574275,-1850.514855,1225.752797
923.211675,-9548.656652,-2072.576638,612.876398
923.211996,-9548.656652,-962.267725,612.876398
923.212317,-8586.388927,-1036.288319,-153.219100
923.212638,-7698.141797,0.000000,-1762.019645
923.212959,-8808.450710,370.102971,-1378.971896
923.213280,-9992.780217,814.226536,-1225.752797
923.213601,-9030.512492,-296.082377,0.000000
923.213922,-10436.903782,-592.164754,1455.581446
923.214243,-10658.965565,-1110.308913,2451.505594
923.214564,-11103.089130,-1554.432478,2451.505594
923.214885,-11177.109724,-740.205942,2451.505594
923.215206,-9992.780217,74.020594,995.924147
923.215526,-8734.430116,888.247130,0.000000
923.215847,-8734.430116,1184.329507,-229.828649
923.216168,-8808.450710,1258.350101,153.219100
923.216489,-9696.697840,296.082377,383.047749
923.216810,-10214.842000,-1184.329507,766.095498
923.217131,-9770.718434,-962.267725,0.000000
923.217452,-10584.944971,-666.185348,995.924147
923.217773,-9770.718434,518.144159,306.438199
923.218094,-9104.533087,814.226536,612.876398
923.218415,-9178.553681,518.144159,-536.266849
923.218736,-9400.615463,666.185348,-76.609550
923.219056,-10732.986159,148.041188,612.876398
923.219377,-10732.986159,0.000000,2451.505594
923.219698,-11177.109724,-814.226536,2528.115143
923.220019,-10362.883188,-444.123565,1915.238745
923.220340,-10066.800811,-1110.308913,2221.676944
923.220661,-9474.636058,-370.102971,2451.505594
923.220982,-9992.780217,0.000000,2757.943793
923.221303,-9918.759623,0.000000,3064.381992
923.221624,-9326.594869,-370.102971,1532.190996
923.221945,-8660.409521,-222.061783,459.657299
923.222266,-9104.533087,296.082377,536.266849
923.222587,-9030.512492,222.061783,919.314598
923.222907,-8364.327145,0.000000,1838.629195
923.223228,-9178.553681,-888.247130,842.705048
923.223549,-9474.636058,-444.123565,1685.410096
923.223870,-10510.924376,-592.164754,2757.943793
923.224191,-10510.924376,296.082377,2911.162892
923.224512,-10436.903782,666.185348,3370.820191
923.224833,-9474.636058,222.061783,1762.019645
923.225154,-8290.306550,-370.102971,919.314598
923.225475,-8142.265362,-370.102971,842.705048
923.225796,-9252.574275,74.020594,766.095498
923.226117,-9844.739029,-740.205942,1991.848295
923.226437,-9696.697840,-888.247130,919.314598
923.226758,-9030.512492,0.000000,-76.609550
923.227079,-10066.800811,222.061783,766.095498
923.227400,-9918.759623,-1036.288319,1762.019645
923.227721,-8956.491898,-1036.288319,76.609550
923.228042,-9992.780217,-2146.597232,-459.657299
923.228363,-9104.533087,-814.226536,306.438199
923.228684,-10732.986159,-888.247130,1838.629195
923.229005,-10288.862594,-666.185348,766.095498
923.229326,-9992.780217,518.144159,229.828649
923.229647,-9326.594869,1184.329507,842.705048
923.229968,-9548.656652,-1480.411884,842.705048
923.230288,-8586.388927,592.164754,612.876398
923.230609,-11251.130318,74.020594,2145.067394
923.230930,-9918.759623,-1184.329507,1149.143247
923.231251,-8142.265362,-1036.288319,229.828649
923.231572,-8882.471304,-740.205942,-536.266849
923.231893,-8956.491898,-1036.288319,-842.705048
923.232214,-8438.347739,-666.185348,-383.047749
923.232535,-9252.574275,0.000000,-383.047749
923.232856,-8438.347739,148.041188,0.000000
923.233177,-10955.047942,-666.185348,1608.800546
923.233498,-11325.150913,-1332.370696,2757.943793
923.233818,-11473.192101,-1702.473667,1915.238745
923.234139,-11177.109724,-1480.411884,766.095498
923.234460,-9622.677246,444.123565,1915.238745
923.234781,-9474.636058,0.000000,1608.800546
923.235102,-9474.636058,592.164754,1838.629195
923.235423,-9326.594869,-1184.329507,1149.143247
923.235744,-7920.203579,-1406.391290,0.000000
923.236065,-8882.471304,-1406.391290,-1072.533697
923.236386,-9030.512492,592.164754,0.000000
923.236707,-9474.636058,0.000000,766.095498
923.237028,-9178.553681,-74.020594,919.314598
923.237349,-9770.718434,-1036.288319,995.924147
923.237669,-10288.862594,-2072.576638,1072.533697
923.237990,-10732.986159,-2220.617826,2374.896044
923.238311,-11769.274478,-1776.494261,2987.772442
923.238632,-10066.800811,148.041188,1378.971896
923.238953,-8808.450710,1480.411884,1149.143247
923.239274,-9104.533087,1036.288319,995.924147
923.239595,-9252.574275,888.247130,3140.991542
923.239916,-11251.130318,222.061783,2911.162892
923.240237,-10807.006753,-296.082377,3370.820191
923.240558,-10881.027347,-1184.329507,2145.067394
923.240879,-10362.883188,148.041188,2298.286494
923.241200,-9474.636058,-222.061783,612.876398
923.241520,-7550.100608,1480.411884,-153.219100
923.241841,-7698.141797,148.041188,-1991.848295
923.242162,-6809.894666,74.020594,-2451.505594
923.242483,-9474.636058,0.000000,-766.095498
923.242804,-10436.903782,-962.267725,1225.752797
923.243125,-10955.047942,0.000000,2145.067394
923.243446,-11177.109724,74.020594,2451.505594
923.243767,-10881.027347,814.226536,2298.286494
923.244088,-9622.677246,444.123565,2451.505594
923.244409,-10288.862594,74.020594,2987.772442
923.244730,-9326.594869,-814.226536,2681.334243
923.245050,-9252.574275,-1702.473667,766.095498
923.245371,-8512.368333,-1850.514855,0.000000
923.245692,-8142.265362,74.020594,-842.705048
923.246013,-8734.430116,962.267725,383.047749
923.246334,-8660.409521,518.144159,766.095498
923.246655,-9548.656652,-222.061783,0.000000
923.246976,-10140.821405,-962.267725,766.095498
923.247297,-11399.171507,-1406.391290,2145.067394
923.247618,-11325.150913,-888.247130,2834.553343
923.247939,-11103.089130,222.061783,3064.381992
923.248260,-10214.842000,444.123565,1532.190996
923.248581,-8438.347739,740.205942,919.314598
923.248901,-8512.368333,-148.041188,612.876398
923.249222,-9030.512492,0.000000,1455.581446
923.249543,-9622.677246,-370.102971,2298.286494
923.249864,-9622.677246,-370.102971,1915.238745
923.250185,-9474.636058,-592.164754,766.095498
923.250506,-9474.636058,444.123565,842.705048
923.250827,-9104.533087,-296.082377,2604.724693
923.251148,-9252.574275,-962.267725,689.485948
923.251469,-8734.430116,-1628.453072,-229.828649
923.251790,-9548.656652,-1850.514855,0.000000
923.252111,-10362.883188,-1554.432478,2374.896044
923.252431,-10881.027347,-888.247130,1302.362347
923.252752,-10288.862594,888.247130,1072.533697
923.253073,-9696.697840,1702.473667,766.095498
923.253394,-8734.430116,888.247130,229.828649
923.253715,-9918.759623,518.144159,1915.238745
923.254036,-10214.842000,-370.102971,2374.896044
923.254357,-9548.656652,-962.267725,1915.238745
923.254678,-9326.594869,-1702.473667,536.266849
923.254999,-8068.244768,518.144159,306.438199
923.255320,-9326.594869,0.000000,-229.828649
923.255641,-9030.512492,296.082377,536.266849
923.255962,-8364.327145,-1110.308913,0.000000
923.256282,-9326.594869,-1850.514855,-689.485948
923.256603,-10584.944971,-2368.659014,766.095498
923.256924,-11325.150913,-2294.638420,1991.848295
923.257245,-10807.006753,-1110.308913,1991.848295
923.257566,-10510.924376,-148.041188,1149.143247
923.257887,-10066.800811,296.082377,306.438199
923.258208,-9030.512492,-518.144159,459.657299
923.258529,-8808.450710,-370.102971,689.485948
923.258850,-9104.533087,-296.082377,1685.410096
923.259171,-9326.594869,-518.144159,612.876398
923.259492,-9696.697840,-1480.411884,1378.971896
923.259812,-9104.533087,0.000000,766.095498
923.260133,-9992.780217,444.123565,1991.848295
923.260454,-9770.718434,0.000000,1991.848295
923.260775,-9474.636058,-1184.329507,1302.362347
923.261096,-10066.800811,-1332.370696,153.219100
923.261417,-10288.862594,-1110.308913,995.924147
923.261738,-10436.903782,-370.102971,1455.581446
923.262059,-10140.821405,-666.185348,2528.115143
923.262380,-10140.821405,1036.288319,1072.533697
923.262701,-9474.636058,962.267725,1915.238745
923.263022,-9474.636058,296.082377,2298.286494
923.263343,-10584.944971,0.000000,3524.039291
923.263663,-9918.759623,-148.041188,3524.039291
923.263984,-9992.780217,0.000000,2757.943793
923.264305,-8660.409521,74.020594,1532.190996
923.264626,-8068.244768,962.267725,0.000000
923.264947,-8364.327145,740.205942,-689.485948
923.265268,-8364.327145,296.082377,-536.266849
923.265589,-8438.347739,0.000000,-383.047749
923.265910,-10214.842000,-1036.288319,689.485948
923.266231,-10881.027347,-1628.453072,2681.334243
923.266552,-11177.109724,-1480.411884,1991.848295
923.266873,-11325.150913,0.000000,2068.457845
923.267193,-9992.780217,296.082377,1302.362347
923.267514,-9326.594869,-222.061783,2834.553343
923.267835,-8660.409521,-370.102971,1302.362347
923.268156,-9030.512492,0.000000,1149.143247
923.268477,-9696.697840,-1554.432478,1378.971896
923.268798,-8660.409521,-1554.432478,995.924147
923.269119,-8956.491898,-666.185348,536.266849
923.269440,-9030.512492,518.144159,536.266849
923.269761,-9252.574275,0.000000,1302.362347
923.270082,-8734.430116,-222.061783,459.657299
923.270403,-9400.615463,-148.041188,1072.533697
923.270724,-11177.109724,-888.247130,536.266849
923.271044,-10584.944971,-888.247130,919.314598
923.271365,-10510.924376,-222.061783,536.266849
923.271686,-10362.883188,1406.391290,459.657299
923.272007,-9474.636058,1258.350101,0.000000
923.272328,-9474.636058,518.144159,842.705048
923.272649,-9474.636058,-222.061783,1378.971896
923.272970,-9992.780217,-1110.308913,2068.457845
923.273291,-9844.739029,-1628.453072,2221.676944
923.273612,-9844.739029,-1480.411884,1685.410096
923.273933,-9030.512492,666.185348,842.705048
923.274254,-9104.533087,1184.329507,1378.971896
923.274574,-8660.409521,1702.473667,612.876398
923.274895,-8734.430116,-888.247130,76.609550
923.275216,-10140.821405,-2294.638420,-612.876398
923.275537,-9844.739029,-2220.617826,689.485948
923.275858,-10510.924376,-2294.638420,3064.381992
923.276179,-10881.027347,-1036.288319,1685.410096
923.276500,-10955.047942,592.164754,1608.800546
923.276821,-9104.533087,370.102971,1225.752797
923.277139,-8808.450710,-148.041188,1225.752797
923.277460,-8734.430116,-814.226536,1378.971896
923.277781,-9178.553681,-1554.432478,1149.143247
923.278101,-8882.471304,-1036.288319,1225.752797
923.278422,-8290.306550,74.020594,842.705048
923.278743,-8438.347739,740.205942,1991.848295
923.279063,-9326.594869,1628.453072,2528.115143
923.279384,-10362.883188,-296.082377,3294.210641
923.279705,-9622.677246,-3256.906145,153.219100
923.280026,-8290.306550,-2072.576638,612.876398
923.280346,-12139.377449,-1850.514855,1302.362347
923.280667,-9918.759623,-666.185348,2374.896044
923.280988,-10436.903782,-518.144159,995.924147
923.281308,-10584.944971,1258.350101,1072.533697
923.281629,-7550.100608,-148.041188,-3140.991542
923.281950,-10214.842000,-148.041188,995.924147
923.282270,-9474.636058,518.144159,2834.553343
923.282591,-11029.068536,0.000000,1762.019645
923.282912,-10140.821405,-592.164754,1991.848295
923.283232,-8660.409521,-1184.329507,842.705048
923.283553,-9178.553681,-222.061783,0.000000
923.283874,-10732.986159,296.082377,1378.971896
923.284194,-8142.265362,74.020594,153.219100
923.284515,-8586.388927,370.102971,-1378.971896
923.284836,-10584.944971,-814.226536,-612.876398
923.285156,-10140.821405,74.020594,383.047749
923.285477,-11991.336260,-296.082377,1378.971896
923.285798,-11325.150913,962.267725,1072.533697
923.286118,-9918.759623,1258.350101,919.314598
923.286439,-10214.842000,0.000000,919.314598
923.286760,-9918.759623,74.020594,2374.896044
923.287080,-10732.986159,0.000000,2145.067394
923.287401,-9474.636058,-444.123565,2374.896044
923.287722,-8956.491898,74.020594,1149.143247
923.288042,-8068.244768,1554.432478,76.609550
923.288363,-8734.430116,962.267725,1072.533697
923.288684,-8438.347739,1036.288319,2451.505594
923.289005,-8290.306550,-814.226536,995.924147
923.289325,-8956.491898,-2368.659014,-229.828649
923.289646,-9770.718434,-740.205942,1302.362347
923.289967,-11029.068536,-1924.535449,2298.286494
923.290287,-10732.986159,-888.247130,1915.238745
923.290608,-10436.903782,296.082377,1225.752797
923.290929,-8956.491898,444.123565,536.266849
923.291249,-9696.697840,-1480.411884,1532.190996
923.291570,-9474.636058,74.020594,2221.676944
923.291891,-10362.883188,-518.144159,2451.505594
923.292211,-8956.491898,-444.123565,1915.238745
923.292532,-8586.388927,0.000000,1378.971896
923.292853,-9252.574275,518.144159,1225.752797
923.293173,-9104.533087,148.041188,1762.019645
923.293494,-8512.368333,-666.185348,1302.362347
923.293815,-8956.491898,-1924.535449,306.438199
923.294135,-9622.677246,-1628.453072,-689.485948
923.294456,-11177.109724,-1110.308913,1915.238745
923.294777,-11473.192101,-666.185348,2145.067394
923.295097,-11399.171507,518.144159,2068.457845
923.295418,-10807.006753,2294.638420,2528.115143
923.295739,-9474.636058,296.082377,306.438199
923.296059,-9622.677246,-666.185348,0.000000
923.296380,-9400.615463,-888.247130,1532.190996
923.296701,-9252.574275,-2146.597232,153.219100
923.297021,-8956.491898,-1776.494261,459.657299
923.297342,-8956.491898,-1776.494261,0.000000
923.297663,-9178.553681,-148.041188,689.485948
923.297984,-9770.718434,0.000000,1838.629195
923.298304,-8586.388927,-296.082377,1685.410096
923.298625,-9548.656652,-740.205942,1072.533697
923.298946,-9696.697840,-444.123565,919.314598
923.299266,-10288.862594,-1110.308913,1762.019645
923.299587,-9844.739029,-296.082377,0.000000
923.299908,-9474.636058,518.144159,0.000000
923.300228,-8882.471304,592.164754,-612.876398
923.300549,-8438.347739,74.020594,-766.095498
923.300870,-9104.533087,-592.164754,0.000000
923.301190,-10066.800811,-222.061783,1838.629195
923.301511,-10881.027347,-1924.535449,1915.238745
923.301832,-9622.677246,-1480.411884,2221.676944
923.302152,-9030.512492,-1850.514855,689.485948
923.302473,-9030.512492,222.061783,842.705048
923.302794,-9104.533087,0.000000,1149.143247
923.303114,-8734.430116,-666.185348,612.876398
923.303435,-8364.327145,-740.205942,0.000000
923.303756,-8586.388927,-2590.720797,-689.485948
923.304076,-9992.780217,-1850.514855,919.314598
923.304397,-10288.862594,-1480.411884,612.876398
923.304718,-10288.862594,-148.041188,459.657299
923.305038,-9992.780217,-148.041188,0.000000
923.305359,-8808.450710,-370.102971,306.438199
923.305680,-10066.800811,-444.123565,1302.362347
923.306000,-10584.944971,-296.082377,1915.238745
923.306321,-9844.739029,-1036.288319,1991.848295
923.306642,-9474.636058,-148.041188,1685.410096
923.306963,-9844.739029,740.205942,1378.971896
923.307283,-9770.718434,1480.411884,2221.676944
923.307604,-9474.636058,1036.288319,2298.286494
923.307925,-9474.636058,296.082377,306.438199
923.308245,-9474.636058,-740.205942,1225.752797
923.308566,-10436.903782,-1554.432478,2068.457845
923.308887,-10658.965565,-888.247130,1608.800546
923.309207,-10658.965565,444.123565,1225.752797
923.309528,-9696.697840,1258.350101,842.705048
923.309849,-8660.409521,1332.370696,383.047749
923.310169,-9474.636058,0.000000,229.828649
923.310490,-9622.677246,296.082377,1838.629195
923.310811,-10807.006753,-1924.535449,2145.067394
923.311131,-10140.821405,-888.247130,2451.505594
923.311452,-10066.800811,-370.102971,2221.676944
923.311773,-10140.821405,1036.288319,2374.896044
923.312093,-9474.636058,1480.411884,1608.800546
923.312414,-8512.368333,-222.061783,1225.752797
923.312735,-7624.121203,-518.144159,-229.828649
923.313055,-8438.347739,222.061783,76.609550
923.313376,-10066.800811,-296.082377,1532.190996
923.313697,-9400.615463,-370.102971,1302.362347
923.314017,-9918.759623,0.000000,689.485948
923.314338,-9548.656652,296.082377,383.047749
923.314659,-9326.594869,-148.041188,76.609550
923.314979,-10288.862594,-666.185348,1149.143247
923.315300,-10436.903782,-518.144159,1915.238745
923.315621,-9696.697840,-1110.308913,1149.143247
923.315942,-9844.739029,-1036.288319,1302.362347
923.316262,-9918.759623,444.123565,229.828649
923.316583,-9474.636058,1258.350101,229.828649
923.316904,-8956.491898,1702.473667,1532.190996
923.317224,-8438.347739,888.247130,229.828649
923.317545,-8586.388927,148.041188,-229.828649
923.317866,-10362.883188,0.000000,689.485948
923.318186,-10140.821405,-296.082377,1532.190996
923.318507,-10066.800811,0.000000,1915.238745
923.318828,-10881.027347,0.000000,1838.629195
923.319148,-9326.594869,74.020594,689.485948
923.319469,-9474.636058,-740.205942,229.828649
923.319790,-10140.821405,-518.144159,1378.971896
923.320110,-9696.697840,-1184.329507,995.924147
923.320431,-9696.697840,-1702.473667,1149.143247
923.320752,-9474.636058,-2442.679609,459.657299
923.321072,-8808.450710,-1258.350101,0.000000
923.321393,-9474.636058,-740.205942,919.314598
923.321714,-9178.553681,-592.164754,1608.800546
923.322034,-8660.409521,-888.247130,459.657299
923.322355,-9474.636058,-222.061783,1378.971896
923.322676,-10436.903782,-1480.411884,2068.457845
923.322996,-10214.842000,-1406.391290,2451.505594
923.323317,-10214.842000,-1998.556043,2451.505594
923.323638,-9548.656652,-1036.288319,842.705048
923.323958,-8808.450710,-222.061783,383.047749
923.324279,-9178.553681,-888.247130,0.000000
923.324600,-8586.388927,296.082377,536.266849
923.324921,-10066.800811,0.000000,1302.362347
923.325241,-10066.800811,-1258.350101,919.314598
923.325562,-9252.574275,-1332.370696,229.828649
923.325883,-9548.656652,-740.205942,0.000000
923.326203,-9474.636058,222.061783,1685.410096
923.326524,-9252.574275,148.041188,1762.019645
923.326845,-9178.553681,-592.164754,1302.362347
923.327165,-9696.697840,-1184.329507,1302.362347
923.327486,-9104.533087,-814.226536,2451.505594
923.327807,-10288.862594,-1702.473667,1455.581446
923.328127,-10584.944971,-444.123565,1149.143247
923.328448,-9770.718434,962.267725,689.485948
923.328769,-9400.615463,592.164754,1685.410096
923.329089,-9992.780217,74.020594,995.924147
923.329410,-10288.862594,-740.205942,1762.019645
923.329731,-10807.006753,-1924.535449,1532.190996
923.330051,-10362.883188,-1702.473667,1149.143247
923.330372,-8808.450710,-1184.329507,-919.314598
923.330693,-8808.450710,1406.391290,-1072.533697
923.331013,-9104.533087,1036.288319,153.219100
923.331334,-7624.121203,444.123565,76.609550
923.331655,-9770.718434,-296.082377,0.000000
923.331975,-9992.780217,-370.102971,1455.581446
923.332296,-10732.986159,-1184.329507,1991.848295
923.332617,-10955.047942,-222.061783,2604.724693
923.332937,-9696.697840,518.144159,1915.238745
923.333258,-8290.306550,1332.370696,-153.219100
923.333579,-8068.244768,666.185348,-153.219100
923.333900,-7031.956449,518.144159,229.828649
923.334220,-9326.594869,0.000000,1302.362347
923.334541,-10362.883188,-1702.473667,2221.676944
923.334862,-9844.739029,-1110.308913,2221.676944
923.335182,-10881.027347,-444.123565,2068.457845
923.335503,-10436.903782,1184.329507,2451.505594
923.335824,-9548.656652,1850.514855,2911.162892
923.336144,-9474.636058,74.020594,2145.067394
923.336465,-8660.409521,-888.247130,689.485948
923.336786,-8586.388927,-1776.494261,383.047749
923.337106,-9030.512492,-2072.576638,766.095498
923.337427,-8956.491898,-1036.288319,919.314598
923.337748,-9474.636058,1036.288319,1378.971896
923.338068,-8734.430116,1480.411884,1302.362347
923.338389,-9474.636058,1628.453072,1762.019645
923.338710,-10584.944971,1184.329507,3983.696590
923.339030,-11917.315666,-1258.350101,2987.772442
923.339351,-10510.924376,-962.267725,3524.039291
923.339672,-10362.883188,-1702.473667,1838.629195
923.339992,-9622.677246,222.061783,1225.752797
923.340313,-10140.821405,370.102971,1225.752797
923.340634,-8586.388927,962.267725,76.609550
923.340954,-9548.656652,444.123565,153.219100
923.341275,-9326.594869,0.000000,0.000000
923.341596,-10955.047942,-1036.288319,1072.533697
923.341916,-10881.027347,-592.164754,2068.457845
923.342237,-11251.130318,-74.020594,2298.286494
923.342558,-10066.800811,1036.288319,1302.362347
923.342879,-10140.821405,222.061783,1302.362347
923.343199,-8734.430116,0.000000,1072.533697
923.343520,-9844.739029,0.000000,1455.581446
923.343841,-9770.718434,-1628.453072,1302.362347
923.344161,-9178.553681,-2072.576638,383.047749
923.344482,-9252.574275,-2368.659014,-689.485948
923.344803,-8956.491898,-1480.411884,-995.924147
923.345123,-8290.306550,74.020594,-229.828649
923.345444,-8882.471304,518.144159,153.219100
923.345765,-8808.450710,222.061783,1455.581446
923.346085,-9622.677246,-740.205942,76.609550
923.346406,-10140.821405,-1924.535449,612.876398
923.346727,-9622.677246,-2072.576638,689.485948
923.347047,-10140.821405,-740.205942,1302.362347
923.347368,-9548.656652,0.000000,1378.971896
923.347689,-9030.512492,296.082377,1149.143247
923.348009,-9178.553681,444.123565,2298.286494
923.348330,-9918.759623,-518.144159,2451.505594
923.348651,-9622.677246,-1332.370696,1072.533697
923.348971,-9400.615463,-1776.494261,153.219100
923.349292,-7846.182985,-888.247130,-1302.362347
923.349613,-8512.368333,-592.164754,-536.266849
923.349933,-8142.265362,-518.144159,76.609550
923.350254,-8364.327145,-1480.411884,0.000000
923.350575,-9400.615463,-1554.432478,-76.609550
923.350895,-10807.006753,-1258.350101,1685.410096
923.351216,-11399.171507,-666.185348,2681.334243
923.351537,-11769.274478,148.041188,3753.867940
923.351857,-11103.089130,370.102971,2834.553343
923.352178,-9918.759623,-148.041188,1685.410096
923.352499,-8882.471304,-1702.473667,842.705048
923.352820,-8586.388927,-1110.308913,842.705048
923.353140,-9548.656652,-1554.432478,1225.752797
923.353461,-9474.636058,-1184.329507,459.657299
923.353782,-9326.594869,-370.102971,-459.657299
923.354102,-9178.553681,518.144159,-459.657299
923.354423,-9770.718434,1480.411884,153.219100
923.354744,-9918.759623,962.267725,1455.581446
923.355064,-10584.944971,-666.185348,1455.581446
923.355385,-10288.862594,-1184.329507,1455.581446
923.355706,-10584.944971,-2590.720797,2451.505594
923.356026,-10881.027347,-1480.411884,2068.457845
923.356347,-10436.903782,592.164754,1608.800546
923.356668,-9548.656652,2590.720797,1149.143247
923.356988,-7920.203579,3627.009116,612.876398
923.357309,-8882.471304,1702.473667,1455.581446
923.357630,-8586.388927,888.247130,1378.971896
923.357950,-10288.862594,-740.205942,2451.505594
923.358271,-9474.636058,-148.041188,2987.772442
923.358592,-9400.615463,-370.102971,2145.067394
923.358912,-9400.615463,296.082377,1225.752797
923.359233,-9104.533087,1406.391290,1685.410096
923.359554,-9030.512492,666.185348,995.924147
923.359874,-8586.388927,148.041188,229.828649
923.360195,-8734.430116,-814.226536,-383.047749
923.360516,-9696.697840,-666.185348,1072.533697
923.360836,-9622.677246,-592.164754,1838.629195
923.361157,-10140.821405,-740.205942,2987.772442
923.361478,-9696.697840,-148.041188,1838.629195
923.361799,-8808.450710,-592.164754,919.314598
923.362119,-9548.656652,-518.144159,2374.896044
923.362440,-9992.780217,-444.123565,2834.553343
923.362761,-9918.759623,-962.267725,2681.334243
923.363081,-9252.574275,-1184.329507,919.314598
923.363402,-8882.471304,-666.185348,-612.876398
923.363723,-9326.594869,444.123565,0.000000
923.364043,-9178.553681,1036.288319,383.047749
923.364364,-9770.718434,296.082377,153.219100
923.364685,-9844.739029,518.144159,-153.219100
923.365005,-10881.027347,296.082377,383.047749
923.365326,-12065.356855,666.185348,1838.629195
923.365647,-11991.336260,-592.164754,2068.457845
923.365967,-10288.862594,0.000000,1072.533697
923.366288,-9252.574275,0.000000,-229.828649
923.366609,-8438.347739,370.102971,0.000000
923.366929,-8808.450710,370.102971,1455.581446
923.367250,-10362.883188,222.061783,2987.772442
923.367571,-9918.759623,-592.164754,1762.019645
923.367891,-9548.656652,-1332.370696,536.266849
923.368212,-9474.636058,0.000000,1072.533697
923.368533,-9326.594869,-444.123565,1378.971896
923.368853,-9770.718434,-1110.308913,1532.190996
923.369174,-8586.388927,-2220.617826,153.219100
923.369495,-7920.203579,-2590.720797,-1149.143247
923.369815,-10214.842000,-1776.494261,0.000000
923.370136,-10436.903782,-1554.432478,1532.190996
923.370457,-9770.718434,-222.061783,1302.362347
923.370778,-9622.677246,0.000000,0.000000
923.371098,-8586.388927,0.000000,766.095498
923.371419,-7476.080014,0.000000,1455.581446
923.371740,-10214.842000,-1332.370696,2298.286494
923.372060,-9030.512492,-962.267725,2681.334243
923.372381,-9178.553681,-1110.308913,1762.019645
923.372702,-8660.409521,-1036.288319,459.657299
923.373022,-8660.409521,518.144159,766.095498
923.373343,-9326.594869,296.082377,995.924147
923.373664,-8882.471304,-1332.370696,76.609550
923.373984,-8734.430116,-1850.514855,-1149.143247
923.374305,-9252.574275,-1702.473667,-766.095498
923.374626,-11251.130318,-1554.432478,1378.971896
923.374946,-10732.986159,-592.164754,2145.067394
923.375267,-11251.130318,518.144159,1685.410096
923.375588,-10881.027347,666.185348,1378.971896
923.375908,-8808.450710,0.000000,536.266849
923.376229,-9622.677246,-962.267725,1455.581446
923.376550,-9992.780217,-370.102971,1991.848295
923.376870,-9400.615463,-962.267725,1455.581446
923.377191,-9474.636058,-592.164754,1455.581446
923.377512,-8660.409521,148.041188,0.000000
923.377832,-9844.739029,2368.659014,-153.219100
923.378153,-10066.800811,1110.308913,1532.190996
923.378474,-9326.594869,222.061783,612.876398
923.378795,-9400.615463,-1110.308913,-153.219100
923.379115,-10288.862594,-1406.391290,612.876398
923.379436,-11103.089130,-1998.556043,2068.457845
923.379757,-10955.047942,-1776.494261,1838.629195
923.380077,-10658.965565,-518.144159,842.705048
923.380398,-9252.574275,1184.329507,0.000000
923.380719,-7920.203579,1480.411884,3140.991542
923.381039,-10214.842000,1776.494261,2911.162892
923.381360,-10658.965565,814.226536,4290.134789
923.381681,-9992.780217,-444.123565,3217.601092
923.382001,-9474.636058,-1110.308913,2145.067394
923.382322,-8586.388927,-296.082377,536.266849
923.382643,-7994.224174,0.000000,459.657299
923.382963,-7328.038826,592.164754,-229.828649
923.383284,-7105.977043,444.123565,-1378.971896
923.383605,-7328.038826,222.061783,-1608.800546
923.383925,-10807.006753,-1110.308913,2145.067394
923.384246,-11103.089130,-2812.782580,1225.752797
923.384567,-10807.006753,-740.205942,2528.115143
923.384888,-11473.192101,518.144159,4213.525239
923.385208,-9252.574275,1406.391290,2681.334243
923.385529,-9474.636058,-592.164754,2298.286494
923.385850,-10214.842000,-148.041188,2757.943793
923.386170,-7105.977043,-962.267725,-689.485948
923.386491,-9548.656652,-1110.308913,153.219100
923.386812,-7105.977043,0.000000,-229.828649
923.387132,-8068.244768,888.247130,-1838.629195
923.387453,-9474.636058,2294.638420,1072.533697
923.387774,-9030.512492,1406.391290,919.314598
923.388094,-9918.759623,-592.164754,689.485948
923.388415,-12213.398043,-1554.432478,2068.457845
923.388736,-11769.274478,-2072.576638,2681.334243
923.389056,-12139.377449,-2664.741391,2757.943793
923.389377,-11843.295072,-1332.370696,2068.457845
923.389698,-9918.759623,148.041188,76.609550
923.390018,-8882.471304,592.164754,-612.876398
923.390339,-8956.491898,296.082377,-229.828649
923.390660,-8512.368333,370.102971,842.705048
923.390981,-10214.842000,-814.226536,689.485948
923.391301,-9844.739029,-444.123565,1991.848295
923.391622,-10140.821405,-740.205942,2145.067394
923.391943,-10140.821405,-148.041188,2528.115143
923.392263,-10732.986159,0.000000,3217.601092
923.392584,-8512.368333,-1628.453072,919.314598
923.392905,-8438.347739,-2960.823768,-1378.971896
923.393225,-8882.471304,-1702.473667,-1072.533697
923.393546,-9548.656652,-1258.350101,-153.219100
923.393867,-10510.924376,-444.123565,842.705048
923.394187,-10140.821405,1406.391290,1072.533697
923.394508,-9918.759623,222.061783,0.000000
923.394829,-9178.553681,74.020594,1532.190996
923.395149,-9548.656652,-370.102971,2298.286494
923.395470,-9992.780217,-1184.329507,2451.505594
923.395791,-9770.718434,-1332.370696,2451.505594
923.396111,-8882.471304,-666.185348,919.314598
923.396432,-7920.203579,370.102971,153.219100
923.396753,-9030.512492,1258.350101,459.657299
923.397074,-8290.306550,1332.370696,1149.143247
923.397394,-7698.141797,-740.205942,0.000000
923.397715,-8512.368333,-1850.514855,-612.876398
923.398036,-9326.594869,-2146.597232,689.485948
923.398356,-10807.006753,-2738.761985,1149.143247
923.398677,-10881.027347,-666.185348,2374.896044
923.398998,-10955.047942,-222.061783,612.876398
923.399318,-9104.533087,1184.329507,229.828649
923.399639,-9400.615463,74.020594,766.095498
923.399960,-9622.677246,370.102971,2451.505594
923.400280,-10510.924376,-1332.370696,1378.971896
923.400601,-9844.739029,-1406.391290,1302.362347
923.400922,-9326.594869,-1184.329507,459.657299
923.401242,-9178.553681,-222.061783,459.657299
923.401563,-9252.574275,1406.391290,1685.410096
923.401884,-9178.553681,1480.411884,1149.143247
923.402204,-9104.533087,518.144159,0.000000
923.402525,-9474.636058,518.144159,0.000000
923.402846,-11103.089130,-518.144159,1302.362347
923.403167,-11473.192101,-1406.391290,2298.286494
923.403487,-11769.274478,74.020594,2374.896044
923.403808,-10807.006753,814.226536,1991.848295
923.404129,-10362.883188,962.267725,1455.581446
923.404449,-10362.883188,2072.576638,2068.457845
923.404770,-10955.047942,888.247130,3677.258390
923.405091,-10807.006753,444.123565,2987.772442
923.405411,-9622.677246,296.082377,2298.286494
923.405732,-8364.327145,0.000000,612.876398
923.406053,-8438.347739,592.164754,842.705048
923.406373,-9178.553681,888.247130,1455.581446
923.406694,-7772.162391,0.000000,612.876398
923.407015,-7772.162391,-888.247130,-1378.971896
923.407335,-8364.327145,-444.123565,-229.828649
923.407656,-10140.821405,-814.226536,306.438199
923.407977,-10214.842000,0.000000,1302.362347
923.408297,-10584.944971,-370.102971,1608.800546
923.408618,-9474.636058,1702.473667,-536.266849
923.408939,-9474.636058,-1702.473667,229.828649
923.409260,-8734.430116,-1702.473667,1225.752797
923.409580,-9918.759623,-1480.411884,2145.067394
923.409901,-9030.512492,-1184.329507,1532.190996
923.410222,-9326.594869,-1406.391290,995.924147
923.410542,-7920.203579,-370.102971,153.219100
923.410863,-9474.636058,-740.205942,612.876398
923.411184,-8660.409521,-370.102971,995.924147
923.411504,-8586.388927,-1184.329507,612.876398
923.411825,-9104.533087,-1332.370696,-383.047749
923.412146,-10066.800811,-666.185348,459.657299
923.412466,-10584.944971,-740.205942,1149.143247
923.412787,-10436.903782,1184.329507,1302.362347
923.413108,-10584.944971,1628.453072,842.705048
923.413428,-10214.842000,1480.411884,-153.219100
923.413749,-9770.718434,592.164754,536.266849
923.414070,-10214.842000,444.123565,2298.286494
923.414390,-11029.068536,-592.164754,2451.505594
923.414711,-10658.965565,-1554.432478,2221.676944
923.415032,-9770.718434,-1628.453072,1455.581446
923.415352,-9104.533087,-814.226536,306.438199
923.415673,-9252.574275,444.123565,1149.143247
923.415994,-9178.553681,666.185348,612.876398
923.416315,-9326.594869,-222.061783,0.000000
923.416635,-9104.533087,-888.247130,0.000000
923.416956,-9622.677246,-1850.514855,1532.190996
923.417277,-10881.027347,-2516.700203,1915.238745
923.417597,-10658.965565,-1702.473667,1838.629195
923.417918,-10658.965565,-1184.329507,919.314598
923.418239,-8364.327145,-518.144159,306.438199
923.418559,-8438.347739,-1332.370696,76.609550
923.418880,-9252.574275,-222.061783,1915.238745
923.419201,-9770.718434,-1406.391290,1455.581446
923.419521,-8956.491898,-1406.391290,1072.533697
923.419842,-8956.491898,-2072.576638,459.657299
923.420163,-8586.388927,-518.144159,995.924147
923.420483,-9252.574275,148.041188,2298.286494
923.420804,-9178.553681,-222.061783,2451.505594
923.421125,-8290.306550,-1332.370696,2221.676944
923.421445,-9474.636058,-1702.473667,1149.143247
923.421766,-9844.739029,-1480.411884,1378.971896
923.422087,-10214.842000,-666.185348,1532.190996
923.422408,-10140.821405,888.247130,995.924147
923.422728,-9104.533087,1554.432478,306.438199
923.423049,-8364.327145,888.247130,-995.924147
923.423370,-8956.491898,296.082377,766.095498
923.423690,-10510.924376,-296.082377,2145.067394
923.424011,-10584.944971,-740.205942,2221.676944
923.424332,-10066.800811,-1036.288319,1455.581446
923.424652,-9622.677246,74.020594,995.924147
923.424973,-10066.800811,888.247130,1685.410096
923.425294,-10362.883188,2072.576638,1608.800546
923.425614,-9030.512492,-148.041188,612.876398
923.425935,-8586.388927,-1184.329507,-1378.971896
923.426256,-10214.842000,-740.205942,0.000000
923.426576,-10807.006753,-962.267725,383.047749
923.426897,-10658.965565,222.061783,689.485948
923.427218,-10955.047942,1406.391290,766.095498
923.427538,-9548.656652,1628.453072,0.000000
923.427859,-9548.656652,222.061783,229.828649
923.428180,-10288.862594,740.205942,1608.800546
923.428501,-10658.965565,-296.082377,1915.238745
923.428821,-9918.759623,-962.267725,1685.410096
923.429142,-9326.594869,-518.144159,919.314598
923.429463,-8586.388927,888.247130,2145.067394
923.429783,-9400.615463,1184.329507,1532.190996
923.430104,-9030.512492,592.164754,2145.067394
923.430425,-8142.265362,-518.144159,612.876398
923.430745,-8734.430116,-962.267725,-153.219100
923.431066,-9770.718434,-222.061783,1685.410096
923.431387,-9474.636058,592.164754,2374.896044
923.431707,-11547.212695,0.000000,2604.724693
923.432028,-9474.636058,1998.556043,1915.238745
923.432349,-9252.574275,814.226536,766.095498
923.432669,-9474.636058,-1406.391290,842.705048
923.432990,-8808.450710,-518.144159,2145.067394
923.433311,-10214.842000,-1554.432478,2145.067394
923.433631,-9696.697840,-1702.473667,842.705048
923.433952,-9400.615463,-1036.288319,612.876398
923.434273,-9474.636058,-518.144159,1532.190996
923.434594,-10510.924376,222.061783,3064.381992
923.434914,-10214.842000,222.061783,3294.210641
923.435235,-9844.739029,-1110.308913,2221.676944
923.435556,-9622.677246,-2368.659014,229.828649
923.435876,-9474.636058,-2146.597232,383.047749
923.436197,-9030.512492,-2960.823768,76.609550
923.436518,-8882.471304,-962.267725,0.000000
923.436838,-9400.615463,444.123565,-459.657299
923.437159,-8956.491898,444.123565,229.828649
923.437480,-10436.903782,0.000000,842.705048
923.437800,-11917.315666,1110.308913,3370.820191
923.438121,-11843.295072,-1406.391290,2911.162892
923.438442,-9622.677246,-2294.638420,995.924147
923.438762,-9178.553681,-1702.473667,-766.095498
923.439083,-8734.430116,-296.082377,-842.705048
923.439404,-8364.327145,222.061783,-612.876398
923.439724,-7994.224174,444.123565,-612.876398
923.440045,-8216.285956,222.061783,-612.876398
923.440366,-9992.780217,518.144159,612.876398
923.440687,-12361.439231,-666.185348,2604.724693
923.441007,-11695.253884,-1332.370696,4443.353888
923.441328,-11917.315666,-1110.308913,2911.162892
923.441649,-9622.677246,-148.041188,2145.067394
923.441969,-7624.121203,296.082377,1915.238745
923.442290,-10140.821405,-1628.453072,1072.533697
923.442611,-7254.018232,1332.370696,612.876398
923.442931,-8734.430116,-888.247130,-1532.190996
923.443252,-8364.327145,-148.041188,-536.266849
923.443573,-7105.977043,222.061783,-1225.752797
923.443893,-10436.903782,222.061783,1378.971896
923.444214,-9400.615463,-814.226536,1838.629195
923.444535,-7994.224174,-1480.411884,383.047749
923.444855,-11251.130318,-1702.473667,2834.553343
923.445176,-9178.553681,-2220.617826,1838.629195
923.445497,-11325.150913,-1332.370696,2374.896044
923.445817,-10140.821405,-518.144159,2528.115143
923.446138,-8586.388927,-444.123565,-1378.971896
923.446459,-9622.677246,962.267725,0.000000
923.446780,-9474.636058,0.000000,459.657299
923.447100,-7772.162391,-740.205942,459.657299
923.447421,-10214.842000,-1776.494261,919.314598
923.447742,-9770.718434,-1702.473667,612.876398
923.448062,-9622.677246,-740.205942,536.266849
923.448383,-10066.800811,444.123565,1378.971896
923.448704,-10066.800811,888.247130,1378.971896
923.449024,-9474.636058,1110.308913,1915.238745
923.449345,-9474.636058,-1184.329507,0.000000
923.449666,-9474.636058,-222.061783,919.314598
923.449986,-10658.965565,-1332.370696,1225.752797
923.450307,-10362.883188,-222.061783,1838.629195
923.450628,-10658.965565,1554.432478,2374.896044
923.450948,-9918.759623,2294.638420,1455.581446
923.451269,-9770.718434,1258.350101,1762.019645
923.451590,-9252.574275,74.020594,1302.362347
923.451910,-9326.594869,-222.061783,1455.581446
923.452231,-10362.883188,-888.247130,1455.581446
923.452552,-9030.512492,-296.082377,995.924147
923.452872,-9326.594869,-1036.288319,306.438199
923.453193,-9104.533087,444.123565,842.705048
923.453514,-9104.533087,962.267725,995.924147
923.453835,-9474.636058,74.020594,1378.971896
923.454155,-9252.574275,296.082377,1225.752797
923.454476,-9178.553681,370.102971,689.485948
923.454797,-9696.697840,-962.267725,1225.752797
923.455117,-9326.594869,0.000000,1455.581446
923.455438,-9326.594869,0.000000,919.314598
923.455759,-9252.574275,0.000000,1225.752797
923.456079,-8660.409521,-962.267725,842.705048
923.456400,-8956.491898,-962.267725,1762.019645
923.456721,-10881.027347,0.000000,3140.991542
923.457041,-11029.068536,0.000000,4596.572988
923.457362,-11769.274478,-444.123565,3907.087040
923.457683,-9844.739029,-1184.329507,2451.505594
923.458003,-10066.800811,-814.226536,995.924147
923.458324,-8808.450710,0.000000,689.485948
923.458645,-8660.409521,-148.041188,0.000000
923.458965,-7550.100608,222.061783,-1302.362347
923.459286,-8586.388927,-740.205942,-1072.533697
923.459607,-9474.636058,-444.123565,0.000000
923.459928,-9622.677246,-296.082377,383.047749
923.460248,-10732.986159,592.164754,1915.238745
923.460569,-10510.924376,222.061783,1991.848295
923.460890,-10214.842000,0.000000,2451.505594
923.461210,-9918.759623,-518.144159,2528.115143
923.461531,-11029.068536,-2072.576638,2221.676944
923.461852,-9770.718434,-1702.473667,1225.752797
923.462172,-9474.636058,-1036.288319,612.876398
923.462493,-8882.471304,148.041188,-1072.533697
923.462814,-9178.553681,1036.288319,0.000000
923.463134,-9030.512492,370.102971,76.609550
923.463455,-8586.388927,-1184.329507,-766.095498
923.463776,-9844.739029,-1406.391290,-383.047749
923.464096,-10807.006753,-1258.350101,1532.190996
923.464417,-10658.965565,-1628.453072,1532.190996
923.464738,-10881.027347,0.000000,1915.238745
923.465058,-10362.883188,814.226536,1378.971896
923.465379,-8364.327145,592.164754,0.000000
923.465700,-7698.141797,740.205942,0.000000
923.466021,-9252.574275,222.061783,1149.143247
923.466341,-9178.553681,-1406.391290,1455.581446
923.466662,-9696.697840,-2072.576638,1072.533697
923.466983,-9622.677246,-1998.556043,-229.828649
923.467303,-9474.636058,-370.102971,306.438199
923.467624,-10288.862594,222.061783,1608.800546
923.467945,-9474.636058,-518.144159,1378.971896
923.468265,-9104.533087,-1332.370696,76.609550
923.468586,-9548.656652,-1776.494261,0.000000
923.468907,-9770.718434,-1406.391290,919.314598
923.469227,-10140.821405,-592.164754,1455.581446
923.469548,-10214.842000,148.041188,1838.629195
923.469869,-9178.553681,148.041188,1378.971896
923.470189,-9104.533087,-888.247130,1455.581446
923.470510,-9474.636058,-2146.597232,1762.019645
923.470831,-9696.697840,-2220.617826,2451.505594
923.471151,-10288.862594,-2146.597232,2528.115143
923.471472,-9548.656652,-1406.391290,2451.505594
923.471793,-9178.553681,-518.144159,919.314598
923.472114,-9104.533087,296.082377,0.000000
923.472434,-9400.615463,74.020594,459.657299
923.472755,-8290.306550,518.144159,76.609550
923.473076,-9770.718434,0.000000,229.828649
923.473396,-10955.047942,518.144159,1149.143247
923.473717,-11473.192101,370.102971,2068.457845
923.474038,-10732.986159,-1184.329507,2145.067394
923.474358,-10066.800811,962.267725,1762.019645
923.474679,-9696.697840,1258.350101,1072.533697
923.475000,-9030.512492,962.267725,383.047749
923.475320,-8660.409521,1480.411884,919.314598
923.475641,-9252.574275,1332.370696,1072.533697
923.475962,-9474.636058,666.185348,2068.457845
923.476282,-9548.656652,-370.102971,1302.362347
923.476603,-9104.533087,222.061783,842.705048
923.476924,-10140.821405,296.082377,1302.362347
923.477244,-9770.718434,0.000000,1455.581446
923.477565,-9030.512492,296.082377,383.047749
923.477886,-10362.883188,0.000000,459.657299
923.478207,-9696.697840,-1184.329507,1838.629195
923.478527,-9622.677246,0.000000,1225.752797
923.478848,-10584.944971,-1110.308913,1378.971896
923.479169,-8956.491898,888.247130,766.095498
923.479489,-10066.800811,-370.102971,229.828649
923.479810,-7994.224174,296.082377,766.095498
923.480131,-8660.409521,74.020594,1455.581446
923.480451,-9474.636058,-814.226536,1532.190996
923.480772,-9252.574275,-888.247130,2451.505594
923.481093,-9474.636058,-1702.473667,1762.019645
923.481414,-9030.512492,-370.102971,766.095498
923.481734,-8808.450710,296.082377,919.314598
923.482055,-9474.636058,-592.164754,1225.752797
923.482376,-9030.512492,-1110.308913,-229.828649
923.482697,-10288.862594,-1036.288319,76.609550
923.483017,-9844.739029,-1702.473667,1225.752797
923.483338,-10214.842000,-1850.514855,1685.410096
923.483659,-10732.986159,-370.102971,1838.629195
923.483979,-10214.842000,888.247130,1762.019645
923.484300,-9548.656652,666.185348,1532.190996
923.484621,-8734.430116,0.000000,2068.457845
923.484942,-9770.718434,-740.205942,2298.286494
923.485262,-10362.883188,-1480.411884,2221.676944
923.485583,-9548.656652,-2294.638420,1838.629195
923.485904,-8956.491898,-1480.411884,76.609550
923.486225,-8882.471304,-222.061783,76.609550
923.486545,-9400.615463,518.144159,1149.143247
923.486866,-9474.636058,0.000000,995.924147
923.487187,-9770.718434,-296.082377,76.609550
923.487507,-11029.068536,-1184.329507,689.485948
923.487828,-10732.986159,-1036.288319,1072.533697
923.488149,-11325.150913,-1332.370696,1762.019645
923.488470,-10584.944971,-444.123565,1225.752797
923.488790,-9400.615463,0.000000,612.876398
923.489111,-8808.450710,-666.185348,383.047749
923.489432,-9178.553681,0.000000,1149.143247
923.489752,-9474.636058,-518.144159,2451.505594
923.490073,-9770.718434,-888.247130,2145.067394
923.490394,-9548.656652,-1332.370696,842.705048
923.490715,-7772.162391,592.164754,-689.485948
923.491035,-8808.450710,0.000000,-689.485948
923.491356,-8068.244768,962.267725,-536.266849
923.491677,-9030.512492,-1110.308913,-1302.362347
923.491998,-8068.244768,-1110.308913,-2451.505594
923.492318,-9696.697840,-1924.535449,-766.095498
923.492639,-10140.821405,-1480.411884,76.609550
923.492960,-11843.295072,148.041188,2451.505594
923.493280,-12065.356855,222.061783,2757.943793
923.493601,-9770.718434,888.247130,2068.457845
923.493922,-10214.842000,-1480.411884,1762.019645
923.494243,-9030.512492,-888.247130,1991.848295
923.494563,-9400.615463,-1406.391290,1915.238745
923.494884,-8290.306550,-518.144159,1225.752797
923.495205,-6883.915261,-370.102971,-766.095498
923.495525,-7698.141797,740.205942,-1072.533697
923.495846,-9400.615463,1258.350101,306.438199
923.496167,-9474.636058,888.247130,919.314598
923.496488,-10288.862594,-222.061783,1838.629195
923.496808,-10066.800811,-1776.494261,689.485948
923.497129,-11843.295072,-1776.494261,1915.238745
923.497450,-11769.274478,-888.247130,2374.896044
923.497771,-11251.130318,962.267725,1532.190996
923.498091,-10510.924376,2294.638420,1838.629195
923.498412,-9104.533087,1924.535449,612.876398
923.498733,-9252.574275,1258.350101,1302.362347
923.499053,-10288.862594,0.000000,2298.286494
923.499374,-9992.780217,-592.164754,2834.553343
923.499695,-9844.739029,-1406.391290,2451.505594
923.500016,-9252.574275,-1702.473667,919.314598
923.500336,-8660.409521,0.000000,1149.143247
923.500657,-9696.697840,888.247130,1991.848295
923.500978,-8956.491898,666.185348,1532.190996
923.501298,-9252.574275,0.000000,0.000000
923.501619,-10140.821405,-444.123565,76.609550
923.501940,-9770.718434,-1258.350101,1072.533697
923.502261,-10732.986159,-740.205942,1838.629195
923.502581,-10362.883188,-444.123565,1838.629195
923.502902,-9548.656652,296.082377,1149.143247
923.503223,-9030.512492,-296.082377,2451.505594
923.503544,-9178.553681,74.020594,2298.286494
923.503864,-9918.759623,-148.041188,2451.505594
923.504185,-9474.636058,-740.205942,2145.067394
923.504506,-8512.368333,-1110.308913,1378.971896
923.504826,-8068.244768,-962.267725,612.876398
923.505147,-8808.450710,-888.247130,1072.533697
923.505468,-8808.450710,-1184.329507,919.314598
923.505789,-8290.306550,-1480.411884,76.609550
923.506109,-9178.553681,-148.041188,0.000000
923.506430,-10288.862594,-592.164754,536.266849
923.506751,-10510.924376,-1036.288319,612.876398
923.507071,-10362.883188,0.000000,229.828649
923.507392,-10881.027347,1406.391290,-229.828649
923.507713,-9400.615463,0.000000,-536.266849
923.508034,-8734.430116,-370.102971,-306.438199
923.508354,-9252.574275,-518.144159,766.095498
923.508675,-9770.718434,-518.144159,1838.629195
923.508996,-10288.862594,-1332.370696,2451.505594
923.509317,-9844.739029,-740.205942,1685.410096
923.509637,-9992.780217,518.144159,1608.800546
923.509958,-10584.944971,1332.370696,2221.676944
923.510279,-9326.594869,1184.329507,2987.772442
923.510599,-9770.718434,-1110.308913,459.657299
923.510920,-9326.594869,-1554.432478,-689.485948
923.511241,-9992.780217,-2220.617826,-383.047749
923.511562,-10140.821405,-1554.432478,153.219100
923.511882,-10288.862594,0.000000,229.828649
923.512203,-10436.903782,1406.391290,306.438199
923.512524,-8808.450710,888.247130,459.657299
923.512844,-9474.636058,-296.082377,1685.410096
923.513165,-10140.821405,-666.185348,3064.381992
923.513486,-10807.006753,-2220.617826,3370.820191
923.513807,-9844.739029,-2072.576638,2451.505594
923.514127,-8956.491898,-1110.308913,919.314598
923.514448,-8364.327145,74.020594,0.000000
923.514769,-8438.347739,666.185348,919.314598
923.515090,-8068.244768,-370.102971,536.266849
923.515410,-8068.244768,-1628.453072,-536.266849
923.515731,-8586.388927,-1628.453072,306.438199
923.516052,-11325.150913,-2294.638420,2451.505594
923.516372,-11325.150913,-2072.576638,3294.210641
923.516693,-10881.027347,-1258.350101,2374.896044
923.517014,-9622.677246,-518.144159,919.314598
923.517335,-8660.409521,-222.061783,0.000000
923.517655,-8956.491898,0.000000,306.438199
923.517976,-8882.471304,444.123565,383.047749
923.518297,-9030.512492,0.000000,229.828649
923.518617,-8586.388927,-296.082377,383.047749
923.518938,-8512.368333,-222.061783,229.828649
923.519259,-9548.656652,370.102971,459.657299
923.519580,-9844.739029,666.185348,1685.410096
923.519900,-9474.636058,0.000000,842.705048
923.520221,-9918.759623,296.082377,459.657299
923.520542,-10584.944971,-296.082377,689.485948
923.520863,-10732.986159,-1036.288319,1302.362347
923.521183,-10658.965565,-814.226536,383.047749
923.521504,-9622.677246,518.144159,-459.657299
923.521825,-9474.636058,1258.350101,-689.485948
923.522145,-9474.636058,1036.288319,383.047749
923.522466,-9770.718434,888.247130,1455.581446
923.522787,-10436.903782,74.020594,3217.601092
923.523108,-10807.006753,-1110.308913,1991.848295
923.523428,-9548.656652,148.041188,1685.410096
923.523749,-9844.739029,0.000000,1532.190996
923.524070,-7624.121203,2664.741391,2374.896044
923.524391,-8882.471304,2072.576638,1915.238745
923.524711,-8586.388927,296.082377,-153.219100
923.525032,-8586.388927,814.226536,459.657299
923.525353,-10214.842000,-1406.391290,1225.752797
923.525673,-10807.006753,-2220.617826,1455.581446
923.525994,-10362.883188,-222.061783,1915.238745
923.526315,-11621.233289,888.247130,2298.286494
923.526636,-8438.347739,888.247130,766.095498
923.526956,-9474.636058,-370.102971,1149.143247
923.527277,-9252.574275,-518.144159,1378.971896
923.527598,-9918.759623,-370.102971,1838.629195
923.527918,-9474.636058,-962.267725,2451.505594
923.528239,-8660.409521,-740.205942,1149.143247
923.528560,-8882.471304,148.041188,1762.019645
923.528881,-9548.656652,222.061783,2451.505594
923.529201,-8660.409521,-222.061783,2451.505594
923.529522,-8882.471304,-1554.432478,1532.190996
923.529843,-9474.636058,-1998.556043,689.485948
923.530164,-9992.780217,-2072.576638,1455.581446
923.530484,-10214.842000,-1924.535449,1072.533697
923.530805,-10214.842000,-148.041188,1302.362347
923.531126,-9178.553681,444.123565,612.876398
923.531446,-9104.533087,-148.041188,459.657299
923.531767,-9770.718434,-1036.288319,766.095498
923.532088,-10140.821405,-666.185348,1685.410096
923.532409,-10955.047942,-1332.370696,1685.410096
923.532729,-10066.800811,-1776.494261,1455.581446
923.533050,-9400.615463,-740.205942,612.876398
923.533371,-9548.656652,296.082377,229.828649
923.533691,-9326.594869,1258.350101,1072.533697
923.534012,-9474.636058,370.102971,919.314598
923.534333,-9030.512492,-962.267725,-612.876398
923.534654,-9474.636058,-1258.350101,0.000000
923.534974,-10140.821405,-814.226536,919.314598
923.535295,-10732.986159,-1184.329507,689.485948
923.535616,-10140.821405,0.000000,383.047749
923.535937,-9178.553681,-222.061783,-383.047749
923.536257,-8660.409521,-444.123565,-1455.581446
923.536578,-9400.615463,148.041188,-153.219100
923.536899,-10584.944971,-296.082377,1302.362347
923.537219,-10066.800811,-518.144159,1685.410096
923.537540,-9178.553681,-1110.308913,459.657299
923.537861,-8660.409521,-888.247130,76.609550
923.538182,-9178.553681,74.020594,1072.533697
923.538502,-9622.677246,-444.123565,1302.362347
923.538823,-8216.285956,-666.185348,766.095498
923.539144,-8142.265362,-1480.411884,0.000000
923.539464,-10288.862594,-1628.453072,612.876398
923.539785,-10658.965565,-2146.597232,1225.752797
923.540106,-9770.718434,-962.267725,919.314598
923.540427,-9696.697840,0.000000,383.047749
923.540747,-9696.697840,888.247130,-689.485948
923.541068,-9400.615463,0.000000,689.485948
923.541389,-9992.780217,74.020594,1915.238745
923.541710,-10066.800811,-1406.391290,1532.190996
923.542030,-9696.697840,-1924.535449,1532.190996
923.542351,-9992.780217,-1036.288319,689.485948
923.542672,-9474.636058,740.205942,842.705048
923.542992,-9696.697840,2072.576638,1149.143247
923.543313,-8512.368333,1924.535449,1149.143247
923.543634,-7994.224174,444.123565,-153.219100
923.543955,-8586.388927,740.205942,-612.876398
923.544275,-9844.739029,74.020594,1072.533697
923.544596,-10807.006753,-296.082377,2298.286494
923.544917,-11917.315666,0.000000,2757.943793
923.545237,-11029.068536,370.102971,2604.724693
923.545558,-10436.903782,222.061783,3064.381992
923.545879,-11399.171507,-518.144159,3294.210641
923.546200,-9992.780217,-148.041188,3907.087040
923.546520,-10066.800811,-740.205942,842.705048
923.546841,-8808.450710,296.082377,383.047749
923.547162,-7772.162391,740.205942,-612.876398
923.547483,-8142.265362,2664.741391,383.047749
923.547803,-10066.800811,888.247130,306.438199
923.548124,-7550.100608,-74.020594,919.314598
923.548445,-8808.450710,-592.164754,383.047749
923.548765,-11547.212695,-814.226536,2298.286494
923.549086,-9770.718434,-296.082377,4213.525239
923.549407,-11325.150913,-1628.453072,4136.915689
923.549728,-9474.636058,-370.102971,1685.410096
923.550048,-8438.347739,-444.123565,-383.047749
923.550369,-9030.512492,148.041188,459.657299
923.550690,-8142.265362,222.061783,2604.724693
923.551010,-9474.636058,-296.082377,612.876398
923.551331,-9622.677246,-1554.432478,1532.190996
923.551652,-7994.224174,-3034.844362,-383.047749
923.551973,-9474.636058,-1258.350101,536.266849
923.552293,-10214.842000,222.061783,1991.848295
923.552614,-9400.615463,814.226536,2604.724693
923.552935,-9474.636058,148.041188,1455.581446
923.553256,-9178.553681,-296.082377,306.438199
923.553576,-9030.512492,0.000000,1455.581446
923.553897,-10510.924376,-1036.288319,1762.019645
923.554218,-9844.739029,-444.123565,766.095498
923.554538,-9178.553681,296.082377,-306.438199
923.554859,-8586.388927,74.020594,612.876398
923.555180,-8956.491898,-592.164754,306.438199
923.555501,-9918.759623,-370.102971,1378.971896
923.555821,-11177.109724,-1036.288319,1072.533697
923.556142,-10140.821405,-370.102971,1302.362347
923.556463,-10584.944971,-962.267725,459.657299
923.556783,-9918.759623,370.102971,766.095498
923.557104,-9918.759623,1036.288319,1378.971896
923.557425,-9326.594869,74.020594,1302.362347
923.557746,-9474.636058,-1554.432478,0.000000
923.558066,-8882.471304,-1924.535449,-153.219100
923.558387,-10066.800811,-1406.391290,612.876398
923.558708,-10214.842000,-740.205942,1532.190996
923.559029,-10510.924376,666.185348,306.438199
923.559349,-9992.780217,888.247130,612.876398
923.559670,-8956.491898,370.102971,153.219100
923.559991,-8586.388927,-962.267725,612.876398
923.560311,-9918.759623,-1184.329507,1532.190996
923.560632,-9844.739029,-1776.494261,1915.238745
923.560953,-9622.677246,-2146.597232,1532.190996
923.561274,-8956.491898,-1628.453072,0.000000
923.561594,-9400.615463,592.164754,842.705048
923.561915,-10584.944971,444.123565,2068.457845
923.562236,-9696.697840,0.000000,2528.115143
923.562557,-9770.718434,-1110.308913,1532.190996
923.562877,-9548.656652,-1702.473667,1072.533697
923.563198,-9844.739029,-1184.329507,153.219100
923.563519,-10584.944971,-1332.370696,1685.410096
923.563839,-9178.553681,0.000000,459.657299
923.564160,-8068.244768,-222.061783,-766.095498
923.564481,-7402.059420,-370.102971,-995.924147
923.564802,-8734.430116,-814.226536,919.314598
923.565122,-10288.862594,-740.205942,1838.629195
923.565443,-11029.068536,-296.082377,2145.067394
923.565764,-10658.965565,-296.082377,1532.190996
923.566084,-9474.636058,-148.041188,76.609550
923.566405,-9474.636058,1036.288319,306.438199
923.566726,-9770.718434,666.185348,995.924147
923.567047,-8586.388927,740.205942,612.876398
923.567367,-9326.594869,-1184.329507,1149.143247
923.567688,-9844.739029,-1036.288319,1149.143247
923.568009,-10732.986159,-1924.535449,2068.457845
923.568330,-10658.965565,-814.226536,2604.724693
923.568650,-10510.924376,222.061783,1838.629195
923.568971,-9326.594869,1406.391290,842.705048
923.569292,-9178.553681,1628.453072,306.438199
923.569612,-8808.450710,1850.514855,689.485948
923.569933,-10066.800811,74.020594,1685.410096
923.570254,-9548.656652,-1036.288319,76.609550
923.570575,-8956.491898,-1924.535449,-766.095498
923.570895,-9474.636058,74.020594,-306.438199
923.571216,-9918.759623,2664.741391,1302.362347
923.571537,-10288.862594,2960.823768,3064.381992
923.571857,-9770.718434,518.144159,1532.190996
923.572178,-9030.512492,296.082377,536.266849
923.572499,-11473.192101,-2146.597232,1455.581446
923.572820,-10732.986159,-1110.308913,2451.505594
923.573140,-10807.006753,0.000000,2451.505594
923.573461,-9326.594869,0.000000,1072.533697
923.573782,-7476.080014,2072.576638,0.000000
923.574103,-9030.512492,0.000000,1378.971896
923.574423,-9474.636058,-148.041188,2068.457845
923.574744,-10658.965565,-592.164754,3064.381992
923.575065,-9992.780217,-2146.597232,2145.067394
923.575385,-8956.491898,-1258.350101,306.438199
923.575706,-10510.924376,-222.061783,2374.896044
923.576027,-8882.471304,1184.329507,1072.533697
923.576348,-9474.636058,-222.061783,919.314598
923.576668,-8660.409521,-1184.329507,76.609550
923.576989,-9474.636058,-1998.556043,0.000000
923.577310,-11177.109724,-2294.638420,1991.848295
923.577630,-10214.842000,-2220.617826,2221.676944
923.577951,-10807.006753,-518.144159,2451.505594
923.578272,-9696.697840,518.144159,1149.143247
923.578593,-8364.327145,962.267725,1225.752797
923.578913,-9400.615463,222.061783,1685.410096
923.579234,-9326.594869,-740.205942,1838.629195
923.579555,-9622.677246,-1924.535449,612.876398
923.579876,-9548.656652,-1554.432478,-229.828649
923.580196,-8808.450710,-888.247130,-689.485948
923.580517,-9400.615463,296.082377,76.609550
923.580838,-9474.636058,518.144159,1302.362347
923.581159,-9252.574275,-148.041188,383.047749
923.581480,-9474.636058,-444.123565,-306.438199
923.581800,-10658.965565,-888.247130,306.438199
923.582121,-11103.089130,-888.247130,1685.410096
923.582442,-10584.944971,74.020594,2145.067394
923.582763,-10288.862594,296.082377,1378.971896
923.583083,-9400.615463,-296.082377,459.657299
923.583404,-8068.244768,-370.102971,229.828649
923.583725,-9326.594869,-518.144159,1149.143247
923.584046,-9548.656652,-592.164754,2834.553343
923.584366,-9548.656652,-1480.411884,1149.143247
923.584687,-9548.656652,-1036.288319,536.266849
923.585008,-8956.491898,-740.205942,-536.266849
923.585329,-9696.697840,0.000000,76.609550
923.585649,-10066.800811,-370.102971,1915.238745
923.585970,-9178.553681,-1184.329507,-229.828649
923.586291,-9474.636058,-1850.514855,-383.047749
923.586612,-9992.780217,-2368.659014,536.266849
923.586932,-10362.883188,-740.205942,919.314598
923.587253,-10955.047942,-1554.432478,919.314598
923.587574,-9252.574275,814.226536,842.705048
923.587895,-8660.409521,148.041188,306.438199
923.588216,-8660.409521,0.000000,766.095498
923.588536,-9548.656652,222.061783,2221.676944
923.588857,-10214.842000,-888.247130,2451.505594
923.589178,-9474.636058,-1036.288319,2298.286494
923.589499,-9326.594869,-962.267725,306.438199
923.589819,-9104.533087,666.185348,76.609550
923.590140,-9918.759623,1776.494261,1149.143247
923.590461,-9326.594869,1258.350101,1149.143247
923.590782,-8660.409521,74.020594,76.609550
923.591102,-10288.862594,-592.164754,0.000000
923.591423,-11399.171507,-444.123565,1378.971896
923.591744,-11029.068536,-518.144159,2145.067394
923.592065,-10881.027347,666.185348,2681.334243
923.592385,-9918.759623,1628.453072,1838.629195
923.592706,-9252.574275,666.185348,1302.362347
923.593027,-9474.636058,0.000000,2068.457845
923.593348,-9326.594869,444.123565,2834.553343
923.593668,-10436.903782,-1110.308913,2374.896044
923.593989,-9770.718434,-1184.329507,2221.676944
923.594310,-8364.327145,-1850.514855,919.314598
923.594631,-9030.512492,-814.226536,0.000000
923.594952,-8882.471304,74.020594,306.438199
923.595272,-8586.388927,0.000000,-229.828649
923.595593,-8438.347739,0.000000,-1149.143247
923.595914,-9400.615463,74.020594,-383.047749
923.596235,-9844.739029,-222.061783,919.314598
923.596555,-10436.903782,-444.123565,1149.143247
923.596876,-9992.780217,666.185348,1608.800546
923.597197,-10362.883188,370.102971,1838.629195
923.597518,-9474.636058,518.144159,2221.676944
923.597838,-10214.842000,74.020594,3524.039291
923.598159,-10214.842000,-592.164754,2911.162892
923.598480,-10510.924376,-1332.370696,3294.210641
923.598801,-9770.718434,-1036.288319,1838.629195
923.599121,-8882.471304,0.000000,919.314598
923.599442,-8734.430116,1110.308913,153.219100
923.599763,-8512.368333,-222.061783,-612.876398
923.600084,-7254.018232,148.041188,-995.924147
923.600404,-9178.553681,222.061783,-1225.752797
923.600725,-9844.739029,-370.102971,919.314598
923.601046,-11029.068536,-1258.350101,1915.238745
923.601367,-10881.027347,-1110.308913,2834.553343
923.601688,-11029.068536,-148.041188,2068.457845
923.602008,-10732.986159,814.226536,2528.115143
923.602329,-9622.677246,0.000000,2298.286494
923.602650,-9252.574275,296.082377,2145.067394
923.602971,-9918.759623,-1036.288319,2451.505594
923.603291,-8882.471304,-2886.803174,383.047749
923.603612,-8808.450710,-1480.411884,229.828649
923.603933,-8290.306550,-1998.556043,76.609550
923.604254,-8142.265362,1110.308913,76.609550
923.604574,-9992.780217,-444.123565,1378.971896
923.604895,-8438.347739,-740.205942,-229.828649
923.605216,-10881.027347,-1110.308913,536.266849
923.605537,-10955.047942,-1702.473667,1378.971896
923.605857,-10510.924376,-1184.329507,1762.019645
923.606178,-11103.089130,-444.123565,1685.410096
923.606499,-9622.677246,444.123565,766.095498
923.606820,-7920.203579,962.267725,459.657299
923.607140,-8364.327145,0.000000,612.876398
923.607461,-8956.491898,-518.144159,1149.143247
923.607782,-9474.636058,-1184.329507,1072.533697
923.608103,-9400.615463,-1406.391290,1455.581446
923.608424,-9400.615463,-222.061783,153.219100
923.608744,-9770.718434,962.267725,995.924147
923.609065,-9770.718434,518.144159,1991.848295
923.609386,-9622.677246,-814.226536,1685.410096
923.609707,-9030.512492,-2442.679609,-76.609550
923.610027,-9992.780217,-2516.700203,0.000000
923.610348,-10066.800811,-1332.370696,919.314598
923.610669,-10732.986159,-1184.329507,689.485948
923.610990,-9622.677246,1480.411884,1072.533697
923.611310,-9326.594869,1036.288319,229.828649
923.611631,-8660.409521,0.000000,229.828649
923.611952,-9548.656652,-518.144159,1685.410096
923.612273,-10288.862594,-888.247130,2528.115143
923.612593,-9992.780217,-1998.556043,2451.505594
923.612914,-9622.677246,-2072.576638,1915.238745
923.613235,-8660.409521,-1554.432478,306.438199
923.613556,-8882.471304,-444.123565,0.000000
923.613876,-9400.615463,296.082377,995.924147
923.614197,-9474.636058,-296.082377,459.657299
923.614518,-9770.718434,592.164754,153.219100
923.614839,-11843.295072,0.000000,1225.752797
923.615160,-11917.315666,888.247130,2374.896044
923.615480,-11769.274478,148.041188,2145.067394
923.615801,-10732.986159,888.247130,1685.410096
923.616122,-9474.636058,592.164754,76.609550
923.616443,-8512.368333,1258.350101,-229.828649
923.616763,-8586.388927,0.000000,1072.533697
923.617084,-8956.491898,444.123565,1378.971896
923.617405,-9326.594869,-222.061783,1838.629195
923.617726,-9030.512492,0.000000,1685.410096
923.618046,-8882.471304,370.102971,1072.533697
923.618367,-9622.677246,222.061783,1685.410096
923.618688,-9548.656652,296.082377,2374.896044
923.619009,-8586.388927,-666.185348,229.828649
923.619329,-9474.636058,-592.164754,153.219100
923.619650,-10140.821405,-592.164754,1149.143247
923.619971,-10807.006753,-1258.350101,2604.724693
923.620292,-10066.800811,-962.267725,1685.410096
923.620612,-9474.636058,-444.123565,1608.800546
923.620933,-8438.347739,1332.370696,0.000000
923.621254,-9178.553681,888.247130,2068.457845
923.621575,-9178.553681,962.267725,2681.334243
923.621896,-8956.491898,-296.082377,2298.286494
923.622216,-9252.574275,-1332.370696,1149.143247
923.622537,-8586.388927,-1110.308913,383.047749
923.622858,-9474.636058,-222.061783,536.266849
923.623179,-8808.450710,1628.453072,1302.362347
923.623499,-8734.430116,1480.411884,1532.190996
923.623820,-9252.574275,148.041188,306.438199
923.624141,-10214.842000,-1184.329507,536.266849
923.624462,-10955.047942,-1702.473667,1225.752797
923.624782,-10214.842000,-1628.453072,229.828649
923.625103,-11177.109724,222.061783,842.705048
923.625424,-10214.842000,1184.329507,766.095498
923.625745,-8956.491898,1332.370696,229.828649
923.626065,-9474.636058,1776.494261,2221.676944
923.626386,-10436.903782,296.082377,2757.943793
923.626707,-10214.842000,-1480.411884,2298.286494
923.627028,-10066.800811,-1924.535449,1532.190996
923.627348,-9104.533087,-888.247130,459.657299
923.627669,-8882.471304,666.185348,1072.533697
923.627990,-9252.574275,1258.350101,2068.457845
923.628311,-8734.430116,-370.102971,383.047749
923.628632,-9030.512492,-666.185348,-919.314598
923.628952,-10658.965565,-2220.617826,0.000000
923.629273,-10584.944971,-2368.659014,1225.752797
923.629594,-10955.047942,-2294.638420,1149.143247
923.629915,-9992.780217,-666.185348,766.095498
923.630235,-9474.636058,296.082377,383.047749
923.630556,-9030.512492,-222.061783,842.705048
923.630877,-9400.615463,-296.082377,2145.067394
923.631198,-9770.718434,-814.226536,2451.505594
923.631518,-9622.677246,-1850.514855,1685.410096
923.631839,-8364.327145,-1258.350101,1225.752797
923.632160,-8216.285956,-444.123565,0.000000
923.632481,-8364.327145,814.226536,1072.533697
923.632801,-8586.388927,888.247130,1302.362347
923.633122,-7846.182985,-1184.329507,-919.314598
923.633443,-8512.368333,-2590.720797,-995.924147
923.633764,-10362.883188,-3034.844362,383.047749
923.634084,-10510.924376,-3108.864956,919.314598
923.634405,-10584.944971,-1184.329507,1532.190996
923.634726,-10066.800811,518.144159,459.657299
923.635047,-9548.656652,296.082377,0.000000
923.635368,-8364.327145,962.267725,1685.410096
923.635688,-10510.924376,-1332.370696,2451.505594
923.636009,-9992.780217,-1406.391290,2298.286494
923.636330,-10140.821405,-1184.329507,1685.410096
923.636651,-9104.533087,74.020594,766.095498
923.636971,-9030.512492,1332.370696,1149.143247
923.637292,-9178.553681,0.000000,-383.047749
923.637613,-8956.491898,370.102971,1149.143247
923.637934,-9474.636058,-962.267725,-766.095498
923.638254,-9918.759623,-1110.308913,-229.828649
923.638575,-10658.965565,-814.226536,536.266849
923.638896,-11473.192101,-296.082377,919.314598
923.639217,-11325.150913,1554.432478,459.657299
923.639537,-10066.800811,2072.576638,76.609550
923.639858,-9252.574275,666.185348,0.000000
923.640179,-10214.842000,0.000000,1302.362347
923.640500,-10955.047942,-370.102971,2834.553343
923.640820,-10214.842000,-814.226536,2604.724693
923.641141,-9696.697840,-1480.411884,1685.410096
923.641462,-8956.491898,0.000000,1072.533697
923.641783,-8808.450710,-148.041188,306.438199
923.642103,-8586.388927,1036.288319,1455.581446
923.642424,-8734.430116,1110.308913,1072.533697
923.642745,-8586.388927,-148.041188,76.609550
923.643066,-9770.718434,-222.061783,689.485948
923.643387,-10510.924376,-1184.329507,1455.581446
923.643707,-10658.965565,-888.247130,1225.752797
923.644028,-10288.862594,296.082377,1532.190996
923.644349,-9474.636058,518.144159,0.000000
923.644670,-9030.512492,148.041188,383.047749
923.644990,-9548.656652,-222.061783,1838.629195
923.645311,-9622.677246,0.000000,2451.505594
923.645632,-9992.780217,-1184.329507,1532.190996
923.645953,-8808.450710,-370.102971,1838.629195
923.646273,-8734.430116,0.000000,1915.238745
923.646594,-8956.491898,296.082377,1608.800546
923.646915,-8586.388927,148.041188,2145.067394
923.647236,-8142.265362,-1036.288319,766.095498
923.647556,-7698.141797,-1480.411884,-612.876398
923.647877,-9844.739029,-814.226536,383.047749
923.648198,-10436.903782,-444.123565,1378.971896
923.648519,-10140.821405,1036.288319,1608.800546
923.648839,-10214.842000,1554.432478,1225.752797
923.649160,-9400.615463,1628.453072,995.924147
923.649481,-10584.944971,-962.267725,1685.410096
923.649802,-10214.842000,370.102971,2374.896044
923.650123,-11843.295072,-3034.844362,3294.210641
923.650443,-9844.739029,-2368.659014,1685.410096
923.650764,-9770.718434,-1628.453072,919.314598
923.651085,-9474.636058,888.247130,306.438199
923.651406,-9622.677246,2368.659014,1302.362347
923.651726,-9696.697840,1480.411884,1991.848295
923.652047,-9252.574275,370.102971,0.000000
923.652368,-9548.656652,-1258.350101,-1378.971896
923.652689,-10214.842000,-1406.391290,0.000000
923.653009,-9844.739029,-962.267725,306.438199
923.653330,-9844.739029,-888.247130,0.000000
923.653651,-9030.512492,0.000000,-1149.143247
923.653972,-8882.471304,962.267725,-459.657299
923.654292,-9770.718434,-296.082377,153.219100
923.654613,-10510.924376,-370.102971,1378.971896
923.654934,-11251.130318,-888.247130,2374.896044
923.655255,-9770.718434,-1480.411884,1225.752797
923.655575,-9474.636058,-888.247130,1302.362347
923.655896,-9030.512492,-296.082377,1302.362347
923.656217,-8290.306550,74.020594,1685.410096
923.656538,-8734.430116,-518.144159,995.924147
923.656859,-7994.224174,-1554.432478,0.000000
923.657179,-9104.533087,-1776.494261,0.000000
923.657500,-9992.780217,-1184.329507,1149.143247
923.657821,-10066.800811,-1924.535449,689.485948
923.658142,-9696.697840,-1480.411884,612.876398
923.658462,-9400.615463,74.020594,536.266849
923.658783,-9030.512492,-666.185348,0.000000
923.659104,-9178.553681,-296.082377,1225.752797
923.659425,-10140.821405,-1110.308913,1991.848295
923.659745,-9992.780217,-1554.432478,1685.410096
923.660066,-9326.594869,-592.164754,766.095498
923.660387,-9326.594869,444.123565,1149.143247
923.660708,-8882.471304,666.185348,842.705048
923.661028,-9326.594869,666.185348,2145.067394
923.661349,-8956.491898,-962.267725,1072.533697
923.661670,-8956.491898,-962.267725,536.266849
923.661991,-10955.047942,-1258.350101,1455.581446
923.662311,-10658.965565,-518.144159,1838.629195
923.662632,-10066.800811,962.267725,1608.800546
923.662953,-10584.944971,1776.494261,842.705048
923.663274,-9474.636058,1850.514855,153.219100
923.663595,-9474.636058,370.102971,766.095498
923.663915,-9622.677246,0.000000,1915.238745
923.664236,-10288.862594,-1184.329507,2145.067394
923.664557,-10066.800811,-1184.329507,1455.581446
923.664878,-9696.697840,-222.061783,1072.533697
923.665198,-8586.388927,1184.329507,2068.457845
923.665519,-9326.594869,1184.329507,2145.067394
923.665840,-8512.368333,0.000000,1838.629195
923.666161,-8290.306550,-740.205942,536.266849
923.666481,-9770.718434,-1332.370696,919.314598
923.666802,-10436.903782,-1332.370696,1991.848295
923.667123,-10436.903782,-518.144159,2374.896044
923.667444,-11029.068536,370.102971,2451.505594
923.667764,-9622.677246,1924.535449,1455.581446
923.668085,-10584.944971,74.020594,1225.752797
923.668406,-9474.636058,-1628.453072,153.219100
923.668727,-9178.553681,0.000000,842.705048
923.669047,-10658.965565,-1406.391290,459.657299
923.669368,-7772.162391,814.226536,153.219100
923.669689,-9474.636058,148.041188,0.000000
923.670010,-7994.224174,666.185348,-459.657299
923.670331,-8956.491898,888.247130,919.314598
923.670651,-9696.697840,-666.185348,1991.848295
923.670972,-9178.553681,74.020594,1762.019645
923.671293,-10140.821405,-888.247130,1532.190996
923.671614,-9696.697840,-370.102971,2451.505594
923.671934,-10436.903782,-1184.329507,1915.238745
923.672255,-9548.656652,-370.102971,995.924147
923.672576,-9548.656652,0.000000,229.828649
923.672897,-8586.388927,0.000000,-306.438199
923.673217,-9474.636058,-592.164754,0.000000
923.673538,-10436.903782,0.000000,1685.410096
923.673859,-11029.068536,-296.082377,2834.553343
923.674180,-10807.006753,-1258.350101,2911.162892
923.674500,-10362.883188,-1480.411884,2145.067394
923.674821,-9844.739029,-962.267725,2451.505594
923.675142,-10066.800811,0.000000,1532.190996
923.675463,-9104.533087,-592.164754,1455.581446
923.675783,-8216.285956,-1332.370696,-689.485948
923.676104,-9104.533087,-1702.473667,-229.828649
923.676425,-9178.553681,-1776.494261,-229.828649
923.676746,-10066.800811,-444.123565,1149.143247
923.677067,-10436.903782,74.020594,1455.581446
923.677387,-9696.697840,-222.061783,306.438199
923.677708,-9104.533087,-962.267725,0.000000
923.678029,-9844.739029,-1036.288319,919.314598
923.678350,-10362.883188,-814.226536,1838.629195
923.678670,-10658.965565,-1258.350101,1991.848295
923.678991,-8956.491898,-2146.597232,2451.505594
923.679312,-7994.224174,-888.247130,-995.924147
923.679633,-8956.491898,296.082377,-536.266849
923.679953,-8660.409521,518.144159,689.485948
923.680274,-8512.368333,-148.041188,842.705048
923.680595,-9030.512492,-1332.370696,536.266849
923.680916,-9696.697840,-1628.453072,1072.533697
923.681236,-10584.944971,-1702.473667,2298.286494
923.681557,-10807.006753,-370.102971,2298.286494
923.681878,-9474.636058,0.000000,1225.752797
923.682199,-8734.430116,0.000000,459.657299
923.682520,-8290.306550,296.082377,1225.752797
923.682840,-10214.842000,-1850.514855,-612.876398
923.683161,-7772.162391,-2220.617826,766.095498
923.683482,-10658.965565,-2368.659014,-153.219100
923.683803,-8882.471304,-444.123565,536.266849
923.684124,-9030.512492,296.082377,-536.266849
923.684445,-11621.233289,2368.659014,2987.772442
923.684765,-8586.388927,518.144159,229.828649
923.685086,-9918.759623,-740.205942,612.876398
923.685407,-10140.821405,-814.226536,1302.362347
923.685728,-10436.903782,-222.061783,1149.143247
923.686049,-11399.171507,-370.102971,3524.039291
923.686369,-9104.533087,592.164754,1149.143247
923.686690,-8734.430116,1406.391290,229.828649
923.687011,-9844.739029,148.041188,459.657299
923.687332,-8512.368333,1406.391290,2911.162892
923.687653,-10584.944971,1406.391290,2451.505594
923.687973,-11103.089130,518.144159,2604.724693
923.688294,-10066.800811,74.020594,2068.457845
923.688615,-9770.718434,-296.082377,1072.533697
923.688936,-9548.656652,666.185348,1302.362347
923.689257,-9548.656652,814.226536,2298.286494
923.689577,-8956.491898,-1036.288319,1532.190996
923.689898,-9178.553681,-1702.473667,689.485948
923.690219,-9178.553681,-1332.370696,383.047749
923.690540,-10066.800811,-666.185348,1608.800546
923.690861,-10881.027347,1110.308913,3140.991542
923.691181,-9844.739029,1628.453072,2145.067394
923.691502,-9252.574275,1406.391290,2068.457845
923.691823,-8438.347739,-222.061783,1149.143247
923.692144,-8734.430116,-222.061783,1072.533697
923.692465,-10881.027347,-888.247130,2451.505594
923.692785,-9474.636058,-592.164754,1762.019645
923.693106,-8808.450710,-148.041188,689.485948
923.693427,-9252.574275,-296.082377,-229.828649
923.693748,-8956.491898,1184.329507,0.000000
923.694069,-10140.821405,370.102971,1149.143247
923.694389,-9326.594869,-888.247130,459.657299
923.694710,-8808.450710,-1480.411884,-153.219100
923.695031,-10066.800811,-1924.535449,612.876398
923.695352,-10436.903782,-1924.535449,1532.190996
923.695673,-10140.821405,-814.226536,1608.800546
923.695993,-9400.615463,74.020594,1455.581446
923.696314,-8586.388927,296.082377,153.219100
923.696635,-9252.574275,-148.041188,612.876398
923.696956,-9178.553681,-148.041188,1532.190996
923.697277,-9918.759623,74.020594,2298.286494
923.697598,-10881.027347,-1036.288319,2298.286494
923.697918,-9770.718434,-888.247130,689.485948
923.698239,-9622.677246,-296.082377,612.876398
923.698560,-9844.739029,0.000000,-229.828649
923.698881,-8882.471304,-148.041188,229.828649
923.699202,-9252.574275,-962.267725,-459.657299
923.699522,-9326.594869,-1406.391290,-1378.971896
923.699843,-9844.739029,-666.185348,-766.095498
923.700164,-10214.842000,-888.247130,153.219100
923.700485,-10362.883188,888.247130,1149.143247
923.700806,-10288.862594,814.226536,1149.143247
923.701126,-8956.491898,666.185348,1532.190996
923.701447,-10214.842000,-444.123565,2374.896044
923.701768,-10658.965565,-1332.370696,3370.820191
923.702089,-11103.089130,-1628.453072,3140.991542
923.702410,-10066.800811,-2590.720797,2451.505594
923.702730,-8956.491898,-1554.432478,76.609550
923.703051,-9548.656652,-296.082377,919.314598
923.703372,-9030.512492,-296.082377,76.609550
923.703693,-8142.265362,-814.226536,-689.485948
923.704014,-8956.491898,-1184.329507,-1762.019645
923.704334,-9030.512492,-444.123565,536.266849
923.704655,-10881.027347,-1924.535449,1991.848295
923.704976,-10436.903782,-1332.370696,3447.429741
923.705297,-10510.924376,-1480.411884,2145.067394
923.705618,-9400.615463,-370.102971,1149.143247
923.705938,-9326.594869,148.041188,2145.067394
923.706259,-9400.615463,518.144159,2528.115143
923.706580,-9400.615463,518.144159,2374.896044
923.706901,-9474.636058,-444.123565,1455.581446
923.707222,-8734.430116,-1850.514855,383.047749
923.707542,-8438.347739,-1184.329507,0.000000
923.707863,-9548.656652,-592.164754,229.828649
923.708184,-8882.471304,518.144159,2374.896044
923.708505,-9696.697840,-666.185348,842.705048
923.708826,-9548.656652,-666.185348,153.219100
923.709146,-10584.944971,-1110.308913,153.219100
923.709467,-11177.109724,-1110.308913,1455.581446
923.709788,-10807.006753,962.267725,1225.752797
923.710109,-10807.006753,1998.556043,842.705048
923.710430,-9030.512492,2664.741391,153.219100
923.710750,-8956.491898,1776.494261,689.485948
923.711071,-10362.883188,1258.350101,2987.772442
923.711392,-10362.883188,-444.123565,2528.115143
923.711713,-10140.821405,-1036.288319,2068.457845
923.712034,-9326.594869,-444.123565,842.705048
923.712355,-9400.615463,370.102971,612.876398
923.712675,-9400.615463,1554.432478,919.314598
923.712996,-8956.491898,444.123565,153.219100
923.713317,-8438.347739,-814.226536,-1149.143247
923.713638,-8956.491898,-1258.350101,-1532.190996
923.713959,-10658.965565,-1850.514855,536.266849
923.714279,-11103.089130,-1554.432478,2374.896044
923.714600,-10807.006753,-222.061783,1991.848295
923.714921,-9622.677246,2368.659014,1302.362347
923.715242,-8586.388927,1332.370696,612.876398
923.715563,-9474.636058,1554.432478,2298.286494
923.715883,-9548.656652,296.082377,2911.162892
923.716204,-9104.533087,-2812.782580,995.924147
923.716525,-8364.327145,-1480.411884,459.657299
923.716846,-9252.574275,-2072.576638,0.000000
923.717167,-7772.162391,74.020594,306.438199
923.717487,-9474.636058,444.123565,1072.533697
923.717808,-8068.244768,518.144159,919.314598
923.718129,-9104.533087,-814.226536,-76.609550
923.718450,-10066.800811,-370.102971,0.000000
923.718771,-10807.006753,-740.205942,1685.410096
923.719091,-11251.130318,-962.267725,2604.724693
923.719412,-10881.027347,-444.123565,2451.505594
923.719733,-10436.903782,-592.164754,1838.629195
923.720054,-9696.697840,-888.247130,2298.286494
923.720375,-10066.800811,-814.226536,3064.381992
923.720695,-10807.006753,-296.082377,4060.306139
923.721016,-9696.697840,-814.226536,2757.943793
923.721337,-9326.594869,-1110.308913,1149.143247
923.721658,-8586.388927,-740.205942,-383.047749
923.721979,-8438.347739,0.000000,-229.828649
923.722299,-8808.450710,-888.247130,459.657299
923.722620,-8438.347739,-1850.514855,-459.657299
923.722941,-9474.636058,-1554.432478,-842.705048
923.723262,-11177.109724,-1776.494261,689.485948
923.723583,-10955.047942,-888.247130,2221.676944
923.723903,-11621.233289,-666.185348,2068.457845
923.724224,-11177.109724,296.082377,1225.752797
923.724545,-9400.615463,444.123565,383.047749
923.724866,-9104.533087,-592.164754,459.657299
923.725187,-8512.368333,-74.020594,1302.362347
923.725507,-9474.636058,-962.267725,1378.971896
923.725828,-9252.574275,-1110.308913,1455.581446
923.726149,-9326.594869,-1258.350101,536.266849
923.726470,-8438.347739,0.000000,1838.629195
923.726791,-9622.677246,518.144159,536.266849
923.727112,-9326.594869,962.267725,1225.752797
923.727432,-9326.594869,-666.185348,0.000000
923.727753,-9326.594869,-592.164754,-306.438199
923.728074,-10288.862594,-1554.432478,459.657299
923.728395,-10510.924376,-2220.617826,306.438199
923.728716,-9918.759623,-740.205942,306.438199
923.729036,-10214.842000,74.020594,0.000000
923.729357,-9030.512492,592.164754,229.828649
923.729678,-8808.450710,-296.082377,383.047749
923.729999,-9178.553681,-1332.370696,1532.190996
923.730320,-9992.780217,-2368.659014,2145.067394
923.730640,-10214.842000,-2516.700203,2528.115143
923.730961,-9326.594869,-1998.556043,1455.581446
923.731282,-9326.594869,-74.020594,1149.143247
923.731603,-10140.821405,1184.329507,2068.457845
923.731924,-9178.553681,1406.391290,2221.676944
923.732244,-9326.594869,296.082377,-153.219100
923.732565,-9104.533087,-444.123565,-919.314598
923.732886,-9474.636058,-740.205942,-153.219100
923.733207,-10066.800811,444.123565,842.705048
923.733528,-10584.944971,1628.453072,2757.943793
923.733848,-9474.636058,1406.391290,919.314598
923.734169,-8882.471304,1110.308913,0.000000
923.734490,-9844.739029,1554.432478,1532.190996
923.734811,-11399.171507,1184.329507,4749.792088
923.735132,-11103.089130,148.041188,4596.572988
923.735452,-10658.965565,518.144159,3907.087040
923.735773,-8956.491898,370.102971,1991.848295
923.736094,-9326.594869,518.144159,1762.019645
923.736415,-8216.285956,0.000000,1149.143247
923.736736,-7698.141797,-888.247130,76.609550
923.737056,-8142.265362,-814.226536,-766.095498
923.737377,-9326.594869,-666.185348,-306.438199
923.737698,-10584.944971,-666.185348,1532.190996
923.738019,-11621.233289,0.000000,2145.067394
923.738340,-11029.068536,222.061783,2528.115143
923.738660,-9622.677246,444.123565,766.095498
923.738981,-9474.636058,148.041188,612.876398
923.739302,-9474.636058,888.247130,2068.457845
923.739623,-9844.739029,518.144159,2528.115143
923.739944,-9400.615463,0.000000,2068.457845
923.740265,-8734.430116,-814.226536,842.705048
923.740585,-8364.327145,-518.144159,-766.095498
923.740906,-8586.388927,74.020594,306.438199
923.741227,-8512.368333,0.000000,1149.143247
923.741548,-8956.491898,-666.185348,459.657299
923.741869,-9326.594869,-1332.370696,153.219100
923.742189,-10214.842000,-1924.535449,689.485948
923.742510,-10436.903782,-2072.576638,842.705048
923.742831,-10658.965565,-740.205942,1072.533697
923.743152,-10214.842000,296.082377,383.047749
923.743473,-9474.636058,370.102971,-383.047749
923.743793,-8882.471304,222.061783,536.266849
923.744114,-9326.594869,-222.061783,1149.143247
923.744435,-10140.821405,-1702.473667,1685.410096
923.744756,-10214.842000,-2516.700203,2298.286494
923.745077,-9252.574275,-1850.514855,1149.143247
923.745397,-9104.533087,-1258.350101,536.266849
923.745718,-9178.553681,592.164754,1685.410096
923.746039,-9548.656652,-370.102971,1915.238745
923.746360,-9030.512492,-1036.288319,0.000000
923.746681,-9548.656652,-1554.432478,-612.876398
923.747001,-9770.718434,-1776.494261,536.266849
923.747322,-10881.027347,-2442.679609,766.095498
923.747643,-10436.903782,-1924.535449,1302.362347
923.747964,-9622.677246,-592.164754,0.000000
923.748285,-9548.656652,-666.185348,76.609550
923.748605,-9178.553681,-296.082377,689.485948
923.748926,-10214.842000,-222.061783,2834.553343
923.749247,-10881.027347,-740.205942,2528.115143
923.749568,-9622.677246,-666.185348,2221.676944
923.749889,-9548.656652,-814.226536,1762.019645
923.750209,-9400.615463,-148.041188,1225.752797
923.750530,-9252.574275,296.082377,1378.971896
923.750851,-8734.430116,444.123565,995.924147
923.751172,-8364.327145,-740.205942,76.609550
923.751493,-9548.656652,-740.205942,383.047749
923.751813,-10881.027347,-1628.453072,1838.629195
923.752134,-10658.965565,-1554.432478,1532.190996
923.752455,-10584.944971,-666.185348,919.314598
923.752776,-9622.677246,-222.061783,0.000000
923.753097,-7994.224174,592.164754,1302.362347
923.753417,-8734.430116,148.041188,76.609550
923.753738,-9474.636058,148.041188,1608.800546
923.754059,-9400.615463,-370.102971,1378.971896
923.754380,-9622.677246,-1110.308913,1685.410096
923.754701,-9918.759623,-666.185348,2451.505594
923.755022,-10658.965565,148.041188,4443.353888
923.755342,-10955.047942,-1332.370696,4519.963438
923.755663,-9252.574275,-1554.432478,2681.334243
923.755984,-9104.533087,-1332.370696,-459.657299
923.756305,-9770.718434,370.102971,383.047749
923.756626,-9844.739029,444.123565,229.828649
923.756946,-8808.450710,2442.679609,-306.438199
923.757267,-9326.594869,2516.700203,153.219100
923.757588,-7698.141797,2072.576638,-2068.457845
923.757909,-9548.656652,814.226536,0.000000
923.758230,-10807.006753,592.164754,2604.724693
923.758550,-10955.047942,0.000000,3217.601092
923.758871,-11177.109724,-592.164754,3524.039291
923.759192,-10214.842000,0.000000,2374.896044
923.759513,-9548.656652,518.144159,1302.362347
923.759834,-9548.656652,1850.514855,1455.581446
923.760154,-8438.347739,1702.473667,306.438199
923.760475,-7698.141797,592.164754,-842.705048
923.760796,-8586.388927,0.000000,-306.438199
923.761117,-9474.636058,-1480.411884,842.705048
923.761438,-10066.800811,-2738.761985,1225.752797
923.761758,-10807.006753,-740.205942,995.924147
923.762079,-9844.739029,2146.597232,1915.238745
923.762400,-10288.862594,518.144159,842.705048
923.762721,-8512.368333,1258.350101,1838.629195
923.763042,-9696.697840,444.123565,2145.067394
923.763362,-9622.677246,-148.041188,1532.190996
923.763683,-9696.697840,-1184.329507,1455.581446
923.764004,-8364.327145,-888.247130,689.485948
923.764325,-8216.285956,592.164754,1532.190996
923.764646,-9474.636058,296.082377,2068.457845
923.764966,-8290.306550,666.185348,1762.019645
923.765287,-9622.677246,-740.205942,689.485948
923.765608,-9548.656652,-814.226536,0.000000
923.765929,-10510.924376,-814.226536,1455.581446
923.766250,-11325.150913,-1406.391290,1532.190996
923.766570,-10066.800811,-518.144159,1149.143247
923.766891,-9030.512492,-148.041188,459.657299
923.767212,-8808.450710,-1406.391290,153.219100
923.767533,-9178.553681,-296.082377,1149.143247
923.767854,-10807.006753,0.000000,2374.896044
923.768174,-9696.697840,148.041188,2374.896044
923.768495,-10214.842000,-1924.535449,1149.143247
923.768816,-8142.265362,-592.164754,536.266849
923.769137,-9770.718434,-888.247130,689.485948
923.769458,-9178.553681,-296.082377,1608.800546
923.769779,-8290.306550,-888.247130,1608.800546
923.770099,-9104.533087,-1554.432478,229.828649
923.770420,-9326.594869,-1628.453072,76.609550
923.770741,-10140.821405,-2294.638420,919.314598
923.771062,-10288.862594,-1036.288319,1608.800546
923.771383,-10362.883188,-740.205942,1149.143247
923.771703,-9622.677246,296.082377,612.876398
923.772024,-10066.800811,-518.144159,995.924147
923.772345,-10436.903782,0.000000,1762.019645
923.772666,-11621.233289,-222.061783,1991.848295
923.772987,-10362.883188,-2072.576638,1302.362347
923.773307,-9178.553681,-1184.329507,383.047749
923.773628,-9030.512492,-444.123565,-383.047749
923.773949,-8956.491898,0.000000,0.000000
923.774270,-7624.121203,518.144159,459.657299
923.774591,-8512.368333,-592.164754,-383.047749
923.774911,-8512.368333,-740.205942,0.000000
923.775232,-10214.842000,-1332.370696,842.705048
923.775553,-11103.089130,-1480.411884,2068.457845
923.775874,-10658.965565,-814.226536,842.705048
923.776195,-9622.677246,74.020594,383.047749
923.776515,-8660.409521,-296.082377,-383.047749
923.776836,-9326.594869,-740.205942,-306.438199
923.777157,-9696.697840,-518.144159,2145.067394
923.777478,-10066.800811,-2146.597232,1225.752797
923.777799,-8956.491898,-1628.453072,842.705048
923.778119,-9474.636058,-1036.288319,76.609550
923.778440,-9252.574275,962.267725,689.485948
923.778761,-9326.594869,1258.350101,1838.629195
923.779082,-8734.430116,0.000000,1608.800546
923.779403,-8882.471304,-814.226536,383.047749
923.779723,-9770.718434,-1258.350101,689.485948
923.780044,-10510.924376,-1332.370696,1685.410096
923.780365,-10436.903782,-740.205942,2068.457845
923.780686,-9992.780217,666.185348,1608.800546
923.781007,-10732.986159,1998.556043,153.219100
923.781327,-8956.491898,1702.473667,0.000000
923.781648,-9474.636058,1702.473667,1225.752797
923.781969,-11103.089130,1480.411884,2451.505594
923.782289,-10955.047942,222.061783,2528.115143
923.782610,-10584.944971,-962.267725,1838.629195
923.782931,-9770.718434,-296.082377,995.924147
923.783252,-10288.862594,296.082377,1378.971896
923.783572,-10066.800811,888.247130,2451.505594
923.783893,-9548.656652,1406.391290,2451.505594
923.784214,-9474.636058,0.000000,1149.143247
923.784534,-9844.739029,740.205942,1915.238745
923.784855,-11029.068536,-592.164754,2757.943793
923.785176,-8734.430116,-1258.350101,1455.581446
923.785497,-8956.491898,814.226536,459.657299
923.785817,-9918.759623,740.205942,0.000000
923.786138,-7624.121203,814.226536,-153.219100
923.786459,-9104.533087,222.061783,1225.752797
923.786780,-10362.883188,0.000000,3217.601092
923.787100,-10140.821405,-1702.473667,2374.896044
923.787421,-11029.068536,-1628.453072,2298.286494
923.787742,-9474.636058,-296.082377,1915.238745
923.788062,-9844.739029,592.164754,1685.410096
923.788383,-9104.533087,666.185348,2298.286494
923.788704,-8068.244768,-296.082377,689.485948
923.789025,-7920.203579,-1480.411884,-536.266849
923.789345,-9622.677246,-1924.535449,536.266849
923.789666,-9474.636058,-1924.535449,1455.581446
923.789987,-9622.677246,-1184.329507,1302.362347
923.790308,-9992.780217,-296.082377,842.705048
923.790628,-8734.430116,296.082377,536.266849
923.790949,-9030.512492,-1480.411884,0.000000
923.791270,-9326.594869,-370.102971,153.219100
923.791590,-10658.965565,-1332.370696,229.828649
923.791911,-9844.739029,-518.144159,689.485948
923.792232,-9400.615463,-296.082377,153.219100
923.792553,-8956.491898,-222.061783,-689.485948
923.792873,-9030.512492,1110.308913,306.438199
923.793194,-9770.718434,-444.123565,229.828649
923.793515,-8290.306550,148.041188,0.000000
923.793835,-10140.821405,-1406.391290,536.266849
923.794156,-10732.986159,-1554.432478,1149.143247
923.794477,-10658.965565,-1110.308913,1838.629195
923.794798,-11399.171507,-1258.350101,1455.581446
923.795118,-9622.677246,148.041188,919.314598
923.795439,-9326.594869,-370.102971,-689.485948
923.795760,-9548.656652,-148.041188,0.000000
923.796081,-9622.677246,666.185348,1455.581446
923.796401,-11029.068536,-592.164754,1838.629195
923.796722,-9696.697840,-1110.308913,1455.581446
923.797043,-9622.677246,-2146.597232,-306.438199
923.797363,-9104.533087,-740.205942,-536.266849
923.797684,-9844.739029,296.082377,1149.143247
923.798005,-9400.615463,666.185348,1532.190996
923.798326,-9030.512492,-666.185348,842.705048
923.798646,-9474.636058,-1184.329507,76.609550
923.798967,-9918.759623,-1628.453072,1838.629195
923.799288,-10436.903782,-2368.659014,2068.457845
923.799609,-10362.883188,-1406.391290,2068.457845
923.799929,-9030.512492,-518.144159,1072.533697
923.800250,-8660.409521,-296.082377,1072.533697
923.800571,-9252.574275,-148.041188,1685.410096
923.800891,-9622.677246,-1110.308913,1378.971896
923.801212,-9474.636058,-1480.411884,1225.752797
923.801533,-9696.697840,-1702.473667,1149.143247
923.801854,-9178.553681,-1036.288319,612.876398
923.802174,-9400.615463,296.082377,1378.971896
923.802495,-9178.553681,74.020594,1838.629195
923.802816,-8956.491898,222.061783,2068.457845
923.803137,-9770.718434,-296.082377,1455.581446
923.803457,-10140.821405,74.020594,2145.067394
923.803778,-10362.883188,0.000000,2911.162892
923.804099,-10140.821405,1184.329507,2451.505594
923.804419,-10436.903782,1406.391290,1915.238745
923.804740,-9400.615463,740.205942,612.876398
923.805061,-8882.471304,-1036.288319,229.828649
923.805382,-8734.430116,-518.144159,536.266849
923.805702,-10288.862594,-1258.350101,1149.143247
923.806023,-9918.759623,-370.102971,995.924147
923.806344,-9400.615463,814.226536,383.047749
923.806664,-9696.697840,2146.597232,153.219100
923.806985,-9696.697840,2294.638420,1532.190996
923.807306,-10066.800811,1184.329507,2145.067394
923.807627,-10140.821405,-74.020594,2068.457845
923.807947,-10658.965565,-2368.659014,153.219100
923.808268,-10584.944971,-1554.432478,1838.629195
923.808589,-10066.800811,-1258.350101,1072.533697
923.808910,-9696.697840,1258.350101,536.266849
923.809230,-8068.244768,2738.761985,0.000000
923.809551,-7698.141797,814.226536,-1455.581446
923.809872,-6809.894666,592.164754,-1378.971896
923.810192,-9474.636058,-592.164754,0.000000
923.810513,-9770.718434,-666.185348,1149.143247
923.810834,-10436.903782,-518.144159,2298.286494
923.811155,-10732.986159,-296.082377,1915.238745
923.811475,-9770.718434,222.061783,995.924147
923.811796,-10436.903782,74.020594,1685.410096
923.812117,-8438.347739,-222.061783,2911.162892
923.812438,-9252.574275,-592.164754,612.876398
923.812758,-9622.677246,-814.226536,612.876398
923.813079,-8882.471304,-1258.350101,229.828649
923.813400,-9474.636058,-1110.308913,919.314598
923.813720,-9474.636058,444.123565,1149.143247
923.814041,-9326.594869,814.226536,1225.752797
923.814362,-9474.636058,444.123565,1532.190996
923.814683,-9400.615463,0.000000,1991.848295
923.815003,-10140.821405,-1924.535449,2681.334243
923.815324,-10288.862594,-2294.638420,2451.505594
923.815645,-9844.739029,-1998.556043,1608.800546
923.815965,-9400.615463,-296.082377,1149.143247
923.816286,-10066.800811,518.144159,-383.047749
923.816607,-9474.636058,370.102971,919.314598
923.816928,-8882.471304,-296.082377,612.876398
923.817248,-9770.718434,-1110.308913,536.266849
923.817569,-10288.862594,-1776.494261,1225.752797
923.817890,-10362.883188,-1924.535449,1685.410096
923.818211,-10510.924376,-740.205942,1838.629195
923.818531,-10140.821405,518.144159,2451.505594
923.818852,-9400.615463,222.061783,1532.190996
923.819173,-9030.512492,-370.102971,612.876398
923.819493,-9252.574275,-888.247130,229.828649
923.819814,-10066.800811,-1036.288319,1072.533697
923.820135,-10066.800811,-1036.288319,1455.581446
923.820456,-8734.430116,-296.082377,1072.533697
923.820776,-9474.636058,-962.267725,-306.438199
923.821097,-9030.512492,-148.041188,76.609550
923.821418,-8882.471304,-666.185348,383.047749
923.821739,-9400.615463,-1332.370696,306.438199
923.822059,-9622.677246,-962.267725,76.609550
923.822380,-9474.636058,-222.061783,1072.533697
923.822701,-10214.842000,-1850.514855,1225.752797
923.823021,-8956.491898,0.000000,1302.362347
923.823342,-10140.821405,0.000000,1455.581446
923.823663,-8586.388927,-592.164754,612.876398
923.823984,-8216.285956,-740.205942,612.876398
923.824304,-9548.656652,-1332.370696,2068.457845
923.824625,-9770.718434,-962.267725,1302.362347
923.824946,-10436.903782,-1480.411884,2451.505594
923.825266,-10214.842000,0.000000,1225.752797
923.825587,-9326.594869,1332.370696,536.266849
923.825908,-9770.718434,1332.370696,0.000000
923.826229,-8512.368333,592.164754,612.876398
923.826549,-8068.244768,-444.123565,-1455.581446
923.826870,-9400.615463,-740.205942,-383.047749
923.827191,-9992.780217,-1036.288319,689.485948
923.827512,-9696.697840,-592.164754,2374.896044
923.827832,-10362.883188,740.205942,2374.896044
923.828153,-10732.986159,1332.370696,2145.067394
923.828474,-9326.594869,1776.494261,1532.190996
923.828794,-10140.821405,1480.411884,2221.676944
923.829115,-10066.800811,1480.411884,2451.505594
923.829436,-10436.903782,222.061783,2374.896044
923.829757,-9770.718434,-888.247130,1225.752797
923.830077,-8364.327145,-74.020594,-383.047749
923.830398,-9252.574275,814.226536,0.000000
923.830719,-9696.697840,814.226536,1532.190996
923.831040,-9474.636058,592.164754,1378.971896
923.831360,-10362.883188,-518.144159,766.095498
923.831681,-9918.759623,-1332.370696,1608.800546
923.832002,-10955.047942,-1184.329507,1762.019645
923.832322,-10732.986159,-296.082377,2068.457845
923.832643,-10214.842000,888.247130,2298.286494
923.832964,-9030.512492,1702.473667,1455.581446
923.833285,-8512.368333,296.082377,1225.752797
923.833605,-8808.450710,666.185348,1685.410096
923.833926,-9622.677246,592.164754,2451.505594
923.834247,-9622.677246,-592.164754,2221.676944
923.834568,-9474.636058,-296.082377,536.266849
923.834888,-9030.512492,0.000000,306.438199
923.835209,-9474.636058,222.061783,306.438199
923.835530,-9474.636058,-518.144159,689.485948
923.835850,-8438.347739,-2368.659014,-536.266849
923.836171,-9474.636058,-1924.535449,-383.047749
923.836492,-10955.047942,-1406.391290,1685.410096
923.836813,-10807.006753,-74.020594,2911.162892
923.837133,-11325.150913,1702.473667,1838.629195
923.837454,-9844.739029,0.000000,1532.190996
923.837775,-7994.224174,0.000000,536.266849
923.838095,-7698.141797,-2220.617826,-842.705048
923.838416,-7994.224174,-740.205942,1225.752797
923.838737,-9622.677246,-1184.329507,1225.752797
923.839058,-8512.368333,222.061783,2451.505594
923.839378,-10955.047942,-2886.803174,229.828649
923.839699,-7550.100608,222.061783,-383.047749
923.840020,-10584.944971,-370.102971,842.705048
923.840341,-10288.862594,-370.102971,1149.143247
923.840661,-9030.512492,-592.164754,459.657299
923.840982,-10510.924376,-2072.576638,229.828649
923.841303,-9622.677246,-1332.370696,766.095498
923.841623,-10584.944971,-3478.967927,-153.219100
923.841944,-10955.047942,-888.247130,1685.410096
923.842265,-9252.574275,-222.061783,383.047749
923.842586,-9252.574275,1480.411884,612.876398
923.842906,-9696.697840,888.247130,2757.943793
923.843227,-9400.615463,-740.205942,2987.772442
923.843548,-10955.047942,-1776.494261,2604.724693
923.843869,-10510.924376,-1850.514855,2374.896044
923.844189,-8808.450710,-1332.370696,0.000000
923.844510,-8512.368333,370.102971,-689.485948
923.844831,-9548.656652,1258.350101,0.000000
923.845151,-8290.306550,888.247130,-153.219100
923.845472,-9252.574275,-296.082377,-766.095498
923.845793,-10288.862594,-296.082377,1302.362347
923.846114,-10807.006753,-1850.514855,919.314598
923.846434,-11399.171507,-2220.617826,1838.629195
923.846755,-10436.903782,-592.164754,2068.457845
923.847076,-9474.636058,-296.082377,1072.533697
923.847396,-9474.636058,-148.041188,1072.533697
923.847717,-8956.491898,444.123565,2374.896044
923.848038,-9622.677246,-1110.308913,2374.896044
923.848359,-10362.883188,-1702.473667,2604.724693
923.848679,-9622.677246,-1702.473667,1149.143247
923.849000,-8512.368333,-1184.329507,-383.047749
923.849321,-9104.533087,-148.041188,153.219100
923.849642,-8142.265362,370.102971,766.095498
923.849962,-9030.512492,-444.123565,1608.800546
923.850283,-9474.636058,-962.267725,-459.657299
923.850604,-9696.697840,-814.226536,383.047749
923.850924,-10955.047942,-1480.411884,612.876398
923.851245,-10658.965565,962.267725,1608.800546
923.851566,-10214.842000,2294.638420,1455.581446
923.851887,-9252.574275,3034.844362,1149.143247
923.852207,-9030.512492,1480.411884,1378.971896
923.852528,-9326.594869,962.267725,2451.505594
923.852849,-10436.903782,-666.185348,2145.067394
923.853170,-9770.718434,-962.267725,2145.067394
923.853490,-8956.491898,0.000000,766.095498
923.853811,-9252.574275,1110.308913,459.657299
923.854132,-8734.430116,3034.844362,2604.724693
923.854452,-9104.533087,1184.329507,1149.143247
923.854773,-8808.450710,0.000000,76.609550
923.855094,-10214.842000,-518.144159,0.000000
923.855415,-10955.047942,-962.267725,1149.143247
923.855735,-11547.212695,-740.205942,2604.724693
923.856056,-10732.986159,814.226536,1838.629195
923.856377,-9844.739029,1554.432478,1608.800546
923.856697,-8882.471304,888.247130,612.876398
923.857018,-9178.553681,444.123565,1685.410096
923.857339,-9622.677246,-370.102971,2528.115143
923.857660,-10066.800811,-1184.329507,3830.477490
923.857980,-10362.883188,-2072.576638,2221.676944
923.858301,-8068.244768,-296.082377,689.485948
923.858622,-9400.615463,-518.144159,842.705048
923.858943,-8512.368333,1110.308913,1915.238745
923.859263,-9400.615463,-888.247130,1532.190996
923.859584,-8216.285956,-1702.473667,-1149.143247
923.859905,-8586.388927,-592.164754,-1455.581446
923.860225,-10362.883188,-1628.453072,-153.219100
923.860546,-9252.574275,74.020594,229.828649
923.860867,-10658.965565,888.247130,689.485948
923.861188,-8734.430116,1110.308913,1225.752797
923.861508,-9252.574275,0.000000,1149.143247
923.861829,-10807.006753,-518.144159,3217.601092
923.862150,-11029.068536,-1850.514855,4673.182538
923.862471,-10288.862594,-2294.638420,3447.429741
923.862791,-9548.656652,-1702.473667,2221.676944
923.863112,-8438.347739,-518.144159,689.485948
923.863433,-8882.471304,148.041188,766.095498
923.863753,-7994.224174,740.205942,766.095498
923.864074,-8068.244768,-962.267725,-306.438199
923.864395,-7994.224174,-1850.514855,-1991.848295
923.864716,-10214.842000,-2146.597232,-306.438199
923.865036,-11029.068536,-2664.741391,1302.362347
923.865357,-11177.109724,-1184.329507,842.705048
923.865678,-11843.295072,-444.123565,1915.238745
923.865999,-9622.677246,148.041188,459.657299
923.866319,-9474.636058,444.123565,689.485948
923.866640,-10881.027347,518.144159,2451.505594
923.866961,-10214.842000,148.041188,2528.115143
923.867281,-9622.677246,-1998.556043,995.924147
923.867602,-8512.368333,-1850.514855,153.219100
923.867923,-8438.347739,-1702.473667,-612.876398
923.868244,-8586.388927,-444.123565,383.047749
923.868564,-9104.533087,-148.041188,1455.581446
923.868885,-8586.388927,-518.144159,-612.876398
923.869206,-10066.800811,-888.247130,-383.047749
923.869526,-11177.109724,-962.267725,2528.115143
923.869847,-10881.027347,-666.185348,1685.410096
923.870168,-11029.068536,-962.267725,1072.533697
923.870489,-9622.677246,296.082377,153.219100
923.870809,-8586.388927,0.000000,-153.219100
923.871130,-8290.306550,74.020594,229.828649
923.871451,-9400.615463,1110.308913,2604.724693
923.871772,-10214.842000,-444.123565,2451.505594
923.872092,-9474.636058,-1258.350101,2145.067394
923.872413,-8808.450710,-1628.453072,919.314598
923.872734,-8660.409521,-1406.391290,1302.362347
923.873054,-9030.512492,-518.144159,1838.629195
923.873375,-8142.265362,148.041188,1838.629195
923.873696,-8142.265362,74.020594,-229.828649
923.874017,-9548.656652,-592.164754,153.219100
923.874337,-9918.759623,-518.144159,1072.533697
923.874658,-10362.883188,-814.226536,1302.362347
923.874979,-10436.903782,296.082377,919.314598
923.875300,-9548.656652,888.247130,0.000000
923.875620,-8956.491898,1036.288319,229.828649
923.875941,-9622.677246,740.205942,1838.629195
923.876262,-10362.883188,592.164754,3064.381992
923.876582,-10362.883188,-1110.308913,3677.258390
923.876903,-10362.883188,-370.102971,2298.286494
923.877224,-9474.636058,1332.370696,1991.848295
923.877545,-10510.924376,2812.782580,3064.381992
923.877865,-10214.842000,2146.597232,3140.991542
923.878186,-8734.430116,962.267725,1149.143247
923.878507,-8808.450710,-1110.308913,-612.876398
923.878827,-8882.471304,-1702.473667,-612.876398
923.879148,-10436.903782,-2072.576638,766.095498
923.879469,-10658.965565,-1036.288319,153.219100
923.879790,-10362.883188,1776.494261,689.485948
923.880110,-10066.800811,2368.659014,995.924147
923.880431,-9474.636058,1850.514855,919.314598
923.880752,-10436.903782,1332.370696,3677.258390
923.881073,-10732.986159,222.061783,3370.820191
923.881393,-9918.759623,-666.185348,2145.067394
923.881714,-8882.471304,-1332.370696,919.314598
923.882035,-7624.121203,-444.123565,306.438199
923.882355,-8290.306550,370.102971,1149.143247
923.882676,-8068.244768,0.000000,1225.752797
923.882997,-8216.285956,-888.247130,383.047749
923.883318,-9178.553681,-1332.370696,-153.219100
923.883639,-9992.780217,-1258.350101,1532.190996
923.883959,-10807.006753,-1776.494261,2145.067394
923.884280,-10214.842000,-1184.329507,1838.629195
923.884601,-9992.780217,-888.247130,1225.752797
923.884922,-8290.306550,-962.267725,-229.828649
923.885243,-8808.450710,-1184.329507,0.000000
923.885563,-9696.697840,-444.123565,1608.800546
923.885884,-9918.759623,-740.205942,1991.848295
923.886205,-9030.512492,-666.185348,1072.533697
923.886526,-8808.450710,-814.226536,689.485948
923.886847,-8438.347739,370.102971,153.219100
923.887167,-10066.800811,74.020594,1378.971896
923.887488,-8586.388927,370.102971,1378.971896
923.887809,-9548.656652,-1110.308913,995.924147
923.888130,-9696.697840,-2294.638420,0.000000
923.888451,-10658.965565,-1554.432478,919.314598
923.888771,-11399.171507,-1776.494261,1532.190996
923.889092,-9918.759623,0.000000,2451.505594
923.889413,-10658.965565,0.000000,459.657299
923.889734,-9770.718434,0.000000,-153.219100
923.890055,-10436.903782,-444.123565,306.438199
923.890375,-11103.089130,-444.123565,2221.676944
923.890696,-10362.883188,-1702.473667,1762.019645
923.891017,-9622.677246,-2146.597232,459.657299
923.891338,-8216.285956,-888.247130,-689.485948
923.891659,-8438.347739,0.000000,0.000000
923.891979,-8438.347739,-888.247130,1072.533697
923.892300,-7476.080014,222.061783,689.485948
923.892621,-10362.883188,-888.247130,842.705048
923.892942,-9918.759623,-1332.370696,995.924147
923.893263,-11325.150913,-1776.494261,2834.553343
923.893583,-11177.109724,-1924.535449,2451.505594
923.893904,-9844.739029,-592.164754,1149.143247
923.894225,-9548.656652,-370.102971,383.047749
923.894546,-8216.285956,-296.082377,229.828649
923.894867,-8216.285956,-444.123565,383.047749
923.895187,-9770.718434,0.000000,1762.019645
923.895508,-9770.718434,-1406.391290,2068.457845
923.895829,-9474.636058,-1332.370696,1302.362347
923.896150,-9400.615463,-518.144159,1149.143247
923.896471,-9474.636058,0.000000,1915.238745
923.896791,-9326.594869,740.205942,2604.724693
923.897112,-8808.450710,-518.144159,1685.410096
923.897433,-9252.574275,-666.185348,612.876398
923.897754,-8956.491898,0.000000,766.095498
923.898075,-10362.883188,-1258.350101,1072.533697
923.898395,-9326.594869,1406.391290,919.314598
923.898716,-9992.780217,1036.288319,229.828649
923.899037,-8290.306550,1184.329507,-612.876398
923.899358,-8882.471304,370.102971,-383.047749
923.899679,-10140.821405,888.247130,1378.971896
923.899999,-11399.171507,222.061783,2298.286494
923.900320,-11399.171507,-592.164754,2145.067394
923.900641,-10140.821405,-1554.432478,842.705048
923.900962,-9030.512492,-666.185348,306.438199
923.901283,-9252.574275,0.000000,612.876398
923.901603,-8438.347739,1110.308913,1225.752797
923.901924,-9104.533087,1332.370696,536.266849
923.902245,-9474.636058,1036.288319,383.047749
923.902566,-9696.697840,74.020594,1149.143247
923.902887,-10732.986159,0.000000,1991.848295
923.903207,-10732.986159,148.041188,1378.971896
923.903528,-10362.883188,444.123565,1455.581446
923.903849,-9326.594869,444.123565,459.657299
923.904170,-9918.759623,0.000000,919.314598
923.904491,-11103.089130,1110.308913,1991.848295
923.904811,-10436.903782,592.164754,2221.676944
923.905132,-10066.800811,0.000000,1915.238745
923.905453,-9474.636058,0.000000,0.000000
923.905774,-8364.327145,1036.288319,1532.190996
923.906095,-9178.553681,296.082377,919.314598
923.906415,-7920.203579,1184.329507,1302.362347
923.906736,-9104.533087,-148.041188,1378.971896
923.907057,-9400.615463,-1702.473667,995.924147
923.907378,-10140.821405,-1554.432478,2451.505594
923.907699,-10288.862594,-1924.535449,2298.286494
923.908019,-10140.821405,0.000000,1915.238745
923.908340,-9252.574275,0.000000,1072.533697
923.908661,-7994.224174,-666.185348,0.000000
923.908982,-8216.285956,0.000000,919.314598
923.909303,-9844.739029,-888.247130,1838.629195
923.909623,-9770.718434,-1480.411884,2298.286494
923.909944,-9474.636058,-1924.535449,1149.143247
923.910265,-9030.512492,-1184.329507,766.095498
923.910586,-9474.636058,0.000000,1149.143247
923.910907,-9548.656652,296.082377,2604.724693
923.911227,-9400.615463,-1110.308913,2221.676944
923.911548,-9326.594869,-962.267725,1302.362347
923.911869,-10288.862594,-1998.556043,1838.629195
923.912190,-10140.821405,-2368.659014,1532.190996
923.912511,-9844.739029,-1184.329507,1838.629195
923.912831,-9474.636058,-518.144159,0.000000
923.913152,-8068.244768,0.000000,-1762.019645
923.913473,-7698.141797,-296.082377,-2528.115143
923.913794,-8808.450710,518.144159,-1532.190996
923.914115,-10140.821405,0.000000,-995.924147
923.914435,-10066.800811,-370.102971,536.266849
923.914756,-9770.718434,-1332.370696,153.219100
923.915077,-10140.821405,-370.102971,919.314598
923.915398,-11177.109724,-222.061783,2298.286494
923.915719,-10807.006753,-666.185348,2604.724693
923.916039,-10140.821405,-592.164754,1685.410096
923.916360,-9474.636058,-1036.288319,842.705048
923.916681,-10140.821405,-1480.411884,1072.533697
923.917002,-9918.759623,-740.205942,919.314598
923.917323,-9992.780217,-888.247130,153.219100
923.917643,-8882.471304,370.102971,-612.876398
923.917964,-8438.347739,1184.329507,-766.095498
923.918285,-8512.368333,814.226536,-306.438199
923.918606,-10214.842000,666.185348,2145.067394
923.918927,-11251.130318,-888.247130,2681.334243
923.919247,-10214.842000,-1110.308913,1915.238745
923.919568,-9770.718434,-1258.350101,1378.971896
923.919889,-9992.780217,-518.144159,995.924147
923.920210,-9326.594869,740.205942,1149.143247
923.920531,-8364.327145,222.061783,995.924147
923.920851,-8734.430116,-592.164754,153.219100
923.921172,-9474.636058,-592.164754,919.314598
923.921493,-10584.944971,-1776.494261,1149.143247
923.921814,-10288.862594,-666.185348,2451.505594
923.922135,-9474.636058,1554.432478,2451.505594
923.922455,-10288.862594,-592.164754,1608.800546
923.922776,-7846.182985,296.082377,1455.581446
923.923097,-9622.677246,296.082377,1991.848295
923.923418,-9622.677246,-592.164754,1685.410096
923.923739,-9622.677246,-296.082377,1762.019645
923.924059,-10140.821405,-814.226536,1072.533697
923.924380,-8438.347739,814.226536,-612.876398
923.924701,-9474.636058,1406.391290,459.657299
923.925022,-8882.471304,1776.494261,1149.143247
923.925343,-9474.636058,222.061783,1149.143247
923.925663,-9326.594869,0.000000,153.219100
923.925984,-9992.780217,-740.205942,1378.971896
923.926305,-10881.027347,-1036.288319,2068.457845
923.926626,-10066.800811,-74.020594,2451.505594
923.926947,-10214.842000,444.123565,1608.800546
923.927267,-9474.636058,1110.308913,1225.752797
923.927588,-8142.265362,148.041188,229.828649
923.927909,-9252.574275,1184.329507,1608.800546
923.928230,-10140.821405,222.061783,1455.581446
923.928551,-9918.759623,-370.102971,1302.362347
923.928871,-9992.780217,-814.226536,612.876398
923.929192,-9252.574275,-370.102971,-306.438199
