#time,accel_x,accel_y,accel_z
1139.535571,-8734.430116,-2960.823768,3524.039291
1139.535892,-8882.471304,-2072.576638,3064.381992
1139.536213,-9474.636058,-1332.370696,2604.724693
1139.536533,-9474.636058,-740.205942,1072.533697
1139.536854,-8882.471304,888.247130,2068.457845
1139.537175,-10510.924376,888.247130,995.924147
1139.537496,-9844.739029,1184.329507,1302.362347
1139.537817,-10288.862594,296.082377,1225.752797
1139.538138,-10658.965565,222.061783,1378.971896
1139.538459,-9548.656652,296.082377,1838.629195
1139.538780,-10288.862594,-1036.288319,1838.629195
1139.539101,-9844.739029,-1110.308913,1915.238745
1139.539422,-9474.636058,-1332.370696,1225.752797
1139.539743,-9252.574275,-1110.308913,1915.238745
1139.540064,-8660.409521,-2368.659014,1838.629195
1139.540385,-8586.388927,-1480.411884,919.314598
1139.540706,-9178.553681,-740.205942,1149.143247
1139.541027,-9104.533087,-592.164754,1302.362347
1139.541348,-9252.574275,-296.082377,1455.581446
1139.541669,-9622.677246,74.020594,2451.505594
1139.541990,-9474.636058,-296.082377,1991.848295
1139.542311,-9992.780217,-518.144159,2374.896044
1139.542632,-9992.780217,-888.247130,2451.505594
1139.542953,-9622.677246,-814.226536,2681.334243
1139.543274,-9030.512492,-1924.535449,2911.162892
1139.543595,-9622.677246,-1702.473667,2681.334243
1139.543916,-9400.615463,-1924.535449,2834.553343
1139.544237,-9252.574275,-2146.597232,3294.210641
1139.544558,-9400.615463,-2368.659014,3524.039291
1139.544879,-9992.780217,-2146.597232,3524.039291
1139.545200,-9326.594869,-2442.679609,3907.087040
1139.545521,-9474.636058,-1998.556043,4290.134789
1139.545842,-9252.574275,-1554.432478,4443.353888
1139.546163,-9622.677246,-1776.494261,4290.134789
1139.546484,-9252.574275,-1110.308913,3217.601092
1139.546805,-9474.636058,-1258.350101,3753.867940
1139.547126,-9918.759623,-1184.329507,3907.087040
1139.547447,-9696.697840,-1702.473667,3830.477490
1139.547768,-9548.656652,-2146.597232,3983.696590
1139.548089,-9918.759623,-2516.700203,2834.553343
1139.548410,-9622.677246,-2664.741391,3140.991542
1139.548731,-9696.697840,-2664.741391,2911.162892
1139.549052,-9918.759623,-2368.659014,2374.896044
1139.549373,-9400.615463,-1998.556043,3370.820191
1139.549694,-9178.553681,-2442.679609,1915.238745
1139.550015,-9474.636058,-2368.659014,1685.410096
1139.550336,-9474.636058,-2368.659014,1532.190996
1139.550657,-9474.636058,-2294.638420,1225.752797
1139.550978,-8956.491898,-1924.535449,1838.629195
1139.551298,-9474.636058,-2146.597232,1149.143247
1139.551619,-9548.656652,-1924.535449,1455.581446
1139.551940,-9844.739029,-2368.659014,1302.362347
1139.552261,-9770.718434,-2368.659014,1762.019645
1139.552582,-9918.759623,-2442.679609,1455.581446
1139.552903,-9622.677246,-2812.782580,1302.362347
1139.553224,-9622.677246,-2516.700203,1532.190996
1139.553545,-9474.636058,-2738.761985,1072.533697
1139.553866,-9030.512492,-2590.720797,919.314598
1139.554187,-9030.512492,-2294.638420,842.705048
1139.554508,-9326.594869,-2146.597232,612.876398
1139.554829,-9400.615463,-2072.576638,76.609550
1139.555150,-9326.594869,-1184.329507,-306.438199
1139.555471,-9252.574275,-962.267725,-766.095498
1139.555791,-9104.533087,0.000000,-536.266849
1139.556112,-9696.697840,518.144159,-459.657299
1139.556432,-10066.800811,1036.288319,-153.219100
1139.556753,-10510.924376,592.164754,-306.438199
1139.557074,-10362.883188,518.144159,0.000000
1139.557395,-9918.759623,222.061783,1685.410096
1139.557716,-10436.903782,0.000000,919.314598
1139.558036,-10214.842000,-518.144159,1685.410096
1139.558357,-9622.677246,-1184.329507,1378.971896
1139.558678,-9474.636058,-1406.391290,995.924147
1139.558999,-8956.491898,-1184.329507,1225.752797
1139.559320,-9104.533087,-666.185348,766.095498
1139.559640,-9178.553681,-370.102971,612.876398
1139.559961,-9252.574275,444.123565,-306.438199
1139.560282,-9474.636058,888.247130,0.000000
1139.560603,-10066.800811,1628.453072,0.000000
1139.560924,-9992.780217,1850.514855,76.609550
1139.561244,-10362.883188,2368.659014,153.219100
1139.561565,-10510.924376,2812.782580,459.657299
1139.561886,-10510.924376,2960.823768,842.705048
1139.562207,-10658.965565,2738.761985,1378.971896
1139.562528,-10436.903782,1850.514855,1455.581446
1139.562848,-9918.759623,1110.308913,1455.581446
1139.563169,-9770.718434,370.102971,1991.848295
1139.563490,-9400.615463,222.061783,2374.896044
1139.563811,-8956.491898,-296.082377,2528.115143
1139.564131,-8956.491898,-370.102971,2451.505594
1139.564452,-8734.430116,0.000000,2298.286494
1139.564773,-9030.512492,0.000000,2298.286494
1139.565094,-8734.430116,296.082377,1915.238745
1139.565415,-9400.615463,888.247130,1991.848295
1139.565735,-9474.636058,962.267725,1762.019645
1139.566056,-9622.677246,1110.308913,1532.190996
1139.566377,-9622.677246,1776.494261,1532.190996
1139.566698,-9844.739029,1628.453072,-306.438199
1139.567019,-9770.718434,1628.453072,995.924147
1139.567339,-9622.677246,1036.288319,1072.533697
1139.567660,-9770.718434,518.144159,1072.533697
1139.567981,-9696.697840,296.082377,1532.190996
1139.568302,-9474.636058,-666.185348,536.266849
1139.568623,-9474.636058,-1110.308913,1149.143247
1139.568943,-9400.615463,-1332.370696,1378.971896
1139.569264,-9474.636058,-1554.432478,1532.190996
1139.569585,-9326.594869,-1850.514855,1302.362347
1139.569906,-9030.512492,-2072.576638,1225.752797
1139.570227,-9474.636058,-1554.432478,995.924147
1139.570547,-9770.718434,-1258.350101,842.705048
1139.570868,-9770.718434,-740.205942,766.095498
1139.571189,-9992.780217,-222.061783,612.876398
1139.571510,-9696.697840,0.000000,229.828649
1139.571831,-9918.759623,0.000000,-153.219100
1139.572151,-10066.800811,-296.082377,0.000000
1139.572472,-10214.842000,0.000000,-612.876398
1139.572793,-9474.636058,-814.226536,76.609550
1139.573114,-9548.656652,-1036.288319,-612.876398
1139.573435,-9770.718434,-962.267725,-306.438199
1139.573755,-9696.697840,-1036.288319,0.000000
1139.574076,-9622.677246,-1554.432478,229.828649
1139.574397,-9696.697840,-888.247130,2145.067394
1139.574718,-9770.718434,-1850.514855,689.485948
1139.575038,-9474.636058,-1480.411884,995.924147
1139.575359,-9696.697840,-1332.370696,1378.971896
1139.575680,-9474.636058,-1332.370696,1532.190996
1139.576001,-9252.574275,-814.226536,2528.115143
1139.576322,-9474.636058,-1184.329507,1608.800546
1139.576642,-9326.594869,-1184.329507,1455.581446
1139.576963,-9326.594869,-1258.350101,1532.190996
1139.577284,-9400.615463,-1332.370696,1685.410096
1139.577605,-9400.615463,-1110.308913,1685.410096
1139.577926,-9326.594869,-1258.350101,1685.410096
1139.578246,-9178.553681,-1184.329507,1455.581446
1139.578567,-9474.636058,-1036.288319,1455.581446
1139.578888,-9400.615463,-962.267725,1532.190996
1139.579209,-9400.615463,-740.205942,1455.581446
1139.579530,-9696.697840,-296.082377,2145.067394
1139.579850,-9696.697840,-148.041188,1532.190996
1139.580171,-9622.677246,0.000000,1608.800546
1139.580492,-9622.677246,148.041188,919.314598
1139.580813,-9918.759623,222.061783,1608.800546
1139.581134,-10140.821405,0.000000,1838.629195
1139.581454,-10066.800811,74.020594,2221.676944
1139.581775,-9844.739029,-148.041188,2145.067394
1139.582096,-10140.821405,222.061783,2374.896044
1139.582417,-9622.677246,-370.102971,1991.848295
1139.582738,-9844.739029,-592.164754,1608.800546
1139.583058,-9474.636058,-518.144159,1762.019645
1139.583379,-9622.677246,0.000000,1378.971896
1139.583700,-9400.615463,518.144159,766.095498
1139.584021,-9474.636058,518.144159,0.000000
1139.584342,-9474.636058,888.247130,-153.219100
1139.584662,-9548.656652,1332.370696,-459.657299
1139.584983,-9622.677246,1776.494261,-536.266849
1139.585304,-10140.821405,2442.679609,-1225.752797
1139.585625,-9992.780217,1998.556043,-536.266849
1139.585946,-10140.821405,1702.473667,0.000000
1139.586266,-10066.800811,1332.370696,0.000000
1139.586587,-10362.883188,740.205942,306.438199
1139.586908,-10214.842000,74.020594,536.266849
1139.587229,-9770.718434,74.020594,1072.533697
1139.587549,-9622.677246,-518.144159,1149.143247
1139.587870,-9104.533087,-888.247130,1225.752797
1139.588191,-8734.430116,-444.123565,842.705048
1139.588512,-9178.553681,-666.185348,1302.362347
1139.588833,-9030.512492,-592.164754,1072.533697
1139.589153,-9326.594869,-666.185348,919.314598
1139.589474,-8956.491898,-222.061783,612.876398
1139.589795,-9400.615463,444.123565,1532.190996
1139.590116,-9326.594869,370.102971,689.485948
1139.590437,-9474.636058,666.185348,1149.143247
1139.590757,-9844.739029,888.247130,995.924147
1139.591078,-10066.800811,592.164754,1302.362347
1139.591399,-9474.636058,518.144159,995.924147
1139.591720,-10214.842000,74.020594,1915.238745
1139.592041,-9844.739029,-518.144159,1838.629195
1139.592361,-9622.677246,-740.205942,2374.896044
1139.592682,-9548.656652,-1628.453072,2298.286494
1139.593003,-9770.718434,-1480.411884,2298.286494
1139.593324,-9474.636058,-2368.659014,2374.896044
1139.593645,-9400.615463,-2368.659014,1838.629195
1139.593965,-9326.594869,-1850.514855,1838.629195
1139.594286,-9400.615463,-1258.350101,1762.019645
1139.594607,-9474.636058,-814.226536,1532.190996
1139.594928,-9844.739029,-962.267725,1685.410096
1139.595249,-9844.739029,-444.123565,1378.971896
1139.595569,-10140.821405,-296.082377,995.924147
1139.595890,-9844.739029,0.000000,1608.800546
1139.596211,-9992.780217,-370.102971,766.095498
1139.596532,-10140.821405,0.000000,306.438199
1139.596853,-9474.636058,-370.102971,76.609550
1139.597173,-9770.718434,-444.123565,76.609550
1139.597494,-9918.759623,-518.144159,459.657299
1139.597815,-9474.636058,-1184.329507,306.438199
1139.598136,-9474.636058,-1628.453072,383.047749
1139.598456,-9474.636058,-1332.370696,459.657299
1139.598777,-9548.656652,-1332.370696,842.705048
1139.599098,-9918.759623,-888.247130,0.000000
1139.599419,-9252.574275,-1184.329507,919.314598
1139.599740,-9474.636058,-962.267725,766.095498
1139.600060,-9474.636058,-740.205942,766.095498
1139.600381,-9326.594869,-666.185348,1378.971896
1139.600702,-9326.594869,-962.267725,1455.581446
1139.601023,-9474.636058,-666.185348,842.705048
1139.601344,-9326.594869,-814.226536,766.095498
1139.601664,-9326.594869,-962.267725,842.705048
1139.601985,-9252.574275,-740.205942,689.485948
1139.602306,-9400.615463,-740.205942,1072.533697
1139.602627,-9252.574275,-592.164754,383.047749
1139.602948,-9548.656652,-370.102971,919.314598
1139.603268,-9622.677246,0.000000,842.705048
1139.603589,-9844.739029,-814.226536,1915.238745
1139.603910,-9918.759623,0.000000,1378.971896
1139.604231,-10066.800811,-296.082377,1608.800546
1139.604552,-10140.821405,0.000000,1915.238745
1139.604872,-10140.821405,-296.082377,2221.676944
1139.605193,-9622.677246,222.061783,1915.238745
1139.605514,-9770.718434,-592.164754,2298.286494
1139.605835,-9770.718434,-592.164754,2221.676944
1139.606156,-9474.636058,-740.205942,1991.848295
1139.606476,-9474.636058,-444.123565,1838.629195
1139.606797,-9474.636058,-666.185348,1915.238745
1139.607118,-9252.574275,-518.144159,919.314598
1139.607439,-9326.594869,0.000000,842.705048
1139.607760,-9548.656652,518.144159,306.438199
1139.608080,-9770.718434,962.267725,0.000000
1139.608401,-9918.759623,1776.494261,0.000000
1139.608722,-10066.800811,1554.432478,0.000000
1139.609043,-10140.821405,1628.453072,229.828649
1139.609363,-10288.862594,1480.411884,383.047749
1139.609684,-10066.800811,1184.329507,153.219100
1139.610005,-9178.553681,888.247130,842.705048
1139.610326,-9696.697840,592.164754,842.705048
1139.610647,-9770.718434,0.000000,1378.971896
1139.610967,-9474.636058,-518.144159,1225.752797
1139.611288,-9474.636058,-1036.288319,1608.800546
1139.611609,-9696.697840,-1850.514855,689.485948
1139.611930,-9400.615463,-1184.329507,1608.800546
1139.612251,-9030.512492,-1110.308913,1455.581446
1139.612571,-9104.533087,-1110.308913,995.924147
1139.612892,-9030.512492,-740.205942,995.924147
1139.613213,-8808.450710,-666.185348,229.828649
1139.613534,-9104.533087,-148.041188,919.314598
1139.613855,-9326.594869,0.000000,842.705048
1139.614175,-9474.636058,518.144159,536.266849
1139.614496,-9918.759623,518.144159,383.047749
1139.614817,-9474.636058,74.020594,536.266849
1139.615138,-9918.759623,0.000000,842.705048
1139.615459,-9918.759623,0.000000,1225.752797
1139.615779,-9992.780217,-444.123565,1455.581446
1139.616100,-9770.718434,-740.205942,1378.971896
1139.616421,-9918.759623,-1110.308913,1838.629195
1139.616742,-9548.656652,-1184.329507,2068.457845
1139.617063,-9622.677246,-1332.370696,1915.238745
1139.617383,-9400.615463,-1554.432478,2068.457845
1139.617704,-9844.739029,-1332.370696,1072.533697
1139.618025,-9548.656652,-666.185348,1378.971896
1139.618346,-9622.677246,-444.123565,1302.362347
1139.618667,-9548.656652,-222.061783,766.095498
1139.618987,-9548.656652,0.000000,306.438199
1139.619308,-9844.739029,296.082377,1302.362347
1139.619629,-9992.780217,148.041188,153.219100
1139.619950,-9918.759623,370.102971,0.000000
1139.620270,-10066.800811,148.041188,76.609550
1139.620591,-9844.739029,74.020594,919.314598
1139.620912,-9104.533087,-592.164754,1685.410096
1139.621233,-9696.697840,-666.185348,1149.143247
1139.621554,-9696.697840,-888.247130,1225.752797
1139.621874,-9474.636058,-962.267725,919.314598
1139.622195,-9474.636058,-1110.308913,1302.362347
1139.622516,-9474.636058,-962.267725,1838.629195
1139.622837,-9252.574275,-962.267725,1455.581446
1139.623158,-9326.594869,-1036.288319,1608.800546
1139.623478,-9252.574275,-1036.288319,1915.238745
1139.623799,-9326.594869,-1036.288319,2298.286494
1139.624120,-9474.636058,-592.164754,2374.896044
1139.624441,-9474.636058,-592.164754,1532.190996
1139.624762,-9252.574275,-444.123565,1455.581446
1139.625082,-9474.636058,-592.164754,1455.581446
1139.625403,-8512.368333,-888.247130,2911.162892
1139.625724,-9400.615463,-444.123565,1149.143247
1139.626045,-9548.656652,0.000000,995.924147
1139.626366,-9178.553681,148.041188,919.314598
1139.626686,-9252.574275,0.000000,842.705048
1139.627007,-8882.471304,-296.082377,1072.533697
1139.627328,-9622.677246,0.000000,1532.190996
1139.627649,-9918.759623,0.000000,1455.581446
1139.627970,-9844.739029,-222.061783,1685.410096
1139.628290,-9770.718434,-222.061783,1991.848295
1139.628611,-10140.821405,-1406.391290,2451.505594
1139.628932,-9918.759623,-740.205942,2221.676944
1139.629253,-9770.718434,-666.185348,1685.410096
1139.629574,-9474.636058,-888.247130,1762.019645
1139.629894,-9770.718434,-666.185348,1149.143247
1139.630215,-9844.739029,-370.102971,1225.752797
1139.630536,-9474.636058,-592.164754,689.485948
1139.630857,-9474.636058,-222.061783,459.657299
1139.631178,-9622.677246,74.020594,0.000000
1139.631498,-9474.636058,0.000000,-1149.143247
1139.631819,-9770.718434,666.185348,-383.047749
1139.632140,-9770.718434,962.267725,-536.266849
1139.632461,-9918.759623,1110.308913,0.000000
1139.632781,-10066.800811,962.267725,0.000000
1139.633102,-10066.800811,888.247130,2757.943793
1139.633423,-10288.862594,740.205942,76.609550
1139.633744,-10066.800811,592.164754,229.828649
1139.634065,-9844.739029,296.082377,842.705048
1139.634385,-9622.677246,0.000000,995.924147
1139.634706,-9474.636058,-518.144159,2374.896044
1139.635027,-9326.594869,-1110.308913,1455.581446
1139.635348,-9178.553681,-1258.350101,1532.190996
1139.635669,-9252.574275,-1110.308913,1225.752797
1139.635989,-9178.553681,-888.247130,1685.410096
1139.636310,-8734.430116,-1110.308913,766.095498
1139.636631,-9030.512492,-666.185348,1072.533697
1139.636952,-9178.553681,-444.123565,842.705048
1139.637273,-9326.594869,-222.061783,1302.362347
1139.637593,-8808.450710,-296.082377,0.000000
1139.637914,-9548.656652,74.020594,1225.752797
1139.638235,-9474.636058,296.082377,1302.362347
1139.638556,-9474.636058,296.082377,1608.800546
1139.638877,-9622.677246,0.000000,2221.676944
1139.639197,-9104.533087,-962.267725,0.000000
1139.639518,-9548.656652,-814.226536,2145.067394
1139.639839,-9548.656652,-1036.288319,2374.896044
1139.640160,-9770.718434,-1480.411884,2298.286494
1139.640481,-9622.677246,-1480.411884,2451.505594
1139.640801,-9548.656652,-1406.391290,2145.067394
1139.641122,-9622.677246,-1554.432478,2145.067394
1139.641443,-9474.636058,-1480.411884,2221.676944
1139.641764,-9474.636058,-888.247130,2145.067394
1139.642085,-9326.594869,-1258.350101,1302.362347
1139.642405,-9474.636058,-444.123565,689.485948
1139.642726,-9548.656652,0.000000,229.828649
1139.643047,-9844.739029,370.102971,76.609550
1139.643368,-9770.718434,370.102971,0.000000
1139.643688,-9400.615463,444.123565,-2604.724693
1139.644009,-9844.739029,592.164754,-306.438199
1139.644330,-10140.821405,518.144159,-306.438199
1139.644651,-9992.780217,74.020594,-153.219100
1139.644972,-9844.739029,-296.082377,0.000000
1139.645292,-10510.924376,-148.041188,0.000000
1139.645613,-9770.718434,-888.247130,383.047749
1139.645934,-9622.677246,-1110.308913,536.266849
1139.646255,-9474.636058,-1110.308913,536.266849
1139.646576,-9474.636058,-888.247130,1225.752797
1139.646896,-9770.718434,-740.205942,766.095498
1139.647217,-9252.574275,-814.226536,689.485948
1139.647538,-9400.615463,-888.247130,842.705048
1139.647859,-9400.615463,-740.205942,536.266849
1139.648180,-9400.615463,518.144159,76.609550
1139.648500,-9400.615463,-148.041188,689.485948
1139.648821,-9326.594869,-296.082377,995.924147
1139.649142,-9326.594869,-222.061783,766.095498
1139.649463,-9548.656652,0.000000,689.485948
1139.649784,-9474.636058,74.020594,383.047749
1139.650104,-9474.636058,0.000000,842.705048
1139.650425,-9622.677246,296.082377,1225.752797
1139.650746,-9770.718434,148.041188,1762.019645
1139.651067,-9548.656652,-444.123565,1608.800546
1139.651388,-9918.759623,-592.164754,2374.896044
1139.651708,-9992.780217,-814.226536,2374.896044
1139.652029,-9770.718434,-814.226536,2298.286494
1139.652350,-9844.739029,-592.164754,2834.553343
1139.652671,-10658.965565,296.082377,2757.943793
1139.652992,-9770.718434,-592.164754,2451.505594
1139.653312,-9770.718434,-444.123565,2451.505594
1139.653633,-9548.656652,-592.164754,2145.067394
1139.653954,-9770.718434,-370.102971,1915.238745
1139.654275,-9252.574275,666.185348,1532.190996
1139.654595,-9622.677246,222.061783,689.485948
1139.654916,-9696.697840,296.082377,459.657299
1139.655237,-9474.636058,740.205942,306.438199
1139.655558,-9992.780217,1036.288319,383.047749
1139.655879,-9696.697840,1258.350101,0.000000
1139.656199,-9918.759623,962.267725,153.219100
1139.656520,-9918.759623,814.226536,306.438199
1139.656841,-9918.759623,518.144159,459.657299
1139.657162,-9918.759623,222.061783,842.705048
1139.657483,-10066.800811,0.000000,842.705048
1139.657803,-9844.739029,-518.144159,1302.362347
1139.658124,-9770.718434,-814.226536,1378.971896
1139.658445,-9474.636058,-1332.370696,1225.752797
1139.658765,-10066.800811,-222.061783,1072.533697
1139.659086,-9400.615463,-1184.329507,1302.362347
1139.659406,-9178.553681,-888.247130,995.924147
1139.659727,-9030.512492,-740.205942,1149.143247
1139.660048,-8956.491898,-740.205942,536.266849
1139.660368,-10066.800811,296.082377,229.828649
1139.660689,-8142.265362,-592.164754,-689.485948
1139.661009,-9178.553681,-148.041188,383.047749
1139.661330,-9326.594869,148.041188,459.657299
1139.661650,-9474.636058,148.041188,0.000000
1139.661971,-9030.512492,296.082377,766.095498
1139.662291,-9696.697840,0.000000,1149.143247
1139.662612,-9770.718434,-444.123565,995.924147
1139.662933,-9622.677246,-666.185348,1302.362347
1139.663253,-9770.718434,-1258.350101,-306.438199
1139.663574,-9548.656652,-1332.370696,1455.581446
1139.663894,-9622.677246,-1480.411884,1685.410096
1139.664215,-9622.677246,-1332.370696,1608.800546
1139.664535,-9696.697840,-1554.432478,1532.190996
1139.664856,-10732.986159,0.000000,1608.800546
1139.665177,-9400.615463,-888.247130,1378.971896
1139.665497,-9548.656652,-592.164754,1378.971896
1139.665818,-9696.697840,-296.082377,536.266849
1139.666138,-9696.697840,74.020594,766.095498
1139.666459,-10288.862594,74.020594,689.485948
1139.666779,-9918.759623,148.041188,612.876398
1139.667100,-10140.821405,370.102971,459.657299
1139.667420,-9992.780217,592.164754,306.438199
1139.667741,-9992.780217,814.226536,1302.362347
1139.668062,-10288.862594,518.144159,919.314598
1139.668382,-9992.780217,222.061783,1149.143247
1139.668703,-9992.780217,0.000000,995.924147
1139.669023,-9770.718434,-222.061783,766.095498
1139.669344,-8956.491898,-296.082377,459.657299
1139.669664,-9622.677246,-740.205942,1762.019645
1139.669985,-9474.636058,-962.267725,1608.800546
1139.670305,-9474.636058,-370.102971,1532.190996
1139.670626,-9474.636058,-888.247130,1608.800546
1139.670947,-9548.656652,-1184.329507,1838.629195
1139.671267,-9474.636058,-592.164754,1838.629195
1139.671588,-9400.615463,-444.123565,1685.410096
1139.671908,-9104.533087,-592.164754,1378.971896
1139.672229,-9400.615463,-592.164754,1225.752797
1139.672549,-8882.471304,-1110.308913,1378.971896
1139.672870,-9030.512492,-740.205942,842.705048
1139.673190,-9326.594869,-666.185348,919.314598
1139.673511,-9252.574275,-296.082377,459.657299
1139.673832,-9326.594869,-666.185348,2221.676944
1139.674152,-9474.636058,0.000000,1072.533697
1139.674473,-9696.697840,-222.061783,766.095498
1139.674793,-9622.677246,0.000000,995.924147
1139.675114,-9844.739029,0.000000,1378.971896
1139.675434,-9844.739029,0.000000,1455.581446
1139.675755,-9696.697840,-666.185348,1991.848295
1139.676076,-9918.759623,-888.247130,2145.067394
1139.676396,-9474.636058,-740.205942,1685.410096
1139.676717,-9622.677246,-888.247130,1455.581446
1139.677037,-9770.718434,-1184.329507,1915.238745
1139.677358,-9474.636058,-592.164754,1225.752797
1139.677678,-9474.636058,-592.164754,1149.143247
1139.677999,-9696.697840,-148.041188,612.876398
1139.678319,-8364.327145,-444.123565,229.828649
1139.678640,-9918.759623,148.041188,383.047749
1139.678961,-9992.780217,666.185348,306.438199
1139.679281,-10066.800811,740.205942,-153.219100
1139.679602,-10288.862594,1110.308913,0.000000
1139.679922,-10140.821405,962.267725,-1455.581446
1139.680243,-10362.883188,888.247130,459.657299
1139.680563,-10214.842000,222.061783,536.266849
1139.680884,-10066.800811,222.061783,766.095498
1139.681204,-9844.739029,-296.082377,1225.752797
1139.681525,-9252.574275,-888.247130,1838.629195
1139.681846,-9474.636058,-1184.329507,1608.800546
1139.682166,-9252.574275,-1480.411884,1838.629195
1139.682487,-9104.533087,-1332.370696,1762.019645
1139.682807,-9104.533087,-1036.288319,2145.067394
1139.683128,-9104.533087,-962.267725,2145.067394
1139.683448,-9178.553681,-814.226536,1762.019645
1139.683769,-8956.491898,-740.205942,1532.190996
1139.684089,-9252.574275,-370.102971,1532.190996
1139.684410,-10436.903782,-296.082377,229.828649
1139.684731,-9474.636058,0.000000,1455.581446
1139.685051,-9400.615463,0.000000,1302.362347
1139.685372,-9548.656652,0.000000,1225.752797
1139.685692,-9474.636058,0.000000,1302.362347
1139.686013,-9918.759623,-222.061783,2681.334243
1139.686333,-9696.697840,-296.082377,1532.190996
1139.686654,-9474.636058,-888.247130,1838.629195
1139.686975,-9696.697840,-888.247130,1608.800546
1139.687295,-9770.718434,-1036.288319,919.314598
1139.687616,-9622.677246,-1258.350101,2221.676944
1139.687936,-9622.677246,-1406.391290,1838.629195
1139.688257,-9474.636058,-1258.350101,1608.800546
1139.688577,-9770.718434,-962.267725,1149.143247
1139.688898,-9474.636058,-592.164754,1991.848295
1139.689218,-9622.677246,-370.102971,842.705048
1139.689539,-9770.718434,-74.020594,383.047749
1139.689860,-9622.677246,74.020594,0.000000
1139.690180,-9770.718434,296.082377,0.000000
1139.690501,-9844.739029,296.082377,1225.752797
1139.690821,-10066.800811,444.123565,-383.047749
1139.691142,-9992.780217,814.226536,-229.828649
1139.691462,-10214.842000,740.205942,0.000000
1139.691783,-10214.842000,592.164754,612.876398
1139.692103,-10288.862594,0.000000,-306.438199
1139.692424,-10066.800811,0.000000,536.266849
1139.692745,-9770.718434,0.000000,612.876398
1139.693065,-9844.739029,-222.061783,766.095498
1139.693386,-9696.697840,-370.102971,3370.820191
1139.693706,-9400.615463,-740.205942,1149.143247
1139.694027,-9474.636058,-666.185348,1378.971896
1139.694347,-9326.594869,-444.123565,1225.752797
1139.694668,-9474.636058,-444.123565,1302.362347
1139.694988,-8956.491898,-444.123565,3140.991542
1139.695309,-9326.594869,-518.144159,1455.581446
1139.695630,-9252.574275,-592.164754,1302.362347
1139.695950,-9104.533087,-592.164754,1225.752797
1139.696271,-9400.615463,-296.082377,919.314598
1139.696591,-9104.533087,-296.082377,536.266849
1139.696912,-9326.594869,-296.082377,1072.533697
1139.697232,-9474.636058,0.000000,919.314598
1139.697553,-9326.594869,-222.061783,1149.143247
1139.697874,-9622.677246,814.226536,1991.848295
1139.698194,-9622.677246,-222.061783,1225.752797
1139.698515,-9622.677246,-518.144159,1532.190996
1139.698835,-9548.656652,-370.102971,2145.067394
1139.699156,-9696.697840,-888.247130,2298.286494
1139.699476,-9622.677246,-888.247130,3830.477490
1139.699797,-9548.656652,-1184.329507,2451.505594
1139.700117,-9474.636058,-1332.370696,2374.896044
1139.700438,-9474.636058,-1184.329507,1991.848295
1139.700759,-9696.697840,-1036.288319,1838.629195
1139.701079,-10140.821405,-740.205942,1532.190996
1139.701400,-9326.594869,-592.164754,689.485948
1139.701720,-9474.636058,0.000000,459.657299
1139.702041,-9622.677246,74.020594,383.047749
1139.702361,-9622.677246,518.144159,766.095498
1139.702682,-10214.842000,1184.329507,229.828649
1139.703002,-10066.800811,1036.288319,-306.438199
1139.703323,-10288.862594,1406.391290,0.000000
1139.703644,-10362.883188,1184.329507,0.000000
1139.703964,-11251.130318,592.164754,-383.047749
1139.704285,-10214.842000,296.082377,0.000000
1139.704605,-9918.759623,0.000000,76.609550
1139.704926,-9918.759623,-666.185348,536.266849
1139.705246,-9696.697840,-740.205942,766.095498
1139.705567,-9030.512492,-1480.411884,689.485948
1139.705888,-9400.615463,-1554.432478,766.095498
1139.706208,-9252.574275,-1332.370696,1149.143247
1139.706529,-9400.615463,-1258.350101,1149.143247
1139.706849,-9326.594869,-1110.308913,0.000000
1139.707170,-8734.430116,-1036.288319,459.657299
1139.707490,-9104.533087,-814.226536,842.705048
1139.707811,-9178.553681,-592.164754,153.219100
1139.708131,-9400.615463,0.000000,536.266849
1139.708452,-9178.553681,962.267725,689.485948
1139.708773,-9474.636058,74.020594,1072.533697
1139.709093,-9474.636058,74.020594,995.924147
1139.709414,-9474.636058,0.000000,1225.752797
1139.709734,-9548.656652,-444.123565,1455.581446
1139.710055,-9474.636058,-592.164754,1685.410096
1139.710375,-9474.636058,-962.267725,1838.629195
1139.710696,-9622.677246,-1036.288319,2145.067394
1139.711016,-9622.677246,-1184.329507,2374.896044
1139.711337,-9548.656652,-1628.453072,0.000000
1139.711658,-9252.574275,-1110.308913,1838.629195
1139.711978,-9548.656652,-740.205942,1915.238745
1139.712299,-9696.697840,-592.164754,1762.019645
1139.712619,-9548.656652,-370.102971,1455.581446
1139.712940,-9474.636058,1184.329507,1225.752797
1139.713260,-9622.677246,74.020594,766.095498
1139.713581,-9770.718434,222.061783,612.876398
1139.713901,-10066.800811,592.164754,612.876398
1139.714222,-9992.780217,888.247130,536.266849
1139.714543,-9474.636058,592.164754,383.047749
1139.714863,-9992.780217,740.205942,536.266849
1139.715184,-10140.821405,444.123565,842.705048
1139.715504,-10140.821405,74.020594,842.705048
1139.715825,-10066.800811,0.000000,459.657299
1139.716145,-9770.718434,-296.082377,766.095498
1139.716466,-9918.759623,0.000000,1225.752797
1139.716787,-9770.718434,0.000000,1532.190996
1139.717107,-9622.677246,-370.102971,1532.190996
1139.717428,-9474.636058,-592.164754,2068.457845
1139.717748,-9474.636058,-666.185348,1455.581446
1139.718069,-9548.656652,-518.144159,1225.752797
1139.718389,-9474.636058,-666.185348,1072.533697
1139.718710,-9326.594869,-666.185348,1378.971896
1139.719030,-9548.656652,-222.061783,2681.334243
1139.719351,-9326.594869,-592.164754,919.314598
1139.719672,-9104.533087,-518.144159,766.095498
1139.719992,-8956.491898,-592.164754,612.876398
1139.720313,-9326.594869,-222.061783,689.485948
1139.720633,-9326.594869,74.020594,153.219100
1139.720954,-9474.636058,0.000000,383.047749
1139.721274,-9548.656652,74.020594,536.266849
1139.721595,-9548.656652,74.020594,1378.971896
1139.721915,-9770.718434,-296.082377,1762.019645
1139.722236,-9252.574275,-592.164754,1378.971896
1139.722557,-9548.656652,-814.226536,1378.971896
1139.722877,-9548.656652,-1036.288319,1685.410096
1139.723198,-9474.636058,-1110.308913,1915.238745
1139.723518,-9844.739029,-1258.350101,1762.019645
1139.723839,-9474.636058,-1406.391290,1762.019645
1139.724159,-9474.636058,-1110.308913,1225.752797
1139.724480,-9474.636058,-962.267725,1072.533697
1139.724800,-9474.636058,-888.247130,995.924147
1139.725121,-9030.512492,-296.082377,2068.457845
1139.725442,-9622.677246,222.061783,459.657299
1139.725762,-9770.718434,370.102971,383.047749
1139.726083,-9770.718434,444.123565,306.438199
1139.726403,-9918.759623,296.082377,-306.438199
1139.726724,-10066.800811,888.247130,153.219100
1139.727044,-10214.842000,1110.308913,229.828649
1139.727365,-10140.821405,740.205942,612.876398
1139.727686,-10214.842000,222.061783,842.705048
1139.728006,-9844.739029,-1184.329507,1302.362347
1139.728327,-9918.759623,-296.082377,1149.143247
1139.728647,-9770.718434,-370.102971,1455.581446
1139.728968,-9770.718434,-888.247130,1685.410096
1139.729288,-9548.656652,-1036.288319,1915.238745
1139.729609,-9622.677246,-1110.308913,1991.848295
1139.729929,-9400.615463,-888.247130,1838.629195
1139.730250,-9474.636058,-1110.308913,2298.286494
1139.730571,-9326.594869,-1036.288319,1915.238745
1139.730891,-9252.574275,-740.205942,1838.629195
1139.731212,-9326.594869,-666.185348,919.314598
1139.731532,-9326.594869,-444.123565,1302.362347
1139.731853,-9252.574275,-444.123565,1225.752797
1139.732173,-9178.553681,-444.123565,1378.971896
1139.732494,-9474.636058,0.000000,1838.629195
1139.732814,-9474.636058,-222.061783,1072.533697
1139.733135,-9548.656652,-444.123565,1072.533697
1139.733456,-9474.636058,-740.205942,1378.971896
1139.733776,-9622.677246,-1036.288319,1608.800546
1139.734097,-9474.636058,-888.247130,2451.505594
1139.734417,-9622.677246,-1258.350101,1991.848295
1139.734738,-9548.656652,-1184.329507,1762.019645
1139.735058,-9474.636058,-1406.391290,1532.190996
1139.735379,-9548.656652,-962.267725,1455.581446
1139.735699,-9326.594869,0.000000,995.924147
1139.736020,-9548.656652,-296.082377,1072.533697
1139.736341,-9770.718434,-296.082377,766.095498
1139.736661,-9474.636058,-222.061783,306.438199
1139.736982,-9548.656652,0.000000,0.000000
1139.737302,-9548.656652,296.082377,153.219100
1139.737623,-9918.759623,666.185348,0.000000
1139.737943,-9918.759623,666.185348,-306.438199
1139.738264,-10214.842000,888.247130,0.000000
1139.738585,-10510.924376,1036.288319,-306.438199
1139.738905,-9918.759623,740.205942,0.000000
1139.739226,-10214.842000,222.061783,842.705048
1139.739546,-10066.800811,148.041188,689.485948
1139.739867,-10140.821405,-148.041188,766.095498
1139.740187,-9548.656652,-222.061783,1225.752797
1139.740508,-9696.697840,-370.102971,766.095498
1139.740828,-9622.677246,-518.144159,1302.362347
1139.741149,-9622.677246,-592.164754,1455.581446
1139.741470,-9474.636058,-740.205942,1378.971896
1139.741790,-9474.636058,0.000000,2451.505594
1139.742111,-9400.615463,-888.247130,1378.971896
1139.742431,-9326.594869,-592.164754,1225.752797
1139.742752,-9252.574275,-518.144159,1149.143247
1139.743072,-9178.553681,-148.041188,1225.752797
1139.743393,-9844.739029,148.041188,1225.752797
1139.743713,-9104.533087,0.000000,689.485948
1139.744034,-9252.574275,0.000000,919.314598
1139.744355,-9252.574275,222.061783,995.924147
1139.744675,-9474.636058,0.000000,1378.971896
1139.744996,-9252.574275,0.000000,1532.190996
1139.745316,-9474.636058,0.000000,1838.629195
1139.745637,-9696.697840,-222.061783,1991.848295
1139.745957,-9548.656652,-666.185348,2145.067394
1139.746278,-9548.656652,-666.185348,2298.286494
1139.746598,-9400.615463,-888.247130,2451.505594
1139.746919,-9622.677246,-1184.329507,2298.286494
1139.747240,-9474.636058,-1036.288319,2298.286494
1139.747560,-9474.636058,-1036.288319,1915.238745
1139.747881,-9474.636058,-1110.308913,1991.848295
1139.748201,-9178.553681,-592.164754,1072.533697
1139.748522,-9474.636058,-518.144159,1072.533697
1139.748842,-9548.656652,74.020594,459.657299
1139.749163,-9622.677246,518.144159,383.047749
1139.749484,-9474.636058,296.082377,459.657299
1139.749804,-9770.718434,962.267725,76.609550
1139.750125,-10288.862594,962.267725,-306.438199
1139.750445,-10140.821405,1110.308913,-153.219100
1139.750766,-10066.800811,1036.288319,0.000000
1139.751086,-9548.656652,296.082377,306.438199
1139.751407,-9992.780217,0.000000,306.438199
1139.751727,-10140.821405,-222.061783,612.876398
1139.752048,-9918.759623,-592.164754,612.876398
1139.752369,-9622.677246,-1036.288319,995.924147
1139.752689,-9252.574275,-888.247130,1532.190996
1139.753010,-9474.636058,-1258.350101,1149.143247
1139.753330,-9400.615463,-1258.350101,1072.533697
1139.753651,-9252.574275,-1110.308913,1378.971896
1139.753971,-9400.615463,-1110.308913,1685.410096
1139.754292,-8956.491898,-888.247130,1149.143247
1139.754612,-9252.574275,-592.164754,919.314598
1139.754933,-9252.574275,-370.102971,919.314598
1139.755254,-9252.574275,-444.123565,766.095498
1139.755574,-9326.594869,0.000000,2068.457845
1139.755895,-9326.594869,-296.082377,842.705048
1139.756215,-9474.636058,-592.164754,995.924147
1139.756536,-9548.656652,-296.082377,995.924147
1139.756856,-9474.636058,-666.185348,1225.752797
1139.757177,-9474.636058,-1184.329507,2911.162892
1139.757497,-9918.759623,-740.205942,2068.457845
1139.757818,-9622.677246,-1184.329507,1915.238745
1139.758139,-9622.677246,-1184.329507,2221.676944
1139.758459,-9474.636058,-1480.411884,2145.067394
1139.758780,-9252.574275,-1480.411884,1532.190996
1139.759100,-9474.636058,-1110.308913,1455.581446
1139.759421,-9474.636058,-962.267725,1225.752797
1139.759741,-9548.656652,-592.164754,766.095498
1139.760062,-9474.636058,-296.082377,766.095498
1139.760383,-9622.677246,148.041188,612.876398
1139.760703,-9770.718434,74.020594,383.047749
1139.761024,-9992.780217,370.102971,0.000000
1139.761344,-9918.759623,740.205942,0.000000
1139.761665,-10214.842000,888.247130,-536.266849
1139.761986,-10214.842000,666.185348,0.000000
1139.762307,-10140.821405,444.123565,612.876398
1139.762627,-9918.759623,222.061783,459.657299
1139.762948,-10140.821405,0.000000,229.828649
1139.763269,-10288.862594,0.000000,306.438199
1139.763589,-9696.697840,-370.102971,689.485948
1139.763910,-9696.697840,-148.041188,766.095498
1139.764231,-9696.697840,-592.164754,1302.362347
1139.764552,-9548.656652,-888.247130,1455.581446
1139.764872,-9474.636058,-592.164754,2451.505594
1139.765193,-9474.636058,-666.185348,1455.581446
1139.765514,-9548.656652,-370.102971,1532.190996
1139.765834,-9474.636058,-518.144159,1378.971896
1139.766155,-9178.553681,-518.144159,1149.143247
1139.766476,-9548.656652,666.185348,1608.800546
1139.766796,-9104.533087,-222.061783,919.314598
1139.767117,-9178.553681,-222.061783,842.705048
1139.767438,-9252.574275,0.000000,612.876398
1139.767759,-9400.615463,0.000000,459.657299
1139.768079,-8956.491898,444.123565,1455.581446
1139.768400,-9548.656652,222.061783,1532.190996
1139.768721,-9696.697840,148.041188,1532.190996
1139.769041,-9474.636058,0.000000,1608.800546
1139.769362,-9992.780217,-444.123565,1991.848295
1139.769683,-9178.553681,-148.041188,2298.286494
1139.770003,-9696.697840,-592.164754,2451.505594
1139.770324,-9474.636058,-1036.288319,2374.896044
1139.770645,-9474.636058,-1258.350101,2221.676944
1139.770966,-9400.615463,-1036.288319,1455.581446
1139.771286,-9474.636058,-814.226536,2145.067394
1139.771607,-9326.594869,-666.185348,1532.190996
1139.771928,-9474.636058,-518.144159,1225.752797
1139.772248,-9326.594869,-296.082377,689.485948
1139.772569,-9030.512492,-148.041188,0.000000
1139.772890,-9992.780217,370.102971,0.000000
1139.773210,-9918.759623,962.267725,0.000000
1139.773531,-10140.821405,1036.288319,0.000000
1139.773852,-10214.842000,1036.288319,0.000000
1139.774173,-10732.986159,592.164754,459.657299
1139.774493,-10436.903782,444.123565,306.438199
1139.774814,-10140.821405,74.020594,536.266849
1139.775135,-10066.800811,-370.102971,842.705048
1139.775455,-9844.739029,-296.082377,842.705048
1139.775776,-9622.677246,0.000000,1225.752797
1139.776097,-9622.677246,-1110.308913,1378.971896
1139.776417,-9548.656652,-1110.308913,1455.581446
1139.776738,-9326.594869,-1036.288319,1532.190996
1139.777059,-9474.636058,-1036.288319,1608.800546
1139.777380,-9252.574275,-814.226536,1302.362347
1139.777700,-9178.553681,-962.267725,1225.752797
1139.778021,-9178.553681,-962.267725,1072.533697
1139.778342,-9326.594869,-592.164754,1149.143247
1139.778662,-8956.491898,-222.061783,1225.752797
1139.778983,-9548.656652,-370.102971,1149.143247
1139.779304,-9326.594869,0.000000,842.705048
1139.779625,-9548.656652,0.000000,766.095498
1139.779945,-9474.636058,0.000000,1149.143247
1139.780266,-9844.739029,296.082377,2374.896044
1139.780587,-9474.636058,-740.205942,1915.238745
1139.780907,-9770.718434,-888.247130,1455.581446
1139.781228,-9622.677246,-1184.329507,1762.019645
1139.781549,-9474.636058,-1480.411884,2145.067394
1139.781869,-9326.594869,-1332.370696,1072.533697
1139.782190,-9696.697840,-1332.370696,1915.238745
1139.782511,-9400.615463,-1110.308913,2068.457845
1139.782832,-9474.636058,-1036.288319,1378.971896
1139.783152,-9400.615463,-888.247130,1608.800546
1139.783473,-8882.471304,-888.247130,2528.115143
1139.783794,-9474.636058,-518.144159,842.705048
1139.784114,-9474.636058,-222.061783,459.657299
1139.784435,-9844.739029,74.020594,229.828649
1139.784756,-9844.739029,814.226536,-76.609550
1139.785076,-9474.636058,1184.329507,-383.047749
1139.785397,-9918.759623,814.226536,0.000000
1139.785718,-10214.842000,666.185348,76.609550
1139.786039,-10066.800811,296.082377,536.266849
1139.786359,-10140.821405,0.000000,919.314598
1139.786680,-9696.697840,222.061783,76.609550
1139.787001,-9696.697840,-148.041188,1072.533697
1139.787321,-9622.677246,-518.144159,1302.362347
1139.787642,-9696.697840,-518.144159,1149.143247
1139.787963,-9326.594869,-740.205942,1378.971896
1139.788283,-9474.636058,-296.082377,1072.533697
1139.788604,-9474.636058,-666.185348,1378.971896
1139.788925,-9474.636058,-370.102971,1762.019645
1139.789246,-9252.574275,-370.102971,1532.190996
1139.789566,-9400.615463,0.000000,919.314598
1139.789887,-8660.409521,666.185348,612.876398
1139.790208,-9474.636058,0.000000,1072.533697
1139.790528,-9400.615463,148.041188,766.095498
1139.790849,-9252.574275,0.000000,612.876398
1139.791170,-9474.636058,0.000000,612.876398
1139.791491,-9474.636058,1036.288319,536.266849
1139.791811,-9844.739029,296.082377,1072.533697
1139.792132,-9104.533087,0.000000,1302.362347
1139.792453,-9844.739029,-222.061783,1532.190996
1139.792773,-9696.697840,-666.185348,1685.410096
1139.793094,-10288.862594,-592.164754,2374.896044
1139.793415,-9548.656652,-1184.329507,2298.286494
1139.793735,-9622.677246,-1184.329507,2451.505594
1139.794056,-9622.677246,-1554.432478,2451.505594
1139.794377,-9326.594869,-1628.453072,2145.067394
1139.794698,-8808.450710,-1332.370696,1762.019645
1139.795018,-9178.553681,-1258.350101,1455.581446
1139.795339,-9400.615463,-888.247130,1302.362347
1139.795660,-9326.594869,-740.205942,842.705048
1139.795980,-9474.636058,-296.082377,536.266849
1139.796301,-9252.574275,222.061783,-153.219100
1139.796622,-9622.677246,370.102971,459.657299
1139.796942,-9992.780217,814.226536,0.000000
1139.797263,-10140.821405,666.185348,76.609550
1139.797584,-10066.800811,888.247130,0.000000
1139.797905,-9696.697840,962.267725,612.876398
1139.798225,-9918.759623,296.082377,306.438199
1139.798546,-10066.800811,0.000000,306.438199
1139.798867,-10066.800811,0.000000,766.095498
1139.799187,-9844.739029,-222.061783,919.314598
1139.799508,-9400.615463,-222.061783,689.485948
1139.799829,-9474.636058,-666.185348,1455.581446
1139.800149,-9474.636058,-1110.308913,1225.752797
1139.800470,-9474.636058,-1110.308913,1378.971896
1139.800791,-9548.656652,-1850.514855,1608.800546
1139.801112,-9474.636058,-592.164754,1378.971896
1139.801432,-9252.574275,-814.226536,995.924147
1139.801753,-9326.594869,-518.144159,1149.143247
1139.802074,-9326.594869,-370.102971,1455.581446
1139.802394,-9474.636058,0.000000,1838.629195
1139.802715,-9326.594869,74.020594,689.485948
1139.803036,-9474.636058,222.061783,842.705048
1139.803356,-9474.636058,0.000000,766.095498
1139.803677,-9622.677246,0.000000,1225.752797
1139.803998,-9400.615463,-222.061783,1991.848295
1139.804319,-9770.718434,-592.164754,1685.410096
1139.804639,-9844.739029,-814.226536,1838.629195
1139.804960,-9474.636058,-1332.370696,1991.848295
1139.805281,-9474.636058,-1406.391290,2221.676944
1139.805601,-9178.553681,-1924.535449,1532.190996
1139.805922,-9474.636058,-1480.411884,1838.629195
1139.806243,-9178.553681,-1258.350101,1685.410096
1139.806564,-9474.636058,-1036.288319,1302.362347
1139.806884,-9474.636058,-666.185348,1455.581446
1139.807205,-9474.636058,-444.123565,383.047749
1139.807526,-9474.636058,0.000000,766.095498
1139.807846,-9474.636058,222.061783,153.219100
1139.808167,-9770.718434,444.123565,76.609550
1139.808488,-9918.759623,370.102971,306.438199
1139.808808,-10140.821405,888.247130,0.000000
1139.809129,-10140.821405,888.247130,383.047749
1139.809450,-10214.842000,518.144159,0.000000
1139.809771,-10066.800811,296.082377,612.876398
1139.810091,-9030.512492,-370.102971,1302.362347
1139.810412,-9992.780217,0.000000,536.266849
1139.810733,-9770.718434,-444.123565,1149.143247
1139.811053,-9548.656652,-888.247130,1072.533697
1139.811374,-9622.677246,-666.185348,1149.143247
1139.811695,-9326.594869,-296.082377,995.924147
1139.812015,-9622.677246,-592.164754,1378.971896
1139.812336,-9622.677246,-370.102971,1685.410096
1139.812657,-9400.615463,-592.164754,1225.752797
1139.812978,-9696.697840,-740.205942,1685.410096
1139.813298,-9696.697840,0.000000,2374.896044
1139.813619,-9474.636058,-592.164754,1455.581446
1139.813940,-9400.615463,-222.061783,1149.143247
1139.814260,-9252.574275,-296.082377,842.705048
1139.814581,-9326.594869,0.000000,1149.143247
1139.814902,-9474.636058,296.082377,919.314598
1139.815222,-9548.656652,0.000000,689.485948
1139.815543,-9474.636058,0.000000,1072.533697
1139.815864,-9770.718434,-296.082377,1455.581446
1139.816185,-9548.656652,74.020594,3140.991542
1139.816505,-9696.697840,-740.205942,1991.848295
1139.816826,-9622.677246,-888.247130,1991.848295
1139.817147,-9548.656652,-1036.288319,1915.238745
1139.817467,-9474.636058,-1036.288319,2068.457845
1139.817788,-9770.718434,-1110.308913,2145.067394
1139.818109,-9252.574275,-962.267725,1455.581446
1139.818429,-9326.594869,-1110.308913,1149.143247
1139.818750,-9252.574275,-888.247130,1072.533697
1139.819071,-9474.636058,-518.144159,919.314598
1139.819392,-9918.759623,-444.123565,1762.019645
1139.819712,-9400.615463,-222.061783,306.438199
1139.820033,-9474.636058,148.041188,-153.219100
1139.820354,-9992.780217,592.164754,153.219100
1139.820674,-9992.780217,888.247130,76.609550
1139.820995,-10362.883188,1554.432478,-306.438199
1139.821316,-9992.780217,1110.308913,-153.219100
1139.821637,-10214.842000,888.247130,153.219100
1139.821957,-9992.780217,370.102971,229.828649
1139.822278,-10140.821405,0.000000,689.485948
1139.822599,-9474.636058,-592.164754,1532.190996
1139.822919,-9770.718434,-592.164754,1455.581446
1139.823240,-9770.718434,-888.247130,1532.190996
1139.823561,-9474.636058,-814.226536,1532.190996
1139.823881,-9326.594869,-814.226536,1838.629195
1139.824202,-9548.656652,-962.267725,1608.800546
1139.824523,-9326.594869,-1036.288319,2068.457845
1139.824844,-9326.594869,-1036.288319,1685.410096
1139.825164,-9400.615463,-740.205942,1149.143247
1139.825485,-9252.574275,-740.205942,919.314598
1139.825806,-9474.636058,-518.144159,842.705048
1139.826126,-9326.594869,-370.102971,995.924147
1139.826447,-9474.636058,0.000000,842.705048
1139.826768,-9474.636058,0.000000,1378.971896
1139.827088,-10066.800811,148.041188,2221.676944
1139.827409,-9622.677246,-222.061783,1838.629195
1139.827730,-9696.697840,-666.185348,1838.629195
1139.828051,-9770.718434,-962.267725,1915.238745
1139.828371,-9474.636058,-1036.288319,1991.848295
1139.828692,-9770.718434,-1110.308913,919.314598
1139.829013,-9474.636058,-1258.350101,2221.676944
1139.829333,-9622.677246,-1258.350101,1838.629195
1139.829654,-9474.636058,-1110.308913,1455.581446
1139.829975,-9400.615463,-888.247130,1532.190996
1139.830295,-9252.574275,-592.164754,1225.752797
1139.830616,-9474.636058,-518.144159,1072.533697
1139.830937,-9400.615463,-296.082377,536.266849
1139.831258,-9400.615463,0.000000,383.047749
1139.831578,-9548.656652,592.164754,153.219100
1139.831899,-9844.739029,444.123565,0.000000
1139.832220,-9918.759623,444.123565,0.000000
1139.832540,-9770.718434,592.164754,0.000000
1139.832861,-9992.780217,666.185348,153.219100
1139.833182,-10658.965565,1702.473667,306.438199
1139.833503,-10140.821405,148.041188,76.609550
1139.833823,-10066.800811,0.000000,689.485948
1139.834144,-9622.677246,-222.061783,383.047749
1139.834465,-9992.780217,-370.102971,766.095498
1139.834785,-9548.656652,0.000000,919.314598
1139.835106,-9622.677246,-666.185348,1225.752797
1139.835427,-9548.656652,-740.205942,919.314598
1139.835747,-9474.636058,-962.267725,995.924147
1139.836068,-9400.615463,-592.164754,0.000000
1139.836389,-9548.656652,-666.185348,1225.752797
1139.836710,-9622.677246,-518.144159,995.924147
1139.837030,-9474.636058,-518.144159,1072.533697
1139.837351,-9400.615463,-222.061783,1149.143247
1139.837672,-9030.512492,-444.123565,1149.143247
1139.837992,-9548.656652,0.000000,919.314598
1139.838313,-9474.636058,74.020594,842.705048
1139.838634,-9326.594869,74.020594,536.266849
1139.838954,-9548.656652,0.000000,766.095498
1139.839275,-9030.512492,-444.123565,1608.800546
1139.839596,-9770.718434,-222.061783,1532.190996
1139.839917,-9696.697840,-148.041188,1838.629195
1139.840237,-9622.677246,-296.082377,2145.067394
1139.840558,-9770.718434,-666.185348,2298.286494
1139.840879,-9400.615463,-1036.288319,2298.286494
1139.841199,-9474.636058,-1110.308913,2528.115143
1139.841520,-9252.574275,-1184.329507,2145.067394
1139.841841,-9326.594869,-814.226536,1838.629195
1139.842161,-9400.615463,-814.226536,2298.286494
1139.842482,-9252.574275,-888.247130,1072.533697
1139.842803,-9474.636058,-296.082377,919.314598
1139.843124,-9474.636058,148.041188,459.657299
1139.843444,-9622.677246,444.123565,383.047749
1139.843765,-10955.047942,444.123565,-919.314598
1139.844086,-9696.697840,814.226536,76.609550
1139.844406,-10066.800811,814.226536,229.828649
1139.844727,-10066.800811,1036.288319,76.609550
1139.845048,-9844.739029,592.164754,536.266849
1139.845368,-10066.800811,296.082377,1072.533697
1139.845689,-10140.821405,222.061783,689.485948
1139.846010,-9844.739029,0.000000,842.705048
1139.846331,-9844.739029,-222.061783,1302.362347
1139.846651,-9474.636058,-666.185348,1991.848295
1139.846972,-9474.636058,-1036.288319,1378.971896
1139.847293,-9326.594869,-1036.288319,1225.752797
1139.847613,-9474.636058,-1036.288319,1225.752797
1139.847934,-9474.636058,-888.247130,1378.971896
1139.848255,-10436.903782,-592.164754,1225.752797
1139.848576,-9178.553681,-888.247130,1225.752797
1139.848896,-9400.615463,-740.205942,1149.143247
1139.849217,-9400.615463,-370.102971,919.314598
1139.849538,-9400.615463,-444.123565,766.095498
1139.849858,-9326.594869,0.000000,459.657299
1139.850179,-9622.677246,-148.041188,689.485948
1139.850500,-9696.697840,0.000000,1072.533697
1139.850820,-9770.718434,-444.123565,1302.362347
1139.851141,-9548.656652,-444.123565,1072.533697
1139.851462,-9622.677246,-666.185348,1378.971896
1139.851783,-9770.718434,-740.205942,1685.410096
1139.852103,-9622.677246,-1036.288319,2068.457845
1139.852424,-9770.718434,-1110.308913,1991.848295
1139.852745,-9326.594869,-1924.535449,2451.505594
1139.853065,-9474.636058,-1406.391290,2145.067394
1139.853386,-9474.636058,-1110.308913,2068.457845
1139.853707,-9474.636058,-888.247130,1378.971896
1139.854027,-9622.677246,-222.061783,1302.362347
1139.854348,-9104.533087,-1406.391290,1378.971896
1139.854669,-9474.636058,-370.102971,919.314598
1139.854990,-9548.656652,0.000000,612.876398
1139.855310,-9622.677246,0.000000,306.438199
1139.855631,-9696.697840,296.082377,306.438199
1139.855952,-10066.800811,518.144159,842.705048
1139.856272,-9992.780217,296.082377,459.657299
1139.856593,-10214.842000,222.061783,689.485948
1139.856914,-10066.800811,0.000000,459.657299
1139.857234,-9622.677246,-370.102971,3294.210641
1139.857555,-9696.697840,-740.205942,995.924147
1139.857876,-9696.697840,-592.164754,1149.143247
1139.858197,-9622.677246,-740.205942,1225.752797
1139.858517,-9548.656652,-814.226536,1302.362347
1139.858838,-9030.512492,-592.164754,1762.019645
1139.859159,-9474.636058,-1036.288319,1378.971896
1139.859479,-9400.615463,-740.205942,1302.362347
1139.859800,-9474.636058,-740.205942,1608.800546
1139.860121,-9400.615463,-740.205942,1455.581446
1139.860441,-9474.636058,-740.205942,2145.067394
1139.860762,-9326.594869,-888.247130,919.314598
1139.861083,-9326.594869,-592.164754,766.095498
1139.861403,-9252.574275,0.000000,612.876398
1139.861724,-9400.615463,0.000000,-919.314598
1139.862044,-8808.450710,0.000000,153.219100
1139.862365,-9622.677246,444.123565,1072.533697
1139.862686,-9696.697840,666.185348,919.314598
1139.863006,-9770.718434,0.000000,1149.143247
1139.863327,-9474.636058,148.041188,1302.362347
1139.863647,-9992.780217,-222.061783,2068.457845
1139.863968,-9918.759623,-814.226536,1915.238745
1139.864289,-9622.677246,-666.185348,1608.800546
1139.864609,-9474.636058,-1406.391290,1685.410096
1139.864930,-9474.636058,-888.247130,153.219100
1139.865250,-9474.636058,-888.247130,1838.629195
1139.865571,-9474.636058,-1110.308913,1608.800546
1139.865892,-9252.574275,-962.267725,1072.533697
1139.866212,-9474.636058,-592.164754,919.314598
1139.866533,-9030.512492,222.061783,612.876398
1139.866853,-9696.697840,0.000000,306.438199
1139.867174,-9844.739029,592.164754,0.000000
1139.867495,-9474.636058,814.226536,-306.438199
1139.867815,-9770.718434,1110.308913,-229.828649
1139.868136,-9548.656652,1184.329507,-153.219100
1139.868456,-10066.800811,1110.308913,383.047749
1139.868777,-10362.883188,814.226536,842.705048
1139.869098,-9918.759623,370.102971,689.485948
1139.869418,-9918.759623,0.000000,995.924147
1139.869739,-10436.903782,74.020594,1149.143247
1139.870059,-9770.718434,-518.144159,1532.190996
1139.870380,-9622.677246,-740.205942,1838.629195
1139.870701,-9326.594869,-1258.350101,1685.410096
1139.871021,-8364.327145,-1036.288319,1685.410096
1139.871342,-9104.533087,-888.247130,1685.410096
1139.871662,-9178.553681,-888.247130,1685.410096
1139.871983,-9030.512492,-1110.308913,1762.019645
1139.872304,-9104.533087,-592.164754,1225.752797
1139.872624,-8882.471304,0.000000,1685.410096
1139.872945,-9252.574275,-222.061783,1685.410096
1139.873265,-9474.636058,-296.082377,1302.362347
1139.873586,-9622.677246,0.000000,1072.533697
1139.873907,-9548.656652,-222.061783,1378.971896
1139.874227,-8956.491898,-592.164754,459.657299
1139.874548,-9622.677246,-370.102971,1225.752797
1139.874868,-9622.677246,-592.164754,1302.362347
1139.875189,-9622.677246,-740.205942,1685.410096
1139.875510,-9696.697840,-962.267725,1762.019645
1139.875830,-8882.471304,-888.247130,1838.629195
1139.876151,-9770.718434,-1036.288319,1991.848295
1139.876471,-9622.677246,-1184.329507,1685.410096
1139.876792,-9474.636058,-888.247130,1532.190996
1139.877113,-10140.821405,-222.061783,1149.143247
1139.877433,-9474.636058,-74.020594,1072.533697
1139.877754,-9696.697840,-148.041188,689.485948
1139.878074,-9622.677246,-222.061783,383.047749
1139.878395,-9548.656652,74.020594,76.609550
1139.878715,-9474.636058,592.164754,2451.505594
1139.879036,-9918.759623,444.123565,0.000000
1139.879357,-9992.780217,592.164754,-229.828649
1139.879677,-9918.759623,592.164754,0.000000
1139.879998,-9844.739029,592.164754,76.609550
1139.880318,-9918.759623,888.247130,0.000000
1139.880639,-9844.739029,-370.102971,153.219100
1139.880960,-9696.697840,-444.123565,536.266849
1139.881280,-9770.718434,-666.185348,842.705048
1139.881601,-9474.636058,-592.164754,1149.143247
1139.881921,-9474.636058,-1036.288319,1149.143247
1139.882242,-9474.636058,-592.164754,1378.971896
1139.882563,-9548.656652,-814.226536,1455.581446
1139.882883,-9474.636058,-814.226536,1608.800546
1139.883204,-9400.615463,0.000000,1532.190996
1139.883524,-9178.553681,-666.185348,1302.362347
1139.883845,-9252.574275,-444.123565,1302.362347
1139.884166,-9178.553681,-444.123565,1149.143247
1139.884486,-9104.533087,-222.061783,842.705048
1139.884807,-9326.594869,148.041188,2451.505594
1139.885127,-9252.574275,222.061783,1149.143247
1139.885448,-9548.656652,0.000000,1149.143247
1139.885769,-9622.677246,296.082377,1072.533697
1139.886089,-9770.718434,148.041188,1302.362347
1139.886410,-9622.677246,148.041188,2374.896044
1139.886730,-9918.759623,-296.082377,1302.362347
1139.887051,-9696.697840,-444.123565,1838.629195
1139.887372,-9770.718434,-592.164754,1915.238745
1139.887692,-9474.636058,-962.267725,2145.067394
1139.888013,-9770.718434,-888.247130,2604.724693
1139.888333,-9474.636058,-1332.370696,2298.286494
1139.888654,-9474.636058,-1332.370696,1991.848295
1139.888975,-9474.636058,-1258.350101,2221.676944
1139.889295,-9474.636058,-740.205942,3370.820191
1139.889616,-9474.636058,-666.185348,1838.629195
1139.889936,-9548.656652,-370.102971,842.705048
1139.890257,-9548.656652,0.000000,536.266849
1139.890578,-9770.718434,592.164754,536.266849
1139.890898,-9030.512492,1036.288319,689.485948
1139.891219,-9696.697840,1036.288319,0.000000
1139.891539,-10140.821405,1110.308913,0.000000
1139.891860,-9918.759623,888.247130,0.000000
1139.892181,-9992.780217,592.164754,76.609550
1139.892501,-9696.697840,444.123565,536.266849
1139.892822,-10066.800811,0.000000,459.657299
1139.893142,-10066.800811,0.000000,766.095498
1139.893463,-9844.739029,-444.123565,1072.533697
1139.893784,-9548.656652,-814.226536,1149.143247
1139.894104,-9474.636058,-962.267725,766.095498
1139.894425,-9178.553681,-1184.329507,1302.362347
1139.894745,-9474.636058,-962.267725,1455.581446
1139.895066,-9104.533087,-888.247130,1608.800546
1139.895387,-8956.491898,-370.102971,1685.410096
1139.895707,-9104.533087,-666.185348,919.314598
1139.896028,-9104.533087,-592.164754,766.095498
1139.896348,-9400.615463,-222.061783,842.705048
1139.896669,-9252.574275,-74.020594,306.438199
1139.896990,-9030.512492,0.000000,919.314598
1139.897310,-9326.594869,0.000000,536.266849
1139.897631,-9474.636058,0.000000,995.924147
1139.897951,-9770.718434,-74.020594,1685.410096
1139.898272,-9770.718434,-666.185348,1532.190996
1139.898593,-9474.636058,-1184.329507,2604.724693
1139.898913,-9696.697840,-1036.288319,1991.848295
1139.899234,-9770.718434,-962.267725,2221.676944
1139.899554,-9622.677246,-1480.411884,2528.115143
1139.899875,-9474.636058,-1258.350101,1915.238745
1139.900196,-9696.697840,-962.267725,2757.943793
1139.900516,-9474.636058,-1036.288319,2145.067394
1139.900837,-9326.594869,-962.267725,2068.457845
1139.901157,-9400.615463,-888.247130,1685.410096
1139.901478,-9400.615463,-370.102971,1608.800546
1139.901799,-9326.594869,-148.041188,1149.143247
1139.902119,-9770.718434,0.000000,995.924147
1139.902440,-9696.697840,0.000000,766.095498
1139.902760,-9696.697840,222.061783,766.095498
1139.903081,-10362.883188,0.000000,1072.533697
1139.903402,-10140.821405,296.082377,766.095498
1139.903722,-9992.780217,74.020594,689.485948
1139.904043,-9844.739029,0.000000,1072.533697
1139.904363,-9918.759623,-296.082377,919.314598
1139.904684,-8438.347739,-1110.308913,919.314598
1139.905005,-9622.677246,-814.226536,1072.533697
1139.905325,-9548.656652,-962.267725,1532.190996
1139.905646,-9474.636058,-962.267725,1302.362347
1139.905966,-9252.574275,-962.267725,1302.362347
1139.906287,-9474.636058,-1036.288319,1762.019645
1139.906608,-9400.615463,-1036.288319,842.705048
1139.906928,-9474.636058,-1036.288319,1532.190996
1139.907249,-9326.594869,-814.226536,1072.533697
1139.907569,-9474.636058,-666.185348,383.047749
1139.907890,-9474.636058,-888.247130,459.657299
1139.908211,-9474.636058,-444.123565,229.828649
1139.908531,-9400.615463,0.000000,0.000000
1139.908852,-9474.636058,518.144159,0.000000
1139.909172,-9622.677246,444.123565,689.485948
1139.909493,-9696.697840,370.102971,612.876398
1139.909814,-9918.759623,444.123565,76.609550
1139.910134,-9770.718434,0.000000,383.047749
1139.910455,-9548.656652,0.000000,689.485948
1139.910775,-8586.388927,-962.267725,842.705048
1139.911096,-9548.656652,-444.123565,1072.533697
1139.911417,-9770.718434,-296.082377,1608.800546
1139.911737,-9770.718434,-666.185348,1915.238745
1139.912058,-9548.656652,-740.205942,1608.800546
1139.912378,-9178.553681,-1110.308913,2528.115143
1139.912699,-9474.636058,-1036.288319,1455.581446
1139.913020,-9178.553681,-592.164754,1149.143247
1139.913340,-9400.615463,-444.123565,842.705048
1139.913661,-9178.553681,0.000000,1225.752797
1139.913981,-9622.677246,296.082377,0.000000
1139.914302,-9770.718434,814.226536,153.219100
1139.914623,-9918.759623,1406.391290,0.000000
1139.914943,-10066.800811,1554.432478,383.047749
1139.915264,-9252.574275,1110.308913,0.000000
1139.915584,-10214.842000,1110.308913,383.047749
1139.915905,-10066.800811,666.185348,1455.581446
1139.916226,-10066.800811,222.061783,1225.752797
1139.916546,-9770.718434,0.000000,1149.143247
1139.916867,-10362.883188,-296.082377,306.438199
1139.917187,-9696.697840,-370.102971,1838.629195
1139.917508,-9474.636058,-592.164754,1991.848295
1139.917828,-9030.512492,-962.267725,1915.238745
1139.918149,-9252.574275,-888.247130,2374.896044
1139.918470,-9326.594869,-1258.350101,2145.067394
1139.918790,-9104.533087,-962.267725,2221.676944
1139.919111,-9104.533087,-888.247130,2068.457845
1139.919431,-9178.553681,-740.205942,1685.410096
1139.919752,-9252.574275,-962.267725,2298.286494
1139.920073,-9326.594869,-222.061783,1378.971896
1139.920393,-9474.636058,-222.061783,1378.971896
1139.920714,-9474.636058,-296.082377,1149.143247
1139.921034,-9474.636058,-592.164754,1072.533697
1139.921355,-9622.677246,-1036.288319,1455.581446
1139.921676,-9770.718434,-814.226536,919.314598
1139.921996,-9770.718434,-962.267725,1455.581446
1139.922317,-9622.677246,-1036.288319,1532.190996
1139.922637,-9622.677246,-1184.329507,1378.971896
1139.922958,-9622.677246,-1332.370696,1915.238745
1139.923279,-9548.656652,-1480.411884,1608.800546
1139.923599,-9622.677246,-1628.453072,1225.752797
1139.923920,-9548.656652,-1036.288319,1302.362347
1139.924240,-9474.636058,-666.185348,1149.143247
1139.924561,-9622.677246,-962.267725,536.266849
1139.924882,-9474.636058,-740.205942,459.657299
1139.925202,-9622.677246,-666.185348,153.219100
1139.925523,-9622.677246,-296.082377,153.219100
1139.925843,-9548.656652,74.020594,-842.705048
1139.926164,-9918.759623,296.082377,-306.438199
1139.926485,-10066.800811,592.164754,-383.047749
1139.926805,-10066.800811,740.205942,-153.219100
1139.927126,-9992.780217,222.061783,153.219100
1139.927446,-9918.759623,74.020594,306.438199
1139.927767,-10066.800811,148.041188,536.266849
1139.928088,-10066.800811,-296.082377,536.266849
1139.928408,-9918.759623,-74.020594,689.485948
1139.928729,-9400.615463,-740.205942,-766.095498
1139.929049,-9622.677246,-518.144159,919.314598
1139.929370,-9548.656652,-740.205942,1608.800546
1139.929691,-9548.656652,-740.205942,1455.581446
1139.930011,-9622.677246,-814.226536,1608.800546
1139.930332,-9400.615463,-592.164754,536.266849
1139.930652,-9474.636058,-888.247130,1608.800546
1139.930973,-9326.594869,-814.226536,1608.800546
1139.931294,-9326.594869,-444.123565,1685.410096
1139.931614,-9326.594869,-592.164754,2068.457845
1139.931935,-9178.553681,-444.123565,995.924147
1139.932255,-9400.615463,0.000000,1149.143247
1139.932576,-9622.677246,444.123565,1378.971896
1139.932897,-9474.636058,296.082377,1455.581446
1139.933217,-9474.636058,148.041188,1225.752797
1139.933538,-9622.677246,296.082377,1532.190996
1139.933858,-9696.697840,148.041188,2068.457845
1139.934179,-9770.718434,-222.061783,1915.238745
1139.934500,-9770.718434,-370.102971,2145.067394
1139.934820,-9474.636058,-888.247130,2221.676944
1139.935141,-9696.697840,-740.205942,2221.676944
1139.935461,-9400.615463,-888.247130,2145.067394
1139.935782,-9474.636058,-888.247130,1838.629195
1139.936103,-9770.718434,-814.226536,2298.286494
1139.936423,-9548.656652,-518.144159,1302.362347
1139.936744,-9400.615463,-592.164754,1149.143247
1139.937064,-9400.615463,-222.061783,306.438199
1139.937385,-9474.636058,74.020594,383.047749
1139.937706,-10066.800811,74.020594,-153.219100
1139.938026,-9844.739029,740.205942,-536.266849
1139.938347,-10066.800811,962.267725,-153.219100
1139.938667,-10214.842000,1406.391290,-153.219100
1139.938988,-10066.800811,1406.391290,153.219100
1139.939309,-10066.800811,814.226536,0.000000
1139.939629,-10214.842000,666.185348,0.000000
1139.939950,-10214.842000,74.020594,-153.219100
1139.940270,-9844.739029,-222.061783,383.047749
1139.940591,-10510.924376,-222.061783,-612.876398
1139.940912,-9622.677246,-1110.308913,919.314598
1139.941232,-9474.636058,-1258.350101,1225.752797
1139.941553,-9326.594869,-1036.288319,1225.752797
1139.941873,-9326.594869,-962.267725,1532.190996
1139.942194,-9252.574275,-962.267725,2451.505594
1139.942515,-9178.553681,-962.267725,1915.238745
1139.942835,-9178.553681,-740.205942,1149.143247
1139.943156,-9178.553681,-592.164754,1149.143247
1139.943476,-9178.553681,-296.082377,1302.362347
1139.943797,-9400.615463,0.000000,1225.752797
1139.944118,-9474.636058,0.000000,1225.752797
1139.944438,-9474.636058,0.000000,1149.143247
1139.944759,-9622.677246,0.000000,1762.019645
1139.945079,-9918.759623,148.041188,0.000000
1139.945400,-9770.718434,-888.247130,1991.848295
1139.945721,-9548.656652,-1036.288319,1991.848295
1139.946041,-9844.739029,-1480.411884,2068.457845
1139.946362,-9696.697840,-1554.432478,2298.286494
1139.946682,-9030.512492,-2368.659014,2604.724693
1139.947003,-9474.636058,-1480.411884,2451.505594
1139.947324,-9326.594869,-1480.411884,1991.848295
1139.947644,-9400.615463,-1110.308913,1915.238745
1139.947965,-9474.636058,-888.247130,1608.800546
1139.948285,-9400.615463,-592.164754,1762.019645
1139.948606,-9474.636058,-740.205942,689.485948
1139.948927,-9696.697840,-296.082377,459.657299
1139.949247,-9696.697840,0.000000,76.609550
1139.949568,-9918.759623,592.164754,-1225.752797
1139.949888,-9622.677246,888.247130,0.000000
1139.950209,-10066.800811,962.267725,76.609550
1139.950530,-10288.862594,814.226536,0.000000
1139.950850,-10066.800811,666.185348,76.609550
1139.951171,-10140.821405,148.041188,536.266849
1139.951491,-9844.739029,0.000000,766.095498
1139.951812,-9918.759623,-222.061783,919.314598
1139.952133,-9622.677246,-444.123565,612.876398
1139.952453,-9474.636058,-592.164754,612.876398
1139.952774,-9548.656652,-518.144159,459.657299
1139.953094,-9474.636058,-740.205942,995.924147
1139.953415,-9474.636058,-740.205942,1149.143247
1139.953736,-9474.636058,-666.185348,689.485948
1139.954056,-8734.430116,-592.164754,76.609550
1139.954377,-9400.615463,-888.247130,995.924147
1139.954697,-9326.594869,-962.267725,995.924147
1139.955018,-9252.574275,-592.164754,766.095498
1139.955338,-9252.574275,-370.102971,842.705048
1139.955659,-10066.800811,74.020594,153.219100
1139.955980,-9474.636058,0.000000,766.095498
1139.956300,-9474.636058,222.061783,842.705048
1139.956621,-9474.636058,370.102971,842.705048
1139.956941,-9474.636058,444.123565,842.705048
1139.957262,-9770.718434,0.000000,1455.581446
1139.957583,-9474.636058,-296.082377,1608.800546
1139.957903,-9622.677246,-444.123565,1838.629195
1139.958224,-9770.718434,-518.144159,2298.286494
1139.958544,-9622.677246,-740.205942,2221.676944
1139.958865,-9918.759623,-962.267725,2528.115143
1139.959186,-9696.697840,-1184.329507,2681.334243
1139.959506,-9474.636058,-1036.288319,2374.896044
1139.959827,-9474.636058,-962.267725,2374.896044
1139.960148,-9252.574275,-370.102971,1915.238745
1139.960468,-9474.636058,-592.164754,1685.410096
1139.960789,-9252.574275,-148.041188,919.314598
1139.961109,-9474.636058,222.061783,459.657299
1139.961430,-9622.677246,740.205942,0.000000
1139.961751,-9696.697840,1036.288319,153.219100
1139.962071,-10214.842000,1110.308913,0.000000
1139.962392,-10066.800811,1184.329507,383.047749
1139.962713,-10362.883188,740.205942,612.876398
1139.963033,-9992.780217,-740.205942,229.828649
1139.963354,-10214.842000,222.061783,919.314598
1139.963675,-10066.800811,-222.061783,1072.533697
1139.963995,-9918.759623,-592.164754,1455.581446
1139.964316,-9844.739029,-962.267725,1302.362347
1139.964637,-9992.780217,-740.205942,1608.800546
1139.964957,-9400.615463,-1184.329507,1302.362347
1139.965278,-9252.574275,-1036.288319,1072.533697
1139.965598,-9400.615463,-1184.329507,842.705048
1139.965919,-9326.594869,-1110.308913,995.924147
1139.966240,-9030.512492,-1036.288319,919.314598
1139.966560,-9252.574275,-1036.288319,536.266849
1139.966881,-9252.574275,-666.185348,612.876398
1139.967202,-9252.574275,-222.061783,536.266849
1139.967522,-9030.512492,0.000000,1149.143247
1139.967843,-9178.553681,148.041188,459.657299
1139.968164,-9548.656652,0.000000,612.876398
1139.968484,-9844.739029,-148.041188,995.924147
1139.968805,-9696.697840,-296.082377,1149.143247
1139.969126,-9770.718434,-740.205942,919.314598
1139.969446,-9474.636058,-1184.329507,1302.362347
1139.969767,-9548.656652,-962.267725,1455.581446
1139.970087,-9696.697840,-1110.308913,1991.848295
1139.970408,-9474.636058,-962.267725,2145.067394
1139.970729,-9474.636058,-1258.350101,1685.410096
1139.971049,-9622.677246,-740.205942,1685.410096
1139.971370,-9548.656652,-814.226536,1685.410096
1139.971691,-9622.677246,-222.061783,1685.410096
1139.972011,-9622.677246,0.000000,1149.143247
1139.972332,-9696.697840,0.000000,1302.362347
1139.972653,-9548.656652,0.000000,995.924147
1139.972973,-9770.718434,222.061783,766.095498
1139.973294,-9918.759623,444.123565,153.219100
1139.973614,-9696.697840,666.185348,-229.828649
1139.973935,-9918.759623,740.205942,0.000000
1139.974256,-9770.718434,666.185348,459.657299
1139.974576,-10214.842000,592.164754,766.095498
1139.974897,-10066.800811,0.000000,919.314598
1139.975218,-9770.718434,0.000000,536.266849
1139.975538,-10066.800811,-370.102971,1149.143247
1139.975859,-9770.718434,-592.164754,1608.800546
1139.976180,-9696.697840,-666.185348,1455.581446
1139.976500,-9474.636058,-1258.350101,2298.286494
1139.976821,-9400.615463,-1036.288319,1685.410096
1139.977142,-9474.636058,-962.267725,1838.629195
1139.977462,-9326.594869,-1110.308913,1532.190996
1139.977783,-9104.533087,-1110.308913,1378.971896
1139.978103,-8882.471304,-1258.350101,1685.410096
1139.978424,-9104.533087,-740.205942,1072.533697
1139.978745,-9252.574275,-518.144159,766.095498
1139.979065,-9326.594869,-148.041188,536.266849
1139.979386,-9178.553681,0.000000,0.000000
1139.979707,-9326.594869,0.000000,612.876398
1139.980027,-9548.656652,222.061783,306.438199
1139.980348,-9548.656652,148.041188,995.924147
1139.980669,-9770.718434,74.020594,919.314598
1139.980989,-9844.739029,74.020594,2068.457845
1139.981310,-9770.718434,-444.123565,1302.362347
1139.981631,-9918.759623,-370.102971,1532.190996
1139.981951,-9992.780217,-592.164754,1378.971896
1139.982272,-9548.656652,-740.205942,1455.581446
1139.982592,-9474.636058,-740.205942,1838.629195
1139.982913,-9400.615463,-740.205942,1455.581446
1139.983234,-9474.636058,-962.267725,1072.533697
1139.983554,-9252.574275,-666.185348,536.266849
1139.983875,-9474.636058,0.000000,689.485948
1139.984196,-9474.636058,0.000000,76.609550
1139.984516,-9696.697840,74.020594,0.000000
1139.984837,-9844.739029,592.164754,229.828649
1139.985158,-9770.718434,814.226536,0.000000
1139.985478,-10140.821405,370.102971,-459.657299
1139.985799,-10140.821405,1110.308913,0.000000
1139.986119,-10214.842000,888.247130,76.609550
1139.986440,-10066.800811,814.226536,76.609550
1139.986761,-10066.800811,296.082377,306.438199
1139.987081,-9844.739029,0.000000,612.876398
1139.987402,-9918.759623,-518.144159,612.876398
1139.987723,-9696.697840,-1184.329507,1225.752797
1139.988043,-9548.656652,-1332.370696,1378.971896
1139.988364,-10066.800811,-1332.370696,2681.334243
1139.988685,-9400.615463,-1258.350101,1762.019645
1139.989005,-9400.615463,-1184.329507,1991.848295
1139.989326,-9400.615463,-1184.329507,2145.067394
1139.989647,-9252.574275,-666.185348,1685.410096
1139.989967,-8956.491898,-1258.350101,2451.505594
1139.990288,-9030.512492,-444.123565,1915.238745
1139.990608,-9104.533087,-296.082377,1685.410096
1139.990929,-9030.512492,0.000000,1455.581446
1139.991250,-9474.636058,0.000000,1838.629195
1139.991570,-9474.636058,0.000000,1762.019645
1139.991891,-9622.677246,-148.041188,1532.190996
1139.992212,-9622.677246,-296.082377,1991.848295
1139.992532,-9696.697840,-444.123565,1762.019645
1139.992853,-9104.533087,-370.102971,1302.362347
1139.993174,-9844.739029,-740.205942,2298.286494
1139.993494,-9770.718434,-1036.288319,2068.457845
1139.993815,-9400.615463,-1184.329507,2145.067394
1139.994136,-9622.677246,-1258.350101,1838.629195
1139.994456,-9326.594869,-1036.288319,1838.629195
1139.994777,-9622.677246,-888.247130,1225.752797
1139.995097,-9622.677246,-814.226536,919.314598
1139.995418,-9474.636058,-444.123565,689.485948
1139.995739,-9622.677246,-888.247130,0.000000
1139.996059,-9474.636058,-296.082377,76.609550
1139.996380,-9696.697840,0.000000,76.609550
1139.996701,-9992.780217,74.020594,-306.438199
1139.997021,-9918.759623,296.082377,-459.657299
1139.997342,-9400.615463,666.185348,383.047749
1139.997663,-10140.821405,444.123565,0.000000
1139.997983,-10214.842000,518.144159,-229.828649
1139.998304,-10140.821405,518.144159,229.828649
1139.998624,-10066.800811,0.000000,229.828649
1139.998945,-9992.780217,-222.061783,306.438199
1139.999266,-9844.739029,-518.144159,689.485948
1139.999586,-9474.636058,-518.144159,689.485948
1139.999907,-9474.636058,-370.102971,1149.143247
1140.000228,-9474.636058,-222.061783,2451.505594
1140.000548,-9474.636058,-444.123565,1532.190996
1140.000869,-9474.636058,-592.164754,1532.190996
1140.001190,-9474.636058,-518.144159,1302.362347
1140.001510,-9326.594869,-592.164754,1302.362347
1140.001831,-8882.471304,-962.267725,766.095498
1140.002152,-9104.533087,-518.144159,1149.143247
1140.002472,-9104.533087,-296.082377,995.924147
1140.002793,-9104.533087,-222.061783,689.485948
1140.003113,-9400.615463,0.000000,1149.143247
1140.003434,-9400.615463,592.164754,1149.143247
1140.003755,-9622.677246,444.123565,1455.581446
1140.004075,-9696.697840,370.102971,1225.752797
1140.004396,-9622.677246,0.000000,1532.190996
1140.004717,-9474.636058,296.082377,2451.505594
1140.005037,-9770.718434,-592.164754,2068.457845
1140.005358,-9548.656652,-888.247130,2068.457845
1140.005679,-9844.739029,-962.267725,2068.457845
1140.005999,-9696.697840,-814.226536,2451.505594
1140.006320,-9400.615463,-962.267725,2298.286494
1140.006641,-9474.636058,-1258.350101,2374.896044
1140.006961,-9326.594869,-814.226536,1915.238745
1140.007282,-9326.594869,-814.226536,1762.019645
1140.007602,-9474.636058,-666.185348,0.000000
1140.007923,-9474.636058,-148.041188,842.705048
1140.008244,-9622.677246,74.020594,459.657299
1140.008564,-9844.739029,444.123565,306.438199
1140.008885,-9770.718434,1036.288319,0.000000
1140.009206,-9474.636058,1924.535449,306.438199
1140.009526,-10214.842000,1258.350101,-229.828649
1140.009847,-10140.821405,740.205942,76.609550
1140.010168,-10362.883188,444.123565,153.219100
1140.010488,-10214.842000,-370.102971,306.438199
1140.010809,-9844.739029,0.000000,536.266849
1140.011130,-9844.739029,-666.185348,689.485948
1140.011450,-9622.677246,-740.205942,1149.143247
1140.011771,-9474.636058,-814.226536,1225.752797
1140.012091,-9622.677246,-1258.350101,1378.971896
1140.012412,-9252.574275,-1036.288319,1378.971896
1140.012733,-9326.594869,-1036.288319,1302.362347
1140.013053,-9252.574275,-1036.288319,1302.362347
1140.013374,-9178.553681,-962.267725,1225.752797
1140.013695,-9622.677246,-740.205942,1072.533697
1140.014015,-9252.574275,-370.102971,766.095498
1140.014336,-9474.636058,-296.082377,919.314598
1140.014657,-9326.594869,0.000000,766.095498
1140.014977,-9474.636058,74.020594,1455.581446
1140.015298,-10066.800811,74.020594,1302.362347
1140.015618,-9474.636058,-370.102971,1225.752797
1140.015939,-9622.677246,-518.144159,1608.800546
1140.016260,-9696.697840,-518.144159,1915.238745
1140.016580,-9770.718434,-222.061783,2374.896044
1140.016901,-9622.677246,-1332.370696,2298.286494
1140.017222,-9622.677246,-1480.411884,1991.848295
1140.017542,-9474.636058,-1480.411884,2068.457845
1140.017863,-9548.656652,-1406.391290,2068.457845
1140.018184,-9474.636058,-962.267725,2298.286494
1140.018504,-9770.718434,-1036.288319,1762.019645
1140.018825,-9474.636058,-444.123565,1532.190996
1140.019146,-9696.697840,-148.041188,1225.752797
1140.019466,-9770.718434,0.000000,229.828649
1140.019787,-9844.739029,0.000000,229.828649
1140.020107,-9918.759623,444.123565,153.219100
1140.020428,-10066.800811,592.164754,229.828649
1140.020749,-9844.739029,518.144159,-383.047749
1140.021069,-9844.739029,1036.288319,229.828649
1140.021390,-9918.759623,444.123565,229.828649
1140.021711,-10140.821405,296.082377,306.438199
1140.022031,-10214.842000,0.000000,459.657299
1140.022352,-10066.800811,-148.041188,536.266849
1140.022673,-9622.677246,-592.164754,1072.533697
1140.022993,-9622.677246,-370.102971,612.876398
1140.023314,-9918.759623,-666.185348,1455.581446
1140.023635,-9400.615463,-592.164754,995.924147
1140.023955,-10362.883188,-148.041188,2604.724693
1140.024276,-9252.574275,-444.123565,1149.143247
1140.024596,-9400.615463,-370.102971,1225.752797
1140.024917,-9178.553681,-592.164754,1225.752797
1140.025238,-9252.574275,-592.164754,1149.143247
1140.025558,-8290.306550,-370.102971,1072.533697
1140.025879,-9252.574275,-148.041188,536.266849
1140.026200,-9400.615463,0.000000,766.095498
1140.026520,-9474.636058,74.020594,536.266849
1140.026841,-9474.636058,74.020594,766.095498
1140.027162,-9474.636058,148.041188,919.314598
1140.027482,-9400.615463,296.082377,689.485948
1140.027803,-9918.759623,0.000000,1225.752797
1140.028123,-9918.759623,-148.041188,1608.800546
1140.028444,-9474.636058,0.000000,2451.505594
1140.028765,-9548.656652,-814.226536,2145.067394
1140.029085,-9770.718434,-814.226536,1991.848295
1140.029406,-9548.656652,-1036.288319,2528.115143
1140.029727,-9474.636058,-1036.288319,2451.505594
1140.030047,-9178.553681,-1554.432478,1762.019645
1140.030368,-9400.615463,-1258.350101,1685.410096
1140.030689,-9400.615463,-1258.350101,1915.238745
1140.031009,-9252.574275,-1036.288319,1608.800546
1140.031330,-9400.615463,-518.144159,1608.800546
1140.031651,-9474.636058,74.020594,995.924147
1140.031971,-9622.677246,74.020594,383.047749
1140.032292,-9770.718434,444.123565,0.000000
1140.032612,-9992.780217,888.247130,0.000000
1140.032933,-9992.780217,666.185348,0.000000
1140.033254,-10214.842000,1258.350101,0.000000
1140.033574,-10140.821405,888.247130,459.657299
1140.033895,-10066.800811,148.041188,536.266849
1140.034216,-10140.821405,0.000000,689.485948
1140.034536,-9992.780217,-74.020594,2068.457845
1140.034857,-9844.739029,-592.164754,1378.971896
1140.035178,-9622.677246,-1184.329507,1532.190996
1140.035498,-9474.636058,-1332.370696,1378.971896
1140.035819,-9326.594869,-1036.288319,1149.143247
1140.036140,-9030.512492,-222.061783,1072.533697
1140.036460,-9400.615463,-1036.288319,995.924147
1140.036781,-9178.553681,-740.205942,1149.143247
1140.037101,-9104.533087,-592.164754,995.924147
1140.037422,-9178.553681,-370.102971,766.095498
1140.037743,-8512.368333,-74.020594,536.266849
1140.038063,-9326.594869,-222.061783,842.705048
1140.038384,-9474.636058,-296.082377,842.705048
1140.038705,-9844.739029,-148.041188,842.705048
1140.039025,-9918.759623,-296.082377,1072.533697
1140.039346,-9696.697840,-222.061783,919.314598
1140.039667,-9474.636058,-444.123565,1302.362347
1140.039987,-9622.677246,-740.205942,1225.752797
1140.040308,-9474.636058,-888.247130,1608.800546
1140.040628,-9474.636058,-1258.350101,2298.286494
1140.040949,-9548.656652,-1332.370696,1608.800546
1140.041270,-9548.656652,-1480.411884,1838.629195
1140.041590,-9252.574275,-1332.370696,1685.410096
1140.041911,-9474.636058,-962.267725,1762.019645
1140.042232,-9548.656652,-592.164754,1762.019645
1140.042552,-9252.574275,-296.082377,1302.362347
1140.042873,-9622.677246,-296.082377,995.924147
1140.043194,-9696.697840,0.000000,842.705048
1140.043514,-9622.677246,370.102971,536.266849
1140.043835,-9696.697840,518.144159,1149.143247
1140.044156,-9622.677246,666.185348,153.219100
1140.044476,-10140.821405,814.226536,153.219100
1140.044797,-9844.739029,888.247130,306.438199
1140.045117,-10214.842000,814.226536,536.266849
1140.045438,-9548.656652,148.041188,0.000000
1140.045759,-9918.759623,0.000000,0.000000
1140.046079,-9696.697840,0.000000,612.876398
1140.046400,-9918.759623,74.020594,1378.971896
1140.046721,-9844.739029,-296.082377,1532.190996
1140.047041,-8882.471304,-1036.288319,1608.800546
1140.047362,-9474.636058,-666.185348,1532.190996
1140.047683,-9474.636058,-740.205942,1762.019645
1140.048003,-9474.636058,-370.102971,1915.238745
1140.048324,-9326.594869,-592.164754,1532.190996
1140.048645,-9252.574275,-888.247130,1302.362347
1140.048965,-9104.533087,-962.267725,1149.143247
1140.049286,-9104.533087,-888.247130,766.095498
1140.049606,-9252.574275,-592.164754,1072.533697
1140.049927,-9178.553681,-444.123565,0.000000
1140.050248,-9474.636058,-296.082377,536.266849
1140.050568,-9474.636058,-222.061783,689.485948
1140.050889,-9548.656652,0.000000,995.924147
1140.051210,-9622.677246,-148.041188,1072.533697
1140.051530,-9770.718434,-814.226536,2068.457845
1140.051851,-9770.718434,-296.082377,1302.362347
1140.052172,-9474.636058,-296.082377,1608.800546
1140.052492,-9548.656652,-740.205942,1608.800546
1140.052813,-9474.636058,-888.247130,1838.629195
1140.053133,-9696.697840,-1036.288319,2451.505594
1140.053454,-9400.615463,-1036.288319,1762.019645
1140.053775,-9400.615463,-1332.370696,1532.190996
1140.054095,-9474.636058,-1110.308913,1378.971896
1140.054416,-9400.615463,-1702.473667,919.314598
1140.054737,-9474.636058,-888.247130,689.485948
1140.055057,-9400.615463,-222.061783,612.876398
1140.055378,-9696.697840,0.000000,459.657299
1140.055699,-9696.697840,518.144159,0.000000
1140.056019,-9548.656652,814.226536,1608.800546
1140.056340,-10066.800811,888.247130,-153.219100
1140.056661,-10214.842000,1258.350101,0.000000
1140.056981,-10288.862594,1184.329507,229.828649
1140.057302,-10140.821405,666.185348,229.828649
1140.057622,-10214.842000,444.123565,153.219100
1140.057943,-10066.800811,74.020594,919.314598
1140.058264,-9918.759623,-444.123565,1455.581446
1140.058584,-9844.739029,-888.247130,1608.800546
1140.058905,-9770.718434,-1184.329507,1838.629195
1140.059226,-9474.636058,-1406.391290,2221.676944
1140.059546,-9474.636058,-1554.432478,1991.848295
1140.059867,-9474.636058,-1258.350101,1915.238745
1140.060188,-9474.636058,-1184.329507,1915.238745
1140.060508,-9326.594869,-1332.370696,229.828649
1140.060829,-9252.574275,-666.185348,1532.190996
1140.061150,-9326.594869,-370.102971,1378.971896
1140.061470,-9474.636058,-148.041188,1225.752797
1140.061791,-9400.615463,0.000000,1455.581446
1140.062111,-8438.347739,-222.061783,612.876398
1140.062432,-9770.718434,0.000000,1072.533697
1140.062753,-9918.759623,222.061783,1608.800546
1140.063073,-9770.718434,-148.041188,1915.238745
1140.063394,-9622.677246,-296.082377,1762.019645
1140.063715,-9770.718434,-740.205942,1532.190996
1140.064035,-9474.636058,-888.247130,1991.848295
1140.064356,-9770.718434,-962.267725,2374.896044
1140.064677,-9474.636058,-1332.370696,1838.629195
1140.064997,-9178.553681,-1332.370696,1685.410096
1140.065318,-9326.594869,-1036.288319,1532.190996
1140.065639,-9326.594869,-518.144159,1302.362347
1140.065959,-9622.677246,-296.082377,1225.752797
1140.066280,-9474.636058,-296.082377,919.314598
1140.066601,-9548.656652,74.020594,1762.019645
1140.066921,-9696.697840,444.123565,0.000000
1140.067242,-9992.780217,370.102971,76.609550
1140.067562,-9992.780217,444.123565,0.000000
1140.067883,-9770.718434,296.082377,-306.438199
1140.068204,-9844.739029,814.226536,-689.485948
1140.068524,-9992.780217,444.123565,0.000000
1140.068845,-10066.800811,74.020594,153.219100
1140.069166,-9992.780217,-148.041188,459.657299
1140.069486,-9770.718434,-592.164754,229.828649
1140.069807,-10362.883188,-296.082377,612.876398
1140.070128,-9770.718434,-814.226536,919.314598
1140.070448,-9770.718434,-888.247130,1149.143247
1140.070769,-9548.656652,-740.205942,1225.752797
1140.071090,-9474.636058,-888.247130,2068.457845
1140.071410,-9622.677246,-592.164754,1685.410096
1140.071731,-9474.636058,-814.226536,1838.629195
1140.072052,-9474.636058,-518.144159,1378.971896
1140.072372,-9400.615463,-518.144159,1072.533697
1140.072693,-8438.347739,-592.164754,-153.219100
1140.073013,-9474.636058,-518.144159,1072.533697
1140.073334,-9474.636058,-518.144159,1149.143247
1140.073655,-9474.636058,-74.020594,1455.581446
1140.073975,-9474.636058,0.000000,1302.362347
1140.074296,-9992.780217,-666.185348,1838.629195
1140.074617,-9770.718434,222.061783,1455.581446
1140.074937,-9770.718434,74.020594,1685.410096
1140.075258,-9770.718434,-222.061783,1608.800546
1140.075579,-9696.697840,-592.164754,2298.286494
1140.075899,-9918.759623,-666.185348,1685.410096
1140.076220,-9696.697840,-740.205942,2374.896044
1140.076541,-9696.697840,-814.226536,2298.286494
1140.076861,-9474.636058,-1036.288319,2145.067394
1140.077182,-9252.574275,-740.205942,2221.676944
1140.077503,-9474.636058,-962.267725,1838.629195
1140.077823,-9326.594869,-962.267725,1378.971896
1140.078144,-9474.636058,-814.226536,1149.143247
1140.078464,-9326.594869,-370.102971,842.705048
1140.078785,-9178.553681,-962.267725,995.924147
1140.079106,-9474.636058,296.082377,76.609550
1140.079426,-9770.718434,740.205942,-689.485948
1140.079747,-9992.780217,888.247130,-306.438199
1140.080068,-10140.821405,1110.308913,-76.609550
1140.080388,-10066.800811,888.247130,459.657299
1140.080709,-10066.800811,888.247130,76.609550
1140.081030,-10066.800811,740.205942,-153.219100
1140.081350,-9992.780217,0.000000,153.219100
1140.081671,-9548.656652,296.082377,766.095498
1140.081992,-9918.759623,-592.164754,1302.362347
1140.082312,-9770.718434,-888.247130,1149.143247
1140.082633,-9252.574275,-1258.350101,1302.362347
1140.082954,-9326.594869,-1110.308913,1608.800546
1140.083274,-9622.677246,0.000000,1455.581446
1140.083595,-9178.553681,-740.205942,1762.019645
1140.083915,-9474.636058,-666.185348,1608.800546
1140.084236,-8956.491898,-814.226536,1072.533697
1140.084557,-9326.594869,-370.102971,1072.533697
1140.084877,-9326.594869,444.123565,766.095498
1140.085198,-9326.594869,0.000000,1225.752797
1140.085519,-9622.677246,296.082377,1532.190996
1140.085839,-9474.636058,148.041188,1378.971896
1140.086160,-8956.491898,-592.164754,1455.581446
1140.086481,-9548.656652,0.000000,1762.019645
1140.086801,-9918.759623,-222.061783,2298.286494
1140.087122,-9770.718434,-518.144159,2145.067394
1140.087443,-9770.718434,-1036.288319,2145.067394
1140.087763,-10066.800811,-1036.288319,2528.115143
1140.088084,-9770.718434,-1258.350101,2834.553343
1140.088405,-9770.718434,-1332.370696,2451.505594
1140.088725,-9400.615463,-1628.453072,2298.286494
1140.089046,-9474.636058,-1036.288319,1608.800546
1140.089366,-10436.903782,-296.082377,1378.971896
1140.089687,-9622.677246,-444.123565,1225.752797
1140.090008,-9474.636058,-222.061783,995.924147
1140.090328,-9696.697840,0.000000,459.657299
1140.090649,-9622.677246,74.020594,76.609550
1140.090970,-9918.759623,370.102971,-153.219100
1140.091290,-9696.697840,148.041188,153.219100
1140.091611,-9844.739029,444.123565,383.047749
1140.091932,-9918.759623,296.082377,229.828649
1140.092252,-9770.718434,296.082377,2451.505594
1140.092573,-9992.780217,0.000000,0.000000
1140.092894,-9844.739029,-592.164754,229.828649
1140.093214,-9844.739029,-518.144159,229.828649
1140.093535,-9696.697840,-666.185348,536.266849
1140.093856,-9918.759623,-370.102971,2145.067394
1140.094176,-9474.636058,-740.205942,689.485948
1140.094497,-9474.636058,-740.205942,1072.533697
1140.094817,-9400.615463,-666.185348,919.314598
1140.095138,-9474.636058,-740.205942,1225.752797
1140.095459,-9400.615463,-888.247130,1838.629195
1140.095779,-9326.594869,-444.123565,995.924147
1140.096100,-9474.636058,-296.082377,689.485948
1140.096421,-9178.553681,-148.041188,1072.533697
1140.096741,-9252.574275,-222.061783,-229.828649
1140.097062,-9474.636058,-222.061783,536.266849
1140.097383,-9474.636058,-222.061783,612.876398
1140.097703,-9474.636058,0.000000,842.705048
1140.098024,-9770.718434,222.061783,995.924147
1140.098345,-9696.697840,222.061783,0.000000
1140.098665,-9770.718434,-222.061783,1225.752797
1140.098986,-9844.739029,-296.082377,1378.971896
1140.099307,-9918.759623,-296.082377,1838.629195
1140.099627,-9844.739029,-370.102971,2145.067394
1140.099948,-9918.759623,-1332.370696,2681.334243
1140.100269,-9474.636058,-1258.350101,2451.505594
1140.100589,-9548.656652,-1258.350101,1915.238745
1140.100910,-9474.636058,-1110.308913,2298.286494
1140.101230,-9622.677246,-888.247130,2221.676944
1140.101551,-9474.636058,-1406.391290,1608.800546
1140.101872,-9622.677246,-888.247130,1225.752797
1140.102192,-9474.636058,-592.164754,919.314598
1140.102513,-9474.636058,-74.020594,766.095498
1140.102834,-9622.677246,74.020594,-2451.505594
1140.103154,-9548.656652,74.020594,0.000000
1140.103475,-9844.739029,444.123565,0.000000
1140.103796,-9992.780217,888.247130,0.000000
1140.104116,-10066.800811,592.164754,459.657299
1140.104437,-9770.718434,888.247130,536.266849
1140.104758,-9992.780217,222.061783,612.876398
1140.105078,-9992.780217,222.061783,536.266849
1140.105399,-9548.656652,-148.041188,919.314598
1140.105720,-9474.636058,-888.247130,2145.067394
1140.106040,-9474.636058,-888.247130,383.047749
1140.106361,-9326.594869,-1184.329507,766.095498
1140.106681,-9400.615463,-962.267725,995.924147
1140.107002,-9326.594869,-592.164754,1378.971896
1140.107323,-8882.471304,-296.082377,1915.238745
1140.107643,-9104.533087,-518.144159,1685.410096
1140.107964,-9252.574275,-296.082377,1149.143247
1140.108285,-9326.594869,0.000000,1149.143247
1140.108605,-9474.636058,0.000000,1302.362347
1140.108926,-10658.965565,518.144159,-995.924147
1140.109247,-9474.636058,0.000000,766.095498
1140.109567,-9474.636058,222.061783,536.266849
1140.109888,-9770.718434,592.164754,919.314598
1140.110209,-9770.718434,222.061783,995.924147
1140.110529,-9326.594869,-148.041188,1838.629195
1140.110850,-9844.739029,-370.102971,995.924147
1140.111171,-9770.718434,-592.164754,1378.971896
1140.111491,-10066.800811,-888.247130,1455.581446
1140.111812,-9548.656652,-814.226536,3447.429741
1140.112132,-9474.636058,-1332.370696,1915.238745
1140.112453,-9548.656652,-740.205942,1455.581446
1140.112774,-9622.677246,-518.144159,1532.190996
1140.113094,-9622.677246,-296.082377,1455.581446
1140.113415,-8290.306550,-1184.329507,383.047749
1140.113736,-9474.636058,0.000000,536.266849
1140.114056,-9474.636058,0.000000,459.657299
1140.114377,-9474.636058,296.082377,306.438199
1140.114698,-9548.656652,370.102971,76.609550
1140.115018,-9400.615463,444.123565,-612.876398
1140.115339,-9770.718434,592.164754,0.000000
1140.115660,-9918.759623,444.123565,153.219100
1140.115980,-9918.759623,74.020594,689.485948
1140.116301,-9918.759623,370.102971,459.657299
1140.116622,-10214.842000,-148.041188,919.314598
1140.116942,-9622.677246,-222.061783,1072.533697
1140.117263,-9474.636058,-592.164754,1072.533697
1140.117583,-9400.615463,-740.205942,1072.533697
1140.117904,-10214.842000,74.020594,1455.581446
1140.118225,-9252.574275,-1036.288319,1838.629195
1140.118545,-9252.574275,-1184.329507,1838.629195
1140.118866,-9252.574275,-1110.308913,1378.971896
1140.119187,-9326.594869,-1110.308913,1378.971896
1140.119507,-9030.512492,-962.267725,-766.095498
1140.119828,-9326.594869,-740.205942,1302.362347
1140.120149,-9252.574275,-888.247130,995.924147
1140.120469,-9400.615463,-518.144159,612.876398
1140.120790,-9474.636058,-296.082377,842.705048
1140.121111,-9474.636058,-222.061783,919.314598
1140.121431,-9474.636058,0.000000,1072.533697
1140.121752,-9770.718434,-148.041188,1302.362347
1140.122073,-9918.759623,-296.082377,1225.752797
1140.122393,-9918.759623,-444.123565,3140.991542
1140.122714,-10066.800811,-740.205942,1991.848295
1140.123034,-9844.739029,-962.267725,1685.410096
1140.123355,-9770.718434,-1184.329507,1762.019645
1140.123676,-9622.677246,-1184.329507,1915.238745
1140.123996,-8438.347739,-962.267725,1762.019645
1140.124317,-9548.656652,-1554.432478,1455.581446
1140.124638,-9474.636058,-1184.329507,1532.190996
1140.124958,-9474.636058,-1036.288319,1532.190996
1140.125279,-9474.636058,-962.267725,1302.362347
1140.125600,-9252.574275,-1184.329507,1225.752797
1140.125920,-9474.636058,-222.061783,536.266849
1140.126241,-9844.739029,0.000000,383.047749
1140.126562,-9474.636058,444.123565,383.047749
1140.126882,-10288.862594,814.226536,-536.266849
1140.127203,-9696.697840,592.164754,-306.438199
1140.127524,-10066.800811,888.247130,0.000000
1140.127844,-10066.800811,888.247130,76.609550
1140.128165,-9844.739029,370.102971,76.609550
1140.128485,-10510.924376,666.185348,383.047749
1140.128806,-9622.677246,0.000000,612.876398
1140.129127,-9622.677246,-444.123565,1149.143247
1140.129447,-9474.636058,-962.267725,1225.752797
1140.129768,-9622.677246,-1036.288319,1608.800546
1140.130089,-9474.636058,-962.267725,1225.752797
1140.130409,-9178.553681,-1184.329507,1455.581446
1140.130730,-9178.553681,-1184.329507,1762.019645
1140.131051,-8956.491898,-1036.288319,1762.019645
1140.131371,-9252.574275,-962.267725,1302.362347
1140.131692,-9622.677246,-296.082377,1149.143247
1140.132013,-9326.594869,-148.041188,919.314598
1140.132333,-9252.574275,0.000000,1072.533697
1140.132654,-9474.636058,74.020594,842.705048
1140.132975,-8734.430116,-518.144159,0.000000
1140.133295,-9474.636058,0.000000,766.095498
1140.133616,-10066.800811,0.000000,1302.362347
1140.133936,-9844.739029,0.000000,1455.581446
1140.134257,-9992.780217,-296.082377,1838.629195
1140.134578,-9844.739029,-518.144159,2604.724693
1140.134898,-9696.697840,-444.123565,1915.238745
1140.135219,-9696.697840,-814.226536,2374.896044
1140.135540,-9474.636058,-1110.308913,2374.896044
1140.135860,-9474.636058,-1036.288319,1532.190996
1140.136181,-9178.553681,-740.205942,2451.505594
1140.136502,-9474.636058,-370.102971,1608.800546
1140.136822,-9622.677246,-148.041188,1378.971896
1140.137143,-9696.697840,74.020594,1072.533697
1140.137464,-9474.636058,74.020594,2221.676944
1140.137784,-9992.780217,370.102971,459.657299
1140.138105,-9844.739029,666.185348,0.000000
1140.138426,-9844.739029,888.247130,0.000000
1140.138746,-10066.800811,592.164754,-153.219100
1140.139067,-9548.656652,666.185348,-3217.601092
1140.139388,-9770.718434,222.061783,0.000000
1140.139708,-9992.780217,0.000000,229.828649
1140.140029,-9770.718434,-370.102971,229.828649
1140.140349,-9696.697840,-592.164754,919.314598
1140.140670,-9104.533087,-814.226536,-306.438199
1140.140991,-9622.677246,-740.205942,1149.143247
1140.141311,-9474.636058,-962.267725,1378.971896
1140.141632,-9178.553681,-1332.370696,1608.800546
1140.141953,-9400.615463,-1036.288319,1378.971896
1140.142273,-9474.636058,-1184.329507,1072.533697
1140.142594,-9178.553681,-1036.288319,1455.581446
1140.142915,-9252.574275,-592.164754,1455.581446
1140.143235,-9326.594869,-666.185348,1838.629195
1140.143556,-9770.718434,518.144159,3064.381992
1140.143877,-9474.636058,-592.164754,1149.143247
1140.144197,-9474.636058,-444.123565,766.095498
1140.144518,-9400.615463,0.000000,612.876398
1140.144839,-9622.677246,148.041188,766.095498
1140.145159,-8882.471304,222.061783,-536.266849
1140.145480,-9770.718434,370.102971,689.485948
1140.145800,-9844.739029,74.020594,1455.581446
1140.146121,-10066.800811,0.000000,1685.410096
1140.146442,-10066.800811,-888.247130,3140.991542
1140.146762,-9770.718434,-222.061783,1225.752797
1140.147083,-9770.718434,-296.082377,1991.848295
1140.147404,-9844.739029,-296.082377,2451.505594
1140.147724,-9548.656652,-740.205942,1991.848295
1140.148045,-9992.780217,-962.267725,2298.286494
1140.148366,-9548.656652,-814.226536,1532.190996
1140.148686,-9474.636058,-592.164754,1532.190996
1140.149007,-9474.636058,-444.123565,995.924147
1140.149328,-9474.636058,-148.041188,842.705048
1140.149648,-9252.574275,-1258.350101,842.705048
1140.149969,-9548.656652,592.164754,229.828649
1140.150290,-10066.800811,296.082377,-76.609550
1140.150610,-10066.800811,444.123565,0.000000
1140.150931,-10140.821405,666.185348,229.828649
1140.151251,-10288.862594,1036.288319,76.609550
1140.151572,-9770.718434,518.144159,306.438199
1140.151893,-9918.759623,370.102971,153.219100
1140.152213,-9770.718434,0.000000,612.876398
1140.152534,-9548.656652,592.164754,1149.143247
1140.152855,-9474.636058,-592.164754,1225.752797
1140.153175,-9400.615463,-1036.288319,1302.362347
1140.153496,-9252.574275,-1036.288319,1762.019645
1140.153817,-9178.553681,-1110.308913,1838.629195
1140.154137,-8142.265362,-518.144159,1838.629195
1140.154458,-9104.533087,-962.267725,1685.410096
1140.154779,-8956.491898,-740.205942,1302.362347
1140.155099,-9104.533087,-962.267725,995.924147
1140.155420,-9030.512492,-370.102971,689.485948
1140.155741,-9918.759623,296.082377,612.876398
1140.156061,-9474.636058,222.061783,612.876398
1140.156382,-9622.677246,296.082377,689.485948
1140.156702,-9548.656652,370.102971,842.705048
1140.157023,-9770.718434,444.123565,842.705048
1140.157344,-9622.677246,0.000000,1149.143247
1140.157664,-9844.739029,-148.041188,1608.800546
1140.157985,-9770.718434,-592.164754,1302.362347
1140.158306,-9696.697840,-740.205942,1838.629195
1140.158626,-10658.965565,-1480.411884,1225.752797
1140.158947,-9696.697840,-1406.391290,1838.629195
1140.159268,-9548.656652,-1850.514855,1608.800546
1140.159588,-9696.697840,-1258.350101,1762.019645
1140.159909,-9474.636058,-1184.329507,1455.581446
1140.160230,-9474.636058,-666.185348,459.657299
1140.160550,-9474.636058,-740.205942,1072.533697
1140.160871,-9474.636058,-296.082377,842.705048
1140.161192,-9918.759623,-296.082377,766.095498
1140.161512,-9696.697840,0.000000,995.924147
1140.161833,-10140.821405,148.041188,229.828649
1140.162154,-9992.780217,370.102971,766.095498
1140.162474,-9992.780217,222.061783,536.266849
1140.162795,-9918.759623,222.061783,306.438199
1140.163116,-10658.965565,0.000000,-383.047749
1140.163436,-9844.739029,-296.082377,919.314598
1140.163757,-9770.718434,-444.123565,766.095498
1140.164078,-9474.636058,-666.185348,1072.533697
1140.164398,-9474.636058,-592.164754,1455.581446
1140.164719,-9622.677246,-1332.370696,1685.410096
1140.165040,-9474.636058,-814.226536,1991.848295
1140.165360,-9474.636058,-1184.329507,1608.800546
1140.165681,-9400.615463,-1110.308913,1915.238745
1140.166002,-9400.615463,-814.226536,1915.238745
1140.166322,-9844.739029,0.000000,1302.362347
1140.166643,-9400.615463,-444.123565,1302.362347
1140.166964,-9326.594869,-444.123565,1072.533697
1140.167284,-9178.553681,-370.102971,459.657299
1140.167605,-9178.553681,0.000000,-153.219100
1140.167926,-9178.553681,0.000000,689.485948
1140.168246,-9474.636058,0.000000,306.438199
1140.168567,-9548.656652,370.102971,383.047749
1140.168888,-9770.718434,0.000000,383.047749
1140.169208,-9696.697840,74.020594,2221.676944
1140.169529,-9548.656652,-148.041188,919.314598
1140.169850,-9770.718434,-518.144159,1072.533697
1140.170170,-10066.800811,-296.082377,1608.800546
1140.170491,-9844.739029,-740.205942,1608.800546
1140.170812,-9548.656652,-370.102971,1685.410096
1140.171132,-9326.594869,-1110.308913,1685.410096
1140.171453,-9474.636058,-1110.308913,1149.143247
1140.171774,-9474.636058,-1184.329507,1072.533697
1140.172094,-9400.615463,-962.267725,995.924147
1140.172415,-9474.636058,-666.185348,459.657299
1140.172736,-9474.636058,-592.164754,536.266849
1140.173056,-9622.677246,0.000000,383.047749
1140.173377,-9622.677246,370.102971,-306.438199
1140.173698,-9770.718434,962.267725,76.609550
1140.174018,-10362.883188,1036.288319,-842.705048
1140.174339,-9992.780217,1332.370696,153.219100
1140.174660,-9992.780217,1036.288319,76.609550
1140.174980,-10214.842000,1036.288319,612.876398
1140.175301,-9918.759623,592.164754,612.876398
1140.175622,-9622.677246,518.144159,459.657299
1140.175943,-9696.697840,0.000000,1072.533697
1140.176263,-9770.718434,-370.102971,1608.800546
1140.176584,-9474.636058,-518.144159,1685.410096
1140.176905,-9400.615463,-814.226536,2221.676944
1140.177225,-9474.636058,-370.102971,2068.457845
1140.177546,-9252.574275,-1110.308913,2145.067394
1140.177867,-9104.533087,-962.267725,2221.676944
1140.178187,-9252.574275,-1036.288319,2145.067394
1140.178508,-9030.512492,-1258.350101,2068.457845
1140.178829,-9474.636058,-444.123565,1762.019645
1140.179149,-9326.594869,-370.102971,1532.190996
1140.179470,-9474.636058,-148.041188,1762.019645
1140.179791,-9400.615463,-148.041188,1302.362347
1140.180111,-9622.677246,222.061783,-612.876398
1140.180432,-9474.636058,-148.041188,995.924147
1140.180753,-9696.697840,-296.082377,1455.581446
1140.181073,-9622.677246,-740.205942,1378.971896
1140.181394,-9844.739029,-592.164754,1608.800546
1140.181715,-9252.574275,-1110.308913,1685.410096
1140.182035,-9770.718434,-1184.329507,1991.848295
1140.182356,-9622.677246,-1406.391290,2145.067394
1140.182677,-9548.656652,-1110.308913,1762.019645
1140.182997,-9548.656652,-1258.350101,2911.162892
1140.183318,-9326.594869,-1036.288319,1838.629195
1140.183639,-9400.615463,-740.205942,919.314598
1140.183959,-9622.677246,-370.102971,536.266849
1140.184280,-9474.636058,-222.061783,153.219100
1140.184601,-9030.512492,222.061783,0.000000
1140.184921,-9474.636058,296.082377,0.000000
1140.185242,-9622.677246,444.123565,0.000000
1140.185563,-9918.759623,740.205942,-459.657299
1140.185883,-9992.780217,888.247130,-306.438199
1140.186204,-9252.574275,888.247130,0.000000
1140.186525,-9918.759623,222.061783,153.219100
1140.186845,-10066.800811,-148.041188,229.828649
1140.187166,-9844.739029,-296.082377,0.000000
1140.187487,-9844.739029,-74.020594,0.000000
1140.187807,-9696.697840,-518.144159,1149.143247
1140.188128,-9474.636058,-666.185348,919.314598
1140.188449,-9326.594869,-888.247130,919.314598
1140.188769,-9326.594869,-962.267725,1072.533697
1140.189090,-8586.388927,-370.102971,1608.800546
1140.189411,-9548.656652,-1036.288319,1915.238745
1140.189732,-9474.636058,-1110.308913,1762.019645
1140.190052,-9400.615463,-1258.350101,1532.190996
1140.190373,-9178.553681,-666.185348,1532.190996
1140.190694,-9252.574275,-666.185348,1072.533697
1140.191014,-9326.594869,-666.185348,1455.581446
1140.191335,-9252.574275,-370.102971,1302.362347
1140.191656,-9252.574275,-148.041188,919.314598
1140.191976,-9474.636058,296.082377,2068.457845
1140.192297,-9474.636058,518.144159,1685.410096
1140.192618,-9770.718434,370.102971,1532.190996
1140.192938,-10066.800811,222.061783,1455.581446
1140.193259,-9844.739029,-148.041188,1991.848295
1140.193580,-10436.903782,-296.082377,1072.533697
1140.193900,-9992.780217,-518.144159,2221.676944
1140.194221,-10362.883188,-740.205942,2451.505594
1140.194542,-9622.677246,-666.185348,2681.334243
1140.194862,-9622.677246,-1110.308913,2298.286494
1140.195183,-9844.739029,-740.205942,2145.067394
1140.195504,-9400.615463,-1110.308913,1685.410096
1140.195824,-9474.636058,-1110.308913,1302.362347
1140.196145,-9474.636058,-592.164754,766.095498
1140.196466,-9326.594869,-296.082377,689.485948
1140.196786,-9400.615463,222.061783,612.876398
1140.197107,-9548.656652,222.061783,0.000000
1140.197428,-9770.718434,814.226536,0.000000
1140.197748,-10066.800811,1036.288319,-612.876398
1140.198069,-10140.821405,1406.391290,1455.581446
1140.198390,-10214.842000,1036.288319,-229.828649
1140.198710,-10066.800811,444.123565,0.000000
1140.199031,-10140.821405,222.061783,-153.219100
1140.199352,-9918.759623,-148.041188,229.828649
1140.199672,-10288.862594,-370.102971,2528.115143
1140.199993,-9696.697840,-962.267725,1072.533697
1140.200314,-9326.594869,-1036.288319,995.924147
1140.200634,-9252.574275,-1184.329507,995.924147
1140.200955,-9252.574275,-1036.288319,1378.971896
1140.201276,-9474.636058,-1406.391290,919.314598
1140.201596,-9030.512492,-1258.350101,1149.143247
1140.201917,-9252.574275,-962.267725,1149.143247
1140.202238,-9326.594869,-592.164754,1072.533697
1140.202558,-9548.656652,-222.061783,689.485948
1140.202879,-9474.636058,0.000000,766.095498
1140.203200,-9400.615463,0.000000,842.705048
1140.203520,-9622.677246,444.123565,1072.533697
1140.203841,-9696.697840,296.082377,1225.752797
1140.204162,-9400.615463,296.082377,4903.011187
1140.204483,-9992.780217,0.000000,2068.457845
1140.204803,-9770.718434,-740.205942,1685.410096
1140.205124,-9844.739029,-962.267725,2068.457845
1140.205445,-9770.718434,-962.267725,2528.115143
1140.205765,-8882.471304,-1702.473667,2451.505594
1140.206086,-9696.697840,-1110.308913,2374.896044
1140.206407,-9474.636058,-1258.350101,2451.505594
1140.206727,-9326.594869,-1036.288319,2068.457845
1140.207048,-9770.718434,-666.185348,1685.410096
1140.207369,-9770.718434,-518.144159,1915.238745
1140.207689,-9548.656652,-444.123565,766.095498
1140.208010,-9622.677246,-222.061783,842.705048
1140.208331,-9622.677246,148.041188,536.266849
1140.208651,-10214.842000,1258.350101,0.000000
1140.208972,-9770.718434,518.144159,306.438199
1140.209293,-9844.739029,444.123565,76.609550
1140.209613,-9992.780217,370.102971,459.657299
1140.209934,-10066.800811,222.061783,536.266849
1140.210255,-9548.656652,-222.061783,536.266849
1140.210575,-9918.759623,-666.185348,383.047749
1140.210896,-9548.656652,-888.247130,459.657299
1140.211217,-9770.718434,-814.226536,689.485948
1140.211537,-9548.656652,-666.185348,536.266849
1140.211858,-9474.636058,-1406.391290,919.314598
1140.212179,-9252.574275,-1036.288319,612.876398
1140.212499,-9474.636058,-740.205942,919.314598
1140.212820,-9474.636058,-740.205942,842.705048
1140.213141,-9178.553681,-740.205942,995.924147
1140.213461,-9548.656652,444.123565,1302.362347
1140.213782,-9178.553681,-740.205942,1072.533697
1140.214103,-9252.574275,-592.164754,689.485948
1140.214423,-9326.594869,-444.123565,459.657299
1140.214744,-9030.512492,-296.082377,459.657299
1140.215065,-8882.471304,0.000000,2834.553343
1140.215385,-9474.636058,0.000000,766.095498
1140.215706,-9622.677246,222.061783,689.485948
1140.216027,-9622.677246,148.041188,689.485948
1140.216347,-9622.677246,0.000000,919.314598
1140.216668,-9474.636058,-518.144159,766.095498
1140.216989,-9918.759623,0.000000,1685.410096
1140.217309,-9992.780217,-222.061783,1608.800546
1140.217630,-9844.739029,-222.061783,1915.238745
1140.217951,-9844.739029,-222.061783,2068.457845
1140.218271,-11029.068536,-370.102971,766.095498
1140.218592,-9696.697840,-814.226536,2451.505594
1140.218913,-9326.594869,-1184.329507,2451.505594
1140.219234,-9548.656652,-814.226536,1991.848295
1140.219554,-9474.636058,-666.185348,1762.019645
1140.219875,-9178.553681,-740.205942,2374.896044
1140.220196,-9474.636058,0.000000,1378.971896
1140.220516,-9622.677246,518.144159,536.266849
1140.220837,-9474.636058,814.226536,229.828649
1140.221158,-9696.697840,1554.432478,1455.581446
1140.221478,-9918.759623,814.226536,612.876398
1140.221799,-10214.842000,962.267725,153.219100
1140.222120,-9992.780217,666.185348,383.047749
1140.222440,-10066.800811,518.144159,842.705048
1140.222761,-10214.842000,-592.164754,1762.019645
1140.223082,-9992.780217,-370.102971,1685.410096
1140.223402,-9844.739029,-666.185348,1991.848295
1140.223723,-9474.636058,-1110.308913,1532.190996
1140.224044,-9474.636058,-1406.391290,1608.800546
1140.224364,-11029.068536,-222.061783,1302.362347
1140.224685,-9178.553681,-1480.411884,1532.190996
1140.225006,-9104.533087,-1480.411884,1225.752797
1140.225326,-9178.553681,-1258.350101,1149.143247
1140.225647,-9178.553681,-1184.329507,2068.457845
1140.225968,-9030.512492,-592.164754,766.095498
1140.226288,-9474.636058,-518.144159,459.657299
1140.226609,-9474.636058,0.000000,536.266849
1140.226930,-9474.636058,222.061783,306.438199
1140.227250,-9252.574275,74.020594,1149.143247
1140.227571,-9622.677246,0.000000,689.485948
1140.227892,-9770.718434,0.000000,919.314598
1140.228212,-9918.759623,-518.144159,842.705048
1140.228533,-9770.718434,-740.205942,1072.533697
1140.228854,-8216.285956,-1924.535449,153.219100
1140.229174,-9474.636058,-1184.329507,1915.238745
1140.229495,-9622.677246,-1184.329507,1762.019645
1140.229816,-9474.636058,-1480.411884,1378.971896
1140.230136,-9474.636058,-1776.494261,1149.143247
1140.230457,-9326.594869,-1406.391290,1225.752797
1140.230778,-9474.636058,-962.267725,1072.533697
1140.231098,-9474.636058,-222.061783,1072.533697
1140.231419,-9696.697840,370.102971,612.876398
1140.231740,-9622.677246,444.123565,1991.848295
1140.232060,-9918.759623,518.144159,919.314598
1140.232381,-10066.800811,370.102971,306.438199
1140.232702,-9844.739029,444.123565,76.609550
1140.233023,-10066.800811,666.185348,306.438199
1140.233343,-10140.821405,740.205942,1149.143247
1140.233664,-9992.780217,296.082377,919.314598
1140.233985,-9770.718434,-296.082377,842.705048
1140.234305,-9548.656652,-148.041188,1072.533697
1140.234626,-9622.677246,-592.164754,1302.362347
1140.234947,-9400.615463,-1110.308913,1915.238745
1140.235267,-9622.677246,-888.247130,1915.238745
1140.235588,-9400.615463,-814.226536,1762.019645
1140.235909,-9030.512492,-666.185348,1685.410096
1140.236229,-9918.759623,-444.123565,1991.848295
1140.236550,-9474.636058,-370.102971,1991.848295
1140.236871,-9252.574275,-592.164754,1762.019645
1140.237191,-9326.594869,-370.102971,1455.581446
1140.237512,-9030.512492,-444.123565,1685.410096
1140.237833,-8882.471304,-444.123565,2604.724693
1140.238153,-9622.677246,-148.041188,1608.800546
1140.238474,-9400.615463,0.000000,1149.143247
1140.238795,-9474.636058,0.000000,919.314598
1140.239115,-9548.656652,222.061783,766.095498
1140.239436,-9400.615463,0.000000,1225.752797
1140.239757,-9622.677246,0.000000,1149.143247
1140.240077,-9770.718434,0.000000,1225.752797
1140.240398,-9844.739029,74.020594,1685.410096
1140.240719,-9696.697840,0.000000,0.000000
1140.241039,-9770.718434,-592.164754,1455.581446
1140.241360,-9474.636058,-666.185348,1685.410096
1140.241681,-9770.718434,-740.205942,1378.971896
1140.242001,-9548.656652,-592.164754,1455.581446
1140.242322,-9474.636058,-222.061783,1072.533697
1140.242643,-9474.636058,-814.226536,919.314598
1140.242963,-9474.636058,-592.164754,766.095498
1140.243284,-9622.677246,-370.102971,459.657299
1140.243605,-9548.656652,-296.082377,229.828649
1140.243925,-9178.553681,-148.041188,-1225.752797
1140.244246,-9770.718434,444.123565,-306.438199
1140.244567,-9770.718434,666.185348,0.000000
1140.244887,-10140.821405,962.267725,-153.219100
1140.245208,-10066.800811,592.164754,-306.438199
1140.245529,-10140.821405,592.164754,-536.266849
1140.245849,-9992.780217,74.020594,0.000000
1140.246170,-9992.780217,222.061783,229.828649
1140.246491,-9992.780217,-296.082377,459.657299
1140.246811,-9400.615463,-1184.329507,1378.971896
1140.247132,-9696.697840,-962.267725,1302.362347
1140.247453,-9474.636058,-1184.329507,1378.971896
1140.247774,-9474.636058,-1110.308913,1685.410096
1140.248094,-9326.594869,-1332.370696,1532.190996
1140.248415,-9400.615463,-1332.370696,1991.848295
1140.248736,-9104.533087,-1036.288319,2068.457845
1140.249056,-9252.574275,-888.247130,1532.190996
1140.249377,-9030.512492,-518.144159,1532.190996
1140.249698,-9178.553681,-370.102971,2451.505594
1140.250018,-9474.636058,-592.164754,1149.143247
1140.250339,-9252.574275,-296.082377,995.924147
1140.250660,-9326.594869,148.041188,1378.971896
1140.250980,-9696.697840,370.102971,1302.362347
1140.251301,-10362.883188,222.061783,1072.533697
1140.251622,-9992.780217,0.000000,2068.457845
1140.251942,-10066.800811,-296.082377,1915.238745
1140.252263,-9918.759623,-962.267725,2068.457845
1140.252584,-9770.718434,-1110.308913,2145.067394
1140.252904,-9548.656652,-888.247130,3064.381992
1140.253225,-9696.697840,-1110.308913,2298.286494
1140.253546,-9696.697840,-1332.370696,1838.629195
1140.253866,-9474.636058,-1184.329507,1532.190996
1140.254187,-9400.615463,-962.267725,1608.800546
1140.254508,-9770.718434,-148.041188,1608.800546
1140.254828,-9548.656652,-444.123565,1149.143247
1140.255149,-9696.697840,-222.061783,383.047749
1140.255470,-9622.677246,0.000000,536.266849
1140.255790,-9548.656652,148.041188,-995.924147
1140.256111,-9918.759623,296.082377,0.000000
1140.256432,-9844.739029,518.144159,229.828649
1140.256752,-9918.759623,592.164754,76.609550
1140.257073,-9770.718434,370.102971,0.000000
1140.257394,-8364.327145,-370.102971,153.219100
1140.257714,-9992.780217,0.000000,459.657299
1140.258035,-9696.697840,0.000000,306.438199
1140.258356,-9696.697840,-296.082377,689.485948
1140.258676,-9548.656652,-592.164754,1149.143247
1140.258997,-9400.615463,-592.164754,766.095498
1140.259318,-9400.615463,-1184.329507,1685.410096
1140.259638,-9178.553681,-814.226536,1149.143247
1140.259959,-9400.615463,-370.102971,1685.410096
1140.260280,-9400.615463,0.000000,3217.601092
1140.260600,-9548.656652,-296.082377,1532.190996
1140.260921,-9030.512492,-148.041188,1302.362347
1140.261242,-9252.574275,-222.061783,689.485948
1140.261563,-9252.574275,0.000000,612.876398
1140.261883,-9400.615463,-370.102971,1762.019645
1140.262204,-9252.574275,-222.061783,612.876398
1140.262525,-9400.615463,74.020594,306.438199
1140.262845,-9622.677246,148.041188,459.657299
1140.263166,-9696.697840,0.000000,1149.143247
1140.263487,-9252.574275,-666.185348,612.876398
1140.263807,-9770.718434,-592.164754,1455.581446
1140.264128,-9844.739029,-888.247130,1762.019645
1140.264449,-9918.759623,-1036.288319,1838.629195
1140.264770,-9992.780217,-1110.308913,536.266849
1140.265090,-9844.739029,-1036.288319,2221.676944
1140.265411,-9622.677246,-1184.329507,2145.067394
1140.265732,-9400.615463,-1036.288319,1915.238745
1140.266053,-9400.615463,-1110.308913,1608.800546
1140.266374,-9104.533087,-592.164754,3830.477490
1140.266694,-9474.636058,-666.185348,919.314598
1140.267015,-9474.636058,0.000000,612.876398
1140.267336,-9622.677246,296.082377,383.047749
1140.267657,-9622.677246,518.144159,459.657299
1140.267978,-9918.759623,592.164754,153.219100
1140.268298,-9992.780217,814.226536,76.609550
1140.268619,-10066.800811,888.247130,0.000000
1140.268940,-10140.821405,888.247130,153.219100
1140.269261,-10362.883188,666.185348,536.266849
1140.269582,-9992.780217,518.144159,919.314598
1140.269902,-9770.718434,0.000000,842.705048
1140.270223,-9622.677246,-444.123565,689.485948
1140.270544,-9622.677246,-962.267725,536.266849
1140.270865,-9474.636058,0.000000,995.924147
1140.271186,-9474.636058,-1036.288319,1302.362347
1140.271506,-9252.574275,-962.267725,1149.143247
1140.271827,-9400.615463,-962.267725,1455.581446
1140.272148,-9252.574275,-888.247130,1302.362347
1140.272469,-9030.512492,-962.267725,76.609550
1140.272790,-9474.636058,-888.247130,1072.533697
1140.273110,-9326.594869,-666.185348,1149.143247
1140.273431,-9474.636058,-666.185348,1072.533697
1140.273752,-9326.594869,-592.164754,1225.752797
1140.274073,-9474.636058,0.000000,76.609550
1140.274394,-9622.677246,-148.041188,1072.533697
1140.274714,-9770.718434,0.000000,919.314598
1140.275035,-9622.677246,-296.082377,1072.533697
1140.275356,-9622.677246,-296.082377,0.000000
1140.275677,-9400.615463,-518.144159,1685.410096
1140.275998,-9770.718434,-592.164754,1915.238745
1140.276318,-9622.677246,-814.226536,2298.286494
1140.276639,-9548.656652,-1036.288319,2221.676944
1140.276960,-9548.656652,-962.267725,1762.019645
1140.277281,-9548.656652,-740.205942,1378.971896
1140.277602,-9622.677246,-666.185348,1455.581446
1140.277922,-9326.594869,-370.102971,1149.143247
1140.278243,-9474.636058,0.000000,1302.362347
1140.278564,-8512.368333,-518.144159,-995.924147
1140.278885,-9770.718434,0.000000,536.266849
1140.279206,-9770.718434,296.082377,306.438199
1140.279526,-9770.718434,296.082377,76.609550
1140.279847,-10066.800811,740.205942,76.609550
1140.280168,-9918.759623,1258.350101,0.000000
1140.280489,-10066.800811,962.267725,76.609550
1140.280810,-9992.780217,444.123565,536.266849
1140.281130,-9992.780217,296.082377,383.047749
1140.281451,-9326.594869,-148.041188,383.047749
1140.281772,-9844.739029,-370.102971,536.266849
1140.282093,-9844.739029,-296.082377,1149.143247
1140.282414,-9696.697840,-592.164754,1072.533697
1140.282734,-9400.615463,-814.226536,919.314598
1140.283055,-9770.718434,-740.205942,2757.943793
1140.283376,-9474.636058,-740.205942,1225.752797
1140.283697,-9252.574275,-1036.288319,1532.190996
1140.284018,-9252.574275,-888.247130,1378.971896
1140.284339,-9326.594869,-592.164754,1302.362347
1140.284659,-9400.615463,-962.267725,1378.971896
1140.284980,-9400.615463,-148.041188,995.924147
1140.285301,-9400.615463,-296.082377,1072.533697
1140.285622,-9474.636058,-148.041188,1072.533697
1140.285943,-9474.636058,0.000000,766.095498
1140.286263,-9400.615463,0.000000,1762.019645
1140.286584,-9696.697840,0.000000,766.095498
1140.286905,-9474.636058,-296.082377,1762.019645
1140.287226,-9548.656652,-296.082377,1225.752797
1140.287547,-9548.656652,0.000000,2374.896044
1140.287867,-9474.636058,-592.164754,1915.238745
1140.288188,-9696.697840,-518.144159,2145.067394
1140.288509,-9770.718434,-740.205942,2145.067394
1140.288830,-9474.636058,-1036.288319,2298.286494
1140.289151,-9400.615463,-740.205942,3600.648841
1140.289471,-9474.636058,-740.205942,1838.629195
1140.289792,-9474.636058,-740.205942,1608.800546
1140.290113,-9622.677246,-592.164754,1608.800546
1140.290434,-9474.636058,-444.123565,1072.533697
1140.290755,-9474.636058,-370.102971,995.924147
1140.291075,-9696.697840,0.000000,459.657299
1140.291396,-9770.718434,296.082377,0.000000
1140.291717,-9770.718434,518.144159,0.000000
1140.292038,-10066.800811,666.185348,-306.438199
1140.292359,-9178.553681,518.144159,0.000000
1140.292679,-10066.800811,666.185348,229.828649
1140.293000,-10214.842000,296.082377,229.828649
1140.293321,-10066.800811,444.123565,306.438199
1140.293642,-9992.780217,-148.041188,842.705048
1140.293963,-10214.842000,-518.144159,-766.095498
1140.294283,-9548.656652,-592.164754,995.924147
1140.294604,-9622.677246,-814.226536,1225.752797
1140.294925,-9400.615463,-1110.308913,1072.533697
1140.295246,-9326.594869,-1332.370696,1455.581446
1140.295567,-9918.759623,-1332.370696,0.000000
1140.295887,-9326.594869,-1258.350101,1532.190996
1140.296208,-9178.553681,-962.267725,1685.410096
1140.296529,-9030.512492,-1036.288319,1149.143247
1140.296850,-9178.553681,-370.102971,1149.143247
1140.297171,-9104.533087,-222.061783,-229.828649
1140.297491,-9400.615463,0.000000,1149.143247
1140.297812,-9474.636058,-148.041188,1302.362347
1140.298133,-9622.677246,0.000000,1378.971896
1140.298454,-9696.697840,-148.041188,2757.943793
1140.298775,-9474.636058,-444.123565,1915.238745
1140.299095,-9918.759623,-518.144159,1762.019645
1140.299416,-9844.739029,-740.205942,1838.629195
1140.299737,-9770.718434,-666.185348,1685.410096
1140.300058,-9178.553681,-1184.329507,2145.067394
1140.300379,-9696.697840,-1036.288319,2068.457845
1140.300699,-9622.677246,-962.267725,1915.238745
1140.301020,-9548.656652,-962.267725,1608.800546
1140.301341,-9178.553681,-962.267725,1378.971896
1140.301662,-9252.574275,-740.205942,-459.657299
1140.301983,-9474.636058,-518.144159,842.705048
1140.302303,-9696.697840,-148.041188,536.266849
1140.302624,-9474.636058,0.000000,229.828649
1140.302945,-9696.697840,0.000000,0.000000
1140.303266,-9770.718434,1036.288319,0.000000
1140.303587,-9844.739029,592.164754,0.000000
1140.303908,-9992.780217,666.185348,76.609550
1140.304228,-10066.800811,666.185348,0.000000
1140.304549,-9918.759623,962.267725,459.657299
1140.304870,-10066.800811,148.041188,306.438199
1140.305191,-10066.800811,0.000000,919.314598
1140.305512,-9992.780217,-296.082377,1072.533697
1140.305832,-9474.636058,-444.123565,995.924147
1140.306153,-9030.512492,-1184.329507,-1915.238745
1140.306474,-9326.594869,-518.144159,1378.971896
1140.306795,-9474.636058,-666.185348,1532.190996
1140.307116,-9400.615463,-740.205942,1608.800546
1140.307436,-9326.594869,-518.144159,1455.581446
1140.307757,-9104.533087,0.000000,1762.019645
1140.308078,-9252.574275,-444.123565,1149.143247
1140.308399,-9474.636058,-148.041188,1149.143247
1140.308720,-9252.574275,-222.061783,919.314598
1140.309040,-9474.636058,222.061783,383.047749
1140.309361,-9622.677246,0.000000,1149.143247
1140.309682,-9548.656652,296.082377,995.924147
1140.310003,-9548.656652,74.020594,842.705048
1140.310324,-9696.697840,74.020594,1072.533697
1140.310644,-9696.697840,-148.041188,1991.848295
1140.310965,-9770.718434,-444.123565,1685.410096
1140.311286,-9622.677246,-592.164754,1915.238745
1140.311607,-9770.718434,-962.267725,1838.629195
1140.311928,-9548.656652,-1184.329507,1762.019645
1140.312248,-8364.327145,-1110.308913,2068.457845
1140.312569,-9474.636058,-1332.370696,2068.457845
1140.312890,-9400.615463,-1184.329507,2221.676944
1140.313211,-9326.594869,-1110.308913,1762.019645
1140.313532,-9474.636058,-814.226536,1838.629195
1140.313852,-9696.697840,-1036.288319,766.095498
1140.314173,-9474.636058,-222.061783,919.314598
1140.314494,-9548.656652,222.061783,383.047749
1140.314815,-9844.739029,666.185348,0.000000
1140.315136,-9770.718434,962.267725,76.609550
1140.315456,-10214.842000,888.247130,0.000000
1140.315777,-10288.862594,888.247130,153.219100
1140.316098,-10214.842000,814.226536,229.828649
1140.316419,-10066.800811,592.164754,689.485948
1140.316740,-9548.656652,74.020594,536.266849
1140.317060,-9770.718434,-370.102971,766.095498
1140.317381,-9548.656652,-592.164754,995.924147
1140.317702,-9548.656652,-888.247130,1225.752797
1140.318023,-9622.677246,-1480.411884,1225.752797
1140.318344,-9400.615463,-1480.411884,1532.190996
1140.318664,-9326.594869,-1332.370696,1225.752797
1140.318985,-9178.553681,-1554.432478,2068.457845
1140.319306,-9252.574275,-1184.329507,1685.410096
1140.319627,-9252.574275,-1332.370696,2298.286494
1140.319948,-9104.533087,-1036.288319,1608.800546
1140.320268,-9252.574275,-666.185348,1378.971896
1140.320589,-9474.636058,-518.144159,1149.143247
1140.320910,-9474.636058,-296.082377,1225.752797
1140.321231,-8142.265362,-740.205942,459.657299
1140.321552,-9326.594869,-148.041188,842.705048
1140.321872,-9548.656652,0.000000,1302.362347
1140.322193,-9770.718434,0.000000,1455.581446
1140.322514,-9696.697840,-444.123565,1455.581446
1140.322835,-9474.636058,-222.061783,1072.533697
1140.323156,-9770.718434,-962.267725,1608.800546
1140.323477,-9770.718434,-1110.308913,1915.238745
1140.323797,-9770.718434,-1110.308913,2145.067394
1140.324118,-9622.677246,-1406.391290,1838.629195
1140.324439,-9326.594869,-1480.411884,-229.828649
1140.324760,-9400.615463,-1406.391290,1532.190996
1140.325081,-9622.677246,-666.185348,1302.362347
1140.325401,-9474.636058,-518.144159,1072.533697
1140.325722,-9474.636058,-296.082377,383.047749
1140.326043,-9622.677246,74.020594,0.000000
1140.326364,-9696.697840,370.102971,76.609550
1140.326685,-9992.780217,814.226536,229.828649
1140.327005,-10140.821405,814.226536,0.000000
1140.327326,-9992.780217,888.247130,0.000000
1140.327647,-9844.739029,814.226536,229.828649
1140.327968,-9992.780217,666.185348,0.000000
1140.328289,-10066.800811,370.102971,459.657299
1140.328609,-9696.697840,148.041188,383.047749
1140.328930,-9622.677246,-296.082377,1149.143247
1140.329251,-9622.677246,0.000000,1149.143247
1140.329572,-9474.636058,-296.082377,1225.752797
1140.329893,-9548.656652,-666.185348,1608.800546
1140.330213,-9326.594869,-814.226536,1455.581446
1140.330534,-9252.574275,-962.267725,1685.410096
1140.330855,-9252.574275,-814.226536,1685.410096
1140.331176,-9178.553681,-592.164754,1378.971896
1140.331497,-9178.553681,-518.144159,919.314598
1140.331817,-9178.553681,-148.041188,1532.190996
1140.332138,-9326.594869,-222.061783,1302.362347
1140.332459,-9104.533087,-148.041188,1149.143247
1140.332780,-9178.553681,0.000000,919.314598
1140.333101,-9474.636058,74.020594,766.095498
