#time,accel_x,accel_y,accel_z
1319.120485,-9474.636058,-370.102971,1149.143247
1319.120806,-9622.677246,-370.102971,1149.143247
1319.121127,-9622.677246,-222.061783,1225.752797
1319.121448,-9326.594869,-222.061783,1072.533697
1319.121769,-9548.656652,-148.041188,1072.533697
1319.122090,-9696.697840,-518.144159,766.095498
1319.122410,-9696.697840,-370.102971,919.314598
1319.122731,-9622.677246,-518.144159,1378.971896
1319.123052,-9622.677246,-148.041188,1149.143247
1319.123373,-9548.656652,-222.061783,1072.533697
1319.123694,-9622.677246,-222.061783,1225.752797
1319.124015,-9696.697840,0.000000,1455.581446
1319.124335,-10214.842000,74.020594,689.485948
1319.124656,-9696.697840,-148.041188,1225.752797
1319.124977,-9548.656652,-296.082377,1149.143247
1319.125298,-9548.656652,0.000000,842.705048
1319.125619,-9474.636058,-370.102971,995.924147
1319.125940,-9326.594869,0.000000,1532.190996
1319.126261,-9696.697840,-518.144159,1302.362347
1319.126581,-9474.636058,-370.102971,1225.752797
1319.126902,-9474.636058,-370.102971,919.314598
1319.127223,-9548.656652,-518.144159,1072.533697
1319.127544,-9622.677246,148.041188,1225.752797
1319.127865,-9696.697840,-222.061783,1072.533697
1319.128186,-9400.615463,-444.123565,1149.143247
1319.128506,-9696.697840,-222.061783,1302.362347
1319.128827,-9696.697840,-222.061783,1378.971896
1319.129148,-9622.677246,-296.082377,1072.533697
1319.129469,-9474.636058,-592.164754,1072.533697
1319.129790,-9622.677246,-148.041188,919.314598
1319.130111,-9622.677246,-222.061783,919.314598
1319.130432,-9474.636058,296.082377,-306.438199
1319.130752,-9548.656652,0.000000,1455.581446
1319.131073,-9992.780217,-592.164754,1532.190996
1319.131394,-9622.677246,-740.205942,1455.581446
1319.131715,-9474.636058,-592.164754,1072.533697
1319.132036,-9918.759623,-740.205942,1072.533697
1319.132357,-9474.636058,-666.185348,1225.752797
1319.132677,-9622.677246,-888.247130,1378.971896
1319.132998,-9400.615463,-814.226536,689.485948
1319.133319,-9548.656652,-592.164754,689.485948
1319.133640,-9474.636058,-740.205942,842.705048
1319.133961,-9696.697840,-444.123565,1455.581446
1319.134282,-9548.656652,-592.164754,919.314598
1319.134602,-9548.656652,-444.123565,536.266849
1319.134923,-9548.656652,-518.144159,536.266849
1319.135244,-9770.718434,-518.144159,842.705048
1319.135565,-9696.697840,-888.247130,1225.752797
1319.135886,-9844.739029,-1110.308913,1378.971896
1319.136207,-9548.656652,-1406.391290,1378.971896
1319.136528,-9548.656652,-1628.453072,1302.362347
1319.136848,-9770.718434,-1554.432478,2068.457845
1319.137169,-9474.636058,-1332.370696,2068.457845
1319.137490,-9548.656652,-1480.411884,1915.238745
1319.137811,-9400.615463,-1110.308913,1838.629195
1319.138132,-9030.512492,-1110.308913,1532.190996
1319.138453,-9474.636058,-1406.391290,2145.067394
1319.138773,-9770.718434,-1036.288319,2528.115143
1319.139094,-9400.615463,-1776.494261,2451.505594
1319.139415,-9400.615463,-1850.514855,2757.943793
1319.139736,-9104.533087,-1776.494261,3447.429741
1319.140057,-10066.800811,-2072.576638,3907.087040
1319.140378,-9622.677246,-2220.617826,4290.134789
1319.140698,-9696.697840,-2664.741391,4366.744339
1319.141019,-9474.636058,-3108.864956,4903.011187
1319.141340,-9474.636058,-3182.885551,5132.839837
1319.141661,-9252.574275,-3849.070898,5515.887586
1319.141982,-9326.594869,-3997.112087,5975.544884
1319.142303,-8956.491898,-4219.173869,5515.887586
1319.142624,-8364.327145,-4737.318029,5592.497135
1319.142944,-9030.512492,-4367.215058,5669.106685
1319.143265,-9252.574275,-4367.215058,5975.544884
1319.143586,-9030.512492,-4663.297435,5669.106685
1319.143907,-9252.574275,-4589.276840,5745.716235
1319.144228,-8956.491898,-4811.338623,6205.373534
1319.144549,-9474.636058,-4367.215058,5132.839837
1319.144869,-9474.636058,-4145.153275,5362.668486
1319.145190,-9622.677246,-3701.029710,4903.011187
1319.145511,-9474.636058,-3404.947333,4749.792088
1319.145832,-8808.450710,-3701.029710,4519.963438
1319.146153,-9622.677246,-3256.906145,4213.525239
1319.146474,-9696.697840,-3330.926739,3830.477490
1319.146794,-9548.656652,-3478.967927,4060.306139
1319.147115,-9548.656652,-3997.112087,3983.696590
1319.147436,-9548.656652,-4367.215058,3677.258390
1319.147757,-9474.636058,-5033.400406,3370.820191
1319.148078,-9474.636058,-5699.585753,2681.334243
1319.148399,-9252.574275,-5107.421000,1838.629195
1319.148720,-9400.615463,-3849.070898,-383.047749
1319.149040,-9548.656652,-2368.659014,459.657299
1319.149361,-9622.677246,-1110.308913,536.266849
1319.149682,-9992.780217,-370.102971,0.000000
1319.150003,-10140.821405,296.082377,76.609550
1319.150324,-10584.944971,370.102971,1225.752797
1319.150645,-10658.965565,-740.205942,1685.410096
1319.150965,-10584.944971,-1702.473667,2221.676944
1319.151286,-10362.883188,-3108.864956,2374.896044
1319.151607,-9474.636058,-4441.235652,1991.848295
1319.151928,-9400.615463,-4737.318029,2145.067394
1319.152249,-9104.533087,-4219.173869,2757.943793
1319.152570,-9104.533087,-3849.070898,2987.772442
1319.152891,-8586.388927,-3701.029710,3140.991542
1319.153211,-8956.491898,-3701.029710,2451.505594
1319.153532,-8808.450710,-3627.009116,1378.971896
1319.153853,-9104.533087,-2664.741391,1225.752797
1319.154174,-9326.594869,-962.267725,919.314598
1319.154495,-9474.636058,1258.350101,842.705048
1319.154816,-10140.821405,2738.761985,1532.190996
1319.155136,-9622.677246,3034.844362,1991.848295
1319.155457,-10510.924376,2368.659014,2757.943793
1319.155778,-11029.068536,740.205942,3753.867940
1319.156099,-10881.027347,-1480.411884,4213.525239
1319.156420,-9030.512492,-3701.029710,4519.963438
1319.156741,-9252.574275,-5033.400406,4826.401637
1319.157061,-8882.471304,-4737.318029,5592.497135
1319.157382,-8660.409521,-4811.338623,6205.373534
1319.157703,-8068.244768,-5033.400406,6281.983084
1319.158024,-7476.080014,-5255.462188,5975.544884
1319.158345,-7624.121203,-4589.276840,3217.601092
1319.158666,-8142.265362,-2664.741391,2374.896044
1319.158987,-9104.533087,0.000000,2911.162892
1319.159307,-9622.677246,2294.638420,3524.039291
1319.159628,-10214.842000,3256.906145,4136.915689
1319.159949,-11029.068536,2146.597232,4673.182538
1319.160270,-11103.089130,740.205942,4596.572988
1319.160591,-11547.212695,-592.164754,5056.230287
1319.160912,-10881.027347,-1850.514855,5669.106685
1319.161232,-9696.697840,-2812.782580,6358.592633
1319.161553,-9622.677246,-5033.400406,6205.373534
1319.161874,-8068.244768,-6883.915261,4979.620737
1319.162195,-8068.244768,-7624.121203,3370.820191
1319.162516,-8290.306550,-5699.585753,3064.381992
1319.162837,-8734.430116,-3330.926739,3753.867940
1319.163157,-9474.636058,-1628.453072,4136.915689
1319.163478,-9178.553681,-1184.329507,3064.381992
1319.163799,-9178.553681,-1480.411884,2145.067394
1319.164120,-9992.780217,-518.144159,2834.553343
1319.164441,-11473.192101,-1036.288319,3370.820191
1319.164762,-10658.965565,-1850.514855,2757.943793
1319.165083,-10436.903782,-3478.967927,1455.581446
1319.165403,-9770.718434,-3552.988522,229.828649
1319.165724,-8142.265362,-3108.864956,0.000000
1319.166045,-9252.574275,-2442.679609,612.876398
1319.166366,-9178.553681,-2442.679609,1532.190996
1319.166687,-9474.636058,-4441.235652,1838.629195
1319.167008,-8956.491898,-5107.421000,2757.943793
1319.167328,-9696.697840,-4515.256246,2604.724693
1319.167649,-9992.780217,-5329.482782,4213.525239
1319.167970,-9622.677246,-5995.668130,3830.477490
1319.168291,-8512.368333,-5551.544565,1302.362347
1319.168612,-7920.203579,-2220.617826,1302.362347
1319.168933,-9844.739029,0.000000,2528.115143
1319.169253,-10436.903782,-518.144159,3983.696590
1319.169574,-9548.656652,-1702.473667,2604.724693
1319.169895,-9992.780217,-1924.535449,1685.410096
1319.170216,-9992.780217,-962.267725,2298.286494
1319.170537,-10881.027347,-2664.741391,4060.306139
1319.170858,-10066.800811,-3997.112087,4519.963438
1319.171179,-8734.430116,-4293.194464,2528.115143
1319.171499,-8660.409521,-2516.700203,2451.505594
1319.171820,-9104.533087,-2220.617826,3677.258390
1319.172141,-9474.636058,-2590.720797,5209.449386
1319.172462,-9622.677246,-3478.967927,5439.278036
1319.172783,-9030.512492,-3775.050304,4673.182538
1319.173104,-9178.553681,-4367.215058,3907.087040
1319.173424,-9178.553681,-3627.009116,3524.039291
1319.173745,-9770.718434,-2664.741391,4519.963438
1319.174066,-9474.636058,-592.164754,4596.572988
1319.174387,-9844.739029,0.000000,4213.525239
1319.174708,-9474.636058,0.000000,4136.915689
1319.175029,-10288.862594,-518.144159,3524.039291
1319.175350,-10214.842000,-1702.473667,4443.353888
1319.175670,-10288.862594,-3404.947333,3600.648841
1319.175991,-8586.388927,-4071.132681,2145.067394
1319.176312,-9178.553681,-3182.885551,3830.477490
1319.176633,-9770.718434,-1998.556043,3677.258390
1319.176954,-9252.574275,-1628.453072,4213.525239
1319.177275,-9030.512492,-1184.329507,3983.696590
1319.177595,-9326.594869,-962.267725,2834.553343
1319.177916,-10066.800811,-888.247130,1302.362347
1319.178237,-8364.327145,-518.144159,842.705048
1319.178558,-9326.594869,-1332.370696,1608.800546
1319.178879,-9252.574275,-1332.370696,919.314598
1319.179200,-9474.636058,-222.061783,1378.971896
1319.179520,-10288.862594,0.000000,1225.752797
1319.179841,-10362.883188,0.000000,2068.457845
1319.180162,-11251.130318,-296.082377,1532.190996
1319.180483,-9400.615463,370.102971,1378.971896
1319.180804,-9030.512492,740.205942,995.924147
1319.181125,-9992.780217,370.102971,1685.410096
1319.181446,-9252.574275,-888.247130,2298.286494
1319.181766,-9326.594869,-2368.659014,1608.800546
1319.182087,-9474.636058,-3108.864956,0.000000
1319.182408,-8364.327145,-1406.391290,0.000000
1319.182729,-9252.574275,-444.123565,1072.533697
1319.183050,-9400.615463,-592.164754,766.095498
1319.183371,-9104.533087,-740.205942,76.609550
1319.183692,-9178.553681,-222.061783,0.000000
1319.184013,-10140.821405,666.185348,919.314598
1319.184334,-10807.006753,-592.164754,76.609550
1319.184655,-9178.553681,666.185348,-459.657299
1319.184976,-10288.862594,1776.494261,459.657299
1319.185297,-10732.986159,2368.659014,76.609550
1319.185618,-8808.450710,4367.215058,2757.943793
1319.185939,-10807.006753,370.102971,2221.676944
1319.186260,-9178.553681,-1628.453072,2068.457845
1319.186581,-9992.780217,-4293.194464,1225.752797
1319.186902,-8660.409521,-3997.112087,1455.581446
1319.187223,-8956.491898,-2812.782580,2604.724693
1319.187544,-9992.780217,-1628.453072,1838.629195
1319.187865,-7920.203579,222.061783,2834.553343
1319.188186,-9030.512492,-1628.453072,536.266849
1319.188507,-9548.656652,-814.226536,766.095498
1319.188828,-9474.636058,-518.144159,-153.219100
1319.189148,-10658.965565,518.144159,1762.019645
1319.189469,-10881.027347,1554.432478,2757.943793
1319.189790,-10955.047942,148.041188,2987.772442
1319.190111,-10288.862594,-518.144159,3294.210641
1319.190432,-10658.965565,-2294.638420,1378.971896
1319.190753,-9622.677246,-1184.329507,1225.752797
1319.191074,-9474.636058,-1036.288319,2374.896044
1319.191395,-9326.594869,-740.205942,2145.067394
1319.191716,-8734.430116,-1702.473667,1455.581446
1319.192037,-8290.306550,-2072.576638,1532.190996
1319.192358,-8734.430116,-2812.782580,995.924147
1319.192679,-9918.759623,-3849.070898,919.314598
1319.193000,-9030.512492,-1332.370696,1302.362347
1319.193321,-10436.903782,1702.473667,1685.410096
1319.193642,-10955.047942,2442.679609,2451.505594
1319.193963,-10288.862594,1776.494261,2068.457845
1319.194284,-10214.842000,518.144159,919.314598
1319.194605,-9474.636058,0.000000,-612.876398
1319.194926,-9622.677246,1332.370696,-153.219100
1319.195247,-9844.739029,370.102971,612.876398
1319.195568,-9474.636058,-444.123565,0.000000
1319.195889,-8364.327145,0.000000,0.000000
1319.196210,-9326.594869,-1110.308913,383.047749
1319.196531,-9844.739029,-1184.329507,1838.629195
1319.196852,-10214.842000,-2368.659014,1149.143247
1319.197173,-8956.491898,-814.226536,766.095498
1319.197493,-9252.574275,-666.185348,-153.219100
1319.197814,-9030.512492,-296.082377,-229.828649
1319.198135,-8068.244768,1554.432478,1378.971896
1319.198456,-9844.739029,0.000000,689.485948
1319.198777,-9252.574275,-592.164754,-229.828649
1319.199098,-9474.636058,74.020594,1225.752797
1319.199419,-10584.944971,814.226536,0.000000
1319.199740,-10807.006753,740.205942,2298.286494
1319.200061,-10955.047942,0.000000,2604.724693
1319.200382,-8364.327145,740.205942,689.485948
1319.200703,-9918.759623,-814.226536,-1072.533697
1319.201024,-8142.265362,814.226536,-2221.676944
1319.201345,-8734.430116,1702.473667,76.609550
1319.201666,-10362.883188,1480.411884,842.705048
1319.201987,-9474.636058,1184.329507,1762.019645
1319.202308,-9474.636058,-888.247130,1608.800546
1319.202629,-9770.718434,-1850.514855,1532.190996
1319.202950,-9178.553681,-1406.391290,1149.143247
1319.203271,-10510.924376,148.041188,2451.505594
1319.203592,-9770.718434,1406.391290,3064.381992
1319.203913,-9178.553681,1554.432478,1838.629195
1319.204234,-9918.759623,814.226536,2145.067394
1319.204555,-10732.986159,-296.082377,1762.019645
1319.204876,-9622.677246,-1406.391290,76.609550
1319.205197,-9178.553681,-592.164754,-689.485948
1319.205518,-8364.327145,2516.700203,-612.876398
1319.205838,-9474.636058,3478.967927,536.266849
1319.206159,-9844.739029,2368.659014,2374.896044
1319.206480,-9474.636058,-370.102971,2298.286494
1319.206801,-10288.862594,-3478.967927,689.485948
1319.207122,-9622.677246,-2664.741391,229.828649
1319.207443,-10214.842000,-1036.288319,2681.334243
1319.207764,-10436.903782,-1110.308913,2834.553343
1319.208085,-8660.409521,-444.123565,2145.067394
1319.208406,-8660.409521,-814.226536,1072.533697
1319.208727,-9030.512492,-2664.741391,0.000000
1319.209048,-9474.636058,-2590.720797,-459.657299
1319.209369,-9474.636058,-222.061783,0.000000
1319.209690,-10436.903782,2072.576638,689.485948
1319.210011,-10214.842000,2146.597232,1455.581446
1319.210332,-10436.903782,1258.350101,1838.629195
1319.210653,-9622.677246,-1332.370696,2221.676944
1319.210974,-10658.965565,-3330.926739,919.314598
1319.211295,-10658.965565,-3182.885551,1378.971896
1319.211616,-9622.677246,-1258.350101,1915.238745
1319.211937,-8956.491898,-2072.576638,1838.629195
1319.212258,-7624.121203,-296.082377,995.924147
1319.212579,-8956.491898,-444.123565,1762.019645
1319.212900,-9178.553681,-1998.556043,-153.219100
1319.213221,-8438.347739,-1110.308913,0.000000
1319.213542,-9104.533087,-444.123565,-689.485948
1319.213863,-9696.697840,1628.453072,766.095498
1319.214183,-10881.027347,1480.411884,2068.457845
1319.214504,-10140.821405,962.267725,2528.115143
1319.214825,-9178.553681,-1406.391290,2374.896044
1319.215146,-10362.883188,-2664.741391,766.095498
1319.215467,-10066.800811,-2368.659014,995.924147
1319.215788,-9622.677246,-814.226536,1302.362347
1319.216109,-9400.615463,-148.041188,1455.581446
1319.216430,-8142.265362,0.000000,383.047749
1319.216751,-8216.285956,148.041188,766.095498
1319.217072,-9030.512492,-1110.308913,229.828649
1319.217393,-9474.636058,-444.123565,-153.219100
1319.217714,-9622.677246,370.102971,1072.533697
1319.218035,-9400.615463,1332.370696,612.876398
1319.218356,-10584.944971,962.267725,2374.896044
1319.218677,-10066.800811,-296.082377,2451.505594
1319.218998,-10584.944971,-1332.370696,2298.286494
1319.219319,-10066.800811,-2146.597232,612.876398
1319.219640,-9252.574275,-814.226536,1762.019645
1319.219961,-10658.965565,518.144159,1685.410096
1319.220282,-9474.636058,1258.350101,1302.362347
1319.220603,-8512.368333,962.267725,766.095498
1319.220924,-9178.553681,-666.185348,0.000000
1319.221245,-8512.368333,-1480.411884,-1685.410096
1319.221566,-9252.574275,-1110.308913,-689.485948
1319.221887,-9400.615463,1406.391290,766.095498
1319.222208,-10807.006753,1406.391290,1838.629195
1319.222529,-10288.862594,2442.679609,3217.601092
1319.222849,-10658.965565,-444.123565,2911.162892
1319.223170,-10288.862594,-1480.411884,1149.143247
1319.223491,-10658.965565,-962.267725,1455.581446
1319.223812,-9400.615463,1036.288319,1455.581446
1319.224133,-9918.759623,1628.453072,1838.629195
1319.224454,-8586.388927,1036.288319,229.828649
1319.224775,-8216.285956,0.000000,306.438199
1319.225096,-8808.450710,-1332.370696,-383.047749
1319.225417,-10066.800811,-1924.535449,0.000000
1319.225738,-9474.636058,-444.123565,766.095498
1319.226059,-10214.842000,962.267725,1455.581446
1319.226380,-11251.130318,1036.288319,2374.896044
1319.226701,-9622.677246,1258.350101,2757.943793
1319.227022,-10214.842000,-1184.329507,1991.848295
1319.227343,-9326.594869,-1628.453072,766.095498
1319.227664,-8734.430116,-1554.432478,-76.609550
1319.227985,-8808.450710,0.000000,919.314598
1319.228306,-9326.594869,444.123565,1685.410096
1319.228627,-8956.491898,-666.185348,1302.362347
1319.228948,-9104.533087,-1850.514855,842.705048
1319.229269,-8956.491898,-1998.556043,919.314598
1319.229590,-10807.006753,-2664.741391,76.609550
1319.229911,-9104.533087,592.164754,995.924147
1319.230232,-10732.986159,1702.473667,1762.019645
1319.230553,-9770.718434,2072.576638,1915.238745
1319.230874,-9696.697840,0.000000,1608.800546
1319.231194,-9548.656652,-1628.453072,919.314598
1319.231515,-9326.594869,-2294.638420,0.000000
1319.231836,-11103.089130,-444.123565,1072.533697
1319.232157,-10658.965565,296.082377,3677.258390
1319.232478,-10881.027347,-518.144159,2757.943793
1319.232799,-10732.986159,-1184.329507,2451.505594
1319.233120,-9548.656652,-1702.473667,1915.238745
1319.233441,-9696.697840,-2664.741391,-459.657299
1319.233762,-9918.759623,-2220.617826,-689.485948
1319.234083,-7698.141797,666.185348,-995.924147
1319.234404,-9474.636058,1628.453072,-383.047749
1319.234725,-8808.450710,2812.782580,229.828649
1319.235046,-8586.388927,1184.329507,1302.362347
1319.235367,-10436.903782,-1110.308913,1455.581446
1319.235688,-9474.636058,-2146.597232,76.609550
1319.236009,-10732.986159,-888.247130,1302.362347
1319.236330,-9918.759623,0.000000,2451.505594
1319.236651,-10140.821405,148.041188,2298.286494
1319.236972,-9104.533087,-370.102971,2451.505594
1319.237293,-8364.327145,-1924.535449,459.657299
1319.237614,-8956.491898,-2590.720797,-766.095498
1319.237935,-8660.409521,-1406.391290,-689.485948
1319.238256,-8216.285956,370.102971,0.000000
1319.238577,-9548.656652,1776.494261,1072.533697
1319.238898,-9252.574275,1480.411884,1455.581446
1319.239219,-9178.553681,814.226536,2374.896044
1319.239539,-10732.986159,-1480.411884,2911.162892
1319.239860,-9844.739029,-1998.556043,1072.533697
1319.240181,-9770.718434,0.000000,1378.971896
1319.240502,-9696.697840,518.144159,1915.238745
1319.240823,-9622.677246,1184.329507,1991.848295
1319.241144,-9030.512492,0.000000,1685.410096
1319.241465,-8660.409521,-1998.556043,459.657299
1319.241786,-9104.533087,-2516.700203,-229.828649
1319.242107,-9548.656652,-1480.411884,306.438199
1319.242428,-9622.677246,814.226536,1302.362347
1319.242749,-10584.944971,1702.473667,1838.629195
1319.243070,-9918.759623,2516.700203,1838.629195
1319.243391,-9918.759623,1480.411884,1685.410096
1319.243712,-10362.883188,-518.144159,612.876398
1319.244033,-10436.903782,-962.267725,306.438199
1319.244354,-9622.677246,-222.061783,995.924147
1319.244675,-10362.883188,222.061783,1225.752797
1319.244996,-7846.182985,2220.617826,766.095498
1319.245317,-9844.739029,444.123565,153.219100
1319.245638,-8956.491898,1480.411884,2068.457845
1319.245959,-10066.800811,-1406.391290,153.219100
1319.246280,-8438.347739,-1110.308913,-229.828649
1319.246601,-10436.903782,296.082377,459.657299
1319.246922,-11029.068536,1184.329507,1838.629195
1319.247243,-9844.739029,1628.453072,2374.896044
1319.247564,-9696.697840,-814.226536,2374.896044
1319.247884,-9474.636058,-1258.350101,689.485948
1319.248205,-9992.780217,-2294.638420,229.828649
1319.248526,-9326.594869,-444.123565,1455.581446
1319.248847,-9696.697840,-740.205942,2451.505594
1319.249168,-8734.430116,-296.082377,1225.752797
1319.249489,-8956.491898,-444.123565,1072.533697
1319.249810,-9474.636058,-1406.391290,766.095498
1319.250131,-8808.450710,-2516.700203,0.000000
1319.250452,-7846.182985,-1776.494261,0.000000
1319.250773,-9400.615463,-370.102971,0.000000
1319.251094,-8956.491898,814.226536,-536.266849
1319.251415,-9474.636058,2368.659014,2298.286494
1319.251736,-9844.739029,0.000000,3370.820191
1319.252057,-10436.903782,-1628.453072,2757.943793
1319.252378,-11769.274478,-3034.844362,4136.915689
1319.252699,-11547.212695,-3108.864956,4443.353888
1319.253020,-10584.944971,-3478.967927,3370.820191
1319.253341,-9030.512492,-1406.391290,2374.896044
1319.253662,-7698.141797,148.041188,612.876398
1319.253983,-7772.162391,518.144159,-1455.581446
1319.254304,-7550.100608,1332.370696,-1838.629195
1319.254625,-8290.306550,814.226536,-1225.752797
1319.254946,-9770.718434,222.061783,-995.924147
1319.255267,-11177.109724,740.205942,1838.629195
1319.255588,-11473.192101,0.000000,2987.772442
1319.255909,-10807.006753,-1184.329507,2528.115143
1319.256229,-10881.027347,-2442.679609,2221.676944
1319.256550,-9178.553681,-296.082377,842.705048
1319.256871,-10955.047942,296.082377,1838.629195
1319.257192,-9918.759623,666.185348,1532.190996
1319.257513,-8586.388927,0.000000,919.314598
1319.257834,-8216.285956,-666.185348,842.705048
1319.258155,-9844.739029,-3256.906145,459.657299
1319.258476,-8216.285956,-2220.617826,383.047749
1319.258797,-10436.903782,-2368.659014,919.314598
1319.259118,-9474.636058,222.061783,1225.752797
1319.259439,-10510.924376,1036.288319,2451.505594
1319.259760,-10510.924376,1332.370696,2451.505594
1319.260081,-10066.800811,666.185348,1378.971896
1319.260402,-9918.759623,0.000000,-995.924147
1319.260723,-8586.388927,1628.453072,-306.438199
1319.261044,-9474.636058,666.185348,383.047749
1319.261365,-9326.594869,-296.082377,153.219100
1319.261686,-8734.430116,-444.123565,612.876398
1319.262007,-9104.533087,-1554.432478,383.047749
1319.262328,-9400.615463,-1924.535449,0.000000
1319.262649,-9400.615463,-370.102971,306.438199
1319.262970,-10807.006753,1554.432478,1225.752797
1319.263291,-10214.842000,2294.638420,1149.143247
1319.263612,-9622.677246,1554.432478,1685.410096
1319.263933,-9326.594869,-814.226536,1072.533697
1319.264254,-9918.759623,-1924.535449,0.000000
1319.264574,-9548.656652,-2368.659014,0.000000
1319.264895,-9400.615463,-148.041188,612.876398
1319.265216,-9696.697840,1406.391290,1915.238745
1319.265537,-10214.842000,888.247130,1455.581446
1319.265858,-8882.471304,1406.391290,1991.848295
1319.266179,-9474.636058,-740.205942,0.000000
1319.266500,-8660.409521,-1036.288319,-919.314598
1319.266821,-8734.430116,-888.247130,-766.095498
1319.267142,-9178.553681,-592.164754,153.219100
1319.267463,-9326.594869,666.185348,995.924147
1319.267784,-9770.718434,74.020594,2528.115143
1319.268105,-9770.718434,-1036.288319,2451.505594
1319.268426,-10881.027347,-1628.453072,2451.505594
1319.268747,-10807.006753,-962.267725,1915.238745
1319.269068,-10658.965565,444.123565,3217.601092
1319.269389,-10288.862594,296.082377,2451.505594
1319.269710,-8142.265362,74.020594,1762.019645
1319.270031,-8512.368333,-888.247130,689.485948
1319.270352,-8660.409521,-1332.370696,842.705048
1319.270673,-8586.388927,-814.226536,0.000000
1319.270994,-9548.656652,518.144159,842.705048
1319.271315,-10214.842000,1332.370696,2221.676944
1319.271636,-10436.903782,222.061783,2681.334243
1319.271957,-9474.636058,74.020594,2221.676944
1319.272278,-10584.944971,-1924.535449,1762.019645
1319.272599,-9918.759623,-1924.535449,76.609550
1319.272919,-9474.636058,-518.144159,689.485948
1319.273240,-9474.636058,888.247130,1302.362347
1319.273561,-9770.718434,1406.391290,1915.238745
1319.273882,-8512.368333,148.041188,1685.410096
1319.274203,-8956.491898,-1924.535449,689.485948
1319.274524,-9622.677246,-3256.906145,536.266849
1319.274845,-9696.697840,-2590.720797,536.266849
1319.275166,-9326.594869,-814.226536,1149.143247
1319.275487,-10436.903782,592.164754,1762.019645
1319.275808,-9770.718434,1184.329507,1762.019645
1319.276129,-9326.594869,0.000000,1149.143247
1319.276450,-9474.636058,-1554.432478,-1072.533697
1319.276771,-9474.636058,-888.247130,-995.924147
1319.277092,-9104.533087,592.164754,0.000000
1319.277413,-10140.821405,0.000000,842.705048
1319.277734,-8586.388927,1036.288319,536.266849
1319.278055,-9622.677246,-740.205942,1302.362347
1319.278376,-11177.109724,-2146.597232,1685.410096
1319.278697,-9770.718434,-1850.514855,1149.143247
1319.279018,-10436.903782,-2960.823768,612.876398
1319.279339,-8882.471304,0.000000,995.924147
1319.279660,-9622.677246,74.020594,229.828649
1319.279981,-9474.636058,444.123565,1149.143247
1319.280302,-7624.121203,222.061783,0.000000
1319.280623,-9696.697840,-1702.473667,-689.485948
1319.280944,-9400.615463,-444.123565,-229.828649
1319.281264,-10436.903782,296.082377,306.438199
1319.281585,-11473.192101,1776.494261,2145.067394
1319.281906,-10140.821405,1628.453072,2451.505594
1319.282227,-9770.718434,1628.453072,1915.238745
1319.282548,-11029.068536,-1036.288319,1838.629195
1319.282869,-9400.615463,-1406.391290,0.000000
1319.283189,-9030.512492,-962.267725,-229.828649
1319.283510,-8734.430116,-222.061783,-383.047749
1319.283831,-9474.636058,814.226536,689.485948
1319.284152,-9030.512492,592.164754,1532.190996
1319.284473,-9474.636058,0.000000,1225.752797
1319.284794,-9844.739029,-1776.494261,919.314598
1319.285114,-9770.718434,-1036.288319,1225.752797
1319.285435,-10436.903782,222.061783,2374.896044
1319.285756,-11547.212695,962.267725,2068.457845
1319.286077,-8364.327145,1110.308913,2145.067394
1319.286398,-9178.553681,-740.205942,1608.800546
1319.286719,-8068.244768,-1628.453072,76.609550
1319.287039,-9622.677246,-2516.700203,-383.047749
1319.287360,-8142.265362,-740.205942,-306.438199
1319.287681,-8956.491898,888.247130,1225.752797
1319.288002,-10658.965565,740.205942,2145.067394
1319.288323,-9104.533087,666.185348,2911.162892
1319.288644,-9992.780217,-1480.411884,2374.896044
1319.288964,-9474.636058,-1998.556043,536.266849
1319.289285,-9918.759623,-1258.350101,1532.190996
1319.289606,-9474.636058,-1036.288319,1608.800546
1319.289927,-9474.636058,74.020594,1455.581446
1319.290248,-8882.471304,370.102971,1225.752797
1319.290569,-8586.388927,0.000000,536.266849
1319.290889,-9030.512492,-1184.329507,612.876398
1319.291210,-9844.739029,-1332.370696,0.000000
1319.291531,-9770.718434,666.185348,842.705048
1319.291852,-10436.903782,1924.535449,536.266849
1319.292173,-10288.862594,2738.761985,2681.334243
1319.292494,-10362.883188,888.247130,2145.067394
1319.292814,-9992.780217,-1184.329507,1838.629195
1319.293135,-9918.759623,-2442.679609,536.266849
1319.293456,-9474.636058,-814.226536,-306.438199
1319.293777,-10362.883188,-296.082377,1455.581446
1319.294098,-9474.636058,962.267725,1378.971896
1319.294418,-9400.615463,666.185348,1991.848295
1319.294739,-9474.636058,-222.061783,1455.581446
1319.295060,-10362.883188,-1924.535449,0.000000
1319.295381,-9770.718434,-2368.659014,-383.047749
1319.295702,-9918.759623,-1036.288319,229.828649
1319.296023,-9474.636058,-296.082377,459.657299
1319.296343,-8956.491898,814.226536,229.828649
1319.296664,-8068.244768,1628.453072,-459.657299
1319.296985,-9104.533087,-222.061783,0.000000
1319.297306,-9474.636058,-222.061783,689.485948
1319.297627,-11177.109724,-962.267725,3217.601092
1319.297948,-11769.274478,-2294.638420,4366.744339
1319.298268,-11399.171507,-2516.700203,3830.477490
1319.298589,-9400.615463,-2738.761985,2681.334243
1319.298910,-9252.574275,-2146.597232,1762.019645
1319.299231,-8142.265362,-1036.288319,0.000000
1319.299552,-6661.853478,1110.308913,-1378.971896
1319.299873,-7179.997637,2442.679609,-1225.752797
1319.300193,-8586.388927,2368.659014,-689.485948
1319.300514,-9178.553681,1332.370696,1225.752797
1319.300835,-9400.615463,-814.226536,1455.581446
1319.301156,-10881.027347,-2664.741391,1991.848295
1319.301477,-10658.965565,-1702.473667,1991.848295
1319.301798,-11103.089130,-1036.288319,3447.429741
1319.302118,-10214.842000,-592.164754,2834.553343
1319.302439,-8956.491898,814.226536,842.705048
1319.302760,-8734.430116,518.144159,229.828649
1319.303081,-8956.491898,444.123565,-689.485948
1319.303402,-9030.512492,148.041188,-995.924147
1319.303723,-9400.615463,-296.082377,-153.219100
1319.304043,-8734.430116,74.020594,383.047749
1319.304364,-11325.150913,-962.267725,1685.410096
1319.304685,-10510.924376,-1258.350101,2681.334243
1319.305006,-10436.903782,-2146.597232,2604.724693
1319.305327,-11029.068536,-2516.700203,1225.752797
1319.305648,-9844.739029,-74.020594,383.047749
1319.305968,-9992.780217,1480.411884,1225.752797
1319.306289,-9844.739029,2442.679609,1225.752797
1319.306610,-9030.512492,1184.329507,0.000000
1319.306931,-8586.388927,-296.082377,-459.657299
1319.307252,-8956.491898,-1776.494261,-1149.143247
1319.307572,-9622.677246,-1998.556043,-306.438199
1319.307893,-9770.718434,370.102971,1225.752797
1319.308214,-11103.089130,740.205942,1915.238745
1319.308535,-10066.800811,2220.617826,2451.505594
1319.308856,-10584.944971,1258.350101,1532.190996
1319.309177,-10066.800811,-592.164754,2221.676944
1319.309497,-9474.636058,-2516.700203,0.000000
1319.309818,-8882.471304,-1036.288319,0.000000
1319.310139,-9548.656652,-888.247130,1838.629195
1319.310460,-9178.553681,-444.123565,1915.238745
1319.310781,-9252.574275,-814.226536,2604.724693
1319.311102,-9104.533087,-1406.391290,919.314598
1319.311422,-9178.553681,-1184.329507,1302.362347
1319.311743,-9696.697840,-1480.411884,459.657299
1319.312064,-8216.285956,0.000000,919.314598
1319.312385,-9104.533087,592.164754,-229.828649
1319.312706,-8216.285956,814.226536,0.000000
1319.313027,-8882.471304,-148.041188,1072.533697
1319.313347,-9104.533087,-1850.514855,1072.533697
1319.313668,-9622.677246,-2442.679609,1455.581446
1319.313989,-9992.780217,-1258.350101,2451.505594
1319.314310,-11251.130318,-888.247130,3370.820191
1319.314631,-10584.944971,-740.205942,2987.772442
1319.314952,-9104.533087,444.123565,3600.648841
1319.315272,-9400.615463,-148.041188,1915.238745
1319.315593,-9918.759623,-962.267725,919.314598
1319.315914,-8808.450710,-1036.288319,0.000000
1319.316235,-9474.636058,-1184.329507,153.219100
1319.316556,-10214.842000,888.247130,-306.438199
1319.316877,-10288.862594,1924.535449,2451.505594
1319.317197,-10510.924376,222.061783,2987.772442
1319.317518,-9622.677246,-592.164754,1455.581446
1319.317839,-9918.759623,-1332.370696,612.876398
1319.318160,-9770.718434,0.000000,2451.505594
1319.318481,-9696.697840,592.164754,1225.752797
1319.318802,-9474.636058,814.226536,1762.019645
1319.319122,-9104.533087,444.123565,1149.143247
1319.319443,-8734.430116,-1184.329507,459.657299
1319.319764,-9474.636058,-2516.700203,-766.095498
1319.320085,-9030.512492,-1406.391290,-689.485948
1319.320406,-10658.965565,-222.061783,842.705048
1319.320726,-10362.883188,1110.308913,1762.019645
1319.321047,-10288.862594,1036.288319,2528.115143
1319.321368,-9400.615463,-666.185348,1532.190996
1319.321689,-9252.574275,-1332.370696,-459.657299
1319.322010,-9252.574275,-962.267725,-766.095498
1319.322331,-9178.553681,666.185348,0.000000
1319.322651,-9252.574275,1554.432478,995.924147
1319.322972,-9326.594869,1036.288319,689.485948
1319.323293,-9178.553681,592.164754,1149.143247
1319.323614,-10214.842000,-1850.514855,1225.752797
1319.323935,-9844.739029,-2368.659014,919.314598
1319.324256,-10807.006753,-666.185348,1072.533697
1319.324576,-9844.739029,1036.288319,1149.143247
1319.324897,-10066.800811,518.144159,536.266849
1319.325218,-8290.306550,1776.494261,1225.752797
1319.325539,-9252.574275,-1110.308913,0.000000
1319.325860,-8438.347739,-1776.494261,-1225.752797
1319.326181,-8438.347739,-740.205942,-612.876398
1319.326501,-9548.656652,-888.247130,689.485948
1319.326822,-10214.842000,0.000000,1991.848295
1319.327143,-9696.697840,0.000000,1838.629195
1319.327464,-9844.739029,-296.082377,2298.286494
1319.327785,-9548.656652,-1258.350101,1455.581446
1319.328106,-9844.739029,-1702.473667,459.657299
1319.328426,-9474.636058,-518.144159,229.828649
1319.328747,-9030.512492,1110.308913,-76.609550
1319.329068,-8956.491898,2146.597232,842.705048
1319.329389,-9326.594869,1110.308913,1608.800546
1319.329710,-9178.553681,-666.185348,766.095498
1319.330031,-9622.677246,-1702.473667,842.705048
1319.330351,-10955.047942,-296.082377,0.000000
1319.330672,-10214.842000,1258.350101,3677.258390
1319.330993,-11399.171507,-296.082377,3064.381992
1319.331314,-8364.327145,962.267725,3140.991542
1319.331635,-9622.677246,-296.082377,2221.676944
1319.331956,-8808.450710,-592.164754,1225.752797
1319.332276,-9030.512492,-1628.453072,-229.828649
1319.332597,-8586.388927,1110.308913,0.000000
1319.332918,-9474.636058,2146.597232,1149.143247
1319.333239,-10066.800811,1702.473667,1608.800546
1319.333560,-9326.594869,444.123565,2221.676944
1319.333881,-10881.027347,-1702.473667,1225.752797
1319.334201,-10066.800811,-1480.411884,1532.190996
1319.334522,-10732.986159,-2072.576638,2451.505594
1319.334843,-10658.965565,-1480.411884,2911.162892
1319.335164,-9252.574275,-222.061783,1532.190996
1319.335485,-8808.450710,-444.123565,1532.190996
1319.335805,-8364.327145,-1332.370696,1149.143247
1319.336126,-8290.306550,-2442.679609,-459.657299
1319.336447,-8364.327145,-1110.308913,-995.924147
1319.336768,-9104.533087,296.082377,229.828649
1319.337089,-10214.842000,1406.391290,1915.238745
1319.337410,-9918.759623,222.061783,2911.162892
1319.337730,-9622.677246,-1332.370696,1915.238745
1319.338051,-10214.842000,-1406.391290,1915.238745
1319.338372,-9770.718434,-962.267725,689.485948
1319.338693,-9844.739029,0.000000,1762.019645
1319.339014,-9696.697840,444.123565,995.924147
1319.339335,-8660.409521,962.267725,459.657299
1319.339655,-7624.121203,370.102971,-229.828649
1319.339976,-8956.491898,74.020594,766.095498
1319.340297,-10732.986159,-1332.370696,229.828649
1319.340618,-8956.491898,-222.061783,536.266849
1319.340939,-9918.759623,296.082377,0.000000
1319.341260,-11029.068536,1554.432478,1378.971896
1319.341580,-8808.450710,0.000000,0.000000
1319.341901,-8660.409521,-1110.308913,-689.485948
1319.342222,-7698.141797,-1036.288319,-2451.505594
1319.342543,-8512.368333,148.041188,-1915.238745
1319.342864,-9474.636058,1406.391290,1991.848295
1319.343185,-11695.253884,518.144159,4213.525239
1319.343505,-11695.253884,-1332.370696,4596.572988
1319.343826,-11103.089130,-3108.864956,3830.477490
1319.344147,-10807.006753,-3627.009116,2298.286494
1319.344468,-9992.780217,-2294.638420,536.266849
1319.344789,-8660.409521,666.185348,-229.828649
1319.345110,-7994.224174,2812.782580,-1378.971896
1319.345430,-7402.059420,3256.906145,-2068.457845
1319.345751,-8216.285956,2220.617826,-1532.190996
1319.346072,-9992.780217,148.041188,689.485948
1319.346393,-10436.903782,-1406.391290,536.266849
1319.346714,-11843.295072,-962.267725,2374.896044
1319.347035,-11621.233289,-370.102971,3524.039291
1319.347355,-10807.006753,296.082377,3217.601092
1319.347676,-10807.006753,222.061783,3524.039291
1319.347997,-8956.491898,0.000000,1685.410096
1319.348318,-9400.615463,-1332.370696,-766.095498
1319.348639,-8290.306550,-592.164754,-1532.190996
1319.348959,-7698.141797,74.020594,-536.266849
1319.349280,-9548.656652,1184.329507,612.876398
1319.349601,-9696.697840,666.185348,2068.457845
1319.349922,-9770.718434,-1110.308913,2451.505594
1319.350243,-10362.883188,-3552.988522,1762.019645
1319.350564,-10584.944971,-2590.720797,1455.581446
1319.350884,-10807.006753,-814.226536,2451.505594
1319.351205,-10584.944971,1110.308913,3064.381992
1319.351526,-9474.636058,1406.391290,1608.800546
1319.351847,-8216.285956,740.205942,229.828649
1319.352168,-8290.306550,-1406.391290,383.047749
1319.352489,-8364.327145,-4071.132681,-1378.971896
1319.352809,-8216.285956,-2738.761985,-459.657299
1319.353130,-8956.491898,-1258.350101,-153.219100
1319.353451,-9474.636058,1702.473667,1762.019645
1319.353772,-10362.883188,1702.473667,3217.601092
1319.354093,-9770.718434,666.185348,3294.210641
1319.354414,-10584.944971,-1110.308913,2145.067394
1319.354734,-9992.780217,-1480.411884,842.705048
1319.355055,-8882.471304,-1924.535449,1532.190996
1319.355376,-10140.821405,-1924.535449,1302.362347
1319.355697,-8956.491898,-1406.391290,919.314598
1319.356018,-8956.491898,-518.144159,1378.971896
1319.356339,-9326.594869,-370.102971,842.705048
1319.356659,-9696.697840,-814.226536,-536.266849
1319.356980,-9104.533087,666.185348,229.828649
1319.357301,-9844.739029,1110.308913,612.876398
1319.357622,-9622.677246,1628.453072,612.876398
1319.357943,-9030.512492,1332.370696,1225.752797
1319.358264,-8660.409521,-1110.308913,229.828649
1319.358584,-9474.636058,-962.267725,536.266849
1319.358905,-10140.821405,-1036.288319,1378.971896
1319.359226,-10881.027347,-296.082377,2834.553343
1319.359547,-10955.047942,222.061783,3140.991542
1319.359868,-11029.068536,296.082377,2987.772442
1319.360189,-10066.800811,0.000000,2911.162892
1319.360509,-9696.697840,-1036.288319,1072.533697
1319.360830,-9178.553681,-1258.350101,-459.657299
1319.361151,-8290.306550,0.000000,-2528.115143
1319.361472,-8956.491898,518.144159,0.000000
1319.361793,-10066.800811,0.000000,1225.752797
1319.362113,-9474.636058,148.041188,1455.581446
1319.362434,-10066.800811,0.000000,1302.362347
1319.362755,-10584.944971,-148.041188,1915.238745
1319.363076,-10214.842000,0.000000,1455.581446
1319.363397,-10066.800811,0.000000,2145.067394
1319.363718,-9474.636058,-296.082377,1072.533697
1319.364038,-8586.388927,0.000000,76.609550
1319.364359,-8660.409521,0.000000,995.924147
1319.364680,-8956.491898,-2072.576638,0.000000
1319.365001,-7994.224174,-2072.576638,-919.314598
1319.365322,-9104.533087,-962.267725,-536.266849
1319.365643,-9474.636058,666.185348,459.657299
1319.365963,-10288.862594,888.247130,2068.457845
1319.366284,-10066.800811,814.226536,2987.772442
1319.366605,-9770.718434,-1406.391290,1991.848295
1319.366926,-9474.636058,-2072.576638,383.047749
1319.367247,-9474.636058,0.000000,153.219100
1319.367568,-9474.636058,1628.453072,536.266849
1319.367888,-9030.512492,1924.535449,689.485948
1319.368209,-8734.430116,1258.350101,612.876398
1319.368530,-9104.533087,-148.041188,-306.438199
1319.368851,-9474.636058,-1406.391290,-229.828649
1319.369172,-10955.047942,-1110.308913,383.047749
1319.369493,-11029.068536,-888.247130,2451.505594
1319.369813,-11399.171507,666.185348,2911.162892
1319.370134,-10807.006753,1406.391290,2757.943793
1319.370455,-9178.553681,444.123565,1762.019645
1319.370776,-9104.533087,-1332.370696,1838.629195
1319.371097,-8586.388927,-1850.514855,-383.047749
1319.371418,-8808.450710,-666.185348,76.609550
1319.371738,-9696.697840,-814.226536,1455.581446
1319.372059,-8216.285956,-962.267725,306.438199
1319.372380,-10066.800811,-666.185348,766.095498
1319.372701,-9252.574275,148.041188,1762.019645
1319.373022,-10881.027347,-2220.617826,919.314598
1319.373343,-9474.636058,0.000000,1378.971896
1319.373663,-9770.718434,814.226536,383.047749
1319.373984,-10140.821405,1406.391290,842.705048
1319.374305,-10288.862594,2368.659014,2681.334243
1319.374626,-9252.574275,0.000000,1608.800546
1319.374947,-8808.450710,-1850.514855,306.438199
1319.375267,-9992.780217,-1776.494261,153.219100
1319.375588,-9548.656652,-814.226536,1762.019645
1319.375909,-10140.821405,-814.226536,2298.286494
1319.376230,-9696.697840,148.041188,3064.381992
1319.376551,-9474.636058,148.041188,3140.991542
1319.376872,-11177.109724,0.000000,1991.848295
1319.377192,-10584.944971,-1406.391290,1838.629195
1319.377513,-8586.388927,-518.144159,842.705048
1319.377834,-9252.574275,370.102971,842.705048
1319.378155,-9104.533087,592.164754,766.095498
1319.378476,-9474.636058,592.164754,1455.581446
1319.378797,-8734.430116,-1480.411884,689.485948
1319.379117,-9622.677246,-1924.535449,0.000000
1319.379438,-9252.574275,-962.267725,0.000000
1319.379759,-10214.842000,148.041188,1532.190996
1319.380080,-11029.068536,814.226536,3600.648841
1319.380401,-10436.903782,74.020594,2757.943793
1319.380722,-9030.512492,-1036.288319,1838.629195
1319.381042,-9696.697840,-2368.659014,766.095498
1319.381363,-9252.574275,-1924.535449,0.000000
1319.381684,-8882.471304,-666.185348,229.828649
1319.382005,-9326.594869,1406.391290,689.485948
1319.382325,-9252.574275,1776.494261,689.485948
1319.382646,-9178.553681,888.247130,842.705048
1319.382967,-9400.615463,-1406.391290,-1072.533697
1319.383288,-8956.491898,-740.205942,306.438199
1319.383608,-12953.603985,-592.164754,383.047749
1319.383929,-9178.553681,-370.102971,1762.019645
1319.384250,-9400.615463,-888.247130,-536.266849
1319.384571,-9622.677246,1702.473667,-383.047749
1319.384892,-8808.450710,-592.164754,-842.705048
1319.385212,-10140.821405,518.144159,1685.410096
1319.385533,-9696.697840,-1480.411884,-229.828649
1319.385854,-9030.512492,-740.205942,-919.314598
1319.386175,-9622.677246,222.061783,1225.752797
1319.386495,-10288.862594,814.226536,1915.238745
1319.386816,-9918.759623,0.000000,2145.067394
1319.387137,-10066.800811,-1998.556043,1455.581446
1319.387458,-7994.224174,-1850.514855,-995.924147
1319.387778,-9918.759623,-666.185348,0.000000
1319.388099,-10584.944971,1702.473667,2298.286494
1319.388420,-9622.677246,2368.659014,3370.820191
1319.388741,-10807.006753,1628.453072,3677.258390
1319.389062,-10658.965565,370.102971,2451.505594
1319.389382,-9474.636058,-1554.432478,1149.143247
1319.389703,-10066.800811,-2442.679609,536.266849
1319.390024,-9252.574275,-370.102971,612.876398
1319.390345,-8734.430116,1554.432478,-306.438199
1319.390665,-7624.121203,2590.720797,-229.828649
1319.390986,-8364.327145,592.164754,-153.219100
1319.391307,-8808.450710,-1554.432478,612.876398
1319.391628,-9918.759623,-2960.823768,383.047749
1319.391948,-9474.636058,-2368.659014,1762.019645
1319.392269,-10881.027347,-2812.782580,2451.505594
1319.392590,-8808.450710,-1258.350101,3140.991542
1319.392911,-9844.739029,-592.164754,3217.601092
1319.393232,-10362.883188,-666.185348,2451.505594
1319.393552,-9474.636058,-1480.411884,766.095498
1319.393873,-7920.203579,-1554.432478,-995.924147
1319.394194,-8956.491898,-148.041188,-1072.533697
1319.394515,-9474.636058,1554.432478,153.219100
1319.394835,-8882.471304,1480.411884,2068.457845
1319.395156,-9326.594869,-370.102971,2145.067394
1319.395477,-9474.636058,-3108.864956,383.047749
1319.395798,-9696.697840,-2960.823768,2374.896044
1319.396118,-10658.965565,-1554.432478,2145.067394
1319.396439,-10955.047942,-1110.308913,2374.896044
1319.396760,-9696.697840,518.144159,1838.629195
1319.397081,-8142.265362,592.164754,1225.752797
1319.397401,-9548.656652,0.000000,-153.219100
1319.397722,-9548.656652,-1480.411884,0.000000
1319.398043,-8734.430116,-518.144159,-229.828649
1319.398364,-9770.718434,962.267725,459.657299
1319.398685,-10140.821405,1480.411884,1608.800546
1319.399005,-8882.471304,1184.329507,1302.362347
1319.399326,-9326.594869,-814.226536,229.828649
1319.399647,-9400.615463,-148.041188,-1915.238745
1319.399968,-9918.759623,1036.288319,-383.047749
1319.400288,-10955.047942,1406.391290,1915.238745
1319.400609,-11399.171507,666.185348,3140.991542
1319.400930,-10732.986159,74.020594,2987.772442
1319.401251,-10955.047942,-1554.432478,2451.505594
1319.401571,-10214.842000,-1998.556043,1378.971896
1319.401892,-9696.697840,-2146.597232,0.000000
1319.402213,-8438.347739,592.164754,0.000000
1319.402534,-8808.450710,2664.741391,0.000000
1319.402855,-8068.244768,1480.411884,-383.047749
1319.403175,-8364.327145,-148.041188,0.000000
1319.403496,-8808.450710,-1702.473667,0.000000
1319.403817,-9548.656652,-1924.535449,0.000000
1319.404138,-10658.965565,0.000000,1455.581446
1319.404458,-10658.965565,0.000000,4213.525239
1319.404779,-11103.089130,-148.041188,3524.039291
1319.405100,-9918.759623,148.041188,2987.772442
1319.405421,-9844.739029,0.000000,1991.848295
1319.405741,-9400.615463,-518.144159,919.314598
1319.406062,-8438.347739,-666.185348,-995.924147
1319.406383,-7179.997637,370.102971,-1455.581446
1319.406704,-8660.409521,1036.288319,-229.828649
1319.407025,-9770.718434,518.144159,1685.410096
1319.407345,-9474.636058,-1628.453072,2911.162892
1319.407666,-9770.718434,-2368.659014,2145.067394
1319.407987,-10214.842000,-2294.638420,1225.752797
1319.408308,-10510.924376,-518.144159,2911.162892
1319.408628,-10584.944971,-222.061783,2221.676944
1319.408949,-9252.574275,1036.288319,1072.533697
1319.409270,-7476.080014,2072.576638,-306.438199
1319.409591,-9474.636058,1850.514855,-612.876398
1319.409911,-9622.677246,74.020594,-536.266849
1319.410232,-8586.388927,-74.020594,-689.485948
1319.410553,-9696.697840,-814.226536,-689.485948
1319.410874,-10362.883188,962.267725,459.657299
1319.411194,-10658.965565,370.102971,2068.457845
1319.411515,-10584.944971,0.000000,2757.943793
1319.411836,-9844.739029,-1406.391290,1838.629195
1319.412157,-9622.677246,-2072.576638,306.438199
1319.412478,-10140.821405,-888.247130,459.657299
1319.412798,-9696.697840,-1184.329507,1532.190996
1319.413119,-8142.265362,-148.041188,1149.143247
1319.413440,-9252.574275,-518.144159,1302.362347
1319.413761,-9030.512492,-962.267725,995.924147
1319.414081,-9622.677246,-1554.432478,76.609550
1319.414402,-9252.574275,0.000000,153.219100
1319.414723,-10881.027347,0.000000,1302.362347
1319.415044,-10732.986159,1924.535449,1685.410096
1319.415364,-11029.068536,740.205942,3217.601092
1319.415685,-8956.491898,-1850.514855,1072.533697
1319.416006,-9030.512492,-1702.473667,306.438199
1319.416327,-10066.800811,-2960.823768,1149.143247
1319.416648,-8438.347739,-370.102971,1302.362347
1319.416968,-10732.986159,-296.082377,2604.724693
1319.417289,-9326.594869,-814.226536,2068.457845
1319.417610,-8586.388927,-296.082377,1762.019645
1319.417931,-10584.944971,-1480.411884,919.314598
1319.418251,-9400.615463,-740.205942,1225.752797
1319.418572,-10140.821405,-814.226536,1149.143247
1319.418893,-9548.656652,0.000000,0.000000
1319.419214,-9400.615463,1554.432478,536.266849
1319.419534,-9844.739029,2146.597232,2145.067394
1319.419855,-9770.718434,0.000000,2298.286494
1319.420176,-10288.862594,-1924.535449,919.314598
1319.420497,-8660.409521,-740.205942,229.828649
1319.420817,-10362.883188,-1332.370696,1378.971896
1319.421138,-10066.800811,-222.061783,2681.334243
1319.421459,-10066.800811,-1184.329507,3217.601092
1319.421780,-9030.512492,-1702.473667,1072.533697
1319.422101,-9918.759623,-1036.288319,-383.047749
1319.422421,-9030.512492,-1480.411884,-383.047749
1319.422742,-9400.615463,1110.308913,689.485948
1319.423063,-10362.883188,1776.494261,1608.800546
1319.423384,-9030.512492,2664.741391,1915.238745
1319.423704,-9326.594869,1036.288319,1225.752797
1319.424025,-9622.677246,-1036.288319,536.266849
1319.424346,-9326.594869,-2294.638420,0.000000
1319.424667,-9622.677246,-962.267725,919.314598
1319.424987,-9400.615463,-444.123565,536.266849
1319.425308,-9326.594869,148.041188,689.485948
1319.425629,-8956.491898,814.226536,1455.581446
1319.425950,-9474.636058,74.020594,1225.752797
1319.426271,-10732.986159,-1406.391290,1378.971896
1319.426591,-10140.821405,-2072.576638,153.219100
1319.426912,-8956.491898,-518.144159,459.657299
1319.427233,-10732.986159,740.205942,1532.190996
1319.427554,-10066.800811,666.185348,1915.238745
1319.427874,-8734.430116,0.000000,1302.362347
1319.428195,-9326.594869,-1628.453072,306.438199
1319.428516,-8438.347739,-740.205942,-1532.190996
1319.428837,-9770.718434,814.226536,-306.438199
1319.429157,-10584.944971,1258.350101,1915.238745
1319.429478,-9400.615463,888.247130,1072.533697
1319.429799,-10362.883188,1036.288319,2145.067394
1319.430120,-9992.780217,-1554.432478,689.485948
1319.430441,-9844.739029,-1850.514855,-459.657299
1319.430761,-10214.842000,-592.164754,153.219100
1319.431082,-9696.697840,1850.514855,689.485948
1319.431403,-9252.574275,3034.844362,689.485948
1319.431724,-9918.759623,1776.494261,1149.143247
1319.432044,-9104.533087,222.061783,612.876398
1319.432365,-9622.677246,-1776.494261,-536.266849
1319.432686,-10140.821405,-2368.659014,536.266849
1319.433007,-8882.471304,-296.082377,1915.238745
1319.433327,-10807.006753,-1332.370696,2911.162892
1319.433648,-9400.615463,-666.185348,2374.896044
1319.433969,-8586.388927,-1110.308913,2528.115143
1319.434290,-9474.636058,-2442.679609,-459.657299
1319.434610,-8956.491898,-888.247130,306.438199
1319.434931,-9696.697840,444.123565,76.609550
1319.435252,-9474.636058,1776.494261,1072.533697
1319.435573,-9104.533087,1628.453072,459.657299
1319.435894,-10436.903782,1702.473667,1991.848295
1319.436214,-9696.697840,-740.205942,3140.991542
1319.436535,-10881.027347,-2516.700203,2987.772442
1319.436856,-10584.944971,-2368.659014,3600.648841
1319.437177,-10140.821405,-2516.700203,3140.991542
1319.437497,-8808.450710,-1628.453072,4673.182538
1319.437818,-8734.430116,-1110.308913,1072.533697
1319.438139,-7772.162391,296.082377,612.876398
1319.438460,-8364.327145,0.000000,-229.828649
1319.438780,-7698.141797,-666.185348,-919.314598
1319.439101,-9178.553681,592.164754,-919.314598
1319.439422,-10362.883188,518.144159,766.095498
1319.439743,-10288.862594,1480.411884,2221.676944
1319.440064,-10584.944971,814.226536,3447.429741
1319.440384,-10288.862594,-962.267725,2604.724693
1319.440705,-10881.027347,-1628.453072,2221.676944
1319.441026,-10658.965565,-2072.576638,1685.410096
1319.441347,-8882.471304,-888.247130,919.314598
1319.441667,-9104.533087,0.000000,229.828649
1319.441988,-8956.491898,888.247130,1225.752797
1319.442309,-8956.491898,0.000000,153.219100
1319.442630,-9474.636058,-962.267725,919.314598
1319.442950,-9178.553681,-2146.597232,-306.438199
1319.443271,-10362.883188,-1184.329507,536.266849
1319.443592,-11029.068536,444.123565,2604.724693
1319.443913,-10510.924376,1480.411884,1532.190996
1319.444234,-9770.718434,1110.308913,766.095498
1319.444554,-9030.512492,-666.185348,-1302.362347
1319.444875,-8068.244768,-296.082377,-2834.553343
1319.445196,-9178.553681,962.267725,-766.095498
1319.445517,-11177.109724,1036.288319,1378.971896
1319.445837,-10955.047942,0.000000,2451.505594
1319.446158,-10510.924376,-1702.473667,1838.629195
1319.446479,-10436.903782,-2442.679609,1608.800546
1319.446800,-11399.171507,-2072.576638,1149.143247
1319.447120,-9696.697840,-888.247130,1149.143247
1319.447441,-9178.553681,592.164754,76.609550
1319.447762,-8216.285956,888.247130,-766.095498
1319.448083,-7179.997637,518.144159,-1608.800546
1319.448403,-8660.409521,-888.247130,-1072.533697
1319.448724,-8956.491898,-1480.411884,-1149.143247
1319.449045,-8882.471304,-1406.391290,76.609550
1319.449366,-10214.842000,-888.247130,2298.286494
1319.449687,-10584.944971,-370.102971,3370.820191
1319.450007,-10955.047942,-814.226536,2834.553343
1319.450328,-9622.677246,518.144159,3140.991542
1319.450649,-10436.903782,-740.205942,2145.067394
1319.450970,-9104.533087,-370.102971,306.438199
1319.451290,-9252.574275,814.226536,306.438199
1319.451611,-8586.388927,1332.370696,0.000000
1319.451932,-9030.512492,1480.411884,919.314598
1319.452253,-9474.636058,222.061783,2451.505594
1319.452573,-9474.636058,-666.185348,2757.943793
1319.452894,-11547.212695,-2220.617826,1225.752797
1319.453215,-10362.883188,-222.061783,3294.210641
1319.453536,-10362.883188,814.226536,3294.210641
1319.453857,-11029.068536,888.247130,3370.820191
1319.454177,-8882.471304,222.061783,3294.210641
1319.454498,-8512.368333,-740.205942,1685.410096
1319.454819,-8512.368333,-1702.473667,153.219100
1319.455140,-8586.388927,-2146.597232,-612.876398
1319.455460,-8142.265362,592.164754,1225.752797
1319.455781,-10436.903782,0.000000,2757.943793
1319.456102,-10066.800811,2664.741391,2068.457845
1319.456423,-11177.109724,1258.350101,3370.820191
1319.456743,-10658.965565,-740.205942,2374.896044
1319.457064,-10658.965565,-2516.700203,1838.629195
1319.457385,-9252.574275,-3849.070898,612.876398
1319.457706,-8734.430116,-962.267725,459.657299
1319.458027,-9400.615463,-1184.329507,1225.752797
1319.458347,-7846.182985,-1184.329507,229.828649
1319.458668,-8956.491898,0.000000,766.095498
1319.458989,-9474.636058,-1998.556043,0.000000
1319.459310,-8808.450710,-1036.288319,-383.047749
1319.459630,-9548.656652,-370.102971,306.438199
1319.459951,-10881.027347,74.020594,766.095498
1319.460272,-9696.697840,1406.391290,1685.410096
1319.460593,-9918.759623,0.000000,1149.143247
1319.460913,-8364.327145,-740.205942,-459.657299
1319.461234,-9474.636058,-1332.370696,-1532.190996
1319.461555,-8882.471304,-444.123565,-919.314598
1319.461876,-10732.986159,2368.659014,995.924147
1319.462196,-10288.862594,1406.391290,1685.410096
1319.462517,-9104.533087,-222.061783,1378.971896
1319.462838,-9844.739029,-1332.370696,1225.752797
1319.463159,-9770.718434,-2072.576638,536.266849
1319.463480,-9992.780217,-2516.700203,995.924147
1319.463800,-10066.800811,0.000000,1225.752797
1319.464121,-9178.553681,1036.288319,459.657299
1319.464442,-9548.656652,666.185348,766.095498
1319.464763,-8808.450710,666.185348,1072.533697
1319.465083,-9622.677246,-1110.308913,-153.219100
1319.465404,-9326.594869,-888.247130,-383.047749
1319.465725,-9252.574275,518.144159,1149.143247
1319.466046,-10732.986159,740.205942,2068.457845
1319.466366,-9770.718434,-1184.329507,2528.115143
1319.466687,-9622.677246,-814.226536,1915.238745
1319.467008,-9696.697840,-1554.432478,1762.019645
1319.467329,-9696.697840,-2368.659014,612.876398
1319.467650,-9474.636058,-1924.535449,153.219100
1319.467970,-9400.615463,-148.041188,1532.190996
1319.468291,-9030.512492,814.226536,1072.533697
1319.468612,-9326.594869,518.144159,2298.286494
1319.468933,-9844.739029,-1776.494261,2451.505594
1319.469253,-9548.656652,-3330.926739,1685.410096
1319.469574,-9030.512492,-1702.473667,1149.143247
1319.469895,-10362.883188,444.123565,1838.629195
1319.470216,-10214.842000,1406.391290,3140.991542
1319.470536,-8734.430116,1110.308913,1608.800546
1319.470857,-7920.203579,444.123565,2757.943793
1319.471178,-9474.636058,-1184.329507,76.609550
1319.471499,-9548.656652,-1702.473667,766.095498
1319.471819,-10362.883188,-1628.453072,1532.190996
1319.472140,-10510.924376,222.061783,2451.505594
1319.472461,-10214.842000,1702.473667,3064.381992
1319.472782,-10362.883188,592.164754,3677.258390
1319.473103,-9474.636058,-740.205942,2068.457845
1319.473423,-9400.615463,-2368.659014,536.266849
1319.473744,-9252.574275,-1924.535449,229.828649
1319.474065,-9104.533087,-1480.411884,-306.438199
1319.474386,-9474.636058,-2146.597232,-459.657299
1319.474706,-7476.080014,-740.205942,-995.924147
1319.475027,-7994.224174,296.082377,76.609550
1319.475348,-12435.459826,592.164754,1455.581446
1319.475669,-9918.759623,-1998.556043,612.876398
1319.475989,-9622.677246,-888.247130,-689.485948
1319.476310,-11399.171507,1480.411884,229.828649
1319.476631,-9770.718434,1850.514855,612.876398
1319.476952,-9548.656652,2664.741391,2451.505594
1319.477273,-9622.677246,-740.205942,612.876398
1319.477593,-8364.327145,-1702.473667,-2221.676944
1319.477914,-9030.512492,-1258.350101,-612.876398
1319.478235,-10214.842000,-1036.288319,1455.581446
1319.478556,-9770.718434,148.041188,2451.505594
1319.478876,-10214.842000,-444.123565,2298.286494
1319.479197,-8660.409521,-370.102971,1072.533697
1319.479518,-9326.594869,-370.102971,459.657299
1319.479839,-9992.780217,-444.123565,612.876398
1319.480159,-8956.491898,518.144159,1378.971896
1319.480480,-9918.759623,1480.411884,1225.752797
1319.480801,-10140.821405,2072.576638,919.314598
1319.481121,-8734.430116,1628.453072,1532.190996
1319.481442,-9474.636058,-1184.329507,229.828649
1319.481763,-9474.636058,-1258.350101,306.438199
1319.482083,-9918.759623,-148.041188,995.924147
1319.482404,-9992.780217,1110.308913,2757.943793
1319.482724,-10584.944971,370.102971,4060.306139
1319.483045,-9918.759623,962.267725,5822.325785
1319.483366,-11029.068536,-1110.308913,4290.134789
1319.483686,-9622.677246,-2590.720797,2681.334243
1319.484007,-8438.347739,-2738.761985,0.000000
1319.484328,-8586.388927,-1258.350101,-1302.362347
1319.484648,-8068.244768,1184.329507,-536.266849
1319.484969,-7402.059420,2072.576638,-76.609550
1319.485289,-8512.368333,1110.308913,459.657299
1319.485610,-8734.430116,0.000000,-459.657299
1319.485931,-10955.047942,-962.267725,1302.362347
1319.486251,-11399.171507,-1184.329507,2451.505594
1319.486572,-11103.089130,-592.164754,2834.553343
1319.486893,-10214.842000,-592.164754,1991.848295
1319.487213,-9474.636058,592.164754,1685.410096
1319.487534,-10436.903782,0.000000,2068.457845
1319.487854,-9030.512492,-740.205942,76.609550
1319.488175,-9104.533087,-1258.350101,-689.485948
1319.488496,-9252.574275,444.123565,-612.876398
1319.488816,-9992.780217,666.185348,0.000000
1319.489137,-9178.553681,444.123565,919.314598
1319.489458,-8956.491898,-1184.329507,1302.362347
1319.489778,-10066.800811,-2294.638420,306.438199
1319.490099,-9844.739029,-1184.329507,995.924147
1319.490419,-10140.821405,-444.123565,2298.286494
1319.490740,-10584.944971,-740.205942,2221.676944
1319.491061,-9104.533087,0.000000,153.219100
1319.491381,-9178.553681,0.000000,-1072.533697
1319.491702,-8586.388927,962.267725,-1915.238745
1319.492023,-9696.697840,1184.329507,-153.219100
1319.492343,-10436.903782,1702.473667,995.924147
1319.492664,-11695.253884,962.267725,2374.896044
1319.492984,-12213.398043,-222.061783,3983.696590
1319.493305,-10955.047942,-1998.556043,3600.648841
1319.493626,-10436.903782,-2960.823768,3294.210641
1319.493946,-9400.615463,-2368.659014,76.609550
1319.494267,-7846.182985,148.041188,-919.314598
1319.494588,-7846.182985,1332.370696,0.000000
1319.494908,-6661.853478,888.247130,-689.485948
1319.495229,-6809.894666,-1110.308913,-842.705048
1319.495549,-9474.636058,-814.226536,1532.190996
1319.495870,-11029.068536,-2146.597232,2834.553343
1319.496191,-10955.047942,-1554.432478,3983.696590
1319.496511,-11103.089130,0.000000,3753.867940
1319.496832,-10658.965565,296.082377,3140.991542
1319.497153,-10584.944971,888.247130,2834.553343
1319.497473,-8438.347739,888.247130,3140.991542
1319.497794,-9326.594869,-2886.803174,1072.533697
1319.498114,-7105.977043,-1998.556043,1762.019645
1319.498435,-8808.450710,-2146.597232,229.828649
1319.498756,-9252.574275,0.000000,1608.800546
1319.499076,-9918.759623,444.123565,3294.210641
1319.499397,-9474.636058,148.041188,3370.820191
1319.499717,-9326.594869,-444.123565,3064.381992
1319.500038,-10807.006753,-2220.617826,1838.629195
1319.500359,-10140.821405,-666.185348,1608.800546
1319.500679,-10066.800811,740.205942,1302.362347
1319.501000,-9326.594869,1184.329507,2145.067394
1319.501321,-8956.491898,2442.679609,459.657299
1319.501641,-9474.636058,1036.288319,919.314598
1319.501962,-9178.553681,-1480.411884,-153.219100
1319.502282,-9622.677246,-1776.494261,76.609550
1319.502603,-9178.553681,-2294.638420,-2221.676944
1319.502924,-10584.944971,0.000000,1302.362347
1319.503244,-10955.047942,1110.308913,1455.581446
1319.503565,-8882.471304,1110.308913,1225.752797
1319.503886,-9548.656652,-444.123565,306.438199
1319.504206,-9252.574275,-1036.288319,0.000000
1319.504527,-9770.718434,-1702.473667,-766.095498
1319.504847,-9252.574275,592.164754,-76.609550
1319.505168,-10362.883188,1110.308913,612.876398
1319.505489,-9770.718434,1110.308913,1302.362347
1319.505809,-9400.615463,74.020594,1149.143247
1319.506130,-9696.697840,-1628.453072,-229.828649
1319.506451,-9474.636058,-592.164754,-766.095498
1319.506771,-9992.780217,74.020594,153.219100
1319.507092,-10584.944971,-1184.329507,0.000000
1319.507412,-7994.224174,740.205942,0.000000
1319.507733,-8734.430116,-740.205942,-153.219100
1319.508054,-9030.512492,-1480.411884,612.876398
1319.508374,-9622.677246,-1850.514855,0.000000
1319.508695,-9252.574275,-1480.411884,1302.362347
1319.509016,-9622.677246,666.185348,2145.067394
1319.509336,-10658.965565,518.144159,2145.067394
1319.509657,-9548.656652,0.000000,2604.724693
1319.509977,-9178.553681,-1924.535449,2145.067394
1319.510298,-8660.409521,-2590.720797,-153.219100
1319.510619,-9252.574275,-1924.535449,383.047749
1319.510939,-9474.636058,0.000000,1455.581446
1319.511260,-9400.615463,148.041188,1915.238745
1319.511581,-8882.471304,148.041188,1302.362347
1319.511901,-9326.594869,-296.082377,1838.629195
1319.512222,-9696.697840,-1480.411884,1302.362347
1319.512542,-10214.842000,-814.226536,1838.629195
1319.512863,-9844.739029,74.020594,2451.505594
1319.513184,-10066.800811,888.247130,3753.867940
1319.513504,-9992.780217,1628.453072,2987.772442
1319.513825,-9696.697840,0.000000,2451.505594
1319.514146,-9474.636058,-1258.350101,2145.067394
1319.514466,-9696.697840,-2368.659014,612.876398
1319.514787,-9030.512492,-1036.288319,842.705048
1319.515107,-9770.718434,-814.226536,1378.971896
1319.515428,-9474.636058,0.000000,2145.067394
1319.515749,-9030.512492,296.082377,2298.286494
1319.516069,-10362.883188,-888.247130,2145.067394
1319.516390,-9474.636058,-2516.700203,842.705048
1319.516711,-9104.533087,-1924.535449,-229.828649
1319.517031,-9696.697840,0.000000,-229.828649
1319.517352,-9844.739029,2368.659014,536.266849
1319.517672,-10732.986159,3108.864956,-842.705048
1319.517993,-9400.615463,1628.453072,995.924147
1319.518314,-10066.800811,-222.061783,1302.362347
1319.518634,-10807.006753,-3330.926739,1762.019645
1319.518955,-10584.944971,-2960.823768,2451.505594
1319.519276,-10658.965565,-962.267725,1225.752797
1319.519596,-10362.883188,-148.041188,1991.848295
1319.519917,-8586.388927,518.144159,1685.410096
1319.520237,-8290.306550,-1110.308913,766.095498
1319.520558,-9474.636058,-2294.638420,-2068.457845
1319.520879,-7698.141797,-592.164754,-2374.896044
1319.521199,-9178.553681,888.247130,-1455.581446
1319.521520,-10436.903782,2738.761985,919.314598
1319.521841,-9104.533087,1702.473667,1455.581446
1319.522161,-10807.006753,518.144159,1685.410096
1319.522482,-10362.883188,-1406.391290,689.485948
1319.522802,-9992.780217,-1406.391290,0.000000
1319.523123,-11029.068536,0.000000,2068.457845
1319.523444,-10214.842000,74.020594,1378.971896
1319.523764,-8216.285956,-296.082377,459.657299
1319.524085,-8586.388927,-148.041188,0.000000
1319.524406,-8216.285956,-888.247130,-689.485948
1319.524726,-9252.574275,-2072.576638,-766.095498
1319.525047,-10214.842000,-1110.308913,153.219100
1319.525367,-9474.636058,1258.350101,1072.533697
1319.525688,-10658.965565,1628.453072,2451.505594
1319.526009,-10732.986159,814.226536,2987.772442
1319.526329,-9474.636058,0.000000,1685.410096
1319.526650,-9844.739029,-1332.370696,459.657299
1319.526971,-9104.533087,-888.247130,229.828649
1319.527291,-9770.718434,-592.164754,842.705048
1319.527612,-9770.718434,-518.144159,1225.752797
1319.527932,-8956.491898,148.041188,766.095498
1319.528253,-8586.388927,0.000000,1762.019645
1319.528574,-9844.739029,296.082377,2298.286494
1319.528894,-10732.986159,74.020594,2374.896044
1319.529215,-10510.924376,296.082377,2681.334243
1319.529535,-11103.089130,444.123565,4596.572988
1319.529856,-9918.759623,74.020594,2068.457845
1319.530177,-9400.615463,-666.185348,1608.800546
1319.530497,-8808.450710,-592.164754,1072.533697
1319.530818,-8660.409521,-1258.350101,0.000000
1319.531139,-6957.935855,-1628.453072,-2068.457845
1319.531459,-9178.553681,-444.123565,995.924147
1319.531780,-9992.780217,-888.247130,1608.800546
1319.532100,-9400.615463,-1628.453072,1455.581446
1319.532421,-10140.821405,-1406.391290,2298.286494
1319.532742,-10140.821405,-740.205942,1608.800546
1319.533062,-9696.697840,-1332.370696,1225.752797
1319.533383,-10732.986159,-148.041188,1991.848295
1319.533704,-9548.656652,1036.288319,1608.800546
1319.534024,-9548.656652,1184.329507,842.705048
1319.534345,-8882.471304,296.082377,1838.629195
1319.534665,-9696.697840,-370.102971,689.485948
1319.534986,-9474.636058,-1258.350101,306.438199
1319.535307,-9474.636058,-1480.411884,995.924147
1319.535627,-8956.491898,-518.144159,2068.457845
1319.535948,-10066.800811,-962.267725,1608.800546
1319.536269,-9326.594869,-296.082377,1762.019645
1319.536589,-9178.553681,-518.144159,766.095498
1319.536910,-8364.327145,-1036.288319,-612.876398
1319.537230,-8734.430116,-222.061783,2604.724693
1319.537551,-9474.636058,592.164754,-383.047749
1319.537872,-9844.739029,1036.288319,1072.533697
1319.538192,-10658.965565,1110.308913,1991.848295
1319.538513,-11251.130318,-1554.432478,3064.381992
1319.538834,-9992.780217,-1628.453072,2987.772442
1319.539154,-12435.459826,-2960.823768,2451.505594
1319.539475,-9400.615463,-74.020594,1762.019645
1319.539795,-9548.656652,148.041188,1991.848295
1319.540116,-8364.327145,-1184.329507,0.000000
1319.540437,-6661.853478,296.082377,-995.924147
1319.540757,-9104.533087,-1924.535449,-1225.752797
1319.541078,-7476.080014,-1258.350101,-2145.067394
1319.541399,-9178.553681,-814.226536,-766.095498
1319.541719,-10584.944971,1480.411884,2604.724693
1319.542040,-11621.233289,2738.761985,3447.429741
1319.542360,-11325.150913,1258.350101,3524.039291
1319.542681,-10510.924376,-222.061783,3677.258390
1319.543002,-10658.965565,-2294.638420,919.314598
1319.543322,-9326.594869,-1628.453072,2451.505594
1319.543643,-9178.553681,-370.102971,1149.143247
1319.543964,-8808.450710,518.144159,1149.143247
1319.544284,-7402.059420,296.082377,842.705048
1319.544605,-9474.636058,-1702.473667,995.924147
1319.544925,-9030.512492,-1850.514855,1072.533697
1319.545246,-10140.821405,-1850.514855,229.828649
1319.545567,-10214.842000,1480.411884,2068.457845
1319.545887,-11177.109724,2072.576638,2145.067394
1319.546208,-10807.006753,2442.679609,995.924147
1319.546529,-9474.636058,1184.329507,2221.676944
1319.546849,-8660.409521,-518.144159,153.219100
1319.547170,-9622.677246,-2146.597232,76.609550
1319.547490,-8734.430116,-1036.288319,-153.219100
1319.547811,-8512.368333,0.000000,1149.143247
1319.548132,-9474.636058,592.164754,1072.533697
1319.548452,-8882.471304,740.205942,1149.143247
1319.548773,-9104.533087,-296.082377,1072.533697
1319.549094,-9992.780217,-1702.473667,1072.533697
1319.549414,-9770.718434,-1702.473667,919.314598
1319.549735,-9770.718434,0.000000,536.266849
1319.550055,-10436.903782,222.061783,1149.143247
1319.550376,-9400.615463,1184.329507,919.314598
1319.550697,-8956.491898,0.000000,4060.306139
1319.551017,-9252.574275,-2812.782580,842.705048
1319.551338,-8882.471304,-1998.556043,-383.047749
1319.551659,-9400.615463,-1258.350101,-306.438199
1319.551979,-10288.862594,666.185348,1455.581446
1319.552300,-9474.636058,1258.350101,2298.286494
1319.552620,-8808.450710,0.000000,2145.067394
1319.552941,-9770.718434,-2146.597232,1378.971896
1319.553262,-9104.533087,-2812.782580,-459.657299
1319.553582,-10362.883188,-2590.720797,383.047749
1319.553903,-9326.594869,-888.247130,995.924147
1319.554224,-9326.594869,2220.617826,1072.533697
1319.554544,-10214.842000,2220.617826,1532.190996
1319.554865,-9030.512492,1184.329507,1991.848295
1319.555185,-9622.677246,-1258.350101,1072.533697
1319.555506,-10658.965565,-2368.659014,1302.362347
1319.555827,-9474.636058,-814.226536,1455.581446
1319.556147,-10732.986159,-444.123565,1685.410096
1319.556468,-9400.615463,814.226536,1685.410096
1319.556789,-8882.471304,148.041188,1225.752797
1319.557109,-9252.574275,-1258.350101,1532.190996
1319.557430,-8882.471304,-2960.823768,0.000000
1319.557750,-8734.430116,-2220.617826,0.000000
1319.558071,-10140.821405,-1554.432478,1072.533697
1319.558392,-9770.718434,1628.453072,1991.848295
1319.558712,-10510.924376,1850.514855,3524.039291
1319.559033,-9918.759623,-74.020594,2681.334243
1319.559354,-10288.862594,-592.164754,2451.505594
1319.559674,-10436.903782,-2072.576638,919.314598
1319.559995,-9252.574275,-518.144159,1685.410096
1319.560315,-10214.842000,-592.164754,1838.629195
1319.560636,-9030.512492,74.020594,1915.238745
1319.560957,-9178.553681,-888.247130,1685.410096
1319.561277,-8438.347739,-1554.432478,1455.581446
1319.561598,-8660.409521,-2664.741391,689.485948
1319.561918,-8808.450710,-1628.453072,459.657299
1319.562239,-9548.656652,814.226536,1149.143247
1319.562560,-10436.903782,2590.720797,2298.286494
1319.562880,-9252.574275,2368.659014,2604.724693
1319.563201,-8956.491898,-370.102971,2451.505594
1319.563522,-9474.636058,-2368.659014,0.000000
1319.563842,-9770.718434,-1924.535449,229.828649
1319.564163,-10732.986159,296.082377,1225.752797
1319.564483,-11325.150913,518.144159,2834.553343
1319.564804,-9030.512492,518.144159,1608.800546
1319.565125,-9252.574275,962.267725,1915.238745
1319.565445,-10140.821405,-1480.411884,1225.752797
1319.565766,-9030.512492,-3108.864956,306.438199
1319.566087,-9178.553681,-2146.597232,-612.876398
1319.566407,-8660.409521,444.123565,-612.876398
1319.566728,-8438.347739,2368.659014,383.047749
1319.567048,-9474.636058,2368.659014,1915.238745
1319.567369,-8956.491898,-148.041188,766.095498
1319.567690,-9474.636058,-1554.432478,-1532.190996
1319.568010,-10362.883188,-1036.288319,0.000000
1319.568331,-10955.047942,74.020594,1378.971896
1319.568652,-11325.150913,666.185348,2298.286494
1319.568972,-9474.636058,518.144159,1378.971896
1319.569293,-8438.347739,74.020594,-1302.362347
1319.569613,-9474.636058,-814.226536,-1532.190996
1319.569934,-9918.759623,-1184.329507,-995.924147
1319.570255,-9178.553681,-296.082377,-612.876398
1319.570575,-10436.903782,518.144159,0.000000
1319.570896,-10066.800811,740.205942,842.705048
1319.571217,-9030.512492,370.102971,1072.533697
1319.571537,-10584.944971,-1332.370696,1302.362347
1319.571858,-10140.821405,-740.205942,612.876398
1319.572178,-9696.697840,148.041188,995.924147
1319.572499,-10436.903782,-370.102971,1225.752797
1319.572820,-8882.471304,-1406.391290,459.657299
1319.573140,-8438.347739,-1628.453072,-153.219100
1319.573461,-9400.615463,-1406.391290,0.000000
1319.573782,-7994.224174,-148.041188,-766.095498
1319.574102,-10288.862594,666.185348,1302.362347
1319.574423,-10955.047942,74.020594,2757.943793
1319.574743,-10955.047942,888.247130,3524.039291
1319.575064,-11103.089130,0.000000,4366.744339
1319.575385,-11325.150913,0.000000,3907.087040
1319.575705,-10436.903782,-814.226536,3370.820191
1319.576026,-9918.759623,-888.247130,995.924147
1319.576347,-6661.853478,1036.288319,612.876398
1319.576667,-7772.162391,1036.288319,-383.047749
1319.576988,-7920.203579,1628.453072,612.876398
1319.577308,-8586.388927,0.000000,153.219100
1319.577629,-9030.512492,-1110.308913,1225.752797
1319.577950,-9030.512492,-3108.864956,459.657299
1319.578270,-10881.027347,-1258.350101,1532.190996
1319.578591,-11103.089130,0.000000,3524.039291
1319.578912,-11621.233289,888.247130,4060.306139
1319.579232,-10732.986159,1036.288319,3600.648841
1319.579553,-8882.471304,814.226536,2528.115143
1319.579873,-9918.759623,-2886.803174,-153.219100
1319.580194,-7772.162391,-1554.432478,0.000000
1319.580515,-8586.388927,-1480.411884,-459.657299
1319.580835,-9104.533087,-222.061783,383.047749
1319.581156,-8512.368333,-666.185348,689.485948
1319.581477,-8660.409521,-222.061783,1225.752797
1319.581797,-10436.903782,-2146.597232,1991.848295
1319.582118,-9474.636058,-3256.906145,-766.095498
1319.582439,-8216.285956,-1850.514855,-1378.971896
1319.582759,-10140.821405,1850.514855,-229.828649
1319.583080,-10066.800811,3330.926739,459.657299
1319.583401,-10584.944971,2294.638420,2451.505594
1319.583721,-10881.027347,74.020594,2068.457845
1319.584042,-10807.006753,-2368.659014,612.876398
1319.584363,-11769.274478,-2960.823768,1455.581446
1319.584683,-11029.068536,-1702.473667,2145.067394
1319.585004,-9918.759623,222.061783,1378.971896
1319.585325,-8290.306550,814.226536,0.000000
1319.585645,-6883.915261,962.267725,-1302.362347
1319.585966,-8290.306550,-962.267725,-2145.067394
1319.586287,-7994.224174,-1332.370696,-2068.457845
1319.586607,-8586.388927,0.000000,-1072.533697
1319.586928,-9992.780217,1332.370696,1149.143247
1319.587248,-10807.006753,1480.411884,2604.724693
1319.587569,-11029.068536,1036.288319,4136.915689
1319.587890,-11399.171507,370.102971,2834.553343
1319.588210,-10066.800811,-148.041188,1455.581446
1319.588531,-10881.027347,-148.041188,1302.362347
1319.588852,-9030.512492,740.205942,995.924147
1319.589172,-9474.636058,0.000000,1378.971896
1319.589493,-7550.100608,0.000000,0.000000
1319.589814,-8438.347739,-1184.329507,459.657299
1319.590134,-9696.697840,-2072.576638,459.657299
1319.590455,-9252.574275,-1406.391290,1302.362347
1319.590776,-10214.842000,-592.164754,2451.505594
1319.591096,-10658.965565,1258.350101,3370.820191
1319.591417,-10436.903782,444.123565,3524.039291
1319.591738,-9770.718434,-814.226536,2987.772442
1319.592058,-9326.594869,-2516.700203,1072.533697
1319.592379,-8882.471304,-2294.638420,-689.485948
1319.592700,-8290.306550,-666.185348,-383.047749
1319.593020,-8808.450710,518.144159,229.828649
1319.593341,-9178.553681,888.247130,995.924147
1319.593662,-8808.450710,1406.391290,2451.505594
1319.593982,-9770.718434,-444.123565,842.705048
1319.594303,-10214.842000,-1480.411884,1225.752797
1319.594623,-10436.903782,-740.205942,1455.581446
1319.594944,-10955.047942,518.144159,2834.553343
1319.595265,-11029.068536,148.041188,2221.676944
1319.595585,-8882.471304,1332.370696,1762.019645
1319.595906,-9548.656652,-444.123565,766.095498
1319.596227,-9104.533087,-148.041188,459.657299
1319.596547,-9400.615463,-222.061783,0.000000
1319.596868,-9770.718434,0.000000,766.095498
1319.597189,-8882.471304,518.144159,0.000000
1319.597509,-9548.656652,0.000000,919.314598
1319.597830,-9696.697840,-962.267725,1149.143247
1319.598151,-9696.697840,-1776.494261,842.705048
1319.598471,-9992.780217,-3330.926739,-536.266849
1319.598792,-9400.615463,-518.144159,-383.047749
1319.599113,-9918.759623,888.247130,0.000000
1319.599433,-10288.862594,2368.659014,1225.752797
1319.599754,-10436.903782,1924.535449,1762.019645
1319.600075,-9474.636058,444.123565,612.876398
1319.600395,-10288.862594,-1554.432478,766.095498
1319.600716,-9474.636058,-1406.391290,536.266849
1319.601037,-10362.883188,-1554.432478,2298.286494
1319.601357,-9474.636058,-1258.350101,1225.752797
1319.601678,-8808.450710,444.123565,1149.143247
1319.601998,-8882.471304,74.020594,612.876398
1319.602319,-9548.656652,0.000000,766.095498
1319.602640,-9030.512492,-666.185348,689.485948
1319.602960,-9178.553681,-74.020594,2068.457845
1319.603281,-9252.574275,592.164754,1455.581446
1319.603602,-9844.739029,1258.350101,2451.505594
1319.603922,-9474.636058,0.000000,2911.162892
1319.604243,-10214.842000,-1184.329507,2987.772442
1319.604564,-9622.677246,-1480.411884,3217.601092
1319.604884,-9252.574275,-296.082377,2374.896044
1319.605205,-11251.130318,-518.144159,2911.162892
1319.605526,-9548.656652,-296.082377,2298.286494
1319.605846,-8586.388927,0.000000,1991.848295
1319.606167,-9400.615463,-296.082377,2145.067394
1319.606488,-8438.347739,-1258.350101,842.705048
1319.606808,-9474.636058,-1850.514855,459.657299
1319.607129,-8882.471304,-814.226536,689.485948
1319.607450,-9030.512492,1332.370696,612.876398
1319.607770,-10436.903782,1702.473667,2221.676944
1319.608091,-8882.471304,444.123565,1608.800546
1319.608412,-9844.739029,-1406.391290,612.876398
1319.608732,-9474.636058,-1702.473667,153.219100
1319.609053,-10436.903782,-296.082377,0.000000
1319.609373,-11621.233289,-444.123565,2911.162892
1319.609694,-9770.718434,-1036.288319,2451.505594
1319.610015,-10066.800811,-1036.288319,1608.800546
1319.610335,-9400.615463,-1702.473667,536.266849
1319.610656,-10214.842000,-1184.329507,-919.314598
1319.610977,-9696.697840,-740.205942,-612.876398
1319.611297,-8364.327145,814.226536,-1149.143247
1319.611618,-9844.739029,888.247130,-612.876398
1319.611939,-9104.533087,666.185348,-459.657299
1319.612259,-8808.450710,666.185348,1532.190996
1319.612580,-10807.006753,-592.164754,383.047749
1319.612901,-9474.636058,-296.082377,0.000000
1319.613221,-10807.006753,-370.102971,1225.752797
1319.613542,-10140.821405,-296.082377,1685.410096
1319.613863,-9252.574275,-370.102971,1149.143247
1319.614183,-8882.471304,-518.144159,306.438199
1319.614504,-8956.491898,-1036.288319,-612.876398
1319.614825,-9030.512492,-444.123565,-1685.410096
1319.615145,-9252.574275,962.267725,-766.095498
1319.615466,-9252.574275,2146.597232,-306.438199
1319.615787,-10066.800811,2368.659014,1532.190996
1319.616107,-10881.027347,370.102971,2221.676944
1319.616428,-10436.903782,-1258.350101,2528.115143
1319.616749,-10362.883188,-2516.700203,1991.848295
1319.617069,-9252.574275,-1480.411884,1608.800546
1319.617390,-9400.615463,-740.205942,2221.676944
1319.617710,-9326.594869,-518.144159,1532.190996
1319.618031,-8364.327145,0.000000,459.657299
1319.618352,-8512.368333,-666.185348,-229.828649
1319.618672,-8438.347739,-444.123565,-306.438199
1319.618993,-9918.759623,-1702.473667,459.657299
1319.619314,-9252.574275,-370.102971,1608.800546
1319.619634,-9770.718434,222.061783,1378.971896
1319.619955,-10584.944971,666.185348,3983.696590
1319.620276,-10510.924376,-962.267725,4519.963438
1319.620596,-9622.677246,-1258.350101,3294.210641
1319.620917,-11399.171507,-2368.659014,2221.676944
1319.621238,-9696.697840,-740.205942,1762.019645
1319.621558,-9400.615463,1554.432478,3677.258390
1319.621879,-9622.677246,-1776.494261,3140.991542
1319.622200,-7772.162391,296.082377,2604.724693
1319.622520,-10955.047942,-2368.659014,3064.381992
1319.622841,-8364.327145,-2960.823768,153.219100
1319.623162,-9104.533087,-592.164754,76.609550
1319.623482,-9252.574275,1332.370696,766.095498
1319.623803,-8586.388927,4737.318029,1302.362347
1319.624124,-9178.553681,4515.256246,919.314598
1319.624444,-9104.533087,2146.597232,1149.143247
1319.624765,-9548.656652,-74.020594,536.266849
1319.625085,-11103.089130,-2812.782580,1378.971896
1319.625406,-10214.842000,-2664.741391,1455.581446
1319.625727,-11177.109724,-518.144159,2068.457845
1319.626047,-9030.512492,0.000000,1072.533697
1319.626368,-10066.800811,814.226536,1378.971896
1319.626689,-9918.759623,666.185348,1838.629195
1319.627009,-9844.739029,-2442.679609,-229.828649
1319.627330,-8882.471304,-2146.597232,-1838.629195
1319.627651,-7994.224174,-1924.535449,-3370.820191
1319.627971,-8364.327145,518.144159,-3370.820191
1319.628292,-9252.574275,2812.782580,-536.266849
1319.628613,-9400.615463,2294.638420,612.876398
1319.628933,-10288.862594,-444.123565,229.828649
1319.629254,-10807.006753,-1776.494261,995.924147
1319.629575,-12139.377449,-2146.597232,2374.896044
1319.629895,-11991.336260,-2146.597232,2911.162892
1319.630216,-10807.006753,-1110.308913,2374.896044
1319.630537,-8882.471304,-962.267725,536.266849
1319.630857,-7846.182985,-962.267725,-1302.362347
1319.631178,-8364.327145,-1554.432478,-1991.848295
1319.631499,-8438.347739,-666.185348,-1991.848295
1319.631819,-9252.574275,592.164754,-919.314598
1319.632140,-9474.636058,1110.308913,229.828649
1319.632460,-9548.656652,1480.411884,2911.162892
1319.632781,-9918.759623,-370.102971,1685.410096
1319.633102,-9548.656652,-1924.535449,1608.800546
1319.633422,-9548.656652,-1554.432478,1149.143247
1319.633743,-9548.656652,-1184.329507,1991.848295
1319.634064,-9622.677246,-1924.535449,1455.581446
1319.634384,-9252.574275,-1036.288319,2221.676944
1319.634705,-8882.471304,-370.102971,1608.800546
1319.635026,-9326.594869,0.000000,1685.410096
1319.635346,-9770.718434,0.000000,1455.581446
1319.635667,-9918.759623,666.185348,2145.067394
1319.635988,-9400.615463,0.000000,1685.410096
1319.636308,-9992.780217,666.185348,2757.943793
1319.636629,-10510.924376,-592.164754,3600.648841
1319.636950,-9844.739029,-962.267725,3064.381992
1319.637270,-9696.697840,-2072.576638,1302.362347
1319.637591,-9548.656652,-444.123565,1685.410096
1319.637912,-9252.574275,740.205942,2757.943793
1319.638232,-10214.842000,0.000000,2911.162892
1319.638553,-8364.327145,-666.185348,1302.362347
1319.638874,-9104.533087,-1628.453072,612.876398
1319.639194,-9326.594869,-1850.514855,0.000000
1319.639515,-9474.636058,-1628.453072,-306.438199
1319.639835,-9622.677246,518.144159,459.657299
1319.640156,-9622.677246,1110.308913,-76.609550
1319.640477,-9326.594869,1480.411884,919.314598
1319.640797,-10140.821405,370.102971,1838.629195
1319.641118,-10732.986159,-1702.473667,1762.019645
1319.641439,-10510.924376,-1924.535449,995.924147
1319.641759,-10140.821405,0.000000,2528.115143
1319.642080,-10288.862594,1036.288319,1762.019645
1319.642401,-10066.800811,74.020594,1149.143247
1319.642721,-8586.388927,148.041188,842.705048
1319.643042,-8882.471304,-1924.535449,-306.438199
1319.643363,-8142.265362,0.000000,-1532.190996
1319.643683,-10288.862594,-1332.370696,-536.266849
1319.644004,-8882.471304,592.164754,-919.314598
1319.644325,-10288.862594,2812.782580,229.828649
1319.644645,-9548.656652,2368.659014,1302.362347
1319.644966,-9104.533087,444.123565,1149.143247
1319.645287,-9992.780217,-888.247130,1455.581446
1319.645607,-10510.924376,-1776.494261,842.705048
1319.645928,-9474.636058,0.000000,766.095498
1319.646249,-9992.780217,1554.432478,3217.601092
1319.646569,-9622.677246,518.144159,1685.410096
1319.646890,-8438.347739,518.144159,842.705048
1319.647211,-9030.512492,-888.247130,153.219100
1319.647531,-9178.553681,-1850.514855,0.000000
1319.647852,-9844.739029,-666.185348,-919.314598
1319.648172,-9770.718434,0.000000,153.219100
1319.648493,-10066.800811,1998.556043,1455.581446
1319.648814,-10140.821405,1998.556043,2451.505594
1319.649134,-9918.759623,740.205942,2834.553343
1319.649455,-11251.130318,-3330.926739,76.609550
1319.649776,-7994.224174,1110.308913,306.438199
1319.650096,-11399.171507,-2442.679609,1915.238745
1319.650417,-8956.491898,1110.308913,2374.896044
1319.650738,-9178.553681,-962.267725,842.705048
1319.651058,-9326.594869,-370.102971,766.095498
1319.651379,-8142.265362,0.000000,229.828649
1319.651700,-10881.027347,-1480.411884,842.705048
1319.652020,-10362.883188,-222.061783,1991.848295
1319.652341,-8586.388927,148.041188,-766.095498
1319.652662,-11695.253884,2072.576638,1838.629195
1319.652982,-9178.553681,1036.288319,2145.067394
1319.653303,-9696.697840,-296.082377,919.314598
1319.653624,-11029.068536,-1332.370696,1455.581446
1319.653944,-9104.533087,-666.185348,1225.752797
1319.654265,-9474.636058,-148.041188,1149.143247
1319.654586,-10732.986159,-222.061783,2068.457845
1319.654906,-8882.471304,-666.185348,1685.410096
1319.655227,-9400.615463,-1332.370696,1915.238745
1319.655547,-9104.533087,-3256.906145,459.657299
1319.655868,-8808.450710,-2294.638420,76.609550
1319.656189,-9400.615463,-1480.411884,0.000000
1319.656509,-9770.718434,814.226536,766.095498
1319.656830,-10066.800811,2072.576638,1455.581446
1319.657151,-9474.636058,1554.432478,1991.848295
1319.657471,-10140.821405,-592.164754,1302.362347
1319.657792,-10214.842000,-2146.597232,536.266849
1319.658113,-10436.903782,-2442.679609,76.609550
1319.658433,-9548.656652,-296.082377,1915.238745
1319.658754,-9252.574275,-740.205942,1685.410096
1319.659075,-9400.615463,-962.267725,1532.190996
1319.659395,-8956.491898,-1554.432478,1302.362347
1319.659716,-8882.471304,-2886.803174,229.828649
1319.660037,-9030.512492,-2072.576638,-383.047749
1319.660357,-8586.388927,-814.226536,459.657299
1319.660678,-9548.656652,666.185348,1302.362347
1319.660999,-9622.677246,1406.391290,2068.457845
1319.661319,-9918.759623,814.226536,2757.943793
1319.661640,-8956.491898,-74.020594,689.485948
1319.661961,-9918.759623,-1332.370696,459.657299
1319.662281,-10584.944971,-296.082377,1072.533697
1319.662602,-8882.471304,2072.576638,3140.991542
1319.662922,-9474.636058,518.144159,2528.115143
1319.663243,-9030.512492,592.164754,612.876398
1319.663564,-9770.718434,-444.123565,1838.629195
1319.663884,-9474.636058,-2146.597232,612.876398
1319.664205,-8660.409521,-814.226536,1302.362347
1319.664526,-9992.780217,-518.144159,995.924147
1319.664846,-9326.594869,1998.556043,2374.896044
1319.665167,-11029.068536,1110.308913,2757.943793
1319.665488,-9474.636058,518.144159,2987.772442
1319.665808,-10510.924376,-1998.556043,1762.019645
1319.666129,-10214.842000,-1332.370696,1532.190996
1319.666450,-10140.821405,-370.102971,1455.581446
1319.666770,-10140.821405,370.102971,2221.676944
1319.667091,-9178.553681,1258.350101,2145.067394
1319.667412,-8586.388927,518.144159,919.314598
1319.667732,-9474.636058,888.247130,2068.457845
1319.668053,-9992.780217,-1554.432478,1149.143247
1319.668374,-9770.718434,-1406.391290,1072.533697
1319.668694,-10214.842000,-1184.329507,1608.800546
1319.669015,-10066.800811,-1406.391290,995.924147
1319.669336,-9548.656652,-444.123565,1608.800546
1319.669656,-9104.533087,148.041188,459.657299
1319.669977,-9030.512492,74.020594,-689.485948
1319.670297,-8068.244768,1036.288319,-1149.143247
1319.670618,-9548.656652,740.205942,-612.876398
1319.670939,-9548.656652,814.226536,-919.314598
1319.671259,-8364.327145,962.267725,0.000000
1319.671580,-9474.636058,-666.185348,1149.143247
1319.671901,-9992.780217,-1110.308913,766.095498
1319.672221,-10140.821405,-1850.514855,689.485948
1319.672542,-10140.821405,-1184.329507,842.705048
1319.672863,-8956.491898,222.061783,536.266849
1319.673183,-10214.842000,370.102971,1072.533697
1319.673504,-9474.636058,296.082377,1149.143247
1319.673825,-9400.615463,-666.185348,0.000000
1319.674145,-9104.533087,-2220.617826,-459.657299
1319.674466,-8660.409521,-1628.453072,-306.438199
1319.674787,-9548.656652,-962.267725,1072.533697
1319.675107,-10362.883188,-370.102971,2145.067394
1319.675428,-9844.739029,-222.061783,2221.676944
1319.675749,-9474.636058,0.000000,1532.190996
1319.676069,-9770.718434,-740.205942,995.924147
1319.676390,-9548.656652,-666.185348,536.266849
1319.676711,-9474.636058,-444.123565,459.657299
1319.677031,-9548.656652,1110.308913,689.485948
1319.677352,-10066.800811,888.247130,919.314598
1319.677673,-10140.821405,0.000000,1991.848295
1319.677993,-10881.027347,-1184.329507,2374.896044
1319.678314,-10288.862594,-1480.411884,1072.533697
1319.678634,-9474.636058,-444.123565,1072.533697
1319.678955,-9918.759623,814.226536,1608.800546
1319.679276,-9326.594869,1332.370696,1532.190996
1319.679596,-8660.409521,666.185348,536.266849
1319.679917,-8660.409521,-74.020594,229.828649
1319.680238,-8882.471304,-1850.514855,612.876398
1319.680558,-9474.636058,-2812.782580,842.705048
1319.680879,-9770.718434,-1702.473667,1762.019645
1319.681200,-10510.924376,0.000000,2757.943793
1319.681520,-10807.006753,740.205942,4979.620737
1319.681841,-10584.944971,-370.102971,3677.258390
1319.682162,-9178.553681,-1702.473667,1762.019645
1319.682482,-9622.677246,-2220.617826,536.266849
1319.682803,-9326.594869,-1406.391290,1225.752797
1319.683123,-8660.409521,-148.041188,1225.752797
1319.683444,-8734.430116,-1258.350101,1532.190996
1319.683765,-8956.491898,-1480.411884,1838.629195
1319.684085,-9178.553681,-2368.659014,1378.971896
1319.684406,-8882.471304,-1406.391290,1072.533697
1319.684727,-10066.800811,-1628.453072,1838.629195
1319.685047,-9474.636058,888.247130,1072.533697
1319.685368,-10066.800811,1702.473667,1915.238745
1319.685689,-9252.574275,-148.041188,612.876398
1319.686009,-8882.471304,296.082377,383.047749
1319.686330,-9918.759623,-1036.288319,306.438199
1319.686651,-9622.677246,-370.102971,153.219100
1319.686971,-9696.697840,814.226536,766.095498
1319.687292,-10214.842000,1406.391290,1149.143247
1319.687613,-9696.697840,1184.329507,1532.190996
1319.687933,-9918.759623,-296.082377,1455.581446
1319.688254,-9992.780217,-1184.329507,1532.190996
1319.688575,-9992.780217,-2368.659014,612.876398
1319.688895,-9178.553681,-1406.391290,-306.438199
1319.689216,-9400.615463,370.102971,-1455.581446
1319.689537,-9770.718434,1998.556043,459.657299
1319.689857,-9252.574275,2368.659014,1225.752797
1319.690178,-10066.800811,1184.329507,1608.800546
1319.690498,-10140.821405,-1184.329507,612.876398
1319.690819,-9992.780217,-1184.329507,766.095498
1319.691140,-10807.006753,148.041188,1072.533697
1319.691460,-10510.924376,666.185348,1762.019645
1319.691781,-9474.636058,666.185348,1532.190996
1319.692102,-8956.491898,0.000000,306.438199
1319.692422,-9400.615463,0.000000,0.000000
1319.692743,-9178.553681,-962.267725,-842.705048
1319.693064,-9326.594869,0.000000,0.000000
1319.693384,-9548.656652,296.082377,919.314598
1319.693705,-9844.739029,222.061783,1685.410096
1319.694026,-10436.903782,-592.164754,2451.505594
1319.694346,-9844.739029,-2072.576638,2221.676944
1319.694667,-10140.821405,-2220.617826,1225.752797
1319.694988,-10140.821405,-592.164754,1302.362347
1319.695308,-10140.821405,1554.432478,612.876398
1319.695629,-9252.574275,1258.350101,766.095498
1319.695950,-8216.285956,-296.082377,-76.609550
1319.696270,-7254.018232,-1776.494261,-1072.533697
1319.696591,-8956.491898,-2146.597232,-919.314598
1319.696912,-9252.574275,-2294.638420,-536.266849
1319.697232,-9326.594869,-518.144159,383.047749
1319.697553,-10288.862594,1258.350101,1455.581446
1319.697874,-10436.903782,1850.514855,2298.286494
1319.698194,-10658.965565,1036.288319,3064.381992
1319.698515,-10436.903782,-740.205942,2681.334243
1319.698836,-9992.780217,-2220.617826,689.485948
1319.699156,-9252.574275,-1554.432478,1072.533697
1319.699477,-9030.512492,-666.185348,1455.581446
1319.699797,-8956.491898,-370.102971,689.485948
1319.700118,-8512.368333,74.020594,0.000000
1319.700439,-8882.471304,74.020594,306.438199
1319.700759,-10066.800811,-296.082377,306.438199
1319.701080,-10066.800811,0.000000,1072.533697
1319.701401,-10436.903782,666.185348,1991.848295
1319.701721,-10807.006753,1406.391290,1991.848295
1319.702042,-10658.965565,592.164754,2528.115143
1319.702363,-10066.800811,-888.247130,2681.334243
1319.702683,-9474.636058,-2442.679609,1149.143247
1319.703004,-9622.677246,-1332.370696,0.000000
1319.703325,-9474.636058,0.000000,1225.752797
1319.703645,-9030.512492,1628.453072,2298.286494
1319.703966,-10584.944971,0.000000,2068.457845
1319.704287,-8660.409521,0.000000,1762.019645
1319.704607,-9622.677246,-1702.473667,1149.143247
1319.704928,-10140.821405,-3182.885551,1072.533697
1319.705249,-9178.553681,-1776.494261,919.314598
1319.705569,-10436.903782,-592.164754,1532.190996
1319.705890,-9178.553681,1036.288319,1455.581446
1319.706211,-10288.862594,1924.535449,2374.896044
1319.706531,-10288.862594,-370.102971,2374.896044
1319.706852,-9548.656652,-1406.391290,536.266849
1319.707173,-9770.718434,-1258.350101,0.000000
1319.707493,-9252.574275,-222.061783,0.000000
1319.707814,-9622.677246,-1110.308913,1378.971896
1319.708135,-9104.533087,-444.123565,1225.752797
1319.708455,-9326.594869,-814.226536,766.095498
1319.708776,-9326.594869,-814.226536,383.047749
1319.709097,-9400.615463,-740.205942,1072.533697
1319.709417,-9918.759623,-296.082377,153.219100
1319.709738,-9178.553681,1554.432478,689.485948
1319.710058,-9844.739029,1184.329507,1608.800546
1319.710379,-9474.636058,222.061783,1762.019645
1319.710700,-9030.512492,-1110.308913,842.705048
1319.711020,-10362.883188,-1702.473667,0.000000
1319.711341,-8808.450710,-370.102971,-383.047749
1319.711662,-8364.327145,814.226536,-1149.143247
1319.711982,-8808.450710,1850.514855,-995.924147
1319.712303,-7179.997637,2220.617826,-2221.676944
1319.712624,-9474.636058,1480.411884,-229.828649
1319.712944,-10214.842000,296.082377,919.314598
1319.713265,-10732.986159,-592.164754,1455.581446
1319.713586,-11695.253884,-740.205942,3447.429741
1319.713906,-11399.171507,518.144159,4519.963438
1319.714227,-12213.398043,-592.164754,4519.963438
1319.714548,-9622.677246,-1332.370696,2987.772442
1319.714868,-8216.285956,-1998.556043,306.438199
1319.715189,-8808.450710,-2368.659014,-612.876398
1319.715510,-6883.915261,222.061783,-2068.457845
1319.715830,-9178.553681,1406.391290,-536.266849
1319.716151,-7254.018232,814.226536,-383.047749
1319.716472,-7846.182985,-740.205942,0.000000
1319.716792,-9474.636058,-1110.308913,2068.457845
1319.717113,-11251.130318,-2516.700203,2528.115143
1319.717434,-10955.047942,-2368.659014,2757.943793
1319.717754,-10288.862594,-592.164754,3447.429741
1319.718075,-10510.924376,1110.308913,2145.067394
1319.718396,-11251.130318,2442.679609,3677.258390
1319.718716,-9474.636058,666.185348,2834.553343
1319.719037,-8882.471304,-1554.432478,306.438199
1319.719357,-8734.430116,-2368.659014,-1149.143247
1319.719678,-8586.388927,-1554.432478,-383.047749
1319.719999,-9548.656652,0.000000,1225.752797
1319.720319,-9548.656652,814.226536,2298.286494
1319.720640,-9918.759623,148.041188,2834.553343
1319.720961,-10362.883188,0.000000,2757.943793
1319.721281,-10732.986159,0.000000,229.828649
1319.721602,-10732.986159,148.041188,689.485948
1319.721923,-10140.821405,1406.391290,919.314598
1319.722243,-9474.636058,1702.473667,612.876398
1319.722564,-9918.759623,592.164754,1302.362347
1319.722885,-9252.574275,-1332.370696,919.314598
1319.723205,-10066.800811,-3034.844362,76.609550
1319.723526,-9474.636058,-3627.009116,536.266849
1319.723847,-7105.977043,-2368.659014,1685.410096
1319.724167,-11991.336260,1406.391290,2834.553343
1319.724488,-12065.356855,1184.329507,1838.629195
1319.724809,-7402.059420,814.226536,995.924147
1319.725129,-9030.512492,-1036.288319,1072.533697
1319.725450,-9030.512492,-2664.741391,-995.924147
1319.725771,-7846.182985,-1554.432478,-1378.971896
1319.726091,-9696.697840,962.267725,383.047749
1319.726412,-8808.450710,962.267725,1225.752797
1319.726733,-9770.718434,2072.576638,2298.286494
1319.727053,-10140.821405,222.061783,1915.238745
1319.727374,-9104.533087,-1480.411884,1532.190996
1319.727695,-9992.780217,-2146.597232,766.095498
1319.728015,-9474.636058,-1480.411884,1149.143247
1319.728336,-8808.450710,-518.144159,1072.533697
1319.728656,-9178.553681,592.164754,1455.581446
1319.728977,-8438.347739,-444.123565,1225.752797
1319.729298,-8956.491898,-666.185348,766.095498
1319.729618,-9474.636058,-2368.659014,306.438199
1319.729939,-9474.636058,-518.144159,306.438199
1319.730260,-10288.862594,1924.535449,1838.629195
1319.730580,-10510.924376,1554.432478,2911.162892
1319.730901,-9474.636058,1258.350101,2221.676944
1319.731222,-9918.759623,-1554.432478,536.266849
1319.731542,-9326.594869,-1332.370696,-1149.143247
1319.731863,-9622.677246,222.061783,0.000000
1319.732184,-11547.212695,888.247130,1915.238745
1319.732504,-9918.759623,518.144159,2145.067394
1319.732825,-9696.697840,-296.082377,995.924147
1319.733146,-9548.656652,-1258.350101,1302.362347
1319.733466,-10288.862594,-1332.370696,995.924147
1319.733787,-10362.883188,-1776.494261,995.924147
1319.734108,-9474.636058,-370.102971,383.047749
1319.734428,-9844.739029,1554.432478,612.876398
1319.734749,-9696.697840,1258.350101,1225.752797
1319.735070,-9622.677246,296.082377,1608.800546
1319.735390,-9696.697840,-1036.288319,919.314598
1319.735711,-9770.718434,-1184.329507,0.000000
1319.736032,-9770.718434,74.020594,842.705048
1319.736352,-10066.800811,74.020594,1838.629195
1319.736673,-8882.471304,814.226536,536.266849
1319.736994,-9252.574275,-444.123565,919.314598
1319.737314,-8438.347739,-888.247130,459.657299
1319.737635,-9030.512492,-1480.411884,76.609550
1319.737956,-9104.533087,-1702.473667,-383.047749
1319.738276,-7550.100608,518.144159,-153.219100
1319.738597,-10066.800811,1110.308913,842.705048
1319.738917,-9400.615463,888.247130,1991.848295
1319.739238,-9474.636058,-148.041188,2374.896044
1319.739559,-10807.006753,-2368.659014,2987.772442
1319.739879,-11325.150913,-1332.370696,2604.724693
1319.740200,-11769.274478,-1110.308913,3830.477490
1319.740521,-9770.718434,-1258.350101,3217.601092
1319.740841,-8438.347739,-740.205942,306.438199
1319.741162,-8142.265362,518.144159,306.438199
1319.741483,-7994.224174,-296.082377,-383.047749
1319.741803,-8734.430116,-1110.308913,-766.095498
1319.742124,-8808.450710,-2738.761985,-842.705048
1319.742445,-7476.080014,222.061783,-1149.143247
1319.742765,-10955.047942,296.082377,1532.190996
1319.743086,-10658.965565,1406.391290,3294.210641
1319.743407,-11769.274478,296.082377,3753.867940
1319.743727,-10436.903782,-1184.329507,2834.553343
1319.744048,-9178.553681,-2516.700203,76.609550
1319.744369,-10362.883188,370.102971,1838.629195
1319.744689,-10658.965565,-518.144159,1915.238745
1319.745010,-8512.368333,0.000000,1225.752797
1319.745331,-7402.059420,-444.123565,-229.828649
1319.745651,-7994.224174,-1184.329507,229.828649
1319.745972,-10362.883188,-148.041188,995.924147
1319.746293,-9474.636058,-1480.411884,1302.362347
1319.746613,-10140.821405,-222.061783,1915.238745
1319.746934,-11177.109724,2072.576638,2374.896044
1319.747255,-9622.677246,74.020594,919.314598
1319.747575,-9696.697840,962.267725,2987.772442
1319.747896,-9474.636058,-518.144159,1149.143247
1319.748216,-9474.636058,-1184.329507,0.000000
1319.748537,-9548.656652,-962.267725,1149.143247
1319.748858,-7624.121203,-74.020594,1838.629195
1319.749178,-10362.883188,-1332.370696,1378.971896
1319.749499,-9252.574275,-888.247130,2757.943793
1319.749820,-9474.636058,-2072.576638,1302.362347
1319.750140,-10066.800811,-1850.514855,766.095498
1319.750461,-9326.594869,-888.247130,2068.457845
1319.750782,-9844.739029,444.123565,1302.362347
1319.751102,-9326.594869,1554.432478,1225.752797
1319.751423,-9770.718434,1332.370696,1455.581446
1319.751744,-9178.553681,-370.102971,1225.752797
1319.752064,-9252.574275,-2146.597232,-1072.533697
1319.752385,-10140.821405,-1702.473667,459.657299
1319.752706,-9770.718434,-1702.473667,459.657299
1319.753026,-8882.471304,222.061783,153.219100
1319.753347,-9030.512492,1258.350101,459.657299
1319.753668,-9400.615463,1184.329507,459.657299
1319.753988,-10066.800811,-74.020594,536.266849
1319.754309,-9474.636058,0.000000,-383.047749
1319.754630,-9622.677246,-222.061783,-1302.362347
1319.754950,-10066.800811,1628.453072,842.705048
1319.755271,-10066.800811,814.226536,1762.019645
1319.755592,-9252.574275,0.000000,1072.533697
1319.755912,-9992.780217,-1406.391290,612.876398
1319.756233,-8734.430116,-1924.535449,-612.876398
1319.756554,-7698.141797,-666.185348,-689.485948
1319.756874,-9252.574275,74.020594,0.000000
1319.757195,-7698.141797,888.247130,-229.828649
1319.757516,-8364.327145,-296.082377,0.000000
1319.757836,-9326.594869,-962.267725,919.314598
1319.758157,-10140.821405,-1998.556043,459.657299
1319.758477,-11473.192101,-2368.659014,2374.896044
1319.758798,-11399.171507,-1480.411884,3294.210641
1319.759119,-10955.047942,222.061783,2834.553343
1319.759439,-10732.986159,1776.494261,2451.505594
1319.759760,-9474.636058,1702.473667,2451.505594
1319.760081,-8882.471304,740.205942,1149.143247
1319.760401,-8438.347739,-740.205942,229.828649
1319.760722,-9178.553681,-1258.350101,459.657299
1319.761043,-9252.574275,-1702.473667,1149.143247
1319.761363,-8586.388927,-962.267725,1225.752797
1319.761684,-9104.533087,74.020594,1915.238745
1319.762005,-9252.574275,370.102971,2221.676944
1319.762325,-10510.924376,-814.226536,1991.848295
1319.762646,-10214.842000,0.000000,-536.266849
1319.762967,-8586.388927,1998.556043,689.485948
1319.763287,-11029.068536,1258.350101,1608.800546
1319.763608,-9178.553681,1924.535449,2681.334243
1319.763929,-9400.615463,-592.164754,2221.676944
1319.764249,-9622.677246,-1258.350101,1455.581446
1319.764570,-9178.553681,-1998.556043,766.095498
1319.764891,-10807.006753,-1850.514855,1455.581446
1319.765211,-9770.718434,-222.061783,2145.067394
1319.765532,-10140.821405,-148.041188,1608.800546
1319.765853,-8364.327145,370.102971,2451.505594
1319.766173,-10140.821405,-1480.411884,1991.848295
1319.766494,-9178.553681,-1998.556043,612.876398
1319.766815,-9252.574275,-1776.494261,842.705048
1319.767135,-9622.677246,-148.041188,306.438199
1319.767456,-9252.574275,2146.597232,-229.828649
1319.767776,-9696.697840,1184.329507,842.705048
1319.768097,-9400.615463,1850.514855,1378.971896
1319.768418,-10066.800811,148.041188,995.924147
1319.768738,-8956.491898,-962.267725,-76.609550
1319.769059,-9548.656652,-444.123565,1149.143247
1319.769380,-10288.862594,-1850.514855,306.438199
1319.769700,-8512.368333,-444.123565,1378.971896
1319.770021,-10140.821405,-296.082377,1302.362347
1319.770342,-10288.862594,-370.102971,3677.258390
1319.770662,-9474.636058,-1554.432478,0.000000
1319.770983,-9622.677246,-296.082377,766.095498
1319.771304,-9400.615463,296.082377,229.828649
1319.771624,-9696.697840,1628.453072,1149.143247
1319.771945,-8660.409521,444.123565,919.314598
1319.772266,-7624.121203,-814.226536,-1378.971896
1319.772586,-8734.430116,-740.205942,-2145.067394
1319.772907,-9104.533087,-370.102971,-306.438199
1319.773228,-9918.759623,74.020594,1072.533697
1319.773548,-10881.027347,592.164754,1915.238745
1319.773869,-9548.656652,-518.144159,1838.629195
1319.774190,-10214.842000,-888.247130,2298.286494
1319.774510,-11029.068536,-1332.370696,2451.505594
1319.774831,-9696.697840,-1332.370696,0.000000
1319.775152,-9178.553681,-370.102971,842.705048
1319.775472,-8956.491898,148.041188,459.657299
1319.775793,-9178.553681,148.041188,689.485948
1319.776114,-9178.553681,0.000000,1149.143247
1319.776434,-9326.594869,74.020594,1915.238745
1319.776755,-10214.842000,-296.082377,995.924147
1319.777075,-10066.800811,222.061783,1532.190996
1319.777396,-10955.047942,296.082377,3140.991542
1319.777717,-9178.553681,-518.144159,2528.115143
1319.778037,-9622.677246,-888.247130,1532.190996
1319.778358,-9622.677246,-1036.288319,2145.067394
1319.778679,-9548.656652,-1258.350101,612.876398
1319.778999,-9252.574275,444.123565,995.924147
1319.779320,-9474.636058,1702.473667,1455.581446
1319.779641,-9992.780217,2738.761985,919.314598
1319.779961,-9992.780217,1036.288319,2145.067394
1319.780282,-9326.594869,-1480.411884,2068.457845
1319.780603,-9548.656652,-3108.864956,842.705048
1319.780923,-9400.615463,-2960.823768,995.924147
1319.781244,-10436.903782,-1036.288319,1608.800546
1319.781565,-9178.553681,296.082377,1455.581446
1319.781885,-8882.471304,0.000000,1302.362347
1319.782206,-7994.224174,-296.082377,1149.143247
1319.782527,-9104.533087,-1628.453072,766.095498
1319.782848,-9474.636058,-1480.411884,76.609550
1319.783169,-9844.739029,-1184.329507,229.828649
1319.783489,-9252.574275,1110.308913,536.266849
1319.783810,-10362.883188,1554.432478,1608.800546
1319.784131,-8586.388927,592.164754,766.095498
1319.784452,-9770.718434,-518.144159,689.485948
1319.784772,-10288.862594,-962.267725,-76.609550
1319.785093,-9400.615463,-888.247130,229.828649
1319.785414,-9992.780217,0.000000,1149.143247
1319.785735,-9622.677246,-296.082377,2145.067394
1319.786055,-9326.594869,-518.144159,919.314598
1319.786376,-9178.553681,0.000000,995.924147
1319.786697,-9326.594869,-1258.350101,919.314598
1319.787018,-9622.677246,-962.267725,229.828649
1319.787338,-10140.821405,148.041188,1455.581446
1319.787659,-9992.780217,1924.535449,995.924147
1319.787980,-9474.636058,2664.741391,1991.848295
1319.788301,-10140.821405,74.020594,1685.410096
1319.788622,-9622.677246,-148.041188,2145.067394
1319.788942,-11325.150913,-2072.576638,1225.752797
1319.789263,-10362.883188,-1554.432478,1149.143247
1319.789584,-9326.594869,1332.370696,2604.724693
1319.789905,-11399.171507,-148.041188,2298.286494
1319.790225,-8364.327145,592.164754,2298.286494
1319.790546,-10362.883188,0.000000,2604.724693
1319.790867,-8364.327145,-1036.288319,536.266849
1319.791188,-9622.677246,-2368.659014,-306.438199
1319.791508,-9178.553681,-518.144159,612.876398
1319.791829,-9178.553681,1258.350101,995.924147
1319.792150,-9992.780217,296.082377,2068.457845
1319.792471,-8882.471304,148.041188,1608.800546
1319.792792,-9474.636058,-1110.308913,536.266849
1319.793112,-9548.656652,-1184.329507,0.000000
1319.793433,-8068.244768,148.041188,-383.047749
1319.793754,-10510.924376,1406.391290,1608.800546
1319.794075,-8882.471304,1036.288319,919.314598
1319.794395,-9326.594869,0.000000,306.438199
1319.794716,-9548.656652,-1628.453072,995.924147
1319.795037,-9030.512492,-3034.844362,842.705048
1319.795358,-9400.615463,-1776.494261,306.438199
1319.795678,-9474.636058,370.102971,229.828649
1319.795999,-10140.821405,2220.617826,1685.410096
1319.796320,-10658.965565,0.000000,2298.286494
1319.796641,-8660.409521,-962.267725,1302.362347
1319.796961,-9696.697840,-3552.988522,76.609550
1319.797282,-9104.533087,-2368.659014,-1149.143247
1319.797603,-9770.718434,444.123565,842.705048
1319.797924,-10881.027347,1036.288319,1991.848295
1319.798245,-8438.347739,2294.638420,459.657299
1319.798565,-9548.656652,1480.411884,766.095498
1319.798886,-10214.842000,-148.041188,612.876398
1319.799207,-11621.233289,-2442.679609,-842.705048
1319.799528,-9178.553681,0.000000,1302.362347
1319.799848,-11769.274478,0.000000,689.485948
1319.800169,-9622.677246,1998.556043,2374.896044
1319.800490,-10510.924376,-222.061783,1378.971896
1319.800811,-10066.800811,-148.041188,2374.896044
1319.801131,-8734.430116,-1776.494261,0.000000
1319.801452,-10288.862594,-1480.411884,1225.752797
1319.801773,-8956.491898,0.000000,1915.238745
1319.802094,-9178.553681,0.000000,1225.752797
1319.802415,-9474.636058,222.061783,2298.286494
1319.802735,-7920.203579,-222.061783,1608.800546
1319.803056,-10214.842000,-2516.700203,1072.533697
1319.803377,-10140.821405,-1850.514855,1072.533697
1319.803698,-9104.533087,-444.123565,459.657299
1319.804018,-9844.739029,814.226536,1685.410096
1319.804339,-9992.780217,1258.350101,2834.553343
1319.804660,-8956.491898,-148.041188,2298.286494
1319.804981,-8808.450710,-1554.432478,1838.629195
1319.805301,-9918.759623,-2960.823768,536.266849
1319.805622,-8586.388927,-1924.535449,383.047749
1319.805943,-9696.697840,-1184.329507,1225.752797
1319.806264,-9400.615463,370.102971,1685.410096
1319.806584,-9326.594869,444.123565,1762.019645
1319.806905,-9918.759623,-888.247130,1838.629195
1319.807226,-9844.739029,-518.144159,1915.238745
1319.807547,-9992.780217,-2442.679609,0.000000
1319.807868,-9178.553681,148.041188,536.266849
1319.808188,-10362.883188,1332.370696,1225.752797
1319.808509,-8956.491898,1628.453072,1608.800546
1319.808830,-9030.512492,-222.061783,459.657299
1319.809151,-9326.594869,370.102971,1072.533697
1319.809471,-10510.924376,-1110.308913,229.828649
1319.809792,-10066.800811,0.000000,1302.362347
1319.810113,-9474.636058,296.082377,2145.067394
1319.810434,-9622.677246,444.123565,1838.629195
1319.810754,-10140.821405,814.226536,2911.162892
1319.811075,-10510.924376,-518.144159,3677.258390
1319.811396,-11029.068536,-1998.556043,3217.601092
1319.811717,-10214.842000,-2146.597232,2221.676944
1319.812038,-10140.821405,-444.123565,1455.581446
1319.812358,-9770.718434,1110.308913,842.705048
1319.812679,-8808.450710,1998.556043,612.876398
1319.813000,-7254.018232,518.144159,-1072.533697
1319.813321,-7328.038826,296.082377,-2068.457845
1319.813641,-9770.718434,-2516.700203,-2145.067394
1319.813962,-9030.512492,-740.205942,-612.876398
1319.814283,-10881.027347,-1332.370696,1072.533697
1319.814604,-9252.574275,-518.144159,766.095498
1319.814924,-9844.739029,0.000000,1225.752797
1319.815245,-9474.636058,-666.185348,766.095498
1319.815566,-9992.780217,-1184.329507,306.438199
1319.815887,-9770.718434,-962.267725,536.266849
1319.816208,-10658.965565,-296.082377,1149.143247
1319.816528,-11029.068536,148.041188,1532.190996
1319.816849,-10288.862594,-814.226536,1838.629195
1319.817170,-9474.636058,-1628.453072,689.485948
1319.817491,-9326.594869,-1332.370696,-536.266849
1319.817811,-9030.512492,-74.020594,-383.047749
1319.818132,-8660.409521,1110.308913,689.485948
1319.818453,-9770.718434,740.205942,1991.848295
1319.818774,-10140.821405,-370.102971,1532.190996
1319.819094,-9696.697840,-518.144159,1455.581446
1319.819415,-9992.780217,-1258.350101,1915.238745
1319.819736,-9992.780217,0.000000,995.924147
1319.820057,-9548.656652,518.144159,995.924147
1319.820377,-9178.553681,1110.308913,536.266849
1319.820698,-8438.347739,1036.288319,0.000000
1319.821019,-8734.430116,-1036.288319,-766.095498
1319.821340,-8734.430116,-592.164754,842.705048
1319.821661,-10362.883188,-1702.473667,536.266849
1319.821981,-9918.759623,0.000000,1685.410096
1319.822302,-11177.109724,296.082377,3140.991542
1319.822623,-10658.965565,296.082377,4136.915689
1319.822944,-9844.739029,-1406.391290,3447.429741
1319.823264,-9918.759623,-1628.453072,2911.162892
1319.823585,-9474.636058,-1554.432478,1991.848295
1319.823906,-9992.780217,-1480.411884,766.095498
1319.824227,-8956.491898,-518.144159,383.047749
1319.824547,-8512.368333,740.205942,459.657299
1319.824868,-9696.697840,1258.350101,919.314598
1319.825189,-9548.656652,148.041188,1915.238745
1319.825510,-9548.656652,-962.267725,1302.362347
1319.825831,-10436.903782,-2886.803174,1685.410096
1319.826151,-10066.800811,-2368.659014,1378.971896
1319.826472,-10066.800811,-1036.288319,2987.772442
1319.826793,-9992.780217,-962.267725,2451.505594
1319.827114,-9622.677246,1332.370696,2298.286494
1319.827434,-9474.636058,0.000000,1685.410096
1319.827755,-9696.697840,-1332.370696,842.705048
1319.828076,-9178.553681,-1998.556043,0.000000
1319.828397,-9474.636058,-1554.432478,-306.438199
1319.828717,-7920.203579,962.267725,1762.019645
1319.829038,-9622.677246,962.267725,612.876398
1319.829359,-9474.636058,962.267725,1608.800546
1319.829680,-9992.780217,222.061783,842.705048
1319.830000,-9918.759623,-740.205942,0.000000
1319.830321,-9548.656652,-1332.370696,76.609550
1319.830642,-9696.697840,-222.061783,995.924147
1319.830963,-9548.656652,74.020594,1378.971896
1319.831284,-8956.491898,-518.144159,1149.143247
1319.831604,-8956.491898,-296.082377,383.047749
1319.831925,-10140.821405,-592.164754,-306.438199
1319.832246,-9400.615463,-148.041188,-919.314598
1319.832567,-10214.842000,592.164754,612.876398
1319.832887,-10066.800811,1036.288319,689.485948
1319.833208,-9770.718434,1554.432478,536.266849
1319.833529,-9992.780217,74.020594,919.314598
1319.833850,-9326.594869,-518.144159,459.657299
1319.834170,-9992.780217,-1554.432478,229.828649
1319.834491,-10066.800811,-370.102971,766.095498
1319.834812,-10955.047942,148.041188,1762.019645
1319.835133,-9622.677246,0.000000,1225.752797
1319.835454,-9326.594869,-666.185348,1302.362347
1319.835774,-9548.656652,-1480.411884,1149.143247
1319.836095,-9622.677246,-1924.535449,153.219100
1319.836416,-9770.718434,-1036.288319,0.000000
1319.836737,-9918.759623,1554.432478,1149.143247
1319.837057,-10807.006753,1628.453072,2221.676944
1319.837378,-9622.677246,1258.350101,2604.724693
1319.837699,-10362.883188,-888.247130,1915.238745
1319.838020,-9474.636058,-1110.308913,689.485948
1319.838340,-9474.636058,0.000000,306.438199
1319.838661,-9622.677246,1036.288319,1455.581446
1319.838982,-9622.677246,888.247130,2068.457845
1319.839303,-8808.450710,-222.061783,1302.362347
1319.839624,-8438.347739,148.041188,766.095498
1319.839944,-10066.800811,-1850.514855,1685.410096
1319.840265,-8956.491898,-888.247130,612.876398
1319.840586,-10140.821405,-518.144159,1838.629195
1319.840907,-8068.244768,1406.391290,459.657299
1319.841227,-9326.594869,1776.494261,2145.067394
1319.841548,-9474.636058,0.000000,2528.115143
1319.841869,-9178.553681,-1036.288319,2451.505594
1319.842190,-9770.718434,-2220.617826,1378.971896
1319.842510,-9178.553681,-2368.659014,2221.676944
1319.842831,-10066.800811,-740.205942,2145.067394
1319.843152,-10436.903782,-444.123565,2681.334243
1319.843473,-8438.347739,-1924.535449,1838.629195
1319.843793,-8290.306550,-1406.391290,842.705048
1319.844114,-9400.615463,-2368.659014,0.000000
1319.844435,-8956.491898,-2146.597232,-1532.190996
1319.844756,-8364.327145,296.082377,-1225.752797
1319.845077,-9622.677246,2146.597232,0.000000
1319.845397,-9326.594869,2294.638420,1532.190996
1319.845718,-10066.800811,74.020594,919.314598
1319.846039,-11251.130318,-296.082377,1532.190996
1319.846360,-10881.027347,-1850.514855,919.314598
1319.846680,-10584.944971,-962.267725,1838.629195
1319.847001,-11251.130318,0.000000,1991.848295
1319.847322,-9474.636058,1110.308913,1378.971896
1319.847643,-9252.574275,74.020594,0.000000
1319.847963,-8808.450710,-888.247130,689.485948
1319.848284,-9104.533087,-2220.617826,-536.266849
1319.848605,-10066.800811,-2146.597232,1072.533697
1319.848926,-10066.800811,814.226536,766.095498
1319.849247,-9992.780217,1998.556043,1762.019645
1319.849567,-10807.006753,2072.576638,1915.238745
1319.849888,-9474.636058,1924.535449,3064.381992
1319.850209,-9696.697840,-1554.432478,919.314598
1319.850530,-8512.368333,-1258.350101,536.266849
1319.850850,-9252.574275,-1776.494261,766.095498
1319.851171,-8956.491898,-666.185348,1378.971896
1319.851492,-9622.677246,-962.267725,2374.896044
1319.851813,-8882.471304,-74.020594,1915.238745
1319.852133,-8216.285956,0.000000,1608.800546
1319.852454,-10066.800811,-2590.720797,1608.800546
1319.852775,-8734.430116,-2368.659014,536.266849
1319.853096,-9770.718434,-1332.370696,0.000000
1319.853416,-9326.594869,962.267725,1455.581446
1319.853737,-9474.636058,222.061783,1991.848295
1319.854058,-8956.491898,222.061783,1915.238745
1319.854379,-9252.574275,-1480.411884,153.219100
1319.854700,-8586.388927,-296.082377,-919.314598
1319.855020,-9400.615463,0.000000,229.828649
1319.855341,-9844.739029,148.041188,153.219100
1319.855662,-9030.512492,444.123565,-383.047749
1319.855983,-8438.347739,1628.453072,-689.485948
1319.856303,-10140.821405,1998.556043,1225.752797
1319.856624,-10807.006753,888.247130,1302.362347
1319.856945,-10436.903782,-888.247130,459.657299
1319.857266,-10362.883188,-888.247130,0.000000
1319.857586,-10214.842000,888.247130,-306.438199
1319.857907,-10436.903782,1110.308913,306.438199
1319.858228,-9696.697840,1702.473667,689.485948
1319.858549,-8438.347739,666.185348,-995.924147
1319.858870,-8956.491898,518.144159,-2068.457845
1319.859190,-9844.739029,1998.556043,-612.876398
1319.859511,-10584.944971,2072.576638,689.485948
1319.859832,-11029.068536,592.164754,1685.410096
1319.860153,-9252.574275,0.000000,306.438199
1319.860473,-9474.636058,-518.144159,-1302.362347
1319.860794,-9252.574275,888.247130,-689.485948
1319.861115,-9918.759623,1776.494261,-1838.629195
1319.861436,-8882.471304,3849.070898,-1762.019645
1319.861756,-10436.903782,4589.276840,-766.095498
1319.862077,-11103.089130,3108.864956,612.876398
1319.862398,-11103.089130,740.205942,689.485948
1319.862719,-10510.924376,-1110.308913,229.828649
1319.863039,-10807.006753,-1332.370696,-766.095498
1319.863360,-9474.636058,148.041188,-1225.752797
1319.863681,-8586.388927,2664.741391,-1149.143247
1319.864002,-7846.182985,3849.070898,-383.047749
1319.864323,-8364.327145,3034.844362,-1378.971896
1319.864643,-8364.327145,1628.453072,-1378.971896
1319.864964,-8956.491898,444.123565,-1838.629195
1319.865285,-9992.780217,518.144159,-1149.143247
1319.865606,-10140.821405,962.267725,689.485948
1319.865926,-9178.553681,1924.535449,-383.047749
1319.866247,-9474.636058,2886.803174,-1149.143247
1319.866568,-9844.739029,3256.906145,-766.095498
1319.866889,-9474.636058,3330.926739,-229.828649
1319.867209,-10807.006753,1702.473667,-459.657299
1319.867530,-10584.944971,1258.350101,-536.266849
1319.867851,-10510.924376,888.247130,153.219100
1319.868172,-10066.800811,222.061783,-842.705048
1319.868493,-8660.409521,1406.391290,-919.314598
1319.868813,-9326.594869,2590.720797,0.000000
1319.869134,-9770.718434,2516.700203,0.000000
1319.869455,-9104.533087,1924.535449,-995.924147
1319.869776,-9104.533087,1554.432478,-1685.410096
1319.870096,-9178.553681,1554.432478,-2068.457845
1319.870417,-9548.656652,2072.576638,-689.485948
1319.870738,-10140.821405,1258.350101,-919.314598
1319.871059,-9104.533087,962.267725,-2987.772442
1319.871379,-9770.718434,3330.926739,-2451.505594
1319.871700,-11473.192101,4737.318029,0.000000
1319.872021,-11843.295072,3849.070898,919.314598
1319.872342,-10658.965565,2590.720797,766.095498
1319.872663,-10066.800811,1702.473667,0.000000
1319.872983,-9770.718434,1702.473667,-306.438199
1319.873304,-9992.780217,444.123565,842.705048
1319.873625,-8734.430116,-1480.411884,-383.047749
1319.873946,-7476.080014,0.000000,-2451.505594
1319.874266,-7994.224174,1702.473667,-3064.381992
1319.874587,-8808.450710,2812.782580,-1532.190996
1319.874908,-9252.574275,2368.659014,-1149.143247
1319.875229,-10140.821405,2072.576638,-1838.629195
1319.875549,-10436.903782,2960.823768,-1915.238745
1319.875870,-10732.986159,3330.926739,0.000000
1319.876191,-10732.986159,1924.535449,229.828649
1319.876512,-10362.883188,1110.308913,1915.238745
1319.876832,-9770.718434,222.061783,-2451.505594
1319.877153,-9178.553681,1258.350101,-3294.210641
1319.877474,-8808.450710,2442.679609,-2987.772442
1319.877795,-9178.553681,3256.906145,-1915.238745
1319.878116,-9030.512492,3330.926739,-1302.362347
1319.878436,-9548.656652,1702.473667,-612.876398
1319.878757,-9178.553681,0.000000,-1225.752797
1319.879078,-9844.739029,-370.102971,0.000000
1319.879399,-10510.924376,-296.082377,1302.362347
1319.879719,-10288.862594,-370.102971,919.314598
1319.880040,-9770.718434,0.000000,459.657299
1319.880361,-8808.450710,814.226536,-2068.457845
1319.880682,-8660.409521,2442.679609,-3600.648841
1319.881002,-9400.615463,4589.276840,-2451.505594
1319.881323,-9474.636058,4959.379811,-2221.676944
1319.881644,-10140.821405,4663.297435,-2068.457845
1319.881965,-10362.883188,3552.988522,-2221.676944
1319.882286,-10658.965565,1628.453072,-1532.190996
1319.882606,-11103.089130,962.267725,0.000000
1319.882927,-11251.130318,962.267725,689.485948
1319.883248,-10214.842000,1998.556043,306.438199
1319.883569,-9696.697840,1924.535449,153.219100
1319.883889,-9030.512492,814.226536,0.000000
1319.884210,-8882.471304,-740.205942,-459.657299
1319.884531,-8660.409521,-1184.329507,-1608.800546
1319.884852,-8586.388927,0.000000,-1838.629195
1319.885173,-8956.491898,1554.432478,-2145.067394
1319.885493,-9548.656652,3404.947333,-1302.362347
1319.885814,-9844.739029,4663.297435,-1072.533697
1319.886135,-10436.903782,4959.379811,-842.705048
1319.886456,-10584.944971,4145.153275,-459.657299
1319.886776,-10584.944971,3182.885551,-153.219100
1319.887097,-10436.903782,1406.391290,-229.828649
1319.887418,-9474.636058,444.123565,-383.047749
1319.887739,-9326.594869,-296.082377,-76.609550
1319.888060,-9104.533087,-222.061783,-306.438199
1319.888380,-8808.450710,370.102971,0.000000
1319.888701,-9178.553681,444.123565,0.000000
1319.889022,-9770.718434,1184.329507,229.828649
1319.889343,-9178.553681,888.247130,-536.266849
1319.889664,-8956.491898,1406.391290,-1532.190996
1319.889984,-8882.471304,2072.576638,-2298.286494
1319.890305,-9326.594869,3108.864956,-2528.115143
1319.890626,-9844.739029,3923.091493,-2451.505594
1319.890947,-10066.800811,3849.070898,-2451.505594
1319.891268,-10288.862594,3997.112087,-2681.334243
1319.891588,-10658.965565,3552.988522,-2298.286494
1319.891909,-11029.068536,3552.988522,-1302.362347
1319.892230,-10510.924376,2368.659014,153.219100
1319.892551,-10214.842000,1628.453072,229.828649
1319.892872,-9400.615463,296.082377,0.000000
1319.893192,-9326.594869,-1036.288319,0.000000
1319.893513,-8882.471304,-1184.329507,-306.438199
1319.893834,-8734.430116,-296.082377,-766.095498
1319.894155,-8586.388927,888.247130,-842.705048
1319.894476,-8882.471304,1924.535449,-842.705048
1319.894796,-9252.574275,2812.782580,-1149.143247
1319.895117,-9844.739029,3256.906145,-2528.115143
1319.895438,-10288.862594,3330.926739,-1225.752797
1319.895759,-10732.986159,3701.029710,-919.314598
1319.896080,-10658.965565,3404.947333,-1149.143247
1319.896400,-10658.965565,3034.844362,-1225.752797
1319.896721,-10362.883188,3256.906145,-383.047749
1319.897042,-10288.862594,2516.700203,-766.095498
1319.897363,-9918.759623,1480.411884,-536.266849
1319.897684,-9770.718434,592.164754,-383.047749
1319.898004,-9696.697840,-370.102971,-306.438199
1319.898325,-8808.450710,-888.247130,-995.924147
1319.898646,-9104.533087,0.000000,-612.876398
1319.898967,-8808.450710,1036.288319,-1149.143247
1319.899288,-8956.491898,1998.556043,-1608.800546
1319.899608,-9030.512492,3034.844362,-2298.286494
1319.899929,-9696.697840,4145.153275,-2451.505594
1319.900250,-9474.636058,4293.194464,-2221.676944
1319.900571,-9918.759623,3997.112087,-1762.019645
1319.900892,-10214.842000,3108.864956,-1378.971896
1319.901212,-10288.862594,2294.638420,-1072.533697
1319.901533,-10584.944971,1258.350101,-995.924147
1319.901854,-10288.862594,814.226536,153.219100
1319.902175,-9992.780217,296.082377,229.828649
1319.902495,-9696.697840,0.000000,306.438199
1319.902816,-9252.574275,222.061783,536.266849
1319.903137,-8956.491898,592.164754,0.000000
1319.903458,-8512.368333,444.123565,-459.657299
1319.903779,-8586.388927,888.247130,-612.876398
1319.904099,-8660.409521,962.267725,-1225.752797
1319.904420,-8808.450710,1702.473667,612.876398
1319.904741,-9474.636058,1924.535449,459.657299
1319.905062,-10436.903782,1924.535449,612.876398
1319.905383,-10214.842000,1406.391290,995.924147
1319.905703,-10510.924376,740.205942,919.314598
1319.906024,-10584.944971,814.226536,842.705048
1319.906345,-9992.780217,-444.123565,1149.143247
1319.906666,-9474.636058,-592.164754,1149.143247
1319.906987,-9178.553681,-740.205942,919.314598
1319.907307,-8660.409521,-666.185348,766.095498
1319.907628,-9326.594869,-444.123565,766.095498
1319.907949,-9400.615463,-148.041188,1225.752797
1319.908270,-9548.656652,740.205942,1762.019645
