#time,accel_x,accel_y,accel_z
993.697132,-9548.656652,-888.247130,2528.115143
993.697453,-9622.677246,-444.123565,1072.533697
993.697774,-9622.677246,-296.082377,919.314598
993.698095,-9622.677246,-518.144159,1302.362347
993.698415,-9474.636058,-370.102971,995.924147
993.698736,-9622.677246,-296.082377,842.705048
993.699057,-9548.656652,-444.123565,766.095498
993.699378,-9548.656652,-296.082377,919.314598
993.699699,-9696.697840,-296.082377,1072.533697
993.700019,-9696.697840,-148.041188,1302.362347
993.700340,-9474.636058,-222.061783,1302.362347
993.700661,-9474.636058,-370.102971,1302.362347
993.700982,-9548.656652,-444.123565,1149.143247
993.701303,-9548.656652,0.000000,383.047749
993.701623,-9622.677246,-222.061783,842.705048
993.701944,-9622.677246,-666.185348,995.924147
993.702265,-9474.636058,-592.164754,766.095498
993.702586,-9474.636058,-592.164754,612.876398
993.702907,-9844.739029,-518.144159,612.876398
993.703228,-9548.656652,-370.102971,689.485948
993.703548,-9696.697840,-296.082377,919.314598
993.703869,-9548.656652,-148.041188,1225.752797
993.704190,-9474.636058,-592.164754,1608.800546
993.704511,-9696.697840,-666.185348,1072.533697
993.704832,-9548.656652,-592.164754,1072.533697
993.705152,-9548.656652,-222.061783,1302.362347
993.705473,-9622.677246,-222.061783,1302.362347
993.705794,-9548.656652,-814.226536,766.095498
993.706115,-9474.636058,-888.247130,842.705048
993.706436,-9252.574275,-1184.329507,0.000000
993.706756,-9252.574275,-1036.288319,383.047749
993.707077,-9844.739029,-592.164754,459.657299
993.707398,-9918.759623,-666.185348,842.705048
993.707719,-9474.636058,-962.267725,0.000000
993.708040,-9770.718434,-888.247130,0.000000
993.708360,-9548.656652,-740.205942,-153.219100
993.708681,-9844.739029,-814.226536,153.219100
993.709002,-9844.739029,-888.247130,0.000000
993.709323,-9474.636058,-1036.288319,-229.828649
993.709644,-9400.615463,148.041188,-1072.533697
993.709964,-9474.636058,-2072.576638,-919.314598
993.710285,-9178.553681,-2368.659014,-1072.533697
993.710606,-9252.574275,-2590.720797,-1072.533697
993.710927,-9252.574275,-2738.761985,-1532.190996
993.711248,-9104.533087,-2664.741391,-2145.067394
993.711568,-9474.636058,-2368.659014,-2451.505594
993.711889,-9696.697840,-2368.659014,-3064.381992
993.712210,-9474.636058,-2516.700203,-3600.648841
993.712531,-9696.697840,-3108.864956,-3907.087040
993.712852,-9474.636058,-3404.947333,-4519.963438
993.713172,-9844.739029,-3478.967927,-4136.915689
993.713493,-9548.656652,-3108.864956,-3600.648841
993.713814,-9918.759623,-4367.215058,-3830.477490
993.714135,-9474.636058,-3849.070898,-2987.772442
993.714456,-9696.697840,-4663.297435,-3294.210641
993.714776,-9400.615463,-4959.379811,-2681.334243
993.715097,-9474.636058,-4811.338623,-2604.724693
993.715418,-9474.636058,-4737.318029,-2451.505594
993.715739,-9474.636058,-4441.235652,-2681.334243
993.716060,-9252.574275,-4145.153275,-2757.943793
993.716380,-9548.656652,-3627.009116,-2451.505594
993.716701,-9696.697840,-3182.885551,-2298.286494
993.717022,-9844.739029,-3256.906145,-2451.505594
993.717343,-9992.780217,-3552.988522,-2374.896044
993.717664,-9696.697840,-3330.926739,-2221.676944
993.717984,-9844.739029,-3627.009116,-1991.848295
993.718305,-10140.821405,-3330.926739,-383.047749
993.718626,-9844.739029,-3478.967927,536.266849
993.718947,-10362.883188,-3330.926739,1378.971896
993.719268,-10214.842000,-3330.926739,1685.410096
993.719588,-9844.739029,-3330.926739,1608.800546
993.719909,-9696.697840,-3182.885551,1455.581446
993.720230,-9400.615463,-3108.864956,536.266849
993.720551,-8734.430116,-2886.803174,229.828649
993.720872,-8142.265362,-2664.741391,-842.705048
993.721192,-8882.471304,-3182.885551,-1072.533697
993.721513,-8586.388927,-2960.823768,-1532.190996
993.721834,-9992.780217,-2442.679609,-612.876398
993.722155,-10214.842000,-2368.659014,76.609550
993.722476,-10436.903782,-3034.844362,0.000000
993.722796,-10732.986159,-3478.967927,153.219100
993.723117,-10066.800811,-3627.009116,229.828649
993.723438,-10066.800811,-3330.926739,612.876398
993.723759,-10436.903782,-2368.659014,459.657299
993.724080,-9104.533087,-1628.453072,536.266849
993.724400,-8956.491898,-444.123565,689.485948
993.724721,-9252.574275,0.000000,995.924147
993.725042,-9474.636058,-222.061783,459.657299
993.725363,-9400.615463,-592.164754,306.438199
993.725684,-8808.450710,-888.247130,-383.047749
993.726004,-8882.471304,-1554.432478,-1915.238745
993.726325,-8660.409521,-2146.597232,-2374.896044
993.726646,-9178.553681,-1850.514855,-2911.162892
993.726967,-9474.636058,-2294.638420,-3370.820191
993.727288,-9844.739029,-2442.679609,-3830.477490
993.727608,-10362.883188,-2220.617826,-4290.134789
993.727929,-10807.006753,-1924.535449,-4749.792088
993.728250,-10214.842000,-1776.494261,-2757.943793
993.728571,-10066.800811,-1776.494261,-1915.238745
993.728892,-10214.842000,-1776.494261,-1149.143247
993.729212,-9844.739029,-1850.514855,0.000000
993.729533,-9622.677246,-1258.350101,-1302.362347
993.729854,-9252.574275,-444.123565,-1608.800546
993.730175,-9104.533087,444.123565,-2298.286494
993.730496,-8734.430116,888.247130,-2374.896044
993.730816,-8808.450710,370.102971,-2987.772442
993.731137,-8586.388927,-666.185348,-2987.772442
993.731458,-9104.533087,-1998.556043,-3370.820191
993.731779,-9770.718434,-2664.741391,-2911.162892
993.732100,-10436.903782,-2072.576638,-1225.752797
993.732420,-10584.944971,-962.267725,-153.219100
993.732741,-11695.253884,-814.226536,842.705048
993.733062,-11769.274478,-1406.391290,766.095498
993.733383,-11103.089130,-2072.576638,995.924147
993.733704,-9770.718434,-2738.761985,-689.485948
993.734024,-8956.491898,-2368.659014,-842.705048
993.734345,-8956.491898,-3330.926739,-306.438199
993.734666,-7772.162391,-3478.967927,-1302.362347
993.734987,-7624.121203,-3923.091493,-1532.190996
993.735308,-7994.224174,-3997.112087,-2068.457845
993.735628,-8438.347739,-3330.926739,-612.876398
993.735949,-9770.718434,-2886.803174,1225.752797
993.736270,-10807.006753,-3034.844362,2757.943793
993.736591,-10732.986159,-4219.173869,1149.143247
993.736912,-10584.944971,-4293.194464,842.705048
993.737232,-9992.780217,-4145.153275,383.047749
993.737553,-10288.862594,-4367.215058,229.828649
993.737874,-9622.677246,-3330.926739,-306.438199
993.738195,-8586.388927,-3182.885551,-1991.848295
993.738516,-8364.327145,-1554.432478,-1685.410096
993.738836,-9178.553681,-370.102971,0.000000
993.739157,-10436.903782,-1628.453072,842.705048
993.739478,-9252.574275,-3108.864956,-229.828649
993.739799,-8586.388927,-3627.009116,-2068.457845
993.740120,-8364.327145,-4219.173869,-2145.067394
993.740440,-8660.409521,-2812.782580,-1762.019645
993.740761,-9918.759623,-4367.215058,-2374.896044
993.741082,-8808.450710,-3552.988522,-4060.306139
993.741403,-9030.512492,-2146.597232,-4443.353888
993.741724,-10436.903782,-1702.473667,-3753.867940
993.742045,-11473.192101,-2294.638420,-1378.971896
993.742365,-11843.295072,-3552.988522,-1302.362347
993.742686,-10288.862594,-2738.761985,-1991.848295
993.743007,-10658.965565,-3404.947333,-2221.676944
993.743328,-9696.697840,-2812.782580,-1302.362347
993.743649,-9918.759623,-2812.782580,-842.705048
993.743969,-9770.718434,-2072.576638,-919.314598
993.744290,-8956.491898,-1406.391290,-1302.362347
993.744611,-9104.533087,-1924.535449,-1991.848295
993.744932,-9178.553681,-1998.556043,-1378.971896
993.745253,-9252.574275,-1628.453072,-1915.238745
993.745573,-8956.491898,-1702.473667,-1915.238745
993.745894,-8512.368333,-2442.679609,-3217.601092
993.746215,-8734.430116,-2368.659014,-2681.334243
993.746536,-10584.944971,-2368.659014,-1225.752797
993.746857,-10881.027347,-2960.823768,-536.266849
993.747177,-10584.944971,-3034.844362,-1149.143247
993.747498,-10510.924376,-2368.659014,-1915.238745
993.747819,-10140.821405,-1924.535449,-1915.238745
993.748140,-9474.636058,-1184.329507,-919.314598
993.748461,-10214.842000,-1184.329507,1991.848295
993.748781,-8882.471304,-888.247130,3370.820191
993.749102,-11621.233289,-6513.812290,689.485948
993.749423,-6365.771101,-592.164754,842.705048
993.749744,-13027.624579,-5921.647536,-536.266849
993.750065,-5551.544565,3034.844362,2451.505594
993.750385,-8438.347739,-962.267725,-1532.190996
993.750706,-7624.121203,2072.576638,383.047749
993.751027,-8364.327145,-1258.350101,-2757.943793
993.751348,-10066.800811,-3404.947333,-766.095498
993.751669,-12435.459826,-2516.700203,1455.581446
993.751989,-10214.842000,-2886.803174,-383.047749
993.752310,-13693.809927,-518.144159,1072.533697
993.752631,-9474.636058,-592.164754,1149.143247
993.752952,-10955.047942,-1406.391290,-1762.019645
993.753273,-10140.821405,-3182.885551,-1455.581446
993.753594,-7846.182985,-3256.906145,-3830.477490
993.753915,-8216.285956,-3923.091493,-3600.648841
993.754236,-8660.409521,-2812.782580,-4213.525239
993.754557,-8216.285956,-2368.659014,-1302.362347
993.754878,-9326.594869,-1480.411884,153.219100
993.755199,-11029.068536,-2886.803174,612.876398
993.755520,-9474.636058,-2590.720797,-459.657299
993.755840,-10584.944971,-3034.844362,-229.828649
993.756161,-9696.697840,-2294.638420,-919.314598
993.756482,-9696.697840,-1110.308913,-229.828649
993.756803,-9622.677246,-1702.473667,-1149.143247
993.757124,-8882.471304,-2664.741391,-2221.676944
993.757445,-8142.265362,-2146.597232,-3370.820191
993.757766,-9252.574275,-3182.885551,-4213.525239
993.758087,-8364.327145,-1554.432478,-1991.848295
993.758408,-10214.842000,-1480.411884,-689.485948
993.758729,-10436.903782,-1554.432478,612.876398
993.759050,-9474.636058,-2590.720797,0.000000
993.759371,-10288.862594,-2368.659014,689.485948
993.759692,-10362.883188,-1702.473667,689.485948
993.760013,-8364.327145,-888.247130,1991.848295
993.760334,-9770.718434,-518.144159,2374.896044
993.760655,-9030.512492,-1924.535449,0.000000
993.760975,-8512.368333,-1628.453072,-1225.752797
993.761296,-9400.615463,-1184.329507,76.609550
993.761617,-8660.409521,-1110.308913,-995.924147
993.761938,-9474.636058,-1110.308913,-306.438199
993.762259,-10362.883188,-1850.514855,-536.266849
993.762580,-9474.636058,-2220.617826,-2145.067394
993.762901,-10288.862594,-1998.556043,-2374.896044
993.763222,-9992.780217,-2072.576638,-689.485948
993.763543,-10140.821405,-888.247130,-229.828649
993.763864,-11621.233289,-592.164754,2298.286494
993.764185,-9400.615463,-3108.864956,995.924147
993.764506,-8512.368333,-1702.473667,612.876398
993.764827,-10658.965565,-1776.494261,2068.457845
993.765148,-9770.718434,0.000000,2834.553343
993.765469,-8586.388927,1258.350101,4749.792088
993.765789,-8808.450710,296.082377,2834.553343
993.766110,-8142.265362,-592.164754,383.047749
993.766431,-9400.615463,-592.164754,0.000000
993.766752,-9104.533087,740.205942,919.314598
993.767073,-9474.636058,1850.514855,1838.629195
993.767394,-10140.821405,1850.514855,2681.334243
993.767715,-9400.615463,0.000000,1072.533697
993.768036,-10732.986159,-740.205942,1072.533697
993.768357,-9992.780217,-1258.350101,536.266849
993.768678,-10066.800811,-592.164754,2451.505594
993.768999,-11325.150913,-592.164754,3370.820191
993.769320,-9178.553681,0.000000,1915.238745
993.769641,-9770.718434,-666.185348,842.705048
993.769962,-7624.121203,148.041188,1378.971896
993.770283,-7920.203579,0.000000,1302.362347
993.770604,-9548.656652,518.144159,2451.505594
993.770924,-9178.553681,444.123565,1915.238745
993.771245,-8438.347739,1776.494261,153.219100
993.771566,-10510.924376,0.000000,1149.143247
993.771887,-9400.615463,-740.205942,766.095498
993.772208,-10362.883188,-444.123565,2068.457845
993.772529,-11399.171507,-2072.576638,1149.143247
993.772850,-8734.430116,-888.247130,-76.609550
993.773171,-10955.047942,-1554.432478,229.828649
993.773492,-9770.718434,0.000000,153.219100
993.773813,-9622.677246,1776.494261,2068.457845
993.774134,-11177.109724,1110.308913,2068.457845
993.774455,-7920.203579,-962.267725,-153.219100
993.774776,-9252.574275,-2072.576638,-1225.752797
993.775097,-9400.615463,-1184.329507,689.485948
993.775418,-9030.512492,-222.061783,1608.800546
993.775739,-11103.089130,518.144159,2221.676944
993.776059,-9696.697840,-888.247130,536.266849
993.776380,-8808.450710,0.000000,-766.095498
993.776701,-9548.656652,-962.267725,153.219100
993.777022,-9622.677246,222.061783,536.266849
993.777343,-10584.944971,888.247130,2451.505594
993.777664,-10066.800811,-592.164754,1149.143247
993.777985,-9178.553681,-888.247130,-1762.019645
993.778306,-9992.780217,-1554.432478,-229.828649
993.778627,-9400.615463,-222.061783,0.000000
993.778948,-10288.862594,0.000000,1378.971896
993.779269,-8956.491898,-370.102971,842.705048
993.779590,-7328.038826,-2220.617826,-919.314598
993.779911,-9770.718434,-1702.473667,-612.876398
993.780232,-8734.430116,0.000000,919.314598
993.780553,-10288.862594,444.123565,2298.286494
993.780873,-10288.862594,592.164754,4366.744339
993.781194,-9474.636058,-1702.473667,995.924147
993.781515,-9474.636058,-1628.453072,766.095498
993.781836,-9474.636058,-1332.370696,536.266849
993.782157,-9030.512492,0.000000,1225.752797
993.782478,-9474.636058,-444.123565,2298.286494
993.782799,-8882.471304,-1702.473667,0.000000
993.783120,-9178.553681,-1702.473667,-612.876398
993.783441,-9844.739029,-814.226536,0.000000
993.783762,-8808.450710,222.061783,1608.800546
993.784083,-10436.903782,370.102971,2911.162892
993.784404,-10140.821405,-148.041188,2451.505594
993.784725,-9400.615463,-148.041188,995.924147
993.785046,-10584.944971,-296.082377,2528.115143
993.785367,-9474.636058,-666.185348,2604.724693
993.785688,-10510.924376,-1332.370696,2604.724693
993.786008,-9474.636058,-888.247130,1149.143247
993.786329,-8586.388927,-1036.288319,-306.438199
993.786650,-9400.615463,814.226536,229.828649
993.786971,-10214.842000,814.226536,2681.334243
993.787292,-10214.842000,444.123565,2451.505594
993.787613,-10066.800811,0.000000,2145.067394
993.787934,-9252.574275,-1850.514855,-383.047749
993.788255,-8660.409521,-222.061783,383.047749
993.788576,-9474.636058,-888.247130,383.047749
993.788897,-9178.553681,444.123565,2068.457845
993.789218,-10288.862594,-296.082377,1762.019645
993.789539,-9178.553681,-1036.288319,766.095498
993.789860,-10436.903782,-962.267725,842.705048
993.790181,-10436.903782,0.000000,2145.067394
993.790502,-10066.800811,518.144159,3294.210641
993.790823,-9474.636058,296.082377,1455.581446
993.791143,-8660.409521,-592.164754,1072.533697
993.791464,-8068.244768,-1998.556043,-1302.362347
993.791785,-8586.388927,-444.123565,-229.828649
993.792106,-9104.533087,-518.144159,-383.047749
993.792427,-9104.533087,1258.350101,1455.581446
993.792748,-10288.862594,592.164754,842.705048
993.793069,-9030.512492,296.082377,0.000000
993.793390,-11029.068536,-592.164754,0.000000
993.793711,-10807.006753,888.247130,1838.629195
993.794032,-10288.862594,-518.144159,2374.896044
993.794353,-10807.006753,-1258.350101,2221.676944
993.794674,-9252.574275,-1702.473667,0.000000
993.794995,-9104.533087,-962.267725,-766.095498
993.795316,-9030.512492,666.185348,-536.266849
993.795637,-8956.491898,2220.617826,689.485948
993.795958,-10362.883188,1184.329507,1378.971896
993.796278,-9474.636058,-1036.288319,-153.219100
993.796599,-9178.553681,-2516.700203,-1378.971896
993.796920,-9474.636058,-1850.514855,229.828649
993.797241,-9326.594869,148.041188,1378.971896
993.797562,-10140.821405,1924.535449,2451.505594
993.797883,-10214.842000,962.267725,2374.896044
993.798204,-9104.533087,-296.082377,-383.047749
993.798525,-10066.800811,-962.267725,536.266849
993.798846,-10881.027347,-518.144159,2221.676944
993.799167,-11399.171507,-814.226536,3677.258390
993.799488,-11103.089130,-1776.494261,3294.210641
993.799809,-8956.491898,-1332.370696,229.828649
993.800130,-9474.636058,-370.102971,0.000000
993.800451,-8216.285956,1332.370696,995.924147
993.800772,-8882.471304,1776.494261,2068.457845
993.801092,-10214.842000,1776.494261,2451.505594
993.801413,-9030.512492,-888.247130,229.828649
993.801734,-9030.512492,-962.267725,459.657299
993.802055,-10362.883188,-1480.411884,2068.457845
993.802376,-10881.027347,-1406.391290,3524.039291
993.802697,-10955.047942,-1110.308913,4213.525239
993.803018,-8364.327145,-888.247130,1838.629195
993.803339,-9178.553681,-2146.597232,-1378.971896
993.803660,-8142.265362,-222.061783,-536.266849
993.803981,-8364.327145,222.061783,-306.438199
993.804302,-9400.615463,1184.329507,1455.581446
993.804623,-7772.162391,222.061783,536.266849
993.804944,-8660.409521,-2368.659014,-459.657299
993.805265,-8216.285956,-740.205942,2298.286494
993.805586,-9696.697840,-2220.617826,1915.238745
993.805907,-10807.006753,-1258.350101,4136.915689
993.806227,-10584.944971,-1480.411884,3447.429741
993.806548,-9252.574275,-296.082377,153.219100
993.806869,-9992.780217,888.247130,995.924147
993.807190,-9030.512492,1258.350101,1072.533697
993.807511,-9178.553681,444.123565,1532.190996
993.807832,-10510.924376,74.020594,1149.143247
993.808153,-7328.038826,-1850.514855,-1378.971896
993.808474,-9770.718434,-1998.556043,-383.047749
993.808795,-10584.944971,-592.164754,536.266849
993.809116,-9696.697840,444.123565,689.485948
993.809437,-10955.047942,1554.432478,2298.286494
993.809758,-9474.636058,370.102971,76.609550
993.810079,-8956.491898,-814.226536,-1378.971896
993.810400,-10510.924376,-444.123565,689.485948
993.810721,-9326.594869,148.041188,1149.143247
993.811042,-10658.965565,962.267725,2068.457845
993.811362,-10584.944971,740.205942,2528.115143
993.811683,-9474.636058,-1036.288319,919.314598
993.812004,-9474.636058,0.000000,1225.752797
993.812325,-9622.677246,-444.123565,689.485948
993.812646,-9104.533087,222.061783,1762.019645
993.812967,-10140.821405,-1480.411884,1608.800546
993.813288,-8068.244768,-2072.576638,-995.924147
993.813609,-8956.491898,-1480.411884,-1455.581446
993.813930,-9178.553681,370.102971,842.705048
993.814251,-9770.718434,1110.308913,2834.553343
993.814572,-10732.986159,518.144159,3447.429741
993.814893,-9696.697840,-1702.473667,1838.629195
993.815214,-9400.615463,-1480.411884,0.000000
993.815535,-9918.759623,74.020594,1455.581446
993.815856,-9252.574275,1554.432478,2987.772442
993.816176,-10140.821405,888.247130,3753.867940
993.816497,-8660.409521,-962.267725,1149.143247
993.816818,-7772.162391,-1850.514855,-919.314598
993.817139,-9104.533087,-1776.494261,0.000000
993.817460,-9104.533087,-370.102971,1302.362347
993.817781,-9474.636058,888.247130,5132.839837
993.818102,-9918.759623,296.082377,2528.115143
993.818423,-7698.141797,-444.123565,-459.657299
993.818744,-10214.842000,0.000000,383.047749
993.819065,-10362.883188,0.000000,1532.190996
993.819386,-10436.903782,-1110.308913,1838.629195
993.819707,-10288.862594,-1702.473667,2221.676944
993.820028,-8808.450710,-2516.700203,-383.047749
993.820349,-9770.718434,-1702.473667,-689.485948
993.820670,-9326.594869,888.247130,1225.752797
993.820991,-9918.759623,1184.329507,2374.896044
993.821311,-10436.903782,1924.535449,2528.115143
993.821632,-9474.636058,222.061783,536.266849
993.821953,-9474.636058,-1184.329507,153.219100
993.822274,-9474.636058,-1406.391290,0.000000
993.822595,-10732.986159,-1480.411884,1685.410096
993.822916,-10510.924376,-1628.453072,1838.629195
993.823237,-9770.718434,-1850.514855,-306.438199
993.823558,-9918.759623,-1332.370696,-536.266849
993.823879,-9622.677246,0.000000,383.047749
993.824200,-9252.574275,370.102971,536.266849
993.824521,-11029.068536,3182.885551,766.095498
993.824842,-8808.450710,1480.411884,-306.438199
993.825163,-8068.244768,-1332.370696,-1378.971896
993.825484,-9326.594869,-1406.391290,229.828649
993.825805,-8808.450710,-2590.720797,842.705048
993.826126,-9030.512492,-814.226536,0.000000
993.826446,-11399.171507,-592.164754,2374.896044
993.826767,-8956.491898,0.000000,153.219100
993.827088,-10140.821405,0.000000,383.047749
993.827409,-9030.512492,962.267725,1838.629195
993.827730,-9400.615463,222.061783,1685.410096
993.828051,-9622.677246,1850.514855,4903.011187
993.828372,-11251.130318,-4811.338623,-1455.581446
993.828693,-3923.091493,-962.267725,-306.438199
993.829014,-12361.439231,-962.267725,-536.266849
993.829335,-8438.347739,2294.638420,3217.601092
993.829656,-9400.615463,740.205942,1072.533697
993.829977,-11621.233289,962.267725,2911.162892
993.830298,-7254.018232,-1480.411884,-2604.724693
993.830619,-10214.842000,-1628.453072,76.609550
993.830940,-10584.944971,962.267725,4136.915689
993.831261,-9474.636058,1406.391290,2451.505594
993.831581,-10584.944971,-740.205942,3217.601092
993.831902,-8364.327145,-1554.432478,459.657299
993.832223,-8586.388927,-1258.350101,-612.876398
993.832544,-11325.150913,370.102971,1762.019645
993.832865,-10584.944971,518.144159,4136.915689
993.833186,-9030.512492,814.226536,3370.820191
993.833507,-9770.718434,-444.123565,76.609550
993.833828,-9474.636058,-1480.411884,-1225.752797
993.834149,-7994.224174,2960.823768,306.438199
993.834470,-11843.295072,1036.288319,2145.067394
993.834791,-9252.574275,1702.473667,2068.457845
993.835112,-9252.574275,-518.144159,-766.095498
993.835433,-9252.574275,-518.144159,0.000000
993.835754,-10881.027347,0.000000,1455.581446
993.836075,-9844.739029,592.164754,2911.162892
993.836395,-12287.418637,-370.102971,4903.011187
993.836716,-8290.306550,-1258.350101,2068.457845
993.837037,-10140.821405,-2368.659014,-383.047749
993.837358,-9918.759623,-518.144159,1838.629195
993.837679,-8364.327145,1036.288319,612.876398
993.838000,-9622.677246,1110.308913,1838.629195
993.838321,-8882.471304,222.061783,1608.800546
993.838642,-6735.874072,-2146.597232,-1302.362347
993.838963,-10214.842000,-2294.638420,612.876398
993.839284,-10362.883188,-1628.453072,2604.724693
993.839605,-9992.780217,-370.102971,3753.867940
993.839926,-11251.130318,-666.185348,2987.772442
993.840247,-8956.491898,0.000000,459.657299
993.840568,-8660.409521,0.000000,-1455.581446
993.840889,-8586.388927,0.000000,-1149.143247
993.841210,-8438.347739,1036.288319,153.219100
993.841530,-8290.306550,962.267725,536.266849
993.841851,-8734.430116,-1184.329507,-766.095498
993.842172,-8660.409521,-888.247130,-153.219100
993.842493,-10584.944971,0.000000,1225.752797
993.842814,-11325.150913,-740.205942,2987.772442
993.843135,-10584.944971,518.144159,3830.477490
993.843456,-10732.986159,-1184.329507,1225.752797
993.843777,-9474.636058,-1850.514855,-459.657299
993.844098,-9770.718434,148.041188,-153.219100
993.844419,-6735.874072,1406.391290,1302.362347
993.844740,-10732.986159,74.020594,76.609550
993.845061,-8364.327145,1480.411884,689.485948
993.845382,-9252.574275,-1332.370696,-766.095498
993.845703,-10732.986159,-2072.576638,-1838.629195
993.846024,-10214.842000,-740.205942,1378.971896
993.846345,-10436.903782,-222.061783,2681.334243
993.846665,-10214.842000,0.000000,2451.505594
993.846986,-9696.697840,-148.041188,1072.533697
993.847307,-9844.739029,-2220.617826,1302.362347
993.847628,-9178.553681,-1258.350101,1378.971896
993.847949,-9326.594869,-814.226536,1455.581446
993.848270,-9622.677246,296.082377,2604.724693
993.848591,-8364.327145,74.020594,1608.800546
993.848912,-9474.636058,-370.102971,919.314598
993.849233,-9474.636058,-74.020594,1149.143247
993.849554,-8882.471304,-592.164754,1378.971896
993.849875,-10362.883188,-444.123565,1532.190996
993.850196,-10066.800811,-296.082377,1608.800546
993.850517,-8956.491898,0.000000,229.828649
993.850838,-9474.636058,1036.288319,1608.800546
993.851159,-9252.574275,1554.432478,2451.505594
993.851479,-9992.780217,518.144159,2911.162892
993.851800,-9770.718434,-370.102971,2298.286494
993.852121,-8660.409521,-1554.432478,229.828649
993.852442,-9252.574275,-962.267725,383.047749
993.852763,-9474.636058,0.000000,2451.505594
993.853083,-8808.450710,74.020594,2145.067394
993.853404,-9992.780217,-518.144159,2374.896044
993.853725,-8808.450710,-1554.432478,459.657299
993.854046,-10288.862594,-2590.720797,0.000000
993.854366,-9844.739029,-592.164754,1149.143247
993.854687,-9474.636058,0.000000,2221.676944
993.855008,-10955.047942,296.082377,3217.601092
993.855329,-9104.533087,-962.267725,919.314598
993.855649,-9030.512492,-1184.329507,-1608.800546
993.855970,-9548.656652,0.000000,0.000000
993.856291,-9918.759623,74.020594,1685.410096
993.856612,-10436.903782,518.144159,2451.505594
993.856932,-9474.636058,222.061783,1838.629195
993.857253,-9104.533087,-666.185348,-689.485948
993.857574,-10510.924376,-296.082377,306.438199
993.857895,-9844.739029,1036.288319,1762.019645
993.858215,-10658.965565,814.226536,1762.019645
993.858536,-9770.718434,1776.494261,1378.971896
993.858857,-9178.553681,-444.123565,-689.485948
993.859178,-9400.615463,-444.123565,-842.705048
993.859498,-10066.800811,-148.041188,536.266849
993.859819,-9770.718434,0.000000,995.924147
993.860140,-9992.780217,-592.164754,766.095498
993.860461,-8586.388927,-1924.535449,-1991.848295
993.860781,-8660.409521,-1036.288319,-2681.334243
993.861102,-8734.430116,740.205942,-2374.896044
993.861423,-9622.677246,1924.535449,995.924147
993.861743,-10955.047942,666.185348,3140.991542
993.862064,-8882.471304,-2368.659014,1149.143247
993.862385,-11251.130318,-4367.215058,842.705048
993.862706,-10436.903782,-2368.659014,1685.410096
993.863026,-10881.027347,-1998.556043,2987.772442
993.863347,-10732.986159,-370.102971,3753.867940
993.863668,-9104.533087,-296.082377,1378.971896
993.863989,-7846.182985,-666.185348,612.876398
993.864309,-8882.471304,-1258.350101,-689.485948
993.864630,-8216.285956,-222.061783,459.657299
993.864951,-9178.553681,666.185348,995.924147
993.865272,-8068.244768,444.123565,842.705048
993.865592,-8216.285956,-1036.288319,-1072.533697
993.865913,-8808.450710,148.041188,1915.238745
993.866234,-9918.759623,-444.123565,2221.676944
993.866555,-11251.130318,962.267725,5515.887586
993.866875,-11473.192101,-296.082377,4903.011187
993.867196,-9622.677246,0.000000,2068.457845
993.867517,-11029.068536,-148.041188,1225.752797
993.867838,-9104.533087,1110.308913,2298.286494
993.868158,-9696.697840,1036.288319,2681.334243
993.868479,-9326.594869,1036.288319,2604.724693
993.868800,-8882.471304,-1702.473667,76.609550
993.869121,-9474.636058,-2220.617826,-612.876398
993.869441,-10214.842000,-740.205942,2145.067394
993.869762,-10214.842000,0.000000,2068.457845
993.870083,-10881.027347,1184.329507,3753.867940
993.870404,-10066.800811,296.082377,1455.581446
993.870724,-10584.944971,-1110.308913,766.095498
993.871045,-9992.780217,-592.164754,919.314598
993.871366,-10066.800811,-222.061783,2221.676944
993.871687,-10066.800811,-1036.288319,2298.286494
993.872007,-9400.615463,-814.226536,612.876398
993.872328,-9326.594869,-2294.638420,-1762.019645
993.872649,-7402.059420,-1036.288319,-1991.848295
993.872970,-9548.656652,0.000000,-383.047749
993.873290,-10066.800811,-148.041188,2451.505594
993.873611,-10510.924376,-962.267725,2451.505594
993.873932,-10807.006753,-888.247130,1685.410096
993.874252,-10955.047942,444.123565,1991.848295
993.874573,-10955.047942,518.144159,2834.553343
993.874894,-11325.150913,888.247130,2374.896044
993.875215,-8882.471304,1554.432478,1455.581446
993.875535,-7254.018232,-1110.308913,-1762.019645
993.875856,-6809.894666,-1110.308913,-2911.162892
993.876177,-8364.327145,74.020594,-1762.019645
993.876498,-9178.553681,962.267725,612.876398
993.876818,-9918.759623,518.144159,842.705048
993.877139,-9992.780217,222.061783,612.876398
993.877460,-9770.718434,-1036.288319,-153.219100
993.877781,-10510.924376,0.000000,2068.457845
993.878101,-9770.718434,-814.226536,1378.971896
993.878422,-8364.327145,-444.123565,1302.362347
993.878743,-10214.842000,-2072.576638,0.000000
993.879064,-7179.997637,-962.267725,-995.924147
993.879384,-9400.615463,-74.020594,0.000000
993.879705,-9178.553681,-296.082377,383.047749
993.880026,-9400.615463,592.164754,1685.410096
993.880347,-10732.986159,-518.144159,2834.553343
993.880667,-9400.615463,-962.267725,536.266849
993.880988,-10658.965565,-888.247130,766.095498
993.881309,-9696.697840,962.267725,2604.724693
993.881630,-10066.800811,962.267725,3370.820191
993.881950,-10807.006753,1258.350101,2298.286494
993.882271,-8734.430116,-1258.350101,1225.752797
993.882592,-8586.388927,-1480.411884,-766.095498
993.882913,-9622.677246,296.082377,919.314598
993.883233,-9474.636058,518.144159,2145.067394
993.883554,-10807.006753,888.247130,3907.087040
993.883875,-9770.718434,-592.164754,1608.800546
993.884196,-9622.677246,-1110.308913,995.924147
993.884516,-10214.842000,-740.205942,1685.410096
993.884837,-10214.842000,444.123565,3140.991542
993.885158,-10658.965565,740.205942,3064.381992
993.885479,-9178.553681,666.185348,1685.410096
993.885799,-8290.306550,74.020594,0.000000
993.886120,-9104.533087,296.082377,2298.286494
993.886441,-9400.615463,740.205942,1991.848295
993.886761,-10066.800811,148.041188,3140.991542
993.887082,-9622.677246,-1554.432478,1378.971896
993.887403,-8216.285956,-1924.535449,-995.924147
993.887724,-9770.718434,-1110.308913,0.000000
993.888044,-9252.574275,444.123565,2221.676944
993.888365,-10214.842000,-370.102971,3140.991542
993.888686,-9474.636058,-888.247130,2528.115143
993.889007,-8586.388927,-2960.823768,-459.657299
993.889327,-9104.533087,-1998.556043,-383.047749
993.889648,-9844.739029,-740.205942,1455.581446
993.889969,-9474.636058,0.000000,1838.629195
993.890290,-9918.759623,0.000000,2145.067394
993.890610,-8956.491898,-592.164754,229.828649
993.890931,-9326.594869,-2072.576638,-919.314598
993.891252,-10288.862594,-1258.350101,76.609550
993.891573,-10140.821405,518.144159,1685.410096
993.891893,-9696.697840,-444.123565,1455.581446
993.892214,-9030.512492,-592.164754,229.828649
993.892535,-9400.615463,-1850.514855,-1149.143247
993.892856,-9474.636058,-666.185348,-1302.362347
993.893176,-9992.780217,1036.288319,0.000000
993.893497,-9474.636058,1184.329507,612.876398
993.893818,-10066.800811,-518.144159,612.876398
993.894139,-9992.780217,-3182.885551,-612.876398
993.894459,-9770.718434,-3997.112087,-995.924147
993.894780,-9844.739029,-1258.350101,0.000000
993.895101,-10732.986159,1036.288319,1608.800546
993.895422,-10881.027347,2812.782580,2221.676944
993.895742,-9992.780217,1110.308913,919.314598
993.896063,-9400.615463,222.061783,76.609550
993.896384,-9252.574275,-222.061783,229.828649
993.896705,-10214.842000,-814.226536,2068.457845
993.897025,-10510.924376,-592.164754,2528.115143
993.897346,-9770.718434,-518.144159,1608.800546
993.897667,-9030.512492,-1258.350101,0.000000
993.897988,-9474.636058,518.144159,1225.752797
993.898308,-9548.656652,1110.308913,2374.896044
993.898629,-10436.903782,0.000000,766.095498
993.898950,-8438.347739,0.000000,842.705048
993.899270,-7698.141797,-962.267725,-1608.800546
993.899591,-9178.553681,0.000000,229.828649
993.899912,-10436.903782,370.102971,2604.724693
993.900233,-10955.047942,-370.102971,4519.963438
993.900553,-11399.171507,-1628.453072,4749.792088
993.900874,-11177.109724,-1702.473667,3677.258390
993.901195,-11917.315666,-888.247130,3217.601092
993.901516,-9252.574275,-1036.288319,2604.724693
993.901836,-8216.285956,1184.329507,1838.629195
993.902157,-7254.018232,1110.308913,229.828649
993.902478,-5847.626942,666.185348,-2068.457845
993.902799,-7254.018232,888.247130,-2221.676944
993.903119,-8290.306550,-592.164754,536.266849
993.903440,-8734.430116,-740.205942,1685.410096
993.903761,-11251.130318,-296.082377,3524.039291
993.904082,-11029.068536,-222.061783,3983.696590
993.904402,-11843.295072,-814.226536,3294.210641
993.904723,-10732.986159,370.102971,3447.429741
993.905044,-9326.594869,0.000000,1608.800546
993.905365,-9030.512492,296.082377,689.485948
993.905685,-8364.327145,-1184.329507,459.657299
993.906006,-7624.121203,-1406.391290,-1991.848295
993.906327,-8660.409521,-1332.370696,-1149.143247
993.906648,-8438.347739,-222.061783,0.000000
993.906968,-9474.636058,296.082377,3217.601092
993.907289,-12287.418637,-666.185348,2604.724693
993.907610,-10658.965565,-1258.350101,1915.238745
993.907931,-10066.800811,-2294.638420,0.000000
993.908251,-9992.780217,370.102971,766.095498
993.908572,-10584.944971,1924.535449,1685.410096
993.908893,-11029.068536,3108.864956,2221.676944
993.909214,-8956.491898,1480.411884,-1302.362347
993.909534,-8956.491898,74.020594,-2757.943793
993.909855,-7698.141797,592.164754,-2757.943793
993.910176,-9770.718434,-592.164754,-995.924147
993.910497,-9622.677246,0.000000,612.876398
993.910817,-9474.636058,-1628.453072,76.609550
993.911138,-10658.965565,-2220.617826,612.876398
993.911459,-9992.780217,-74.020594,459.657299
993.911779,-12879.583391,0.000000,4443.353888
993.912100,-12435.459826,148.041188,5362.668486
993.912421,-10658.965565,-1998.556043,3140.991542
993.912742,-9178.553681,-4293.194464,-612.876398
993.913062,-8290.306550,-1184.329507,-1149.143247
993.913383,-8660.409521,-296.082377,-306.438199
993.913704,-7624.121203,370.102971,153.219100
993.914025,-6513.812290,740.205942,-612.876398
993.914345,-7624.121203,-740.205942,-1991.848295
993.914666,-8586.388927,-592.164754,0.000000
993.914987,-10510.924376,-148.041188,3294.210641
993.915308,-11177.109724,-1110.308913,3600.648841
993.915628,-9918.759623,-444.123565,4060.306139
993.915949,-9178.553681,-518.144159,1838.629195
993.916270,-8216.285956,296.082377,1455.581446
993.916591,-9474.636058,814.226536,2298.286494
993.916911,-7772.162391,518.144159,1915.238745
993.917232,-9252.574275,-740.205942,995.924147
993.917553,-8882.471304,-666.185348,1149.143247
993.917874,-9622.677246,-1184.329507,1378.971896
993.918194,-10807.006753,-148.041188,3830.477490
993.918515,-9992.780217,0.000000,3983.696590
993.918836,-10436.903782,74.020594,2911.162892
993.919157,-10362.883188,-518.144159,2528.115143
993.919477,-8734.430116,-2146.597232,-2068.457845
993.919798,-9622.677246,0.000000,76.609550
993.920119,-8734.430116,1110.308913,0.000000
993.920440,-9030.512492,2368.659014,1532.190996
993.920760,-10362.883188,1924.535449,1915.238745
993.921081,-9474.636058,74.020594,153.219100
993.921402,-10807.006753,-1258.350101,0.000000
993.921723,-10955.047942,-222.061783,2145.067394
993.922043,-11177.109724,-1406.391290,2604.724693
993.922364,-10732.986159,-1924.535449,2834.553343
993.922685,-9252.574275,-2886.803174,0.000000
993.923006,-8586.388927,-1554.432478,-1302.362347
993.923326,-9030.512492,814.226536,76.609550
993.923647,-9178.553681,1480.411884,1685.410096
993.923968,-10436.903782,444.123565,1378.971896
993.924288,-9252.574275,-1258.350101,0.000000
993.924609,-9400.615463,-2220.617826,-1608.800546
993.924930,-10288.862594,-666.185348,0.000000
993.925251,-9844.739029,518.144159,1762.019645
993.925571,-10807.006753,1110.308913,2298.286494
993.925892,-9326.594869,-296.082377,1302.362347
993.926213,-7476.080014,-1850.514855,-1225.752797
993.926534,-8882.471304,-2072.576638,-306.438199
993.926854,-9030.512492,-1924.535449,-383.047749
993.927175,-8882.471304,518.144159,1455.581446
993.927496,-9548.656652,74.020594,1532.190996
993.927817,-8882.471304,-518.144159,-383.047749
993.928137,-9770.718434,370.102971,-153.219100
993.928458,-10807.006753,148.041188,1838.629195
993.928779,-9474.636058,-370.102971,1455.581446
993.929100,-10584.944971,0.000000,2451.505594
993.929420,-9400.615463,-1850.514855,229.828649
993.929741,-8660.409521,-1702.473667,-919.314598
993.930062,-9474.636058,0.000000,1149.143247
993.930383,-8808.450710,0.000000,1685.410096
993.930703,-10288.862594,740.205942,2834.553343
993.931024,-10214.842000,666.185348,842.705048
993.931345,-8808.450710,-444.123565,-306.438199
993.931666,-9696.697840,-518.144159,229.828649
993.931986,-9918.759623,-518.144159,2374.896044
993.932307,-10584.944971,-740.205942,2221.676944
993.932628,-9548.656652,-296.082377,1608.800546
993.932949,-10214.842000,-1702.473667,1302.362347
993.933269,-9844.739029,-1480.411884,995.924147
993.933590,-10066.800811,0.000000,1915.238745
993.933911,-10732.986159,-222.061783,2757.943793
993.934232,-9474.636058,222.061783,1991.848295
993.934552,-9326.594869,-1110.308913,0.000000
993.934873,-9992.780217,74.020594,229.828649
993.935194,-9844.739029,592.164754,1532.190996
993.935515,-10066.800811,148.041188,2757.943793
993.935835,-9844.739029,-444.123565,2528.115143
993.936156,-7772.162391,-888.247130,612.876398
993.936477,-8956.491898,-888.247130,-2298.286494
993.936797,-8364.327145,2220.617826,0.000000
993.937118,-8290.306550,2812.782580,1532.190996
993.937439,-11177.109724,1036.288319,3830.477490
993.937760,-9696.697840,-666.185348,2451.505594
993.938080,-11399.171507,-2960.823768,1838.629195
993.938401,-12657.521608,-2368.659014,4366.744339
993.938722,-10436.903782,-222.061783,5209.449386
993.939043,-10807.006753,-148.041188,4290.134789
993.939363,-9992.780217,1480.411884,2145.067394
993.939684,-7402.059420,-222.061783,-2451.505594
993.940005,-5107.421000,-1924.535449,-2757.943793
993.940326,-6217.729913,1184.329507,-2145.067394
993.940646,-7920.203579,74.020594,153.219100
993.940967,-8438.347739,-1036.288319,153.219100
993.941288,-10584.944971,-370.102971,1455.581446
993.941609,-11917.315666,-1554.432478,2145.067394
993.941929,-11621.233289,-888.247130,4903.011187
993.942250,-12435.459826,-962.267725,5745.716235
993.942571,-11843.295072,148.041188,3217.601092
993.942892,-9326.594869,-222.061783,306.438199
993.943212,-6957.935855,-148.041188,-1455.581446
993.943533,-7920.203579,-296.082377,-2298.286494
993.943854,-8216.285956,148.041188,-766.095498
993.944175,-9548.656652,296.082377,0.000000
993.944495,-9104.533087,518.144159,1302.362347
993.944816,-11103.089130,-1776.494261,-612.876398
993.945137,-10140.821405,0.000000,842.705048
993.945458,-11103.089130,0.000000,2145.067394
993.945778,-11473.192101,296.082377,2451.505594
993.946099,-10066.800811,518.144159,1915.238745
993.946420,-9474.636058,-2294.638420,-1608.800546
993.946741,-8068.244768,-888.247130,-2451.505594
993.947061,-9252.574275,888.247130,-459.657299
993.947382,-9548.656652,1332.370696,-76.609550
993.947703,-7624.121203,2442.679609,229.828649
993.948024,-8956.491898,-2072.576638,-2068.457845
993.948344,-7105.977043,-1258.350101,-2298.286494
993.948665,-11399.171507,1110.308913,3064.381992
993.948986,-11621.233289,-1332.370696,3677.258390
993.949306,-10436.903782,-518.144159,4443.353888
993.949627,-11103.089130,-1850.514855,2528.115143
993.949948,-8734.430116,-1184.329507,612.876398
993.950269,-11103.089130,888.247130,1225.752797
993.950589,-9474.636058,1480.411884,2681.334243
993.950910,-8586.388927,444.123565,1149.143247
993.951231,-7031.956449,-814.226536,-919.314598
993.951552,-7476.080014,-2738.761985,-1685.410096
993.951873,-8586.388927,-222.061783,0.000000
993.952193,-10288.862594,888.247130,2757.943793
993.952514,-10436.903782,888.247130,4290.134789
993.952835,-10066.800811,0.000000,3064.381992
993.953156,-9474.636058,-2812.782580,1915.238745
993.953477,-11251.130318,-1924.535449,2757.943793
993.953797,-9622.677246,-814.226536,3064.381992
993.954118,-9770.718434,0.000000,3064.381992
993.954439,-9252.574275,1480.411884,3370.820191
993.954760,-8956.491898,74.020594,1378.971896
993.955081,-9844.739029,296.082377,1685.410096
993.955401,-9400.615463,1628.453072,3370.820191
993.955722,-9844.739029,0.000000,2834.553343
993.956043,-11029.068536,-740.205942,2451.505594
993.956364,-8956.491898,-1850.514855,-383.047749
993.956685,-8068.244768,-1702.473667,-1225.752797
993.957005,-8734.430116,-370.102971,0.000000
993.957326,-8216.285956,-518.144159,919.314598
993.957647,-9992.780217,-222.061783,2145.067394
993.957968,-9622.677246,0.000000,1532.190996
993.958289,-10584.944971,-1258.350101,766.095498
993.958609,-10436.903782,148.041188,2987.772442
993.958930,-10362.883188,0.000000,2221.676944
993.959251,-10584.944971,-74.020594,2681.334243
993.959572,-9400.615463,-1184.329507,766.095498
993.959893,-7772.162391,-2812.782580,-2298.286494
993.960213,-8364.327145,-1924.535449,-2987.772442
993.960534,-9030.512492,0.000000,-1072.533697
993.960855,-9696.697840,1776.494261,1149.143247
993.961176,-10140.821405,740.205942,766.095498
993.961497,-9548.656652,0.000000,-842.705048
993.961817,-10436.903782,1702.473667,153.219100
993.962138,-10807.006753,1406.391290,1455.581446
993.962459,-10955.047942,1258.350101,2604.724693
993.962780,-9548.656652,1332.370696,2374.896044
993.963101,-8734.430116,-2072.576638,-919.314598
993.963421,-9030.512492,-1480.411884,-2298.286494
993.963742,-9770.718434,370.102971,766.095498
993.964063,-9474.636058,-74.020594,1225.752797
993.964384,-9918.759623,296.082377,1685.410096
993.964705,-9252.574275,-518.144159,612.876398
993.965025,-8956.491898,-888.247130,306.438199
993.965346,-10881.027347,-370.102971,2834.553343
993.965667,-10288.862594,0.000000,4136.915689
993.965988,-10658.965565,-1702.473667,2451.505594
993.966309,-8956.491898,-1776.494261,842.705048
993.966629,-8438.347739,-2590.720797,-1149.143247
993.966950,-9918.759623,-1184.329507,536.266849
993.967271,-9252.574275,-296.082377,2221.676944
993.967592,-9104.533087,-370.102971,1991.848295
993.967913,-9844.739029,-740.205942,1762.019645
993.968233,-9474.636058,-2146.597232,-1991.848295
993.968554,-9696.697840,-962.267725,1149.143247
993.968875,-10140.821405,222.061783,3064.381992
993.969196,-9548.656652,148.041188,3524.039291
993.969517,-10140.821405,148.041188,3370.820191
993.969837,-8512.368333,-1554.432478,536.266849
993.970158,-9474.636058,-1924.535449,0.000000
993.970479,-9030.512492,592.164754,383.047749
993.970800,-9770.718434,518.144159,1608.800546
993.971121,-9696.697840,1406.391290,2145.067394
993.971441,-9178.553681,0.000000,1685.410096
993.971762,-9844.739029,-1702.473667,153.219100
993.972083,-10140.821405,-74.020594,1302.362347
993.972404,-9030.512492,0.000000,3983.696590
993.972725,-10214.842000,74.020594,2987.772442
993.973045,-9400.615463,-148.041188,2451.505594
993.973366,-9474.636058,-2812.782580,-689.485948
993.973687,-8734.430116,-1480.411884,0.000000
993.974008,-8734.430116,444.123565,-1072.533697
993.974329,-8734.430116,370.102971,-153.219100
993.974649,-9104.533087,888.247130,-612.876398
993.974970,-9326.594869,444.123565,-766.095498
993.975291,-9696.697840,518.144159,-383.047749
993.975612,-11695.253884,-666.185348,2681.334243
993.975933,-11843.295072,-444.123565,4519.963438
993.976253,-14137.933492,-1036.288319,4903.011187
993.976574,-10510.924376,296.082377,1838.629195
993.976895,-10807.006753,-74.020594,919.314598
993.977216,-8882.471304,1406.391290,-689.485948
993.977537,-8438.347739,1998.556043,-919.314598
993.977857,-7550.100608,1554.432478,-919.314598
993.978178,-8142.265362,1850.514855,-1838.629195
993.978499,-7550.100608,-1036.288319,-4213.525239
993.978820,-8142.265362,888.247130,-612.876398
993.979141,-11177.109724,148.041188,2451.505594
993.979461,-11399.171507,0.000000,3983.696590
993.979782,-12213.398043,-592.164754,5056.230287
993.980103,-10436.903782,-2368.659014,2451.505594
993.980424,-9918.759623,-888.247130,1685.410096
993.980745,-10140.821405,296.082377,1072.533697
993.981065,-8660.409521,74.020594,1225.752797
993.981386,-7476.080014,888.247130,-536.266849
993.981707,-8068.244768,-2368.659014,-2451.505594
993.982028,-6883.915261,-666.185348,-1455.581446
993.982349,-10214.842000,-740.205942,1455.581446
993.982669,-9696.697840,444.123565,3677.258390
993.982990,-11103.089130,0.000000,4519.963438
993.983311,-9474.636058,-2368.659014,2528.115143
993.983632,-9252.574275,-1258.350101,1225.752797
993.983953,-10362.883188,814.226536,2528.115143
993.984273,-9178.553681,0.000000,2451.505594
993.984594,-8956.491898,0.000000,1838.629195
993.984915,-7031.956449,-2738.761985,-2528.115143
993.985236,-7105.977043,-2072.576638,-3064.381992
993.985557,-9252.574275,1184.329507,612.876398
993.985877,-9474.636058,1110.308913,2221.676944
993.986198,-10510.924376,592.164754,4136.915689
993.986519,-11251.130318,-1184.329507,3447.429741
993.986840,-10362.883188,-2294.638420,2298.286494
993.987161,-12583.501014,-2072.576638,3447.429741
993.987481,-10881.027347,0.000000,4596.572988
993.987802,-10732.986159,-444.123565,2757.943793
993.988123,-9844.739029,666.185348,1225.752797
993.988444,-7920.203579,-296.082377,-1915.238745
993.988765,-7920.203579,-222.061783,-1225.752797
993.989085,-8512.368333,222.061783,459.657299
993.989406,-9104.533087,0.000000,153.219100
993.989727,-10214.842000,0.000000,1302.362347
993.990048,-9992.780217,-1850.514855,0.000000
993.990369,-10510.924376,-1036.288319,459.657299
993.990689,-11177.109724,0.000000,2068.457845
993.991010,-10288.862594,-1406.391290,2374.896044
993.991331,-10584.944971,-1480.411884,2068.457845
993.991652,-9030.512492,-1258.350101,1072.533697
993.991973,-10140.821405,-2738.761985,153.219100
993.992293,-9030.512492,74.020594,995.924147
993.992614,-9474.636058,-370.102971,1302.362347
993.992935,-9178.553681,0.000000,919.314598
993.993256,-8364.327145,-666.185348,-612.876398
993.993577,-7698.141797,-1258.350101,-2757.943793
993.993897,-9474.636058,74.020594,-766.095498
993.994218,-9104.533087,148.041188,-383.047749
993.994539,-9474.636058,444.123565,1915.238745
993.994860,-9622.677246,-1924.535449,459.657299
993.995181,-9030.512492,-1036.288319,-536.266849
993.995501,-11325.150913,-1036.288319,1149.143247
993.995822,-9992.780217,962.267725,1991.848295
993.996143,-9992.780217,1036.288319,2987.772442
993.996464,-10955.047942,0.000000,1915.238745
993.996785,-8364.327145,-740.205942,-842.705048
993.997105,-9178.553681,-1332.370696,-1685.410096
993.997426,-9918.759623,0.000000,153.219100
993.997747,-9326.594869,0.000000,1302.362347
993.998068,-10510.924376,-148.041188,1991.848295
993.998389,-9696.697840,-1258.350101,306.438199
993.998709,-10066.800811,-1702.473667,-153.219100
993.999030,-9770.718434,666.185348,1225.752797
993.999351,-10807.006753,962.267725,2987.772442
993.999672,-10955.047942,1776.494261,3370.820191
993.999993,-9548.656652,222.061783,1532.190996
994.000313,-8660.409521,-1110.308913,0.000000
994.000634,-8734.430116,-814.226536,-306.438199
994.000955,-10436.903782,-740.205942,1225.752797
994.001276,-9474.636058,370.102971,2604.724693
994.001597,-10362.883188,666.185348,2145.067394
994.001917,-10955.047942,-888.247130,3140.991542
994.002238,-9770.718434,-3330.926739,306.438199
994.002559,-7105.977043,962.267725,2145.067394
994.002880,-12287.418637,1702.473667,3217.601092
994.003201,-9178.553681,3034.844362,4443.353888
994.003521,-8364.327145,296.082377,1608.800546
994.003842,-11103.089130,370.102971,1378.971896
994.004163,-6809.894666,-148.041188,-919.314598
994.004484,-10955.047942,0.000000,2911.162892
994.004805,-8364.327145,518.144159,3447.429741
994.005125,-9474.636058,148.041188,0.000000
994.005446,-9548.656652,-1702.473667,1532.190996
994.005767,-8216.285956,0.000000,459.657299
994.006088,-9104.533087,0.000000,2374.896044
994.006409,-12287.418637,-296.082377,3907.087040
994.006729,-8216.285956,666.185348,2604.724693
994.007050,-9104.533087,-2664.741391,-766.095498
994.007371,-8586.388927,-1110.308913,-1072.533697
994.007692,-8364.327145,0.000000,229.828649
994.008013,-9844.739029,-444.123565,2298.286494
994.008333,-10510.924376,-370.102971,1991.848295
994.008654,-9918.759623,-1850.514855,-689.485948
994.008975,-10436.903782,-1924.535449,-689.485948
994.009296,-9770.718434,-296.082377,1378.971896
994.009617,-10955.047942,0.000000,2604.724693
994.009938,-9474.636058,444.123565,2298.286494
994.010258,-8956.491898,-296.082377,-229.828649
994.010579,-8808.450710,-1184.329507,-2451.505594
994.010900,-9992.780217,0.000000,-995.924147
994.011221,-9770.718434,74.020594,0.000000
994.011542,-9400.615463,1036.288319,-1532.190996
994.011862,-9326.594869,888.247130,-1762.019645
994.012183,-8290.306550,-296.082377,-2528.115143
994.012504,-10807.006753,222.061783,76.609550
994.012825,-12213.398043,-666.185348,2681.334243
994.013146,-11029.068536,148.041188,3370.820191
994.013466,-11325.150913,-1628.453072,2528.115143
994.013787,-9696.697840,-2664.741391,459.657299
994.014108,-8956.491898,-444.123565,1532.190996
994.014429,-10140.821405,666.185348,1225.752797
994.014750,-7994.224174,1184.329507,1455.581446
994.015070,-8142.265362,1036.288319,0.000000
994.015391,-8068.244768,-1332.370696,-919.314598
994.015712,-9474.636058,-2516.700203,-1149.143247
994.016033,-8290.306550,1036.288319,2681.334243
994.016354,-10436.903782,-1776.494261,2604.724693
994.016674,-8216.285956,888.247130,2987.772442
994.016995,-10214.842000,-1480.411884,2681.334243
994.017316,-9770.718434,-1332.370696,1838.629195
994.017637,-9326.594869,888.247130,3677.258390
994.017958,-10732.986159,-740.205942,2757.943793
994.018278,-7105.977043,1850.514855,2911.162892
994.018599,-9474.636058,-2146.597232,842.705048
994.018920,-7031.956449,-1702.473667,-766.095498
994.019241,-8734.430116,-1110.308913,995.924147
994.019562,-9178.553681,-666.185348,3217.601092
994.019882,-10807.006753,148.041188,3677.258390
994.020203,-10955.047942,-148.041188,3753.867940
994.020524,-9992.780217,-1554.432478,1915.238745
994.020845,-10362.883188,0.000000,2681.334243
994.021166,-10955.047942,-370.102971,2987.772442
994.021486,-9326.594869,-1184.329507,1991.848295
994.021807,-9474.636058,0.000000,1455.581446
994.022128,-8808.450710,-2146.597232,-689.485948
994.022449,-8882.471304,-1110.308913,-1915.238745
994.022770,-9178.553681,1702.473667,612.876398
994.023090,-9992.780217,740.205942,1838.629195
994.023411,-10362.883188,518.144159,2145.067394
994.023732,-9918.759623,-1258.350101,1072.533697
994.024053,-9622.677246,-1628.453072,-612.876398
994.024374,-11251.130318,148.041188,1915.238745
994.024694,-11473.192101,0.000000,4136.915689
994.025015,-10288.862594,-222.061783,3677.258390
994.025336,-9918.759623,-592.164754,766.095498
994.025657,-9474.636058,-1480.411884,-1532.190996
994.025978,-8364.327145,1036.288319,-1378.971896
994.026298,-9400.615463,1110.308913,76.609550
994.026619,-8216.285956,962.267725,-459.657299
994.026940,-8290.306550,148.041188,-766.095498
994.027261,-9104.533087,-1776.494261,-1915.238745
994.027582,-9622.677246,-1110.308913,-1225.752797
994.027902,-10214.842000,296.082377,1225.752797
994.028223,-10955.047942,0.000000,3064.381992
994.028544,-10436.903782,296.082377,1838.629195
994.028865,-9622.677246,-666.185348,153.219100
994.029186,-9178.553681,-2072.576638,-1685.410096
994.029506,-7994.224174,1776.494261,1532.190996
994.029827,-11029.068536,-296.082377,1455.581446
994.030148,-9178.553681,1036.288319,1608.800546
994.030469,-8512.368333,-592.164754,-76.609550
994.030790,-9622.677246,-1850.514855,-1915.238745
994.031110,-9104.533087,-148.041188,766.095498
994.031431,-10732.986159,-1406.391290,1915.238745
994.031752,-9844.739029,0.000000,2451.505594
994.032073,-10140.821405,-148.041188,1149.143247
994.032394,-9400.615463,-1258.350101,0.000000
994.032714,-9474.636058,222.061783,689.485948
994.033035,-10066.800811,222.061783,2298.286494
994.033356,-9474.636058,148.041188,2451.505594
994.033677,-9474.636058,296.082377,1455.581446
994.033998,-9474.636058,-2146.597232,229.828649
994.034318,-9474.636058,-740.205942,842.705048
994.034639,-9992.780217,148.041188,2374.896044
994.034960,-9474.636058,-592.164754,1838.629195
994.035281,-9474.636058,0.000000,2451.505594
994.035602,-9770.718434,-2146.597232,1149.143247
994.035922,-9548.656652,-1110.308913,229.828649
994.036243,-10955.047942,222.061783,2221.676944
994.036564,-10881.027347,666.185348,2987.772442
994.036885,-10807.006753,1776.494261,3600.648841
994.037206,-9844.739029,-888.247130,1685.410096
994.037526,-8586.388927,-1258.350101,-1225.752797
994.037847,-9474.636058,-148.041188,229.828649
994.038168,-8290.306550,518.144159,229.828649
994.038489,-10140.821405,-222.061783,919.314598
994.038810,-7994.224174,370.102971,766.095498
994.039130,-8734.430116,-2294.638420,766.095498
994.039451,-10288.862594,148.041188,1532.190996
994.039772,-10510.924376,74.020594,4136.915689
994.040093,-11251.130318,148.041188,4903.011187
994.040414,-10584.944971,-148.041188,3217.601092
994.040734,-8956.491898,-1776.494261,-842.705048
994.041055,-8364.327145,-444.123565,-536.266849
994.041376,-8956.491898,-370.102971,-229.828649
994.041697,-9252.574275,-296.082377,1149.143247
994.042018,-8438.347739,-148.041188,536.266849
994.042338,-9252.574275,-2072.576638,-842.705048
994.042659,-10066.800811,-1110.308913,0.000000
994.042980,-11177.109724,592.164754,2911.162892
994.043301,-10584.944971,-814.226536,3294.210641
994.043622,-9548.656652,222.061783,2451.505594
994.043942,-9252.574275,-2294.638420,76.609550
994.044263,-8216.285956,-1184.329507,-1302.362347
994.044584,-9918.759623,0.000000,689.485948
994.044905,-9178.553681,0.000000,-1532.190996
994.045226,-8290.306550,1850.514855,536.266849
994.045546,-9622.677246,74.020594,-995.924147
994.045867,-9992.780217,888.247130,-536.266849
994.046188,-11769.274478,222.061783,1455.581446
994.046509,-10140.821405,-1258.350101,2145.067394
994.046830,-10881.027347,-1480.411884,1762.019645
994.047150,-10584.944971,0.000000,1915.238745
994.047471,-9474.636058,-1776.494261,0.000000
994.047792,-9252.574275,1184.329507,-2145.067394
994.048113,-9326.594869,1184.329507,459.657299
994.048434,-8734.430116,0.000000,-612.876398
994.048754,-8734.430116,518.144159,-842.705048
994.049075,-7550.100608,-888.247130,-2528.115143
994.049396,-8586.388927,-370.102971,-2221.676944
994.049717,-8882.471304,1924.535449,1455.581446
994.050038,-11621.233289,1924.535449,4979.620737
994.050358,-13249.686362,-2590.720797,6588.421283
994.050679,-9992.780217,-4663.297435,2681.334243
994.051000,-11251.130318,-4441.235652,1072.533697
994.051321,-10732.986159,888.247130,1072.533697
994.051642,-9326.594869,2664.741391,3217.601092
994.051962,-10066.800811,2590.720797,4290.134789
994.052283,-7772.162391,592.164754,1455.581446
994.052604,-7402.059420,-4145.153275,-2068.457845
994.052925,-9030.512492,-1110.308913,1762.019645
994.053246,-9178.553681,-2294.638420,2145.067394
994.053566,-11547.212695,666.185348,3140.991542
994.053887,-7698.141797,1628.453072,2221.676944
994.054208,-7846.182985,-740.205942,-536.266849
994.054528,-8068.244768,222.061783,-229.828649
994.054849,-11177.109724,-1110.308913,2681.334243
994.055170,-8956.491898,-888.247130,2528.115143
994.055490,-10362.883188,-1480.411884,995.924147
994.055811,-10584.944971,-962.267725,766.095498
994.056132,-9770.718434,592.164754,2374.896044
994.056452,-10658.965565,1480.411884,2911.162892
994.056773,-10658.965565,814.226536,2757.943793
994.057093,-9400.615463,666.185348,1225.752797
994.057414,-9918.759623,-2516.700203,-1378.971896
994.057735,-9030.512492,-1110.308913,-1991.848295
994.058055,-10362.883188,1110.308913,842.705048
994.058376,-10066.800811,592.164754,2374.896044
994.058696,-9474.636058,888.247130,995.924147
994.059017,-9696.697840,740.205942,383.047749
994.059338,-10140.821405,-888.247130,0.000000
994.059658,-9844.739029,222.061783,1072.533697
994.059979,-10510.924376,-370.102971,2221.676944
994.060300,-9474.636058,-148.041188,919.314598
994.060620,-8956.491898,666.185348,-459.657299
994.060941,-8216.285956,-1406.391290,-1455.581446
994.061261,-8882.471304,0.000000,-919.314598
994.061582,-10140.821405,-444.123565,612.876398
994.061903,-10436.903782,-1110.308913,1838.629195
994.062223,-10732.986159,-2368.659014,2451.505594
994.062544,-10807.006753,-2146.597232,2145.067394
994.062864,-11843.295072,-1924.535449,1455.581446
994.063185,-10214.842000,148.041188,2987.772442
994.063506,-9030.512492,888.247130,1149.143247
994.063826,-8734.430116,740.205942,1532.190996
994.064147,-8142.265362,-1110.308913,-1762.019645
994.064468,-7402.059420,-1110.308913,-2145.067394
994.064788,-8734.430116,-1406.391290,-1455.581446
994.065109,-8216.285956,-444.123565,229.828649
994.065429,-10658.965565,0.000000,1991.848295
994.065750,-10510.924376,148.041188,1915.238745
994.066071,-10807.006753,-814.226536,1532.190996
994.066391,-9992.780217,962.267725,2298.286494
994.066712,-9844.739029,666.185348,3140.991542
994.067033,-10658.965565,0.000000,1915.238745
994.067353,-9030.512492,0.000000,1302.362347
994.067674,-8142.265362,-2072.576638,-1378.971896
994.067994,-8512.368333,-666.185348,-536.266849
994.068315,-9844.739029,-962.267725,995.924147
994.068636,-9992.780217,222.061783,2374.896044
994.068956,-10362.883188,814.226536,4136.915689
994.069277,-10214.842000,-962.267725,1532.190996
994.069597,-9992.780217,-592.164754,842.705048
994.069918,-9992.780217,444.123565,2451.505594
994.070239,-11177.109724,-1258.350101,2528.115143
994.070559,-8660.409521,370.102971,2298.286494
994.070880,-9400.615463,-1776.494261,689.485948
994.071201,-7772.162391,-148.041188,-766.095498
994.071521,-10214.842000,1110.308913,459.657299
994.071842,-10732.986159,1258.350101,2451.505594
994.072162,-9548.656652,962.267725,3140.991542
994.072483,-11177.109724,-1628.453072,1455.581446
994.072804,-9770.718434,-2664.741391,153.219100
994.073124,-9992.780217,-296.082377,919.314598
994.073445,-9474.636058,444.123565,2911.162892
994.073765,-10140.821405,1258.350101,4366.744339
994.074086,-8956.491898,222.061783,1302.362347
994.074407,-7772.162391,-1184.329507,-1838.629195
994.074727,-9474.636058,1184.329507,-536.266849
994.075048,-9104.533087,1998.556043,2221.676944
994.075369,-10584.944971,0.000000,2757.943793
994.075689,-9548.656652,0.000000,2145.067394
994.076010,-8808.450710,-2590.720797,-1378.971896
994.076330,-9622.677246,-962.267725,459.657299
994.076651,-9770.718434,-444.123565,2604.724693
994.076972,-10288.862594,-1850.514855,1762.019645
994.077292,-8734.430116,-888.247130,-153.219100
994.077613,-7772.162391,-1924.535449,-1378.971896
994.077933,-7846.182985,-814.226536,-1608.800546
994.078254,-10732.986159,-222.061783,383.047749
994.078575,-8882.471304,296.082377,919.314598
994.078895,-10140.821405,222.061783,2374.896044
994.079216,-10362.883188,-1628.453072,0.000000
994.079537,-9252.574275,-1258.350101,-153.219100
994.079857,-11769.274478,-148.041188,919.314598
994.080178,-10288.862594,1184.329507,1608.800546
994.080498,-10140.821405,962.267725,2834.553343
994.080819,-9474.636058,-814.226536,612.876398
994.081140,-7994.224174,-2590.720797,-1915.238745
994.081460,-9474.636058,-518.144159,-2068.457845
994.081781,-10140.821405,0.000000,1685.410096
994.082101,-9548.656652,-148.041188,1608.800546
994.082422,-9770.718434,296.082377,612.876398
994.082743,-9400.615463,-1258.350101,-919.314598
994.083063,-10732.986159,-740.205942,-459.657299
994.083384,-9548.656652,1702.473667,2987.772442
994.083705,-11325.150913,-1702.473667,2987.772442
994.084025,-8438.347739,814.226536,1762.019645
994.084346,-10510.924376,-1998.556043,766.095498
994.084666,-9252.574275,-1406.391290,-383.047749
994.084987,-9474.636058,1554.432478,2068.457845
994.085308,-9770.718434,-666.185348,2911.162892
994.085628,-9252.574275,444.123565,2068.457845
994.085949,-9844.739029,-296.082377,459.657299
994.086270,-9474.636058,-3034.844362,-1072.533697
994.086590,-7698.141797,518.144159,383.047749
994.086911,-9474.636058,-370.102971,383.047749
994.087231,-8512.368333,148.041188,76.609550
994.087552,-8438.347739,1406.391290,766.095498
994.087873,-8882.471304,-1776.494261,-612.876398
994.088193,-10066.800811,-962.267725,2068.457845
994.088514,-10658.965565,-1554.432478,3983.696590
994.088834,-10658.965565,-814.226536,3677.258390
994.089155,-11177.109724,814.226536,4443.353888
994.089476,-9622.677246,-1406.391290,2374.896044
994.089796,-9474.636058,-740.205942,612.876398
994.090117,-10140.821405,888.247130,2451.505594
994.090438,-8438.347739,0.000000,842.705048
994.090758,-9622.677246,518.144159,995.924147
994.091079,-7994.224174,-518.144159,-229.828649
994.091399,-8142.265362,-962.267725,-612.876398
994.091720,-10214.842000,1258.350101,2221.676944
994.092041,-10658.965565,0.000000,3140.991542
994.092361,-10732.986159,296.082377,2987.772442
994.092682,-10066.800811,-1110.308913,2145.067394
994.093002,-9474.636058,-2516.700203,0.000000
994.093323,-10436.903782,0.000000,1838.629195
994.093644,-10066.800811,148.041188,2451.505594
994.093964,-8660.409521,0.000000,1991.848295
994.094285,-7846.182985,-740.205942,-306.438199
994.094606,-8512.368333,-2738.761985,-3140.991542
994.094926,-9030.512492,-148.041188,-1149.143247
994.095247,-10362.883188,0.000000,0.000000
994.095567,-9474.636058,518.144159,1838.629195
994.095888,-10955.047942,-296.082377,1302.362347
994.096209,-9918.759623,-2072.576638,459.657299
994.096529,-10807.006753,-1998.556043,0.000000
994.096850,-9548.656652,1776.494261,3294.210641
994.097170,-11029.068536,-1406.391290,1225.752797
994.097491,-7994.224174,1776.494261,1225.752797
994.097812,-9326.594869,-592.164754,-1225.752797
994.098132,-6661.853478,592.164754,-3447.429741
994.098453,-9548.656652,1110.308913,0.000000
994.098774,-8734.430116,-592.164754,536.266849
994.099094,-9474.636058,-1258.350101,229.828649
994.099415,-9696.697840,-888.247130,229.828649
994.099735,-10140.821405,-1258.350101,919.314598
994.100056,-11399.171507,518.144159,3217.601092
994.100377,-11325.150913,0.000000,4136.915689
994.100697,-10584.944971,-666.185348,3370.820191
994.101018,-9696.697840,-666.185348,383.047749
994.101338,-9474.636058,-1998.556043,-766.095498
994.101659,-8660.409521,-296.082377,-76.609550
994.101980,-8142.265362,518.144159,1608.800546
994.102300,-8586.388927,-1332.370696,2911.162892
994.102621,-9178.553681,0.000000,2145.067394
994.102942,-10510.924376,-1924.535449,1455.581446
994.103262,-11251.130318,-1332.370696,2068.457845
994.103583,-9474.636058,370.102971,2681.334243
994.103903,-10955.047942,-1406.391290,1072.533697
994.104224,-7476.080014,1850.514855,1378.971896
994.104545,-8512.368333,-814.226536,-1302.362347
994.104865,-7550.100608,-1110.308913,-1378.971896
994.105186,-8734.430116,-370.102971,-306.438199
994.105506,-9548.656652,-962.267725,919.314598
994.105827,-10436.903782,-296.082377,3140.991542
994.106148,-10658.965565,-1110.308913,2757.943793
994.106468,-10066.800811,-2072.576638,1149.143247
994.106789,-10732.986159,0.000000,1991.848295
994.107110,-9622.677246,1184.329507,3524.039291
994.107430,-10288.862594,1110.308913,3294.210641
994.107751,-10066.800811,-518.144159,1302.362347
994.108071,-7624.121203,-1628.453072,-995.924147
994.108392,-8364.327145,-740.205942,-1072.533697
994.108713,-9178.553681,1036.288319,919.314598
994.109033,-10066.800811,444.123565,2451.505594
994.109354,-10362.883188,370.102971,2145.067394
994.109675,-9474.636058,-1850.514855,229.828649
994.109995,-10955.047942,-1998.556043,0.000000
994.110316,-10362.883188,-222.061783,2604.724693
994.110636,-10288.862594,-2294.638420,1532.190996
994.110957,-9474.636058,-222.061783,1838.629195
994.111278,-8142.265362,-2516.700203,-1149.143247
994.111598,-7920.203579,-2220.617826,-3217.601092
994.111919,-9474.636058,1776.494261,76.609550
994.112239,-10140.821405,1258.350101,1455.581446
994.112560,-10732.986159,2294.638420,2145.067394
994.112881,-10584.944971,1110.308913,995.924147
994.113201,-10362.883188,-1110.308913,-612.876398
994.113522,-9696.697840,296.082377,919.314598
994.113843,-10807.006753,-888.247130,2298.286494
994.114163,-9548.656652,-1184.329507,1455.581446
994.114484,-8068.244768,-962.267725,-1149.143247
994.114804,-8142.265362,-962.267725,-1608.800546
994.115125,-8660.409521,1924.535449,-766.095498
994.115446,-9622.677246,1406.391290,1149.143247
994.115766,-10584.944971,-148.041188,1762.019645
994.116087,-9104.533087,0.000000,229.828649
994.116407,-9696.697840,-1924.535449,-536.266849
994.116728,-10510.924376,-592.164754,1149.143247
994.117049,-10436.903782,296.082377,4903.011187
994.117369,-11251.130318,-2220.617826,3447.429741
994.117690,-8586.388927,666.185348,2528.115143
994.118011,-8956.491898,-2812.782580,-612.876398
994.118331,-8290.306550,444.123565,-383.047749
994.118652,-10066.800811,814.226536,2834.553343
994.118972,-8142.265362,666.185348,229.828649
994.119293,-8586.388927,2960.823768,2528.115143
994.119614,-9696.697840,-518.144159,1608.800546
994.119934,-8956.491898,-2146.597232,995.924147
994.120255,-10436.903782,-518.144159,2221.676944
994.120575,-9622.677246,-592.164754,2834.553343
994.120896,-9326.594869,666.185348,2528.115143
994.121217,-10140.821405,74.020594,2451.505594
994.121537,-8438.347739,-666.185348,76.609550
994.121858,-9474.636058,592.164754,766.095498
994.122179,-9844.739029,-1332.370696,2145.067394
994.122499,-9622.677246,-1332.370696,2451.505594
994.122820,-10807.006753,-1998.556043,2068.457845
994.123140,-8956.491898,-1036.288319,1608.800546
994.123461,-11991.336260,666.185348,2987.772442
994.123782,-10881.027347,2516.700203,3753.867940
994.124102,-9992.780217,222.061783,842.705048
994.124423,-8734.430116,740.205942,2451.505594
994.124743,-8734.430116,1480.411884,-2374.896044
994.125064,-7994.224174,-2664.741391,-2681.334243
994.125385,-6883.915261,444.123565,-1608.800546
994.125705,-8290.306550,-814.226536,-689.485948
994.126026,-8512.368333,-1036.288319,-536.266849
994.126347,-9548.656652,-592.164754,1685.410096
994.126667,-10955.047942,-1036.288319,0.000000
994.126988,-12879.583391,1480.411884,4060.306139
994.127308,-10732.986159,-518.144159,6665.030833
994.127629,-12065.356855,-1480.411884,4213.525239
994.127950,-9474.636058,-2442.679609,1838.629195
994.128270,-7994.224174,-4737.318029,-1225.752797
994.128591,-7550.100608,-1036.288319,-1608.800546
994.128912,-9252.574275,-888.247130,306.438199
994.129232,-7105.977043,-296.082377,-919.314598
994.129553,-8512.368333,888.247130,-842.705048
994.129873,-9474.636058,-148.041188,-1302.362347
994.130194,-9918.759623,-814.226536,-766.095498
994.130515,-10066.800811,-148.041188,1378.971896
994.130835,-11251.130318,-148.041188,1685.410096
994.131156,-10955.047942,1332.370696,3370.820191
994.131476,-10955.047942,-1554.432478,2681.334243
994.131797,-8290.306550,-518.144159,-766.095498
994.132118,-9696.697840,-222.061783,306.438199
994.132438,-8956.491898,-666.185348,-76.609550
994.132759,-9696.697840,740.205942,1302.362347
994.133080,-9400.615463,0.000000,76.609550
994.133400,-9548.656652,-592.164754,-612.876398
994.133721,-10658.965565,888.247130,1915.238745
994.134041,-10140.821405,296.082377,3447.429741
994.134362,-11695.253884,-222.061783,3140.991542
994.134683,-10288.862594,-592.164754,2528.115143
994.135003,-9030.512492,-2294.638420,0.000000
994.135324,-9844.739029,-814.226536,536.266849
994.135644,-8142.265362,740.205942,153.219100
994.135965,-9622.677246,666.185348,1838.629195
994.136286,-8364.327145,148.041188,536.266849
994.136606,-7550.100608,-1480.411884,-1532.190996
994.136927,-10214.842000,-814.226536,766.095498
994.137248,-9918.759623,1036.288319,3370.820191
994.137568,-11399.171507,1184.329507,5515.887586
994.137889,-12213.398043,222.061783,6511.811733
994.138209,-10066.800811,-3256.906145,2681.334243
994.138530,-9252.574275,-4145.153275,766.095498
994.138851,-8956.491898,-1110.308913,612.876398
994.139171,-8808.450710,814.226536,1225.752797
994.139492,-9178.553681,3108.864956,2451.505594
994.139812,-8068.244768,814.226536,919.314598
994.140133,-8808.450710,-1628.453072,-536.266849
994.140454,-9622.677246,0.000000,1915.238745
994.140774,-11547.212695,-1110.308913,3370.820191
994.141095,-9696.697840,370.102971,2911.162892
994.141416,-9474.636058,-296.082377,612.876398
994.141736,-6883.915261,-888.247130,-2068.457845
994.142057,-7846.182985,370.102971,-2681.334243
994.142377,-8734.430116,2146.597232,153.219100
994.142698,-9030.512492,0.000000,1302.362347
994.143019,-8586.388927,-370.102971,0.000000
994.143339,-10807.006753,-2442.679609,0.000000
994.143660,-10436.903782,-1480.411884,383.047749
994.143980,-9770.718434,888.247130,4290.134789
994.144301,-11547.212695,-1628.453072,3524.039291
994.144622,-9400.615463,74.020594,2068.457845
994.144942,-9992.780217,-2590.720797,-383.047749
994.145263,-9474.636058,-2886.803174,-2145.067394
994.145584,-9770.718434,0.000000,-536.266849
994.145904,-9548.656652,222.061783,0.000000
994.146225,-9178.553681,2220.617826,383.047749
994.146545,-9770.718434,1998.556043,-842.705048
994.146866,-10362.883188,0.000000,-1225.752797
994.147187,-11029.068536,296.082377,383.047749
994.147507,-11399.171507,-666.185348,1685.410096
994.147828,-11251.130318,-1332.370696,1991.848295
994.148149,-9252.574275,74.020594,0.000000
994.148469,-9844.739029,-2072.576638,-153.219100
994.148790,-8586.388927,-518.144159,-383.047749
994.149110,-8438.347739,-370.102971,766.095498
994.149431,-9474.636058,-148.041188,1378.971896
994.149752,-10066.800811,0.000000,2374.896044
994.150072,-10140.821405,-2442.679609,459.657299
994.150393,-7698.141797,-296.082377,229.828649
994.150713,-10881.027347,0.000000,2987.772442
994.151034,-10732.986159,0.000000,3524.039291
994.151355,-9474.636058,814.226536,3370.820191
994.151675,-9474.636058,-3330.926739,229.828649
994.151996,-6957.935855,-1036.288319,-1302.362347
994.152317,-9474.636058,-222.061783,919.314598
994.152637,-8512.368333,-814.226536,1608.800546
994.152958,-8586.388927,592.164754,2298.286494
994.153278,-9400.615463,-888.247130,1838.629195
994.153599,-8660.409521,-1480.411884,1455.581446
994.153920,-10214.842000,-962.267725,2374.896044
994.154240,-9770.718434,-814.226536,3677.258390
994.154561,-9844.739029,222.061783,3370.820191
994.154882,-9548.656652,888.247130,3217.601092
994.155202,-9030.512492,-2368.659014,0.000000
994.155523,-8956.491898,0.000000,536.266849
994.155844,-8956.491898,-1332.370696,689.485948
994.156164,-9548.656652,518.144159,2298.286494
994.156485,-11695.253884,0.000000,2451.505594
994.156806,-9030.512492,0.000000,689.485948
994.157126,-11177.109724,888.247130,1302.362347
994.157447,-9770.718434,1184.329507,2145.067394
994.157768,-10288.862594,0.000000,1991.848295
994.158088,-10288.862594,740.205942,1915.238745
994.158409,-8882.471304,-814.226536,-842.705048
994.158730,-9474.636058,-148.041188,-612.876398
994.159050,-9474.636058,1998.556043,1532.190996
994.159371,-9548.656652,592.164754,1838.629195
994.159692,-11399.171507,148.041188,2681.334243
994.160012,-9474.636058,-1628.453072,0.000000
994.160333,-9622.677246,-3552.988522,-1608.800546
994.160654,-9548.656652,962.267725,1991.848295
994.160974,-10955.047942,296.082377,3140.991542
994.161295,-10510.924376,666.185348,3064.381992
994.161616,-9622.677246,74.020594,459.657299
994.161936,-8512.368333,-2738.761985,-2911.162892
994.162257,-8364.327145,148.041188,-1378.971896
994.162578,-10214.842000,0.000000,306.438199
994.162898,-8660.409521,-518.144159,229.828649
994.163219,-8364.327145,-1258.350101,-1225.752797
994.163540,-8438.347739,-1998.556043,-2221.676944
994.163860,-8956.491898,-1702.473667,-995.924147
994.164181,-10288.862594,592.164754,2681.334243
994.164502,-11917.315666,740.205942,4136.915689
994.164822,-9918.759623,2368.659014,3064.381992
994.165143,-10288.862594,-2146.597232,2374.896044
994.165464,-9474.636058,-3404.947333,919.314598
994.165784,-9770.718434,-3034.844362,1991.848295
994.166105,-9400.615463,-1998.556043,1149.143247
994.166426,-9030.512492,370.102971,1685.410096
994.166746,-7698.141797,0.000000,-383.047749
994.167067,-8956.491898,-296.082377,-689.485948
994.167388,-9844.739029,444.123565,612.876398
994.167708,-9474.636058,962.267725,766.095498
994.168029,-10955.047942,0.000000,2834.553343
994.168350,-9844.739029,-370.102971,2145.067394
994.168670,-10510.924376,-2368.659014,1302.362347
994.168991,-10066.800811,-1332.370696,1378.971896
994.169312,-9030.512492,444.123565,2451.505594
994.169632,-10066.800811,-148.041188,1991.848295
994.169953,-9548.656652,518.144159,1608.800546
994.170274,-9030.512492,-740.205942,-766.095498
994.170595,-10732.986159,0.000000,-229.828649
994.170915,-9030.512492,1110.308913,1072.533697
994.171236,-9770.718434,518.144159,2298.286494
994.171557,-10955.047942,74.020594,3140.991542
994.171877,-9844.739029,-1776.494261,995.924147
994.172198,-9400.615463,-2072.576638,76.609550
994.172519,-9548.656652,-518.144159,0.000000
994.172839,-10066.800811,74.020594,1378.971896
994.173160,-9104.533087,2368.659014,1915.238745
994.173481,-9104.533087,296.082377,1072.533697
994.173801,-8364.327145,-2294.638420,-1991.848295
994.174122,-8364.327145,0.000000,-153.219100
994.174443,-10658.965565,-740.205942,2451.505594
994.174763,-9844.739029,0.000000,3447.429741
994.175084,-10510.924376,-296.082377,3600.648841
994.175405,-9770.718434,-2442.679609,0.000000
994.175725,-8734.430116,1184.329507,689.485948
994.176046,-11177.109724,888.247130,2681.334243
994.176367,-9104.533087,666.185348,3217.601092
994.176687,-8956.491898,-444.123565,842.705048
994.177008,-8438.347739,-2220.617826,-766.095498
994.177329,-8956.491898,-2146.597232,536.266849
994.177649,-9548.656652,740.205942,2298.286494
994.177970,-11029.068536,-1036.288319,2681.334243
994.178291,-9474.636058,444.123565,1225.752797
994.178611,-8660.409521,-1184.329507,-1532.190996
994.178932,-8956.491898,-666.185348,-1302.362347
994.179253,-9474.636058,1924.535449,842.705048
994.179573,-9918.759623,666.185348,1685.410096
994.179894,-9918.759623,1110.308913,1762.019645
994.180215,-8290.306550,-814.226536,-1149.143247
994.180535,-10214.842000,-1850.514855,-1378.971896
994.180856,-10732.986159,666.185348,2145.067394
994.181177,-10436.903782,-444.123565,2911.162892
994.181497,-10510.924376,518.144159,2068.457845
994.181818,-9474.636058,0.000000,1225.752797
994.182139,-9104.533087,-1998.556043,-919.314598
994.182459,-10214.842000,0.000000,689.485948
994.182780,-9992.780217,148.041188,1762.019645
994.183101,-9474.636058,222.061783,766.095498
994.183421,-9992.780217,1110.308913,919.314598
994.183742,-10140.821405,-2220.617826,76.609550
994.184063,-8808.450710,0.000000,459.657299
994.184383,-11325.150913,-666.185348,2604.724693
994.184704,-10140.821405,0.000000,2221.676944
994.185025,-10066.800811,1998.556043,2834.553343
994.185345,-9474.636058,-2590.720797,689.485948
994.185666,-7476.080014,-1406.391290,-766.095498
994.185987,-9548.656652,-444.123565,1225.752797
994.186307,-8734.430116,-444.123565,383.047749
994.186628,-8734.430116,1702.473667,2221.676944
994.186949,-9622.677246,-740.205942,2068.457845
994.187269,-9252.574275,-1850.514855,612.876398
994.187590,-9844.739029,592.164754,1532.190996
994.187911,-9918.759623,0.000000,2451.505594
994.188231,-9844.739029,1332.370696,3064.381992
994.188552,-9770.718434,814.226536,2374.896044
994.188873,-9104.533087,-1850.514855,-229.828649
994.189193,-8364.327145,0.000000,-536.266849
994.189514,-8808.450710,-222.061783,1455.581446
994.189835,-10140.821405,-222.061783,3294.210641
994.190155,-10288.862594,-148.041188,2681.334243
994.190476,-9474.636058,-1924.535449,229.828649
994.190797,-9474.636058,-444.123565,306.438199
994.191117,-9474.636058,1924.535449,2681.334243
994.191438,-11473.192101,740.205942,3600.648841
994.191759,-10066.800811,1184.329507,3677.258390
994.192079,-9474.636058,-2146.597232,0.000000
994.192400,-9622.677246,-2146.597232,-919.314598
994.192721,-9252.574275,74.020594,1149.143247
994.193041,-9400.615463,-296.082377,1225.752797
994.193362,-10140.821405,962.267725,1838.629195
994.193683,-8364.327145,0.000000,76.609550
994.194003,-10066.800811,-1924.535449,-1072.533697
994.194324,-10288.862594,-296.082377,1532.190996
994.194645,-10658.965565,-1332.370696,2528.115143
994.194965,-10658.965565,-370.102971,3447.429741
994.195286,-8956.491898,-518.144159,536.266849
994.195607,-8364.327145,-1776.494261,-1762.019645
994.195927,-8660.409521,962.267725,-459.657299
994.196248,-10436.903782,222.061783,1838.629195
994.196569,-9770.718434,-740.205942,1838.629195
994.196889,-9474.636058,-1998.556043,612.876398
994.197210,-9326.594869,-4219.173869,-1762.019645
994.197531,-9474.636058,-2072.576638,-1149.143247
994.197851,-10732.986159,0.000000,2374.896044
994.198172,-10510.924376,2072.576638,3294.210641
994.198493,-10584.944971,2516.700203,3294.210641
994.198813,-10436.903782,-1702.473667,383.047749
994.199134,-8290.306550,-3256.906145,-1532.190996
994.199455,-10066.800811,-2368.659014,-1225.752797
994.199775,-9030.512492,-592.164754,-229.828649
994.200096,-8290.306550,740.205942,-536.266849
994.200417,-6957.935855,1036.288319,-1149.143247
994.200737,-8142.265362,-1702.473667,-2528.115143
994.201058,-8882.471304,370.102971,-689.485948
994.201379,-11621.233289,-222.061783,2298.286494
994.201699,-12435.459826,1184.329507,3983.696590
994.202020,-10658.965565,814.226536,4136.915689
994.202341,-11547.212695,-2886.803174,1302.362347
994.202661,-9326.594869,-296.082377,2298.286494
994.202982,-9992.780217,-1924.535449,1915.238745
994.203303,-9474.636058,-518.144159,1378.971896
994.203623,-8216.285956,0.000000,306.438199
994.203944,-8068.244768,-2294.638420,-1991.848295
994.204265,-8956.491898,0.000000,-1149.143247
994.204585,-9030.512492,1480.411884,1302.362347
994.204906,-9918.759623,1480.411884,2604.724693
994.205227,-10955.047942,592.164754,3064.381992
994.205547,-9770.718434,-1850.514855,1225.752797
994.205868,-10510.924376,-2368.659014,612.876398
994.206189,-10288.862594,-148.041188,2451.505594
994.206509,-9178.553681,370.102971,2987.772442
994.206830,-10362.883188,1110.308913,3140.991542
994.207151,-8364.327145,370.102971,383.047749
994.207471,-9474.636058,-1480.411884,-612.876398
994.207792,-9326.594869,74.020594,-995.924147
994.208113,-9548.656652,-148.041188,1915.238745
994.208433,-10658.965565,-148.041188,2987.772442
994.208754,-9622.677246,-740.205942,2145.067394
994.209075,-9030.512492,-1776.494261,229.828649
994.209395,-10214.842000,296.082377,1302.362347
994.209716,-9770.718434,962.267725,2451.505594
994.210037,-10658.965565,222.061783,2298.286494
994.210357,-8586.388927,666.185348,1991.848295
994.210678,-8142.265362,-2368.659014,-383.047749
994.210999,-8512.368333,-740.205942,0.000000
994.211319,-8882.471304,-370.102971,612.876398
994.211640,-9548.656652,-1110.308913,919.314598
994.211961,-9104.533087,444.123565,995.924147
994.212281,-9104.533087,-1110.308913,-153.219100
994.212602,-9770.718434,-1850.514855,0.000000
994.212923,-10436.903782,592.164754,1991.848295
994.213243,-11325.150913,-148.041188,3600.648841
994.213564,-10658.965565,-888.247130,3447.429741
994.213885,-9178.553681,0.000000,1915.238745
994.214205,-11695.253884,-1480.411884,842.705048
994.214526,-10066.800811,2960.823768,2374.896044
994.214847,-11029.068536,962.267725,3983.696590
994.215167,-8660.409521,-370.102971,1685.410096
994.215488,-7994.224174,-1110.308913,-383.047749
994.215809,-8364.327145,-3182.885551,-3830.477490
994.216130,-7772.162391,1332.370696,-2987.772442
994.216450,-9696.697840,1258.350101,0.000000
994.216771,-9622.677246,592.164754,1225.752797
994.217092,-9696.697840,740.205942,1455.581446
994.217412,-11177.109724,-3034.844362,-459.657299
994.217733,-9474.636058,-1258.350101,0.000000
994.218054,-10955.047942,-518.144159,2681.334243
994.218374,-10066.800811,1036.288319,3524.039291
994.218695,-10955.047942,148.041188,3524.039291
994.219016,-10140.821405,-2516.700203,-689.485948
994.219336,-7254.018232,-1184.329507,-1225.752797
994.219657,-9400.615463,-2960.823768,-612.876398
994.219978,-8142.265362,-370.102971,459.657299
994.220298,-9918.759623,-370.102971,2987.772442
994.220619,-8734.430116,-1184.329507,229.828649
994.220940,-8882.471304,-444.123565,76.609550
994.221260,-10732.986159,-518.144159,2298.286494
994.221581,-9326.594869,222.061783,2374.896044
994.221902,-11547.212695,1036.288319,3140.991542
994.222222,-8512.368333,1110.308913,1455.581446
994.222543,-8660.409521,-1480.411884,-383.047749
994.222864,-9548.656652,-370.102971,229.828649
994.223184,-9326.594869,-888.247130,766.095498
994.223505,-9844.739029,-666.185348,2298.286494
994.223826,-8734.430116,-370.102971,1762.019645
994.224146,-9548.656652,-1850.514855,1149.143247
994.224467,-10436.903782,-1924.535449,1302.362347
994.224788,-9326.594869,1110.308913,3217.601092
994.225108,-11843.295072,814.226536,3524.039291
994.225429,-9252.574275,1850.514855,3983.696590
994.225750,-9474.636058,-1332.370696,536.266849
994.226070,-9770.718434,-444.123565,-306.438199
994.226391,-8882.471304,444.123565,-612.876398
994.226712,-9474.636058,74.020594,689.485948
994.227032,-9178.553681,888.247130,1532.190996
994.227353,-9474.636058,-962.267725,-459.657299
994.227674,-10288.862594,-1702.473667,-612.876398
994.227994,-9622.677246,-296.082377,1072.533697
994.228315,-10658.965565,-592.164754,2681.334243
994.228636,-11177.109724,-962.267725,3524.039291
994.228956,-9252.574275,-296.082377,2298.286494
994.229277,-9252.574275,-2072.576638,-612.876398
994.229598,-9252.574275,0.000000,0.000000
994.229918,-9400.615463,0.000000,689.485948
994.230239,-9770.718434,888.247130,1149.143247
994.230560,-9326.594869,888.247130,689.485948
994.230880,-9622.677246,-1184.329507,-1225.752797
994.231201,-9918.759623,444.123565,76.609550
994.231522,-10584.944971,888.247130,1225.752797
994.231842,-10066.800811,-222.061783,1762.019645
994.232163,-9770.718434,370.102971,2068.457845
994.232484,-9400.615463,-1480.411884,-689.485948
994.232804,-9474.636058,-592.164754,-1532.190996
994.233125,-8882.471304,1406.391290,76.609550
994.233446,-9474.636058,740.205942,995.924147
994.233766,-9474.636058,888.247130,2145.067394
994.234087,-9696.697840,-2442.679609,383.047749
994.234408,-9030.512492,-3182.885551,-1302.362347
994.234728,-9548.656652,-592.164754,766.095498
994.235049,-11177.109724,1036.288319,2987.772442
994.235370,-11473.192101,2220.617826,4903.011187
994.235690,-10066.800811,1332.370696,4519.963438
994.236011,-9252.574275,-1628.453072,919.314598
994.236332,-7920.203579,-518.144159,-995.924147
994.236652,-9918.759623,-962.267725,-1378.971896
994.236973,-7031.956449,74.020594,689.485948
994.237294,-7254.018232,592.164754,-842.705048
994.237614,-7105.977043,-740.205942,-2221.676944
994.237935,-7772.162391,-1924.535449,-2987.772442
994.238256,-7994.224174,814.226536,-306.438199
994.238576,-13471.748144,592.164754,3983.696590
994.238897,-12361.439231,296.082377,6665.030833
994.239218,-11547.212695,-962.267725,4443.353888
994.239538,-11843.295072,-1628.453072,3753.867940
994.239859,-9326.594869,-740.205942,2987.772442
994.240180,-9622.677246,-1924.535449,3753.867940
994.240500,-9992.780217,-1480.411884,2834.553343
994.240821,-6513.812290,-1776.494261,-842.705048
994.241142,-8438.347739,-1702.473667,-612.876398
994.241462,-8512.368333,1406.391290,-306.438199
994.241783,-9400.615463,1850.514855,1608.800546
994.242104,-10807.006753,740.205942,3294.210641
994.242424,-9474.636058,74.020594,2451.505594
994.242745,-10510.924376,-3552.988522,1149.143247
994.243066,-10807.006753,-1332.370696,2145.067394
994.243386,-10881.027347,-962.267725,3370.820191
994.243707,-10140.821405,-888.247130,2987.772442
994.244028,-9474.636058,666.185348,2145.067394
994.244348,-8586.388927,-1554.432478,-1149.143247
994.244669,-8734.430116,-666.185348,-1762.019645
994.244990,-8808.450710,444.123565,459.657299
994.245310,-10807.006753,-1110.308913,1378.971896
994.245631,-10066.800811,-148.041188,2145.067394
994.245952,-10436.903782,-3256.906145,0.000000
994.246272,-9400.615463,-2294.638420,-229.828649
994.246593,-10436.903782,-1628.453072,842.705048
994.246914,-10584.944971,-814.226536,1685.410096
994.247234,-10066.800811,444.123565,1915.238745
994.247555,-9548.656652,-592.164754,-1225.752797
994.247876,-9104.533087,-1036.288319,-2068.457845
994.248196,-8438.347739,1406.391290,-1225.752797
994.248517,-10140.821405,1184.329507,306.438199
994.248838,-9474.636058,2590.720797,1302.362347
994.249158,-9548.656652,1110.308913,383.047749
994.249479,-7920.203579,-2294.638420,-1608.800546
994.249800,-8586.388927,-1036.288319,-459.657299
994.250120,-10214.842000,-1998.556043,1072.533697
994.250441,-10732.986159,296.082377,3447.429741
994.250762,-11325.150913,518.144159,3524.039291
994.251082,-10658.965565,-1480.411884,2221.676944
994.251403,-10881.027347,296.082377,1532.190996
994.251724,-10732.986159,3775.050304,5822.325785
994.252044,-13175.665768,-1554.432478,2298.286494
994.252365,-3330.926739,1110.308913,2451.505594
994.252686,-9400.615463,-3404.947333,-2604.724693
994.253007,-6809.894666,-370.102971,-1608.800546
994.253327,-6883.915261,-814.226536,-2451.505594
994.253648,-9770.718434,2220.617826,1532.190996
994.253969,-8734.430116,1628.453072,919.314598
994.254290,-9696.697840,592.164754,1608.800546
994.254610,-12287.418637,-740.205942,4749.792088
994.254931,-9548.656652,-1258.350101,1838.629195
994.255252,-10066.800811,-666.185348,3447.429741
994.255573,-10436.903782,666.185348,4443.353888
994.255893,-7105.977043,1036.288319,1685.410096
994.256214,-9918.759623,-2072.576638,0.000000
994.256535,-7772.162391,1702.473667,-229.828649
994.256856,-8068.244768,740.205942,-306.438199
994.257177,-10288.862594,0.000000,995.924147
994.257497,-9104.533087,1184.329507,2451.505594
994.257818,-10140.821405,-1480.411884,612.876398
994.258139,-11473.192101,0.000000,1915.238745
994.258460,-9918.759623,814.226536,4060.306139
994.258780,-10658.965565,-666.185348,3064.381992
994.259101,-10066.800811,888.247130,2987.772442
994.259422,-9770.718434,-74.020594,0.000000
994.259743,-7772.162391,962.267725,-1149.143247
994.260063,-9474.636058,1258.350101,-766.095498
994.260384,-8882.471304,1110.308913,689.485948
994.260705,-10881.027347,1258.350101,229.828649
994.261026,-9844.739029,-1702.473667,842.705048
994.261346,-9474.636058,-3182.885551,-153.219100
994.261667,-10510.924376,-2294.638420,1149.143247
994.261988,-10732.986159,-2664.741391,1762.019645
994.262309,-9548.656652,518.144159,1991.848295
994.262630,-9622.677246,-370.102971,919.314598
994.262950,-8216.285956,-1924.535449,-1608.800546
994.263271,-9030.512492,148.041188,-689.485948
994.263592,-9326.594869,-1406.391290,-306.438199
994.263913,-8882.471304,-444.123565,459.657299
994.264233,-9474.636058,-592.164754,536.266849
994.264554,-9622.677246,-3775.050304,-612.876398
994.264875,-9918.759623,-814.226536,-689.485948
994.265196,-11103.089130,-1776.494261,2068.457845
994.265516,-11399.171507,-1406.391290,1915.238745
994.265837,-10510.924376,666.185348,2757.943793
994.266158,-9178.553681,-3330.926739,-919.314598
994.266479,-7772.162391,148.041188,-2145.067394
994.266800,-9696.697840,592.164754,1685.410096
994.267120,-9548.656652,-1628.453072,383.047749
994.267441,-8660.409521,74.020594,1532.190996
994.267762,-8956.491898,-1924.535449,-306.438199
994.268083,-9326.594869,-1332.370696,153.219100
994.268403,-11251.130318,-444.123565,1838.629195
994.268724,-10510.924376,74.020594,3677.258390
994.269045,-10807.006753,-814.226536,3064.381992
994.269366,-8512.368333,-1184.329507,76.609550
994.269686,-9474.636058,-2590.720797,-229.828649
994.270007,-9030.512492,-1184.329507,0.000000
994.270328,-8290.306550,-518.144159,306.438199
994.270649,-9844.739029,1110.308913,2221.676944
994.270969,-9622.677246,1480.411884,1991.848295
994.271290,-9844.739029,-1110.308913,536.266849
994.271611,-10436.903782,148.041188,842.705048
994.271932,-9400.615463,1184.329507,2451.505594
994.272253,-11103.089130,-592.164754,2528.115143
994.272573,-10214.842000,1702.473667,4136.915689
994.272894,-9918.759623,-1036.288319,1685.410096
994.273215,-8808.450710,-1110.308913,-766.095498
994.273536,-9474.636058,2072.576638,1991.848295
994.273856,-9770.718434,518.144159,2451.505594
994.274177,-9918.759623,1480.411884,2298.286494
994.274498,-9548.656652,222.061783,1762.019645
994.274819,-8660.409521,-1850.514855,-766.095498
994.275139,-9474.636058,740.205942,1225.752797
994.275460,-11103.089130,592.164754,3140.991542
994.275781,-10140.821405,2146.597232,4290.134789
994.276102,-10955.047942,-592.164754,3370.820191
994.276423,-8438.347739,-2146.597232,-766.095498
994.276743,-8438.347739,0.000000,-612.876398
994.277064,-10510.924376,0.000000,1302.362347
994.277385,-9400.615463,1406.391290,995.924147
994.277706,-9696.697840,-518.144159,1532.190996
994.278026,-8734.430116,-2590.720797,-842.705048
994.278347,-9770.718434,-888.247130,-1225.752797
994.278668,-10436.903782,1406.391290,2451.505594
994.278989,-10510.924376,370.102971,2451.505594
994.279309,-9326.594869,1776.494261,2221.676944
994.279630,-8586.388927,-2368.659014,-689.485948
994.279951,-8956.491898,-2960.823768,-1455.581446
994.280272,-9474.636058,-2368.659014,-153.219100
994.280592,-9474.636058,-1480.411884,383.047749
994.280913,-9770.718434,1776.494261,2298.286494
994.281234,-9030.512492,1628.453072,459.657299
994.281555,-9622.677246,-1480.411884,306.438199
994.281876,-8882.471304,1776.494261,689.485948
994.282196,-10436.903782,-888.247130,766.095498
994.282517,-9696.697840,370.102971,1455.581446
994.282838,-10362.883188,0.000000,1532.190996
994.283159,-9474.636058,-2738.761985,-1455.581446
994.283479,-8438.347739,740.205942,0.000000
994.283800,-10066.800811,-1332.370696,2145.067394
994.284121,-9178.553681,-518.144159,1685.410096
994.284442,-10658.965565,444.123565,1225.752797
994.284762,-10510.924376,-2072.576638,-153.219100
994.285083,-9474.636058,888.247130,1072.533697
994.285404,-9992.780217,1628.453072,2298.286494
994.285725,-11251.130318,518.144159,1149.143247
994.286046,-8068.244768,296.082377,459.657299
994.286366,-8216.285956,-3627.009116,-3064.381992
994.286687,-8364.327145,-1406.391290,-2451.505594
994.287008,-10288.862594,444.123565,383.047749
994.287329,-12213.398043,592.164754,3983.696590
994.287649,-11177.109724,2072.576638,5439.278036
994.287970,-11251.130318,-1258.350101,2451.505594
994.288291,-9918.759623,-2590.720797,842.705048
994.288612,-9992.780217,-592.164754,1608.800546
994.288932,-9252.574275,-1258.350101,1378.971896
994.289253,-8734.430116,-148.041188,1685.410096
994.289574,-7105.977043,74.020594,0.000000
994.289895,-7105.977043,-2294.638420,-2834.553343
994.290215,-9104.533087,-666.185348,383.047749
994.290536,-10362.883188,-370.102971,2681.334243
994.290857,-11103.089130,1036.288319,4519.963438
994.291178,-11399.171507,888.247130,4903.011187
994.291499,-9474.636058,-1406.391290,1608.800546
994.291819,-10436.903782,-1258.350101,1532.190996
994.292140,-9178.553681,-1184.329507,2757.943793
994.292461,-9474.636058,-1332.370696,2068.457845
994.292782,-8956.491898,-222.061783,2528.115143
994.293102,-8290.306550,-2220.617826,-1149.143247
994.293423,-8216.285956,74.020594,-995.924147
994.293744,-9992.780217,888.247130,1455.581446
994.294065,-9622.677246,370.102971,1915.238745
994.294385,-10510.924376,1258.350101,2451.505594
994.294706,-10140.821405,-740.205942,1455.581446
994.295027,-10732.986159,-1924.535449,766.095498
994.295348,-9104.533087,1258.350101,2298.286494
994.295669,-9326.594869,814.226536,2528.115143
994.295989,-9252.574275,1258.350101,1915.238745
994.296310,-8216.285956,-296.082377,-383.047749
994.296631,-8438.347739,-1776.494261,-2068.457845
994.296952,-8734.430116,962.267725,0.000000
994.297272,-10510.924376,0.000000,1685.410096
994.297593,-11103.089130,2220.617826,4749.792088
994.297914,-12657.521608,74.020594,4136.915689
994.298235,-9918.759623,-148.041188,2451.505594
994.298555,-10955.047942,-1406.391290,1608.800546
994.298876,-8956.491898,962.267725,1991.848295
994.299197,-10436.903782,0.000000,2145.067394
994.299518,-8216.285956,1850.514855,1378.971896
994.299838,-6217.729913,814.226536,-1072.533697
994.300159,-8438.347739,-370.102971,-1302.362347
994.300480,-9844.739029,1406.391290,689.485948
994.300801,-10510.924376,518.144159,2298.286494
994.301122,-10510.924376,2294.638420,3524.039291
994.301442,-10658.965565,2664.741391,3217.601092
994.301763,-11103.089130,1110.308913,3064.381992
994.302084,-10658.965565,1998.556043,3370.820191
994.302405,-10066.800811,1258.350101,3600.648841
994.302725,-9030.512492,1776.494261,2757.943793
994.303046,-7994.224174,1036.288319,1225.752797
994.303367,-8142.265362,-592.164754,-459.657299
994.303688,-6809.894666,888.247130,-766.095498
994.304008,-8216.285956,2442.679609,2911.162892
994.304329,-9326.594869,1554.432478,2987.772442
994.304650,-9326.594869,1850.514855,4673.182538
994.304971,-11399.171507,-1480.411884,5056.230287
994.305292,-9770.718434,-962.267725,3600.648841
994.305612,-10807.006753,2664.741391,4979.620737
994.305933,-11251.130318,2664.741391,5056.230287
994.306254,-7846.182985,5995.668130,4366.744339
994.306575,-9474.636058,5033.400406,4443.353888
994.306895,-8142.265362,1776.494261,3370.820191
994.307216,-8734.430116,1184.329507,1378.971896
994.307537,-10436.903782,296.082377,2528.115143
994.307858,-9918.759623,296.082377,3524.039291
994.308178,-9252.574275,1924.535449,5592.497135
994.308499,-10214.842000,1184.329507,5515.887586
994.308820,-9844.739029,148.041188,4060.306139
994.309141,-10066.800811,740.205942,3907.087040
994.309461,-11103.089130,0.000000,4213.525239
994.309782,-9696.697840,2146.597232,4136.915689
994.310103,-9474.636058,2812.782580,4060.306139
994.310424,-10288.862594,4293.194464,5439.278036
994.310745,-9844.739029,3552.988522,4903.011187
994.311065,-9326.594869,592.164754,4136.915689
994.311386,-9918.759623,1332.370696,3753.867940
994.311707,-9474.636058,1406.391290,2987.772442
994.312028,-10066.800811,1110.308913,3370.820191
994.312348,-9548.656652,3034.844362,3753.867940
994.312669,-8808.450710,1850.514855,3294.210641
994.312990,-9844.739029,370.102971,2681.334243
994.313311,-9400.615463,1628.453072,3217.601092
994.313631,-9474.636058,444.123565,2068.457845
994.313952,-9992.780217,592.164754,1838.629195
994.314273,-9030.512492,2072.576638,2911.162892
994.314594,-9326.594869,1702.473667,3064.381992
994.314915,-10436.903782,814.226536,3830.477490
994.315235,-10066.800811,296.082377,4290.134789
994.315556,-8956.491898,-296.082377,1838.629195
994.315877,-8808.450710,1184.329507,1225.752797
994.316198,-9548.656652,1776.494261,2145.067394
994.316518,-8438.347739,2664.741391,3677.258390
994.316839,-7846.182985,1776.494261,1915.238745
994.317160,-9400.615463,1258.350101,1762.019645
994.317481,-9548.656652,1702.473667,2911.162892
994.317801,-10584.944971,888.247130,3677.258390
994.318122,-10140.821405,1480.411884,4060.306139
994.318443,-10066.800811,1702.473667,3064.381992
994.318764,-9178.553681,1480.411884,2451.505594
994.319084,-8660.409521,2516.700203,2451.505594
994.319405,-9622.677246,2368.659014,2681.334243
994.319726,-9622.677246,2368.659014,3907.087040
994.320047,-9326.594869,2294.638420,3907.087040
994.320368,-9844.739029,1702.473667,3064.381992
994.320688,-11029.068536,2516.700203,2528.115143
994.321009,-9844.739029,3478.967927,4903.011187
994.321330,-10140.821405,1110.308913,4366.744339
994.321651,-9400.615463,814.226536,2528.115143
994.321971,-9696.697840,962.267725,2911.162892
994.322292,-10362.883188,370.102971,2757.943793
994.322613,-10658.965565,1924.535449,4213.525239
994.322934,-10881.027347,2220.617826,3370.820191
994.323254,-9104.533087,3627.009116,2681.334243
994.323575,-9252.574275,3404.947333,3294.210641
994.323896,-9622.677246,3108.864956,3830.477490
994.324217,-9770.718434,888.247130,3753.867940
994.324538,-9844.739029,1554.432478,3753.867940
994.324858,-10140.821405,2886.803174,7431.126331
994.325179,-9992.780217,2220.617826,5745.716235
994.325500,-10066.800811,2812.782580,6052.154434
994.325821,-9844.739029,1776.494261,4290.134789
994.326141,-8216.285956,2590.720797,2911.162892
994.326462,-8882.471304,1998.556043,2757.943793
994.326783,-8734.430116,1554.432478,2834.553343
994.327104,-9696.697840,666.185348,2604.724693
994.327424,-9252.574275,518.144159,2145.067394
994.327745,-9178.553681,2516.700203,2451.505594
994.328066,-9844.739029,2590.720797,3294.210641
994.328387,-10807.006753,3775.050304,5286.058936
994.328707,-10584.944971,2812.782580,5132.839837
994.329028,-9474.636058,1036.288319,3600.648841
994.329349,-8734.430116,1406.391290,2451.505594
994.329670,-9104.533087,1332.370696,2528.115143
994.329991,-8882.471304,1332.370696,3140.991542
994.330311,-9030.512492,1480.411884,2987.772442
994.330632,-8660.409521,1184.329507,1378.971896
994.330953,-8438.347739,1628.453072,1149.143247
994.331274,-9992.780217,2590.720797,2987.772442
994.331594,-11251.130318,3034.844362,5132.839837
994.331915,-11399.171507,3256.906145,6128.763984
994.332236,-10362.883188,2072.576638,4903.011187
994.332557,-9844.739029,1406.391290,3447.429741
994.332877,-10140.821405,1036.288319,2911.162892
994.333198,-9474.636058,962.267725,2451.505594
994.333519,-9030.512492,1850.514855,1915.238745
994.333840,-8586.388927,1628.453072,612.876398
994.334161,-8216.285956,1480.411884,306.438199
994.334481,-9696.697840,370.102971,995.924147
994.334802,-10066.800811,592.164754,2298.286494
994.335123,-10288.862594,814.226536,2374.896044
994.335444,-9844.739029,1628.453072,3140.991542
994.335764,-10362.883188,1036.288319,3907.087040
994.336085,-10214.842000,1924.535449,4826.401637
994.336406,-11251.130318,518.144159,4596.572988
994.336727,-9844.739029,1480.411884,3983.696590
994.337047,-9622.677246,1776.494261,3294.210641
994.337368,-8586.388927,1702.473667,2451.505594
994.337689,-9030.512492,2368.659014,3064.381992
994.338010,-9030.512492,1924.535449,3140.991542
994.338331,-9326.594869,1406.391290,3140.991542
994.338651,-8956.491898,444.123565,2681.334243
994.338972,-9474.636058,0.000000,2528.115143
994.339293,-9918.759623,592.164754,3370.820191
994.339614,-9992.780217,1702.473667,4060.306139
994.339934,-9622.677246,2146.597232,3907.087040
994.340255,-9474.636058,2146.597232,3447.429741
994.340576,-9622.677246,1776.494261,4060.306139
994.340897,-9770.718434,1850.514855,4749.792088
994.341217,-9992.780217,1702.473667,5132.839837
994.341538,-9474.636058,1998.556043,5515.887586
994.341859,-9918.759623,2072.576638,5362.668486
994.342180,-9474.636058,2294.638420,5362.668486
994.342500,-9326.594869,2072.576638,4366.744339
994.342821,-9178.553681,2294.638420,4060.306139
994.343142,-9400.615463,1036.288319,2068.457845
994.343463,-8734.430116,666.185348,1455.581446
994.343784,-9178.553681,444.123565,536.266849
994.344104,-9548.656652,1258.350101,1149.143247
994.344425,-10436.903782,1628.453072,766.095498
994.344746,-10436.903782,1480.411884,1915.238745
994.345067,-10658.965565,1776.494261,2451.505594
994.345387,-10510.924376,1406.391290,2987.772442
994.345708,-10881.027347,666.185348,3064.381992
994.346029,-10066.800811,1480.411884,3677.258390
994.346350,-9474.636058,1184.329507,3753.867940
994.346670,-8956.491898,1554.432478,3370.820191
994.346991,-9030.512492,1776.494261,3370.820191
994.347312,-8882.471304,1776.494261,3140.991542
994.347633,-8956.491898,2072.576638,3294.210641
994.347954,-9474.636058,1998.556043,3524.039291
994.348274,-9918.759623,2220.617826,3370.820191
994.348595,-9770.718434,2072.576638,2911.162892
994.348916,-10066.800811,2368.659014,3140.991542
994.349237,-9918.759623,2368.659014,3064.381992
994.349557,-9770.718434,2368.659014,2681.334243
994.349878,-9252.574275,2072.576638,4596.572988
994.350199,-9696.697840,2368.659014,3064.381992
994.350520,-9992.780217,2368.659014,3677.258390
994.350840,-9548.656652,2368.659014,3830.477490
994.351161,-9474.636058,1850.514855,3983.696590
994.351482,-9474.636058,2072.576638,3907.087040
994.351803,-9178.553681,1702.473667,3830.477490
994.352123,-9178.553681,1480.411884,3447.429741
994.352444,-9252.574275,1406.391290,2987.772442
994.352765,-9326.594869,1480.411884,2145.067394
994.353086,-9400.615463,1702.473667,2374.896044
994.353407,-9400.615463,1628.453072,2374.896044
994.353727,-9548.656652,1406.391290,2221.676944
994.354048,-9474.636058,1332.370696,2451.505594
994.354369,-9918.759623,1258.350101,2834.553343
994.354690,-10066.800811,1184.329507,2757.943793
994.355010,-9844.739029,1036.288319,2681.334243
994.355331,-9844.739029,1258.350101,2911.162892
994.355652,-9622.677246,1554.432478,3217.601092
994.355973,-9474.636058,1110.308913,2834.553343
994.356294,-9030.512492,888.247130,2528.115143
994.356614,-8956.491898,296.082377,2298.286494
994.356935,-8882.471304,-1184.329507,2145.067394
994.357256,-8882.471304,-666.185348,1915.238745
994.357577,-9622.677246,-1110.308913,1685.410096
994.357897,-9696.697840,0.000000,1532.190996
994.358218,-10362.883188,592.164754,1838.629195
994.358539,-10584.944971,1258.350101,1915.238745
994.358860,-10584.944971,1554.432478,1685.410096
994.359181,-10436.903782,1258.350101,1072.533697
994.359501,-9770.718434,1702.473667,842.705048
994.359822,-9622.677246,1258.350101,612.876398
994.360143,-9474.636058,1332.370696,842.705048
994.360464,-9252.574275,1554.432478,1149.143247
994.360785,-9474.636058,1628.453072,1762.019645
994.361105,-9548.656652,1110.308913,2298.286494
994.361426,-9918.759623,740.205942,2451.505594
994.361747,-9770.718434,888.247130,2757.943793
994.362068,-9918.759623,814.226536,3217.601092
994.362389,-9548.656652,1036.288319,3140.991542
994.362709,-9622.677246,1110.308913,3370.820191
994.363030,-9622.677246,1110.308913,3370.820191
994.363351,-9400.615463,1258.350101,3524.039291
994.363672,-9548.656652,1332.370696,3677.258390
994.363992,-9400.615463,814.226536,3677.258390
994.364313,-9918.759623,1480.411884,4903.011187
994.364634,-9992.780217,1480.411884,5209.449386
994.364955,-9992.780217,1554.432478,5515.887586
994.365276,-9844.739029,1702.473667,5745.716235
994.365596,-9770.718434,1480.411884,5822.325785
994.365917,-9474.636058,1406.391290,5975.544884
994.366238,-9474.636058,1776.494261,5592.497135
994.366559,-9178.553681,1776.494261,5745.716235
994.366880,-9548.656652,2294.638420,6205.373534
994.367200,-9474.636058,2516.700203,6128.763984
994.367521,-9474.636058,2368.659014,5975.544884
994.367842,-9474.636058,2664.741391,6205.373534
994.368163,-9326.594869,2960.823768,7048.078582
994.368483,-9918.759623,2664.741391,6665.030833
994.368804,-9992.780217,3552.988522,6818.249932
994.369125,-9992.780217,3404.947333,6588.421283
994.369446,-9548.656652,3627.009116,6205.373534
994.369767,-9474.636058,3627.009116,5209.449386
994.370087,-9326.594869,3478.967927,4673.182538
994.370408,-9104.533087,3552.988522,3677.258390
994.370729,-9252.574275,2738.761985,3217.601092
994.371050,-8512.368333,3552.988522,3447.429741
994.371371,-9622.677246,3182.885551,2451.505594
994.371691,-9252.574275,3701.029710,2604.724693
994.372012,-9474.636058,2590.720797,2221.676944
994.372333,-9696.697840,3034.844362,1608.800546
994.372654,-9918.759623,2368.659014,919.314598
994.372975,-9474.636058,1850.514855,0.000000
994.373295,-9474.636058,2072.576638,-153.219100
994.373616,-9326.594869,1702.473667,-536.266849
994.373937,-9770.718434,2294.638420,459.657299
994.374258,-9992.780217,1850.514855,919.314598
994.374578,-10140.821405,2294.638420,1302.362347
994.374899,-10658.965565,2072.576638,2451.505594
994.375220,-10510.924376,2368.659014,2604.724693
994.375541,-10362.883188,2072.576638,2911.162892
994.375862,-9844.739029,2220.617826,2681.334243
994.376182,-9252.574275,2220.617826,2528.115143
994.376503,-8364.327145,2812.782580,3753.867940
994.376824,-9548.656652,2072.576638,2298.286494
994.377145,-9104.533087,2516.700203,1532.190996
994.377466,-9622.677246,1998.556043,842.705048
994.377786,-9474.636058,1850.514855,2145.067394
994.378107,-9252.574275,1406.391290,0.000000
994.378428,-9474.636058,1480.411884,842.705048
994.378749,-10066.800811,888.247130,1838.629195
994.379070,-10066.800811,888.247130,3217.601092
994.379390,-10807.006753,592.164754,4596.572988
994.379711,-10807.006753,444.123565,5745.716235
994.380032,-10955.047942,740.205942,7048.078582
994.380353,-10140.821405,1036.288319,7660.954980
994.380673,-10214.842000,1702.473667,8273.831378
994.380994,-9548.656652,1480.411884,7814.174080
994.381315,-8808.450710,592.164754,6588.421283
994.381636,-8216.285956,-370.102971,4290.134789
994.381957,-8068.244768,-518.144159,3140.991542
994.382277,-8364.327145,0.000000,2604.724693
994.382598,-8808.450710,222.061783,2834.553343
994.382919,-9252.574275,0.000000,3064.381992
994.383240,-10066.800811,-518.144159,2987.772442
994.383561,-10955.047942,-370.102971,2987.772442
994.383881,-11251.130318,0.000000,4060.306139
994.384202,-11103.089130,1110.308913,5822.325785
994.384523,-10288.862594,1110.308913,6971.469032
994.384844,-9474.636058,1332.370696,6281.983084
994.385165,-9104.533087,148.041188,5745.716235
994.385485,-8660.409521,-592.164754,3677.258390
994.385806,-7846.182985,222.061783,3524.039291
994.386127,-8216.285956,1480.411884,3677.258390
994.386448,-8882.471304,2294.638420,3600.648841
994.386768,-9030.512492,2590.720797,3294.210641
994.387089,-9400.615463,2072.576638,2451.505594
994.387410,-9770.718434,2294.638420,2528.115143
994.387731,-11177.109724,2516.700203,2757.943793
994.388052,-10658.965565,2516.700203,2528.115143
994.388372,-10140.821405,2220.617826,383.047749
994.388693,-9252.574275,3108.864956,-766.095498
994.389014,-9474.636058,2738.761985,383.047749
994.389335,-9400.615463,2960.823768,536.266849
994.389656,-9696.697840,2072.576638,383.047749
994.389976,-9178.553681,1850.514855,229.828649
994.390297,-9252.574275,1850.514855,995.924147
994.390618,-9844.739029,2590.720797,3294.210641
994.390939,-10584.944971,2664.741391,5209.449386
994.391260,-10436.903782,1998.556043,4060.306139
994.391580,-9326.594869,1850.514855,2068.457845
994.391901,-8290.306550,2220.617826,2374.896044
994.392222,-9548.656652,4071.132681,3447.429741
994.392543,-10584.944971,3478.967927,3677.258390
994.392863,-10288.862594,3775.050304,3524.039291
994.393184,-9844.739029,3552.988522,2298.286494
994.393505,-10510.924376,3997.112087,3983.696590
994.393826,-9918.759623,3182.885551,3370.820191
994.394147,-10362.883188,2664.741391,3294.210641
994.394467,-9326.594869,3108.864956,2987.772442
994.394788,-9030.512492,2442.679609,2681.334243
994.395109,-9104.533087,1850.514855,3907.087040
994.395430,-9770.718434,1036.288319,4596.572988
994.395751,-10436.903782,1776.494261,6128.763984
994.396071,-10807.006753,1480.411884,6971.469032
994.396392,-9770.718434,888.247130,6205.373534
994.396713,-9474.636058,0.000000,5209.449386
994.397034,-9104.533087,888.247130,4979.620737
994.397354,-9770.718434,814.226536,5898.935335
994.397675,-9252.574275,888.247130,5439.278036
994.397996,-8586.388927,1406.391290,5669.106685
994.398317,-9696.697840,2590.720797,4213.525239
994.398638,-9326.594869,2220.617826,3677.258390
994.398958,-9252.574275,3330.926739,4060.306139
994.399279,-9474.636058,3997.112087,4290.134789
994.399600,-9252.574275,2220.617826,3677.258390
994.399921,-7920.203579,592.164754,3600.648841
994.400242,-9474.636058,-666.185348,3370.820191
994.400562,-9918.759623,-814.226536,3140.991542
994.400883,-9474.636058,-592.164754,2451.505594
994.401204,-8068.244768,666.185348,2145.067394
994.401525,-8808.450710,1998.556043,1838.629195
994.401846,-10140.821405,2664.741391,3600.648841
994.402166,-10362.883188,1702.473667,4060.306139
994.402487,-9844.739029,1258.350101,3907.087040
994.402808,-10955.047942,-592.164754,2451.505594
994.403129,-9252.574275,1332.370696,2528.115143
994.403449,-9992.780217,2072.576638,2681.334243
994.403770,-10140.821405,2368.659014,2604.724693
994.404091,-8734.430116,3256.906145,1838.629195
994.404412,-8734.430116,1628.453072,76.609550
994.404733,-9474.636058,74.020594,-536.266849
994.405053,-9844.739029,740.205942,-766.095498
994.405374,-9918.759623,2664.741391,842.705048
994.405695,-9548.656652,3108.864956,1455.581446
994.406016,-10584.944971,3552.988522,3447.429741
994.406337,-10584.944971,1776.494261,3524.039291
994.406657,-11251.130318,-518.144159,2298.286494
994.406978,-10140.821405,296.082377,1762.019645
994.407299,-10955.047942,1258.350101,3064.381992
994.407620,-8956.491898,2664.741391,2221.676944
994.407941,-9326.594869,1998.556043,2681.334243
994.408261,-9326.594869,1480.411884,2911.162892
994.408582,-9252.574275,-296.082377,2068.457845
994.408903,-8512.368333,-1924.535449,1225.752797
994.409224,-9548.656652,-592.164754,1149.143247
994.409544,-9400.615463,222.061783,3600.648841
994.409865,-9548.656652,740.205942,3753.867940
994.410186,-9474.636058,1554.432478,4673.182538
994.410507,-8808.450710,-518.144159,1685.410096
994.410828,-8734.430116,962.267725,459.657299
994.411148,-9474.636058,1628.453072,3370.820191
994.411469,-9474.636058,0.000000,3524.039291
994.411790,-10288.862594,-814.226536,4136.915689
994.412111,-10214.842000,-1702.473667,3447.429741
994.412432,-9474.636058,-2072.576638,2145.067394
994.412752,-9252.574275,666.185348,2987.772442
994.413073,-9326.594869,1850.514855,5439.278036
994.413394,-9548.656652,1924.535449,5439.278036
994.413715,-9252.574275,-1258.350101,4826.401637
994.414036,-7920.203579,-2664.741391,2528.115143
994.414356,-8512.368333,-296.082377,2145.067394
994.414677,-9992.780217,814.226536,3753.867940
994.414998,-9474.636058,2590.720797,4903.011187
994.415319,-9030.512492,2960.823768,3677.258390
994.415639,-9548.656652,666.185348,1838.629195
994.415960,-9326.594869,-148.041188,1838.629195
994.416281,-11547.212695,-370.102971,2298.286494
994.416602,-10881.027347,0.000000,1532.190996
994.416923,-8808.450710,1924.535449,0.000000
994.417243,-7846.182985,3256.906145,-919.314598
994.417564,-8290.306550,1924.535449,-1762.019645
994.417885,-8882.471304,1628.453072,-689.485948
994.418206,-10066.800811,814.226536,459.657299
994.418527,-9992.780217,-1628.453072,995.924147
994.418847,-10584.944971,-1850.514855,995.924147
994.419168,-10955.047942,-1628.453072,1532.190996
994.419489,-10584.944971,-1924.535449,0.000000
994.419810,-9178.553681,2590.720797,1685.410096
994.420131,-10140.821405,370.102971,306.438199
994.420451,-9178.553681,1554.432478,-1149.143247
994.420772,-9992.780217,592.164754,-2298.286494
994.421093,-8734.430116,-222.061783,-3447.429741
994.421414,-9030.512492,1924.535449,-2145.067394
994.421734,-9622.677246,296.082377,383.047749
994.422055,-10214.842000,-2664.741391,-383.047749
994.422376,-9548.656652,-592.164754,689.485948
994.422697,-11547.212695,-4811.338623,-689.485948
994.423018,-9326.594869,-1184.329507,0.000000
994.423338,-11103.089130,962.267725,2987.772442
994.423659,-9918.759623,-370.102971,2451.505594
994.423980,-9030.512492,1776.494261,1915.238745
994.424301,-8586.388927,-592.164754,76.609550
994.424622,-7476.080014,0.000000,-766.095498
994.424942,-9474.636058,2368.659014,2451.505594
994.425263,-10288.862594,-814.226536,2681.334243
994.425584,-9770.718434,222.061783,2068.457845
994.425905,-11621.233289,-3256.906145,-1072.533697
994.426225,-5995.668130,962.267725,1225.752797
994.426546,-13545.768739,-2738.761985,3064.381992
994.426867,-8512.368333,444.123565,4136.915689
994.427188,-10214.842000,-3552.988522,-459.657299
994.427509,-9770.718434,-1184.329507,1072.533697
994.427829,-6661.853478,-3478.967927,-2374.896044
994.428150,-11473.192101,-370.102971,5362.668486
994.428471,-9992.780217,1554.432478,4903.011187
994.428792,-8216.285956,-1554.432478,-306.438199
994.429113,-10510.924376,-148.041188,919.314598
994.429433,-7105.977043,-814.226536,-536.266849
994.429754,-11843.295072,-814.226536,766.095498
994.430075,-11769.274478,2516.700203,7354.516781
994.430396,-9252.574275,-2442.679609,3907.087040
994.430717,-10436.903782,-3404.947333,3294.210641
994.431037,-9770.718434,-2960.823768,919.314598
994.431358,-10584.944971,-666.185348,1149.143247
994.431679,-11103.089130,1776.494261,3600.648841
994.432000,-9030.512492,1110.308913,2298.286494
994.432320,-8364.327145,-296.082377,-766.095498
994.432641,-8808.450710,-1850.514855,-2221.676944
994.432962,-8290.306550,-2220.617826,-2298.286494
994.433283,-10732.986159,0.000000,1685.410096
994.433604,-9400.615463,0.000000,2374.896044
994.433924,-10510.924376,-666.185348,2374.896044
994.434245,-9474.636058,-518.144159,995.924147
994.434566,-9918.759623,-2368.659014,689.485948
994.434887,-10066.800811,148.041188,2374.896044
994.435208,-9252.574275,592.164754,1685.410096
994.435528,-9474.636058,-444.123565,0.000000
994.435849,-8438.347739,592.164754,-842.705048
994.436170,-8068.244768,-2368.659014,-995.924147
994.436491,-9474.636058,-1036.288319,-1378.971896
994.436812,-9400.615463,592.164754,919.314598
994.437132,-10140.821405,-592.164754,153.219100
994.437453,-10066.800811,370.102971,229.828649
994.437774,-9326.594869,740.205942,0.000000
994.438095,-9918.759623,-296.082377,229.828649
994.438415,-9622.677246,1258.350101,689.485948
994.438736,-9474.636058,666.185348,1225.752797
994.439057,-9252.574275,-148.041188,306.438199
994.439378,-8956.491898,-592.164754,-229.828649
994.439699,-8956.491898,-444.123565,-306.438199
994.440019,-9992.780217,1702.473667,1608.800546
994.440340,-9400.615463,1480.411884,2528.115143
994.440661,-10214.842000,888.247130,2298.286494
994.440982,-9918.759623,-148.041188,919.314598
994.441303,-9844.739029,-1776.494261,76.609550
994.441623,-9844.739029,0.000000,1532.190996
994.441944,-9622.677246,888.247130,2451.505594
994.442265,-10140.821405,444.123565,2528.115143
994.442586,-9326.594869,1332.370696,1532.190996
994.442907,-9474.636058,-1036.288319,0.000000
994.443227,-9178.553681,888.247130,766.095498
994.443548,-10584.944971,1332.370696,3217.601092
994.443869,-10140.821405,-370.102971,3447.429741
994.444190,-10214.842000,-1628.453072,2145.067394
994.444510,-8512.368333,-888.247130,1072.533697
994.444831,-9326.594869,-962.267725,995.924147
994.445152,-9622.677246,1628.453072,2911.162892
994.445473,-9770.718434,740.205942,4443.353888
994.445794,-9474.636058,-740.205942,2068.457845
994.446114,-8364.327145,-592.164754,-689.485948
994.446435,-8956.491898,-1110.308913,0.000000
994.446756,-9918.759623,-370.102971,1225.752797
994.447077,-10140.821405,1702.473667,3294.210641
994.447398,-10658.965565,-814.226536,2145.067394
994.447718,-8290.306550,0.000000,459.657299
994.448039,-10066.800811,-1702.473667,383.047749
994.448360,-10140.821405,-1110.308913,1762.019645
994.448681,-9474.636058,-222.061783,3524.039291
994.449002,-9400.615463,-1480.411884,1762.019645
994.449322,-8882.471304,-740.205942,-383.047749
994.449643,-9030.512492,-1776.494261,-536.266849
994.449964,-9104.533087,-1406.391290,-383.047749
994.450285,-9992.780217,1184.329507,3140.991542
994.450605,-9992.780217,-962.267725,1532.190996
994.450926,-9252.574275,-1480.411884,-153.219100
994.451247,-9400.615463,-296.082377,0.000000
994.451568,-10807.006753,-2590.720797,-995.924147
994.451889,-9104.533087,1702.473667,1378.971896
994.452209,-10807.006753,-814.226536,1225.752797
994.452530,-8586.388927,-370.102971,-1378.971896
994.452851,-9178.553681,-370.102971,-383.047749
994.453172,-9548.656652,-2960.823768,-1991.848295
994.453493,-8808.450710,0.000000,1838.629195
994.453813,-11103.089130,-1110.308913,842.705048
994.454134,-9326.594869,0.000000,689.485948
994.454455,-10066.800811,-1480.411884,766.095498
994.454776,-9326.594869,-1406.391290,-612.876398
994.455096,-10066.800811,0.000000,1532.190996
994.455417,-10288.862594,148.041188,2451.505594
994.455738,-8808.450710,-1110.308913,612.876398
994.456058,-10214.842000,-1850.514855,76.609550
994.456379,-8586.388927,-3404.947333,-2757.943793
994.456700,-8808.450710,-666.185348,-536.266849
994.457020,-10288.862594,814.226536,2374.896044
994.457341,-9548.656652,74.020594,2068.457845
994.457662,-9770.718434,814.226536,1532.190996
994.457982,-9770.718434,-1258.350101,612.876398
994.458303,-9474.636058,-1036.288319,0.000000
994.458624,-10362.883188,1406.391290,3217.601092
994.458944,-10066.800811,-518.144159,2451.505594
994.459265,-9178.553681,-148.041188,1762.019645
994.459586,-8882.471304,-962.267725,1378.971896
994.459906,-7994.224174,-1258.350101,995.924147
994.460227,-10510.924376,444.123565,2374.896044
994.460547,-9992.780217,370.102971,3294.210641
994.460868,-9474.636058,0.000000,2604.724693
994.461189,-9622.677246,148.041188,1838.629195
994.461509,-9844.739029,-888.247130,689.485948
994.461830,-11695.253884,1036.288319,3294.210641
994.462151,-9844.739029,2368.659014,4366.744339
994.462471,-11325.150913,0.000000,4213.525239
994.462792,-10214.842000,-518.144159,3370.820191
994.463113,-9548.656652,-3849.070898,612.876398
994.463433,-9474.636058,-2368.659014,0.000000
994.463754,-9474.636058,1554.432478,2145.067394
994.464075,-8364.327145,444.123565,995.924147
994.464395,-7328.038826,2368.659014,-1455.581446
994.464716,-7846.182985,74.020594,-1762.019645
994.465037,-9030.512492,-962.267725,-229.828649
994.465357,-9770.718434,-370.102971,2374.896044
994.465678,-10288.862594,-2368.659014,2757.943793
994.465999,-10140.821405,-2220.617826,2298.286494
994.466319,-8882.471304,-1332.370696,842.705048
994.466640,-9622.677246,-888.247130,306.438199
994.466961,-9474.636058,1628.453072,2298.286494
994.467281,-10510.924376,1184.329507,2604.724693
994.467602,-10584.944971,0.000000,919.314598
994.467923,-9400.615463,296.082377,-1225.752797
994.468243,-9474.636058,-592.164754,-1455.581446
994.468564,-9548.656652,1702.473667,766.095498
994.468885,-9474.636058,1924.535449,2374.896044
994.469205,-8734.430116,-666.185348,-229.828649
994.469526,-8734.430116,-592.164754,-2221.676944
994.469847,-7402.059420,-1480.411884,-3600.648841
994.470167,-9622.677246,0.000000,-1608.800546
994.470488,-10436.903782,3330.926739,2145.067394
994.470809,-9622.677246,2368.659014,2298.286494
994.471129,-10362.883188,1628.453072,1378.971896
994.471450,-10584.944971,-518.144159,689.485948
994.471771,-10658.965565,-1924.535449,306.438199
994.472091,-11547.212695,0.000000,2681.334243
994.472412,-9030.512492,-1258.350101,1762.019645
994.472733,-8290.306550,-666.185348,-612.876398
994.473053,-9252.574275,0.000000,-536.266849
994.473374,-8882.471304,-1110.308913,-766.095498
994.473694,-9622.677246,1110.308913,2145.067394
994.474015,-11177.109724,-740.205942,3447.429741
994.474336,-9030.512492,-1258.350101,2298.286494
994.474656,-10807.006753,-1850.514855,1915.238745
994.474977,-9770.718434,-2442.679609,2145.067394
994.475298,-9474.636058,-1110.308913,1762.019645
994.475618,-8882.471304,740.205942,536.266849
994.475939,-7698.141797,-962.267725,-1302.362347
994.476260,-7994.224174,1332.370696,-1149.143247
994.476580,-9474.636058,-592.164754,0.000000
994.476901,-9770.718434,-592.164754,2298.286494
994.477222,-11251.130318,-888.247130,5592.497135
994.477542,-11621.233289,-2960.823768,5056.230287
994.477863,-11325.150913,-3701.029710,4060.306139
994.478184,-9474.636058,-3330.926739,2757.943793
994.478504,-9770.718434,-2664.741391,1685.410096
994.478825,-7328.038826,0.000000,2528.115143
994.479146,-7624.121203,148.041188,536.266849
994.479466,-8142.265362,-1036.288319,-536.266849
994.479787,-7328.038826,-370.102971,-2298.286494
994.480108,-9104.533087,-814.226536,-1225.752797
994.480428,-10140.821405,1110.308913,2298.286494
994.480749,-10807.006753,888.247130,3140.991542
994.481070,-11547.212695,-888.247130,3677.258390
994.481390,-10807.006753,-1406.391290,1991.848295
994.481711,-9474.636058,-1258.350101,842.705048
994.482032,-10732.986159,222.061783,306.438199
994.482352,-9104.533087,2886.803174,1915.238745
994.482673,-9400.615463,518.144159,76.609550
994.482994,-8586.388927,888.247130,-919.314598
994.483314,-8364.327145,-518.144159,-459.657299
994.483635,-9400.615463,-666.185348,-919.314598
994.483956,-11325.150913,148.041188,2528.115143
994.484276,-10955.047942,-740.205942,2911.162892
994.484597,-10955.047942,-444.123565,1838.629195
994.484918,-10066.800811,666.185348,1302.362347
994.485238,-10436.903782,-222.061783,1225.752797
994.485559,-10140.821405,1406.391290,1608.800546
994.485880,-8882.471304,888.247130,536.266849
994.486200,-8142.265362,0.000000,-2145.067394
994.486521,-8808.450710,370.102971,-3600.648841
994.486841,-9474.636058,-592.164754,-1991.848295
994.487162,-9844.739029,1110.308913,919.314598
994.487483,-10140.821405,296.082377,2298.286494
994.487803,-10510.924376,-888.247130,1532.190996
994.488124,-10807.006753,-740.205942,766.095498
994.488445,-9474.636058,-2146.597232,766.095498
994.488765,-10658.965565,-2886.803174,995.924147
994.489086,-8512.368333,666.185348,2451.505594
994.489407,-9252.574275,-2368.659014,76.609550
994.489727,-7031.956449,-444.123565,-1915.238745
994.490048,-8512.368333,0.000000,-229.828649
994.490369,-8882.471304,-592.164754,153.219100
994.490689,-8660.409521,1184.329507,1991.848295
994.491010,-9918.759623,-222.061783,3140.991542
994.491331,-9400.615463,0.000000,2221.676944
994.491651,-9400.615463,-370.102971,2451.505594
994.491972,-10288.862594,-1998.556043,2221.676944
994.492293,-9252.574275,0.000000,3064.381992
994.492613,-8660.409521,740.205942,2451.505594
994.492934,-8956.491898,0.000000,995.924147
994.493255,-8142.265362,1110.308913,612.876398
994.493575,-9474.636058,-1554.432478,0.000000
994.493896,-8364.327145,1406.391290,1225.752797
994.494217,-11325.150913,296.082377,2987.772442
994.494537,-10288.862594,-592.164754,3217.601092
994.494858,-9918.759623,0.000000,2298.286494
994.495179,-10362.883188,-1184.329507,1378.971896
994.495499,-9992.780217,74.020594,2068.457845
994.495820,-10214.842000,1702.473667,3677.258390
994.496141,-10362.883188,0.000000,1378.971896
994.496461,-9178.553681,222.061783,0.000000
994.496782,-8956.491898,-1406.391290,-1225.752797
994.497103,-8808.450710,-1110.308913,-1302.362347
994.497423,-10214.842000,1406.391290,2528.115143
994.497744,-11029.068536,-814.226536,2834.553343
994.498065,-9252.574275,-1110.308913,1455.581446
994.498385,-9474.636058,-814.226536,995.924147
994.498706,-10214.842000,-2960.823768,1608.800546
