#time,accel_x,accel_y,accel_z
955.990377,-9622.677246,-444.123565,229.828649
955.990698,-9770.718434,-740.205942,995.924147
955.991020,-9548.656652,-222.061783,1149.143247
955.991341,-9622.677246,-148.041188,1225.752797
955.991662,-9474.636058,-888.247130,-76.609550
955.991983,-9326.594869,-222.061783,1225.752797
955.992304,-9622.677246,-296.082377,1072.533697
955.992625,-9770.718434,-370.102971,1149.143247
955.992946,-9548.656652,-444.123565,995.924147
955.993267,-9622.677246,-296.082377,1455.581446
955.993588,-9474.636058,-444.123565,1225.752797
955.993909,-9696.697840,-370.102971,1072.533697
955.994230,-9548.656652,-370.102971,995.924147
955.994551,-9622.677246,-518.144159,1915.238745
955.994872,-9548.656652,-296.082377,995.924147
955.995194,-9548.656652,-296.082377,1378.971896
955.995515,-9474.636058,-444.123565,1149.143247
955.995836,-9696.697840,-518.144159,2145.067394
955.996157,-9326.594869,-592.164754,919.314598
955.996478,-9548.656652,-370.102971,689.485948
955.996799,-9696.697840,-444.123565,766.095498
955.997120,-9474.636058,-370.102971,1225.752797
955.997441,-9622.677246,-962.267725,306.438199
955.997762,-9474.636058,-518.144159,689.485948
955.998083,-9770.718434,-148.041188,766.095498
955.998404,-9696.697840,0.000000,1378.971896
955.998725,-9622.677246,-740.205942,1455.581446
955.999046,-9844.739029,-370.102971,1225.752797
955.999367,-9696.697840,-444.123565,1072.533697
955.999689,-9548.656652,-518.144159,1149.143247
956.000010,-9474.636058,-518.144159,919.314598
956.000331,-9622.677246,-666.185348,1072.533697
956.000652,-9400.615463,-814.226536,842.705048
956.000973,-9326.594869,-1258.350101,306.438199
956.001294,-9474.636058,-888.247130,229.828649
956.001615,-9770.718434,-592.164754,459.657299
956.001936,-9770.718434,-814.226536,842.705048
956.002257,-9252.574275,-962.267725,76.609550
956.002578,-9548.656652,-962.267725,-229.828649
956.002899,-9992.780217,-222.061783,76.609550
956.003220,-10140.821405,-814.226536,383.047749
956.003541,-9622.677246,-962.267725,76.609550
956.003863,-9548.656652,-1110.308913,-153.219100
956.004184,-9474.636058,-1184.329507,0.000000
956.004505,-9622.677246,-1998.556043,-536.266849
956.004826,-9474.636058,-2368.659014,-459.657299
956.005147,-9400.615463,-2368.659014,-1149.143247
956.005468,-9178.553681,-2442.679609,-1455.581446
956.005789,-9400.615463,-2516.700203,-1762.019645
956.006110,-9252.574275,-2590.720797,-2374.896044
956.006431,-9474.636058,-2590.720797,-2911.162892
956.006752,-9548.656652,-2368.659014,-2987.772442
956.007073,-10066.800811,-2442.679609,-3600.648841
956.007394,-9548.656652,-3256.906145,-4060.306139
956.007715,-9474.636058,-3552.988522,-4060.306139
956.008036,-9770.718434,-3552.988522,-3907.087040
956.008358,-9696.697840,-3775.050304,-4136.915689
956.008679,-9474.636058,-4071.132681,-3983.696590
956.009000,-9696.697840,-4663.297435,-2987.772442
956.009321,-9474.636058,-4737.318029,-2911.162892
956.009642,-9474.636058,-4885.359217,-3140.991542
956.009963,-9548.656652,-4441.235652,-2757.943793
956.010284,-9326.594869,-4219.173869,-2604.724693
956.010605,-9326.594869,-3923.091493,-2528.115143
956.010926,-9474.636058,-3701.029710,-2374.896044
956.011247,-8808.450710,-3775.050304,-2451.505594
956.011568,-9548.656652,-3552.988522,-2604.724693
956.011889,-9696.697840,-3552.988522,-2221.676944
956.012210,-9770.718434,-3108.864956,-2145.067394
956.012532,-10658.965565,-3256.906145,-2834.553343
956.012853,-9622.677246,-3330.926739,-689.485948
956.013174,-9844.739029,-3182.885551,0.000000
956.013495,-10140.821405,-3627.009116,919.314598
956.013816,-10140.821405,-3256.906145,1685.410096
956.014137,-9770.718434,-3478.967927,1378.971896
956.014458,-9770.718434,-3108.864956,1302.362347
956.014779,-9326.594869,-3108.864956,842.705048
956.015100,-9030.512492,-2960.823768,153.219100
956.015421,-9030.512492,-3552.988522,-612.876398
956.015742,-9030.512492,-2960.823768,-766.095498
956.016063,-9252.574275,-2886.803174,-995.924147
956.016384,-9696.697840,-2664.741391,-536.266849
956.016705,-10362.883188,-2812.782580,1532.190996
956.017027,-10214.842000,-2664.741391,-153.219100
956.017348,-10436.903782,-2886.803174,0.000000
956.017669,-10214.842000,-3034.844362,0.000000
956.017990,-9770.718434,-3108.864956,0.000000
956.018311,-9548.656652,-2960.823768,0.000000
956.018632,-9178.553681,-2220.617826,536.266849
956.018953,-9474.636058,-1776.494261,919.314598
956.019274,-9252.574275,-1258.350101,1378.971896
956.019595,-9104.533087,-962.267725,1378.971896
956.019916,-9178.553681,-370.102971,612.876398
956.020237,-8956.491898,-666.185348,-76.609550
956.020558,-8512.368333,-962.267725,-1302.362347
956.020879,-8512.368333,-1554.432478,-2145.067394
956.021201,-8734.430116,-2146.597232,-2757.943793
956.021522,-9252.574275,-2368.659014,-3600.648841
956.021843,-9474.636058,-2664.741391,-3677.258390
956.022164,-10140.821405,-2220.617826,-4060.306139
956.022485,-10510.924376,-1406.391290,-3983.696590
956.022806,-10436.903782,-814.226536,-3140.991542
956.023127,-10436.903782,-592.164754,-2451.505594
956.023448,-10436.903782,-740.205942,-1072.533697
956.023769,-10288.862594,-1554.432478,-612.876398
956.024090,-9548.656652,-1776.494261,-1685.410096
956.024411,-9326.594869,-1850.514855,-1608.800546
956.024732,-9474.636058,-814.226536,-2221.676944
956.025053,-8882.471304,74.020594,-2068.457845
956.025374,-8808.450710,0.000000,-3217.601092
956.025696,-8290.306550,-888.247130,-3064.381992
956.026017,-9030.512492,-1998.556043,-3447.429741
956.026338,-9474.636058,-2812.782580,-3294.210641
956.026659,-10214.842000,-2590.720797,-2451.505594
956.026980,-10881.027347,-1924.535449,-995.924147
956.027301,-11325.150913,-1554.432478,612.876398
956.027622,-11325.150913,-2072.576638,1225.752797
956.027943,-11177.109724,-2664.741391,459.657299
956.028264,-9622.677246,-2442.679609,-689.485948
956.028585,-9474.636058,-2294.638420,-842.705048
956.028906,-8734.430116,-2146.597232,-383.047749
956.029227,-8290.306550,-3182.885551,-1378.971896
956.029548,-7254.018232,-3849.070898,-689.485948
956.029870,-7624.121203,-3701.029710,-2911.162892
956.030191,-8512.368333,-3552.988522,-1608.800546
956.030512,-9252.574275,-2960.823768,229.828649
956.030833,-10584.944971,-3627.009116,995.924147
956.031154,-10436.903782,-3923.091493,919.314598
956.031475,-10732.986159,-4441.235652,689.485948
956.031796,-10288.862594,-3849.070898,842.705048
956.032117,-10732.986159,-3478.967927,1302.362347
956.032438,-9918.759623,-3330.926739,459.657299
956.032759,-8660.409521,-3330.926739,-1455.581446
956.033080,-8142.265362,-2886.803174,-1915.238745
956.033401,-8808.450710,-1998.556043,-612.876398
956.033722,-8882.471304,-2294.638420,919.314598
956.034043,-9622.677246,-2960.823768,229.828649
956.034365,-8512.368333,-2960.823768,-995.924147
956.034686,-8734.430116,-2738.761985,-1991.848295
956.035007,-9474.636058,-2738.761985,-689.485948
956.035328,-9622.677246,-3182.885551,-612.876398
956.035649,-9918.759623,-3701.029710,-2451.505594
956.035970,-9548.656652,-2960.823768,-3677.258390
956.036291,-9918.759623,-2886.803174,-2911.162892
956.036612,-11177.109724,-2368.659014,-1302.362347
956.036933,-10881.027347,-2590.720797,-2298.286494
956.037254,-9696.697840,-2146.597232,-3140.991542
956.037575,-9178.553681,-2072.576638,-3983.696590
956.037896,-9252.574275,-1924.535449,-2528.115143
956.038217,-9474.636058,-2368.659014,-1302.362347
956.038539,-9474.636058,-1924.535449,-459.657299
956.038860,-9474.636058,-2294.638420,-306.438199
956.039181,-9400.615463,-2146.597232,-842.705048
956.039502,-9770.718434,-1406.391290,-612.876398
956.039823,-9696.697840,-814.226536,-459.657299
956.040144,-9178.553681,-814.226536,-1225.752797
956.040465,-8882.471304,-2072.576638,-1991.848295
956.040786,-7994.224174,-2368.659014,-2757.943793
956.041107,-9622.677246,-2590.720797,-2604.724693
956.041428,-10066.800811,-2886.803174,-1991.848295
956.041749,-9474.636058,-2368.659014,-1991.848295
956.042070,-10658.965565,-1258.350101,-2757.943793
956.042391,-10510.924376,-888.247130,-1685.410096
956.042712,-9474.636058,-1480.411884,-766.095498
956.043034,-9622.677246,-1628.453072,306.438199
956.043354,-10140.821405,-1850.514855,1685.410096
956.043675,-9696.697840,-2072.576638,1685.410096
956.043995,-9178.553681,-1924.535449,1685.410096
956.044316,-9252.574275,-1036.288319,1762.019645
956.044637,-8734.430116,-370.102971,1302.362347
956.044957,-8142.265362,-370.102971,842.705048
956.045278,-8438.347739,-1258.350101,689.485948
956.045599,-9474.636058,-2368.659014,0.000000
956.045919,-9622.677246,-2812.782580,-153.219100
956.046240,-10584.944971,-3108.864956,536.266849
956.046561,-10881.027347,-2220.617826,689.485948
956.046881,-11399.171507,-666.185348,1149.143247
956.047202,-10436.903782,-222.061783,766.095498
956.047523,-10066.800811,-1258.350101,1915.238745
956.047843,-11103.089130,-3034.844362,536.266849
956.048164,-8734.430116,-2664.741391,-1532.190996
956.048484,-8660.409521,-1480.411884,-1532.190996
956.048805,-8364.327145,-222.061783,-229.828649
956.049126,-8438.347739,-296.082377,0.000000
956.049446,-9030.512492,-740.205942,153.219100
956.049767,-10066.800811,-370.102971,459.657299
956.050088,-10066.800811,-1110.308913,-459.657299
956.050408,-10807.006753,-814.226536,-536.266849
956.050729,-10436.903782,-1036.288319,-612.876398
956.051050,-9844.739029,666.185348,-766.095498
956.051370,-9400.615463,962.267725,-153.219100
956.051691,-10732.986159,-1110.308913,383.047749
956.052011,-9400.615463,-3256.906145,-1302.362347
956.052332,-9918.759623,-3108.864956,-2834.553343
956.052653,-8734.430116,-814.226536,-2145.067394
956.052973,-8142.265362,1110.308913,-1532.190996
956.053294,-9178.553681,3034.844362,1762.019645
956.053615,-10066.800811,1480.411884,2987.772442
956.053935,-9252.574275,-962.267725,2451.505594
956.054256,-9918.759623,-3108.864956,1455.581446
956.054577,-9326.594869,-2516.700203,536.266849
956.054897,-9622.677246,-1406.391290,612.876398
956.055218,-9474.636058,666.185348,1762.019645
956.055538,-8364.327145,2812.782580,1685.410096
956.055859,-9474.636058,222.061783,229.828649
956.056180,-9548.656652,-2146.597232,229.828649
956.056500,-10362.883188,-3256.906145,-383.047749
956.056821,-10214.842000,-3404.947333,0.000000
956.057142,-9474.636058,-1776.494261,1455.581446
956.057462,-9992.780217,0.000000,2834.553343
956.057783,-9474.636058,444.123565,1455.581446
956.058104,-9548.656652,148.041188,919.314598
956.058424,-9548.656652,-296.082377,459.657299
956.058745,-8808.450710,222.061783,153.219100
956.059066,-9252.574275,-148.041188,1378.971896
956.059386,-9400.615463,0.000000,3447.429741
956.059707,-9844.739029,-1554.432478,2757.943793
956.060027,-9474.636058,-1628.453072,2681.334243
956.060348,-10140.821405,-444.123565,1991.848295
956.060669,-10214.842000,0.000000,2374.896044
956.060989,-9918.759623,1036.288319,2987.772442
956.061310,-10436.903782,148.041188,3140.991542
956.061631,-9400.615463,148.041188,1685.410096
956.061951,-9548.656652,-962.267725,919.314598
956.062272,-9474.636058,-888.247130,842.705048
956.062593,-8142.265362,666.185348,1302.362347
956.062913,-9770.718434,148.041188,-229.828649
956.063234,-7105.977043,3330.926739,1838.629195
956.063554,-10658.965565,-444.123565,1149.143247
956.063875,-9548.656652,740.205942,2528.115143
956.064196,-9104.533087,-592.164754,1149.143247
956.064516,-10436.903782,-962.267725,2221.676944
956.064837,-8512.368333,-222.061783,1455.581446
956.065158,-9474.636058,296.082377,2681.334243
956.065478,-11029.068536,0.000000,4060.306139
956.065799,-10732.986159,-1110.308913,2451.505594
956.066120,-10955.047942,-1480.411884,1762.019645
956.066440,-9030.512492,74.020594,153.219100
956.066761,-9030.512492,1258.350101,153.219100
956.067081,-10140.821405,1554.432478,612.876398
956.067402,-7550.100608,1110.308913,-995.924147
956.067723,-8068.244768,-148.041188,-2987.772442
956.068043,-8808.450710,74.020594,-2757.943793
956.068364,-8956.491898,0.000000,-1915.238745
956.068685,-9474.636058,1554.432478,689.485948
956.069005,-10362.883188,1036.288319,1915.238745
956.069326,-10288.862594,-1480.411884,1991.848295
956.069647,-10510.924376,-2812.782580,1302.362347
956.069967,-10955.047942,-2590.720797,2145.067394
956.070288,-10584.944971,-888.247130,1762.019645
956.070609,-9548.656652,666.185348,1762.019645
956.070929,-10436.903782,962.267725,2068.457845
956.071250,-9326.594869,-1406.391290,-842.705048
956.071570,-8586.388927,-1258.350101,-1532.190996
956.071891,-9844.739029,-1628.453072,-229.828649
956.072212,-9400.615463,-1480.411884,-1149.143247
956.072532,-9030.512492,0.000000,153.219100
956.072853,-9770.718434,1036.288319,1915.238745
956.073174,-8512.368333,814.226536,842.705048
956.073494,-10510.924376,-1554.432478,919.314598
956.073815,-10807.006753,-2146.597232,1685.410096
956.074136,-8660.409521,-2738.761985,-459.657299
956.074456,-10436.903782,-1332.370696,1302.362347
956.074777,-9252.574275,0.000000,2681.334243
956.075097,-9400.615463,-518.144159,1991.848295
956.075418,-9252.574275,-592.164754,612.876398
956.075739,-9992.780217,-222.061783,459.657299
956.076059,-9326.594869,0.000000,229.828649
956.076380,-9992.780217,74.020594,1072.533697
956.076701,-10140.821405,888.247130,1991.848295
956.077021,-9326.594869,0.000000,2451.505594
956.077342,-9548.656652,-1776.494261,1455.581446
956.077663,-9474.636058,-1554.432478,1685.410096
956.077983,-9696.697840,-2146.597232,153.219100
956.078304,-9844.739029,-222.061783,2451.505594
956.078625,-9252.574275,814.226536,1532.190996
956.078945,-9178.553681,592.164754,1225.752797
956.079266,-9252.574275,-444.123565,842.705048
956.079586,-9252.574275,-962.267725,2068.457845
956.079907,-9622.677246,-962.267725,229.828649
956.080228,-8882.471304,-370.102971,1532.190996
956.080548,-9770.718434,-370.102971,2374.896044
956.080869,-9474.636058,-370.102971,2834.553343
956.081190,-9474.636058,-666.185348,1915.238745
956.081510,-9326.594869,-1406.391290,229.828649
956.081831,-9622.677246,-814.226536,153.219100
956.082152,-9030.512492,518.144159,0.000000
956.082472,-8660.409521,1776.494261,3217.601092
956.082793,-9918.759623,1406.391290,2221.676944
956.083113,-8956.491898,296.082377,1302.362347
956.083434,-10214.842000,-666.185348,229.828649
956.083755,-9844.739029,-370.102971,-306.438199
956.084075,-9474.636058,1036.288319,995.924147
956.084396,-9548.656652,1332.370696,2528.115143
956.084717,-9474.636058,296.082377,1762.019645
956.085037,-9030.512492,-592.164754,1455.581446
956.085358,-9400.615463,-1480.411884,919.314598
956.085679,-9622.677246,-888.247130,1149.143247
956.085999,-10140.821405,518.144159,1991.848295
956.086320,-9548.656652,1258.350101,2451.505594
956.086640,-9548.656652,-888.247130,536.266849
956.086961,-8512.368333,-888.247130,76.609550
956.087282,-9770.718434,-1406.391290,306.438199
956.087602,-9474.636058,148.041188,229.828649
956.087923,-9696.697840,-518.144159,689.485948
956.088244,-9104.533087,962.267725,1302.362347
956.088564,-9992.780217,592.164754,1072.533697
956.088885,-9622.677246,-888.247130,153.219100
956.089206,-10288.862594,-592.164754,995.924147
956.089526,-10584.944971,-666.185348,383.047749
956.089847,-9770.718434,-222.061783,1302.362347
956.090168,-10362.883188,296.082377,2911.162892
956.090488,-11103.089130,-518.144159,3907.087040
956.090809,-11177.109724,-962.267725,1991.848295
956.091129,-8660.409521,-666.185348,766.095498
956.091450,-8512.368333,-2812.782580,-1608.800546
956.091771,-7846.182985,1554.432478,-2068.457845
956.092091,-9474.636058,0.000000,-229.828649
956.092412,-8364.327145,-518.144159,229.828649
956.092733,-8734.430116,-666.185348,1072.533697
956.093053,-10214.842000,-1776.494261,1915.238745
956.093374,-10214.842000,-1554.432478,1991.848295
956.093695,-11177.109724,-296.082377,2451.505594
956.094015,-11399.171507,592.164754,3677.258390
956.094336,-9104.533087,0.000000,3064.381992
956.094656,-9474.636058,-1554.432478,689.485948
956.094977,-8068.244768,-2146.597232,0.000000
956.095298,-8512.368333,-2220.617826,-1378.971896
956.095618,-8956.491898,-1184.329507,0.000000
956.095939,-9104.533087,-444.123565,536.266849
956.096260,-9770.718434,-666.185348,536.266849
956.096580,-9918.759623,-666.185348,153.219100
956.096901,-10732.986159,-1184.329507,766.095498
956.097222,-10362.883188,-1332.370696,612.876398
956.097542,-10066.800811,-1406.391290,459.657299
956.097863,-9548.656652,-888.247130,1149.143247
956.098184,-9178.553681,-666.185348,76.609550
956.098504,-9104.533087,-1480.411884,-766.095498
956.098825,-8660.409521,0.000000,-919.314598
956.099145,-9104.533087,592.164754,-1149.143247
956.099466,-9992.780217,1406.391290,459.657299
956.099787,-9918.759623,888.247130,1302.362347
956.100107,-10807.006753,-1036.288319,2068.457845
956.100428,-10436.903782,-1702.473667,2145.067394
956.100749,-9992.780217,-1998.556043,1455.581446
956.101069,-10658.965565,-1332.370696,1991.848295
956.101390,-8882.471304,148.041188,842.705048
956.101711,-9252.574275,1406.391290,1149.143247
956.102031,-9548.656652,740.205942,1915.238745
956.102352,-8660.409521,0.000000,842.705048
956.102672,-9548.656652,-518.144159,689.485948
956.102993,-10140.821405,-740.205942,1072.533697
956.103314,-8660.409521,0.000000,459.657299
956.103634,-9844.739029,1036.288319,2911.162892
956.103955,-10214.842000,1110.308913,2911.162892
956.104276,-9844.739029,-148.041188,2451.505594
956.104596,-9252.574275,-444.123565,612.876398
956.104917,-8734.430116,-1110.308913,919.314598
956.105238,-9252.574275,-962.267725,919.314598
956.105558,-9474.636058,592.164754,2604.724693
956.105879,-9992.780217,1628.453072,3983.696590
956.106199,-9622.677246,-296.082377,2298.286494
956.106520,-9474.636058,-1258.350101,1302.362347
956.106841,-10214.842000,-888.247130,919.314598
956.107161,-9622.677246,-222.061783,459.657299
956.107482,-10140.821405,962.267725,1608.800546
956.107803,-9252.574275,962.267725,2374.896044
956.108123,-9622.677246,0.000000,1915.238745
956.108444,-10658.965565,-962.267725,2068.457845
956.108765,-9622.677246,-1036.288319,2681.334243
956.109085,-10288.862594,-740.205942,2298.286494
956.109406,-9622.677246,666.185348,2451.505594
956.109727,-9622.677246,222.061783,1838.629195
956.110047,-8586.388927,0.000000,0.000000
956.110368,-8734.430116,-370.102971,-1608.800546
956.110688,-7846.182985,1036.288319,-2068.457845
956.111009,-8956.491898,518.144159,-1149.143247
956.111330,-9696.697840,1110.308913,459.657299
956.111650,-9178.553681,370.102971,919.314598
956.111971,-10807.006753,-1110.308913,306.438199
956.112292,-9474.636058,-1998.556043,689.485948
956.112612,-10955.047942,-2072.576638,995.924147
956.112933,-9696.697840,-740.205942,1915.238745
956.113254,-9992.780217,370.102971,1225.752797
956.113574,-10510.924376,1702.473667,2834.553343
956.113895,-10436.903782,0.000000,2451.505594
956.114215,-9474.636058,-444.123565,1762.019645
956.114536,-10140.821405,0.000000,-459.657299
956.114857,-9104.533087,222.061783,-1532.190996
956.115177,-8882.471304,1258.350101,-689.485948
956.115498,-8512.368333,888.247130,229.828649
956.115819,-8216.285956,-814.226536,-612.876398
956.116139,-9770.718434,-1480.411884,0.000000
956.116460,-10066.800811,-2368.659014,0.000000
956.116781,-10214.842000,-1332.370696,383.047749
956.117101,-9918.759623,888.247130,1455.581446
956.117422,-10658.965565,1258.350101,3447.429741
956.117742,-9770.718434,814.226536,3140.991542
956.118063,-9252.574275,-1110.308913,919.314598
956.118384,-8290.306550,-592.164754,-842.705048
956.118704,-9252.574275,-2072.576638,0.000000
956.119025,-7920.203579,-1110.308913,919.314598
956.119346,-8808.450710,-222.061783,2451.505594
956.119666,-8364.327145,-518.144159,1532.190996
956.119987,-9474.636058,-666.185348,1838.629195
956.120308,-10288.862594,-1628.453072,1915.238745
956.120628,-9770.718434,-1480.411884,1149.143247
956.120949,-9696.697840,-592.164754,2451.505594
956.121270,-8956.491898,-592.164754,5056.230287
956.121590,-9844.739029,-814.226536,3064.381992
956.121911,-9844.739029,-1332.370696,1302.362347
956.122231,-9030.512492,-296.082377,1685.410096
956.122552,-9252.574275,148.041188,2604.724693
956.122873,-9030.512492,0.000000,1838.629195
956.123193,-9548.656652,296.082377,2221.676944
956.123514,-9992.780217,-222.061783,2298.286494
956.123835,-8808.450710,-1110.308913,1455.581446
956.124155,-8734.430116,-1998.556043,1378.971896
956.124476,-9030.512492,-1480.411884,689.485948
956.124797,-9474.636058,-444.123565,459.657299
956.125117,-10214.842000,1480.411884,2298.286494
956.125438,-9918.759623,444.123565,2068.457845
956.125758,-9770.718434,518.144159,1225.752797
956.126079,-11251.130318,0.000000,919.314598
956.126400,-9918.759623,-444.123565,-306.438199
956.126720,-9474.636058,-740.205942,0.000000
956.127041,-9844.739029,888.247130,766.095498
956.127362,-9548.656652,-148.041188,76.609550
956.127682,-10288.862594,-666.185348,153.219100
956.128003,-9992.780217,-1184.329507,0.000000
956.128324,-9474.636058,-518.144159,-766.095498
956.128644,-9622.677246,74.020594,153.219100
956.128965,-9992.780217,888.247130,2451.505594
956.129286,-10584.944971,-222.061783,1915.238745
956.129606,-9622.677246,0.000000,766.095498
956.129927,-9474.636058,-1628.453072,-153.219100
956.130247,-9030.512492,-740.205942,-536.266849
956.130568,-9548.656652,740.205942,0.000000
956.130889,-9548.656652,2812.782580,1991.848295
956.131209,-9474.636058,740.205942,1149.143247
956.131530,-9252.574275,-1480.411884,-766.095498
956.131851,-9104.533087,-2146.597232,-842.705048
956.132171,-9844.739029,-2220.617826,-536.266849
956.132492,-9844.739029,-814.226536,1302.362347
956.132813,-10288.862594,0.000000,3294.210641
956.133133,-9992.780217,666.185348,3753.867940
956.133454,-9548.656652,-888.247130,1838.629195
956.133774,-9770.718434,-518.144159,383.047749
956.134095,-8734.430116,592.164754,-383.047749
956.134416,-8290.306550,370.102971,0.000000
956.134736,-7772.162391,1480.411884,1149.143247
956.135057,-8808.450710,814.226536,1838.629195
956.135378,-8808.450710,-1036.288319,536.266849
956.135698,-9696.697840,-1332.370696,1072.533697
956.136019,-9622.677246,-1110.308913,919.314598
956.136340,-10362.883188,-1036.288319,2298.286494
956.136660,-9992.780217,1110.308913,2757.943793
956.136981,-10584.944971,1776.494261,3907.087040
956.137301,-10140.821405,-444.123565,2911.162892
956.137622,-9622.677246,222.061783,1149.143247
956.137943,-10510.924376,74.020594,689.485948
956.138263,-9696.697840,148.041188,1608.800546
956.138584,-9474.636058,444.123565,2374.896044
956.138905,-9326.594869,0.000000,1608.800546
956.139225,-9252.574275,-814.226536,536.266849
956.139546,-9178.553681,-370.102971,689.485948
956.139867,-9992.780217,-814.226536,459.657299
956.140187,-9548.656652,-666.185348,459.657299
956.140508,-9770.718434,-592.164754,1072.533697
956.140829,-10214.842000,-296.082377,919.314598
956.141149,-10288.862594,-740.205942,995.924147
956.141470,-9992.780217,0.000000,1149.143247
956.141790,-10362.883188,0.000000,1072.533697
956.142111,-10066.800811,74.020594,1072.533697
956.142432,-9622.677246,222.061783,766.095498
956.142752,-9474.636058,-1554.432478,229.828649
956.143073,-7846.182985,-2516.700203,-842.705048
956.143394,-7698.141797,-2368.659014,76.609550
956.143714,-7846.182985,-1332.370696,-2221.676944
956.144035,-7920.203579,296.082377,-995.924147
956.144356,-9696.697840,2220.617826,2068.457845
956.144676,-10584.944971,888.247130,3907.087040
956.144997,-11399.171507,-592.164754,4136.915689
956.145317,-11473.192101,-2368.659014,3217.601092
956.145638,-10362.883188,-1850.514855,1685.410096
956.145959,-9622.677246,-1110.308913,1455.581446
956.146280,-8734.430116,-296.082377,1455.581446
956.146601,-8364.327145,888.247130,689.485948
956.146921,-7920.203579,-518.144159,-1455.581446
956.147242,-8142.265362,-814.226536,-1455.581446
956.147563,-9474.636058,-666.185348,-1991.848295
956.147884,-10066.800811,-148.041188,536.266849
956.148204,-10140.821405,444.123565,2298.286494
956.148525,-10288.862594,-222.061783,2757.943793
956.148846,-9918.759623,-1776.494261,2451.505594
956.149167,-10436.903782,-1406.391290,1838.629195
956.149488,-10955.047942,0.000000,1685.410096
956.149808,-9844.739029,1776.494261,1838.629195
956.150129,-9548.656652,1998.556043,1685.410096
956.150450,-9400.615463,1702.473667,153.219100
956.150771,-9400.615463,-1554.432478,-306.438199
956.151092,-9178.553681,-2442.679609,153.219100
956.151412,-10362.883188,-2886.803174,842.705048
956.151733,-9992.780217,-1332.370696,1838.629195
956.152054,-10955.047942,-592.164754,2681.334243
956.152375,-10807.006753,740.205942,3447.429741
956.152696,-10436.903782,444.123565,1991.848295
956.153016,-9474.636058,370.102971,383.047749
956.153337,-9030.512492,444.123565,-306.438199
956.153658,-9474.636058,0.000000,229.828649
956.153979,-7994.224174,0.000000,459.657299
956.154300,-9844.739029,-1406.391290,1915.238745
956.154620,-8734.430116,-1554.432478,1302.362347
956.154941,-9474.636058,-1110.308913,766.095498
956.155262,-9918.759623,-962.267725,1072.533697
956.155583,-9326.594869,296.082377,1149.143247
956.155904,-9474.636058,1184.329507,1378.971896
956.156224,-9252.574275,1406.391290,2451.505594
956.156545,-8882.471304,-1406.391290,383.047749
956.156866,-8512.368333,-2442.679609,153.219100
956.157187,-9474.636058,-3330.926739,-76.609550
956.157508,-8882.471304,-740.205942,383.047749
956.157828,-10436.903782,148.041188,2068.457845
956.158149,-11547.212695,888.247130,3753.867940
956.158470,-10510.924376,962.267725,2987.772442
956.158791,-10288.862594,-222.061783,536.266849
956.159112,-9844.739029,-370.102971,459.657299
956.159432,-9104.533087,-888.247130,-536.266849
956.159753,-8068.244768,74.020594,-612.876398
956.160074,-7624.121203,962.267725,229.828649
956.160395,-8068.244768,-222.061783,-536.266849
956.160716,-8438.347739,222.061783,-306.438199
956.161036,-10807.006753,666.185348,612.876398
956.161357,-10881.027347,740.205942,2298.286494
956.161678,-11473.192101,962.267725,4060.306139
956.161999,-11177.109724,666.185348,3907.087040
956.162320,-10362.883188,-666.185348,2298.286494
956.162640,-9474.636058,-888.247130,919.314598
956.162961,-7920.203579,-2368.659014,459.657299
956.163282,-8586.388927,-444.123565,-1378.971896
956.163603,-8438.347739,1628.453072,0.000000
956.163924,-9400.615463,1480.411884,2221.676944
956.164244,-10584.944971,666.185348,2834.553343
956.164565,-10881.027347,-1850.514855,919.314598
956.164886,-10288.862594,-1184.329507,919.314598
956.165207,-10436.903782,-666.185348,1915.238745
956.165528,-10510.924376,0.000000,2681.334243
956.165848,-9696.697840,-740.205942,2604.724693
956.166169,-8956.491898,-1406.391290,536.266849
956.166490,-8660.409521,-518.144159,-459.657299
956.166811,-9548.656652,0.000000,153.219100
956.167132,-9548.656652,222.061783,1149.143247
956.167452,-8734.430116,296.082377,229.828649
956.167773,-9548.656652,0.000000,995.924147
956.168094,-9696.697840,-1110.308913,1608.800546
956.168415,-9844.739029,-2294.638420,2451.505594
956.168736,-10066.800811,-2442.679609,919.314598
956.169056,-9326.594869,-1184.329507,-229.828649
956.169377,-8734.430116,222.061783,0.000000
956.169698,-9252.574275,962.267725,1225.752797
956.170019,-9622.677246,296.082377,2221.676944
956.170339,-9474.636058,-1702.473667,995.924147
956.170660,-9474.636058,-1850.514855,842.705048
956.170981,-9326.594869,-2146.597232,0.000000
956.171302,-8808.450710,-592.164754,995.924147
956.171623,-9844.739029,666.185348,2604.724693
956.171943,-9918.759623,444.123565,2221.676944
956.172264,-9252.574275,-814.226536,536.266849
956.172585,-9104.533087,-1628.453072,-1149.143247
956.172906,-9622.677246,-1406.391290,-536.266849
956.173227,-9622.677246,-148.041188,612.876398
956.173547,-9474.636058,518.144159,2221.676944
956.173868,-9474.636058,518.144159,1378.971896
956.174189,-10732.986159,444.123565,766.095498
956.174510,-11029.068536,370.102971,1378.971896
956.174831,-11325.150913,-740.205942,1532.190996
956.175151,-10436.903782,148.041188,2681.334243
956.175472,-12065.356855,1110.308913,2451.505594
956.175793,-9770.718434,518.144159,2911.162892
956.176114,-10436.903782,-962.267725,1378.971896
956.176435,-9104.533087,0.000000,459.657299
956.176755,-8586.388927,0.000000,-995.924147
956.177076,-8660.409521,1776.494261,0.000000
956.177397,-9252.574275,1480.411884,1302.362347
956.177718,-9548.656652,592.164754,2451.505594
956.178039,-10510.924376,-592.164754,2374.896044
956.178359,-10436.903782,-1702.473667,2221.676944
956.178680,-10955.047942,-1776.494261,1685.410096
956.179001,-9696.697840,-740.205942,1685.410096
956.179322,-9326.594869,1406.391290,2068.457845
956.179643,-9548.656652,1184.329507,2374.896044
956.179963,-9030.512492,-1258.350101,153.219100
956.180284,-8290.306550,-1184.329507,-229.828649
956.180605,-8734.430116,-2220.617826,-995.924147
956.180926,-8216.285956,-1554.432478,-383.047749
956.181247,-9474.636058,444.123565,3064.381992
956.181567,-9770.718434,1628.453072,3064.381992
956.181888,-9548.656652,592.164754,1532.190996
956.182209,-9770.718434,222.061783,1302.362347
956.182530,-9474.636058,444.123565,612.876398
956.182851,-9474.636058,-370.102971,1072.533697
956.183171,-8216.285956,0.000000,919.314598
956.183492,-9178.553681,-962.267725,995.924147
956.183813,-8068.244768,-1258.350101,-1225.752797
956.184134,-8882.471304,-814.226536,-689.485948
956.184455,-8956.491898,1406.391290,0.000000
956.184775,-9844.739029,1184.329507,766.095498
956.185096,-9918.759623,962.267725,1608.800546
956.185417,-11177.109724,-444.123565,1838.629195
956.185738,-9548.656652,-2590.720797,76.609550
956.186059,-10140.821405,-3108.864956,0.000000
956.186379,-8512.368333,-1184.329507,-689.485948
956.186700,-8364.327145,296.082377,-689.485948
956.187021,-9474.636058,1998.556043,306.438199
956.187342,-10362.883188,2220.617826,1915.238745
956.187663,-11251.130318,-148.041188,2068.457845
956.187983,-11547.212695,-1850.514855,1685.410096
956.188304,-10955.047942,-1480.411884,459.657299
956.188625,-11029.068536,-518.144159,1455.581446
956.188946,-10214.842000,-592.164754,2221.676944
956.189267,-8586.388927,0.000000,1072.533697
956.189587,-8882.471304,-1258.350101,-612.876398
956.189908,-8438.347739,-1332.370696,-1225.752797
956.190229,-9548.656652,-1480.411884,-229.828649
956.190550,-10066.800811,-370.102971,536.266849
956.190871,-10214.842000,222.061783,2221.676944
956.191191,-10732.986159,1110.308913,3524.039291
956.191512,-10066.800811,-296.082377,3140.991542
956.191833,-10288.862594,-1702.473667,2145.067394
956.192154,-9696.697840,-148.041188,1455.581446
956.192475,-9696.697840,-592.164754,2298.286494
956.192795,-8808.450710,740.205942,995.924147
956.193116,-9474.636058,666.185348,1225.752797
956.193437,-8882.471304,-518.144159,0.000000
956.193758,-8438.347739,0.000000,1302.362347
956.194078,-9622.677246,-1480.411884,842.705048
956.194399,-9548.656652,-1036.288319,1685.410096
956.194720,-10362.883188,0.000000,4213.525239
956.195041,-11251.130318,-814.226536,4749.792088
956.195362,-9474.636058,-740.205942,3677.258390
956.195682,-9918.759623,-1036.288319,1225.752797
956.196003,-8808.450710,-666.185348,0.000000
956.196324,-7550.100608,222.061783,-1455.581446
956.196645,-7698.141797,74.020594,-689.485948
956.196966,-6957.935855,592.164754,-229.828649
956.197286,-9474.636058,-1036.288319,-229.828649
956.197607,-10066.800811,-1702.473667,919.314598
956.197928,-10510.924376,-888.247130,1915.238745
956.198249,-10066.800811,-1184.329507,1378.971896
956.198570,-9918.759623,1184.329507,2221.676944
956.198890,-10807.006753,888.247130,3830.477490
956.199211,-9178.553681,-222.061783,1225.752797
956.199532,-8364.327145,370.102971,153.219100
956.199853,-9178.553681,222.061783,-1149.143247
956.200174,-8438.347739,814.226536,-1378.971896
956.200494,-9400.615463,666.185348,0.000000
956.200815,-9400.615463,592.164754,1455.581446
956.201136,-9696.697840,0.000000,919.314598
956.201457,-11029.068536,-666.185348,1762.019645
956.201778,-11399.171507,74.020594,2834.553343
956.202098,-11399.171507,444.123565,2911.162892
956.202419,-11177.109724,1628.453072,3907.087040
956.202740,-10510.924376,1110.308913,2911.162892
956.203061,-9474.636058,-518.144159,612.876398
956.203382,-8808.450710,-1850.514855,-1072.533697
956.203702,-8512.368333,-222.061783,-1915.238745
956.204023,-8290.306550,0.000000,-1532.190996
956.204344,-8808.450710,740.205942,0.000000
956.204665,-10288.862594,518.144159,1838.629195
956.204986,-10732.986159,-444.123565,1608.800546
956.205306,-10658.965565,-814.226536,2451.505594
956.205627,-10510.924376,-1628.453072,1838.629195
956.205948,-9178.553681,-1332.370696,612.876398
956.206269,-9474.636058,592.164754,1302.362347
956.206590,-8808.450710,370.102971,2298.286494
956.206910,-8068.244768,-1554.432478,689.485948
956.207231,-8808.450710,-3034.844362,306.438199
956.207552,-9030.512492,-2886.803174,-229.828649
956.207873,-9104.533087,-1184.329507,0.000000
956.208194,-9548.656652,222.061783,1532.190996
956.208514,-9474.636058,518.144159,2298.286494
956.208835,-9474.636058,0.000000,842.705048
956.209156,-9474.636058,-1258.350101,612.876398
956.209477,-9326.594869,-2812.782580,1149.143247
956.209798,-9326.594869,-3256.906145,383.047749
956.210118,-9252.574275,-1036.288319,1302.362347
956.210439,-9178.553681,592.164754,2221.676944
956.210760,-9696.697840,592.164754,2068.457845
956.211081,-9992.780217,814.226536,1455.581446
956.211402,-9474.636058,1184.329507,1072.533697
956.211722,-9622.677246,-1036.288319,842.705048
956.212043,-9696.697840,-518.144159,2834.553343
956.212364,-10362.883188,-740.205942,2145.067394
956.212685,-9474.636058,-1480.411884,919.314598
956.213006,-9474.636058,-888.247130,229.828649
956.213326,-9548.656652,-222.061783,612.876398
956.213647,-10362.883188,518.144159,459.657299
956.213968,-10362.883188,1406.391290,1302.362347
956.214289,-11029.068536,1406.391290,3140.991542
956.214610,-10881.027347,-740.205942,2681.334243
956.214930,-9918.759623,-1628.453072,1072.533697
956.215251,-10955.047942,-1332.370696,1838.629195
956.215572,-10066.800811,-518.144159,1149.143247
956.215893,-9104.533087,0.000000,1072.533697
956.216214,-8956.491898,1258.350101,2451.505594
956.216534,-9030.512492,222.061783,0.000000
956.216855,-9252.574275,0.000000,-306.438199
956.217176,-9474.636058,-444.123565,612.876398
956.217497,-9696.697840,-1258.350101,536.266849
956.217817,-9770.718434,-1110.308913,1455.581446
956.218138,-10807.006753,444.123565,2987.772442
956.218459,-11621.233289,518.144159,3830.477490
956.218780,-10510.924376,0.000000,3983.696590
956.219101,-9474.636058,-1480.411884,1838.629195
956.219421,-8290.306550,-1480.411884,-766.095498
956.219742,-7254.018232,1036.288319,-1378.971896
956.220063,-7920.203579,1998.556043,-766.095498
956.220384,-6587.832884,296.082377,229.828649
956.220705,-7994.224174,-888.247130,459.657299
956.221025,-8956.491898,-1924.535449,459.657299
956.221346,-9770.718434,-1258.350101,1378.971896
956.221667,-10214.842000,740.205942,3983.696590
956.221988,-10658.965565,1998.556043,4826.401637
956.222309,-10288.862594,814.226536,4136.915689
956.222629,-9326.594869,-1258.350101,1302.362347
956.222950,-8808.450710,-1998.556043,-153.219100
956.223271,-8512.368333,-1480.411884,-919.314598
956.223592,-8216.285956,0.000000,0.000000
956.223913,-9548.656652,1036.288319,1378.971896
956.224233,-10066.800811,296.082377,689.485948
956.224554,-9844.739029,444.123565,-153.219100
956.224875,-11399.171507,-1258.350101,1915.238745
956.225196,-10436.903782,-1702.473667,612.876398
956.225517,-10510.924376,-518.144159,1149.143247
956.225837,-10658.965565,666.185348,1225.752797
956.226158,-9548.656652,222.061783,1072.533697
956.226479,-10362.883188,-592.164754,0.000000
956.226800,-10214.842000,-740.205942,-536.266849
956.227121,-10288.862594,-444.123565,-1149.143247
956.227441,-9548.656652,-148.041188,-383.047749
956.227762,-9844.739029,0.000000,306.438199
956.228083,-10436.903782,222.061783,995.924147
956.228404,-10732.986159,-1258.350101,612.876398
956.228725,-10214.842000,-1702.473667,0.000000
956.229045,-9548.656652,-2368.659014,-536.266849
956.229366,-9696.697840,-1850.514855,-689.485948
956.229687,-8956.491898,-148.041188,0.000000
956.230008,-8438.347739,-222.061783,-76.609550
956.230329,-8142.265362,-148.041188,-1378.971896
956.230649,-8290.306550,370.102971,-842.705048
956.230970,-9474.636058,148.041188,689.485948
956.231291,-10584.944971,148.041188,2757.943793
956.231612,-10584.944971,370.102971,4749.792088
956.231933,-11251.130318,-370.102971,3370.820191
956.232253,-10807.006753,-1184.329507,2298.286494
956.232574,-9252.574275,-666.185348,1838.629195
956.232895,-8882.471304,-1184.329507,-229.828649
956.233216,-7994.224174,296.082377,229.828649
956.233537,-7772.162391,222.061783,766.095498
956.233857,-8586.388927,222.061783,1378.971896
956.234178,-8956.491898,-1110.308913,3370.820191
956.234499,-9474.636058,-1110.308913,1685.410096
956.234820,-9992.780217,0.000000,2068.457845
956.235141,-9992.780217,-296.082377,2451.505594
956.235461,-9622.677246,370.102971,3217.601092
956.235782,-10584.944971,-370.102971,3907.087040
956.236103,-9104.533087,-2368.659014,1915.238745
956.236424,-8216.285956,-592.164754,766.095498
956.236745,-9992.780217,-1554.432478,383.047749
956.237065,-7550.100608,518.144159,-1455.581446
956.237386,-9326.594869,3552.988522,2834.553343
956.237707,-10807.006753,962.267725,3600.648841
956.238028,-9104.533087,-370.102971,3370.820191
956.238349,-11473.192101,-2442.679609,3370.820191
956.238669,-10510.924376,-1776.494261,2451.505594
956.238990,-10732.986159,-888.247130,1838.629195
956.239311,-9770.718434,2294.638420,3064.381992
956.239632,-8438.347739,2442.679609,1149.143247
956.239953,-8808.450710,1406.391290,-153.219100
956.240273,-8068.244768,0.000000,-1608.800546
956.240594,-8956.491898,-740.205942,-1149.143247
956.240915,-9474.636058,-1036.288319,0.000000
956.241236,-10362.883188,296.082377,1532.190996
956.241556,-11251.130318,1258.350101,3524.039291
956.241877,-11103.089130,-592.164754,2298.286494
956.242198,-10436.903782,-296.082377,1838.629195
956.242519,-10807.006753,-740.205942,383.047749
956.242840,-8808.450710,-296.082377,-536.266849
956.243160,-9252.574275,518.144159,229.828649
956.243481,-8364.327145,666.185348,-229.828649
956.243802,-8882.471304,-1332.370696,-1225.752797
956.244123,-8142.265362,-1776.494261,-1072.533697
956.244444,-8882.471304,-2886.803174,-1532.190996
956.244764,-9474.636058,-666.185348,-536.266849
956.245085,-10214.842000,444.123565,1072.533697
956.245406,-10732.986159,740.205942,3907.087040
956.245727,-10732.986159,444.123565,2145.067394
956.246048,-9844.739029,-1110.308913,689.485948
956.246368,-10436.903782,-2220.617826,76.609550
956.246689,-8438.347739,-1924.535449,-1685.410096
956.247010,-8290.306550,-1480.411884,-383.047749
956.247331,-8808.450710,-518.144159,0.000000
956.247652,-8142.265362,74.020594,-306.438199
956.247972,-9252.574275,-1110.308913,306.438199
956.248293,-9622.677246,-1110.308913,536.266849
956.248614,-10658.965565,-1924.535449,1378.971896
956.248935,-10510.924376,-592.164754,2528.115143
956.249256,-10510.924376,-592.164754,3217.601092
956.249576,-8660.409521,-962.267725,1608.800546
956.249897,-9770.718434,-1036.288319,1149.143247
956.250218,-8734.430116,444.123565,536.266849
956.250539,-9548.656652,888.247130,536.266849
956.250859,-9548.656652,1110.308913,1915.238745
956.251180,-9918.759623,296.082377,2451.505594
956.251501,-9918.759623,-962.267725,1532.190996
956.251822,-9992.780217,-1480.411884,1455.581446
956.252143,-10436.903782,-1480.411884,1685.410096
956.252463,-9548.656652,-814.226536,459.657299
956.252784,-9992.780217,-148.041188,919.314598
956.253105,-9622.677246,592.164754,2451.505594
956.253426,-10140.821405,-1258.350101,1532.190996
956.253747,-9548.656652,-740.205942,459.657299
956.254067,-10732.986159,-370.102971,459.657299
956.254388,-9474.636058,592.164754,689.485948
956.254709,-9918.759623,222.061783,1608.800546
956.255030,-9474.636058,-814.226536,1685.410096
956.255350,-9622.677246,-1628.453072,76.609550
956.255671,-9178.553681,-2072.576638,0.000000
956.255992,-9770.718434,-1924.535449,306.438199
956.256313,-9252.574275,-962.267725,0.000000
956.256634,-8586.388927,444.123565,1149.143247
956.256954,-9400.615463,1554.432478,2145.067394
956.257275,-9178.553681,-148.041188,1685.410096
956.257596,-9474.636058,-1332.370696,1455.581446
956.257917,-9548.656652,-1332.370696,1838.629195
956.258238,-9844.739029,222.061783,1225.752797
956.258558,-9400.615463,1332.370696,1838.629195
956.258879,-9252.574275,1628.453072,2757.943793
956.259200,-9474.636058,74.020594,1302.362347
956.259521,-8364.327145,-370.102971,689.485948
956.259842,-9030.512492,-1628.453072,0.000000
956.260162,-8586.388927,-74.020594,0.000000
956.260483,-9918.759623,296.082377,1378.971896
956.260804,-9622.677246,1480.411884,3370.820191
956.261125,-10288.862594,518.144159,2834.553343
956.261445,-10658.965565,0.000000,1838.629195
956.261766,-11547.212695,-370.102971,2528.115143
956.262087,-10584.944971,-370.102971,1915.238745
956.262408,-10436.903782,-1036.288319,2068.457845
956.262729,-9178.553681,1036.288319,2068.457845
956.263049,-10436.903782,-296.082377,153.219100
956.263370,-6513.812290,-1924.535449,-919.314598
956.263691,-7402.059420,-296.082377,-536.266849
956.264012,-9474.636058,0.000000,0.000000
956.264333,-8438.347739,888.247130,459.657299
956.264653,-11399.171507,1628.453072,3217.601092
956.264974,-11621.233289,-888.247130,3370.820191
956.265295,-9992.780217,-2220.617826,1991.848295
956.265616,-11177.109724,-1998.556043,2068.457845
956.265936,-10140.821405,74.020594,612.876398
956.266257,-9474.636058,1184.329507,0.000000
956.266578,-9548.656652,2294.638420,1608.800546
956.266899,-8512.368333,1184.329507,0.000000
956.267220,-9696.697840,-2146.597232,-536.266849
956.267540,-9548.656652,-2886.803174,-536.266849
956.267861,-8956.491898,-2368.659014,-766.095498
956.268182,-9770.718434,0.000000,0.000000
956.268503,-10510.924376,962.267725,2604.724693
956.268824,-10140.821405,444.123565,2451.505594
956.269144,-10140.821405,-518.144159,536.266849
956.269465,-9474.636058,-2516.700203,-612.876398
956.269786,-8808.450710,-1332.370696,-1072.533697
956.270107,-9474.636058,-1850.514855,-995.924147
956.270428,-9326.594869,222.061783,1915.238745
956.270748,-9474.636058,740.205942,459.657299
956.271069,-8956.491898,-518.144159,-306.438199
956.271390,-9178.553681,-518.144159,0.000000
956.271711,-9918.759623,-592.164754,0.000000
956.272031,-10140.821405,-370.102971,1072.533697
956.272352,-10288.862594,1184.329507,2528.115143
956.272673,-9844.739029,0.000000,1762.019645
956.272994,-8142.265362,-1924.535449,-383.047749
956.273315,-8364.327145,-1406.391290,-1378.971896
956.273635,-7920.203579,-1184.329507,-1762.019645
956.273956,-8586.388927,-222.061783,-536.266849
956.274277,-9178.553681,740.205942,1915.238745
956.274598,-9992.780217,666.185348,1685.410096
956.274919,-11029.068536,-222.061783,2681.334243
956.275239,-11325.150913,-592.164754,3447.429741
956.275560,-10288.862594,-1184.329507,2528.115143
956.275881,-9696.697840,-814.226536,1762.019645
956.276202,-8956.491898,444.123565,2451.505594
956.276522,-9844.739029,-1036.288319,2374.896044
956.276843,-8882.471304,-962.267725,1072.533697
956.277164,-9252.574275,-962.267725,306.438199
956.277485,-8512.368333,1036.288319,1225.752797
956.277806,-10066.800811,0.000000,1915.238745
956.278126,-9770.718434,1036.288319,3524.039291
956.278447,-10658.965565,444.123565,3524.039291
956.278768,-10436.903782,-592.164754,3370.820191
956.279089,-10066.800811,-296.082377,3064.381992
956.279410,-10066.800811,-814.226536,2298.286494
956.279730,-9326.594869,74.020594,2451.505594
956.280051,-9104.533087,1258.350101,2604.724693
956.280372,-10362.883188,888.247130,2374.896044
956.280693,-9992.780217,-666.185348,1991.848295
956.281014,-9918.759623,-296.082377,1762.019645
956.281334,-10140.821405,-814.226536,2221.676944
956.281655,-9548.656652,-962.267725,2298.286494
956.281976,-10288.862594,-518.144159,2068.457845
956.282297,-9178.553681,-1110.308913,1149.143247
956.282617,-9178.553681,-296.082377,0.000000
956.282938,-9104.533087,444.123565,0.000000
956.283259,-9104.533087,444.123565,-1608.800546
956.283580,-8512.368333,1332.370696,-612.876398
956.283901,-9252.574275,888.247130,76.609550
956.284221,-9770.718434,222.061783,1149.143247
956.284542,-9770.718434,-2072.576638,-842.705048
956.284863,-9474.636058,-1554.432478,0.000000
956.285184,-10214.842000,-1258.350101,-306.438199
956.285505,-8956.491898,-518.144159,0.000000
956.285825,-8438.347739,0.000000,-229.828649
956.286146,-9622.677246,-148.041188,-76.609550
956.286467,-9178.553681,-74.020594,-1762.019645
956.286788,-8734.430116,370.102971,-1378.971896
956.287108,-10140.821405,-370.102971,-153.219100
956.287429,-9400.615463,-962.267725,-306.438199
956.287750,-9622.677246,-666.185348,1149.143247
956.288071,-10732.986159,-2146.597232,2068.457845
956.288392,-9474.636058,-1258.350101,995.924147
956.288712,-11473.192101,-1480.411884,1608.800546
956.289033,-10436.903782,222.061783,1608.800546
956.289354,-9474.636058,1036.288319,229.828649
956.289675,-9622.677246,1036.288319,1608.800546
956.289996,-8882.471304,0.000000,76.609550
956.290316,-8586.388927,-1332.370696,-612.876398
956.290637,-9770.718434,-2146.597232,0.000000
956.290958,-9252.574275,-1628.453072,229.828649
956.291279,-9770.718434,0.000000,1378.971896
956.291600,-10881.027347,222.061783,3830.477490
956.291920,-11103.089130,1332.370696,4673.182538
956.292241,-11177.109724,74.020594,3677.258390
956.292562,-10658.965565,-888.247130,1991.848295
956.292883,-8956.491898,-444.123565,842.705048
956.293203,-8438.347739,0.000000,229.828649
956.293524,-8660.409521,0.000000,995.924147
956.293845,-8364.327145,0.000000,1378.971896
956.294166,-9622.677246,-2368.659014,1302.362347
956.294487,-8882.471304,-1554.432478,1072.533697
956.294807,-10584.944971,-814.226536,1608.800546
956.295128,-10732.986159,444.123565,2451.505594
956.295449,-10584.944971,1554.432478,3524.039291
956.295770,-10066.800811,444.123565,3677.258390
956.296091,-9400.615463,-2220.617826,1991.848295
956.296411,-8512.368333,-3182.885551,0.000000
956.296732,-9400.615463,-2072.576638,0.000000
956.297053,-8438.347739,148.041188,76.609550
956.297374,-8956.491898,1258.350101,1072.533697
956.297694,-8364.327145,1702.473667,1072.533697
956.298015,-8956.491898,444.123565,842.705048
956.298336,-9992.780217,-1406.391290,2145.067394
956.298657,-10288.862594,-1258.350101,2145.067394
956.298978,-10288.862594,-1480.411884,1838.629195
956.299298,-8734.430116,-518.144159,1225.752797
956.299619,-9844.739029,814.226536,2604.724693
956.299940,-9104.533087,1184.329507,1149.143247
956.300261,-9622.677246,-222.061783,76.609550
956.300582,-9474.636058,740.205942,0.000000
956.300902,-8512.368333,222.061783,-76.609550
956.301223,-9548.656652,0.000000,1149.143247
956.301544,-10214.842000,592.164754,1455.581446
956.301865,-10066.800811,-222.061783,612.876398
956.302186,-9400.615463,-814.226536,306.438199
956.302506,-9622.677246,-888.247130,0.000000
956.302827,-9992.780217,-518.144159,-153.219100
956.303148,-9474.636058,740.205942,1149.143247
956.303469,-9622.677246,1406.391290,1915.238745
956.303789,-10140.821405,0.000000,2221.676944
956.304110,-9844.739029,-2516.700203,153.219100
956.304431,-9474.636058,-1850.514855,-689.485948
956.304752,-9622.677246,-592.164754,-229.828649
956.305073,-10510.924376,-370.102971,1302.362347
956.305393,-10436.903782,1480.411884,2681.334243
956.305714,-11251.130318,148.041188,1915.238745
956.306035,-10214.842000,-814.226536,1149.143247
956.306356,-10658.965565,-2220.617826,-153.219100
956.306677,-7624.121203,-1406.391290,-153.219100
956.306997,-9178.553681,-962.267725,-1149.143247
956.307318,-8956.491898,2590.720797,1225.752797
956.307639,-9622.677246,222.061783,1762.019645
956.307960,-9104.533087,-666.185348,3064.381992
956.308280,-10510.924376,-1850.514855,919.314598
956.308601,-10140.821405,-2294.638420,1762.019645
956.308922,-10362.883188,-666.185348,3064.381992
956.309243,-10584.944971,370.102971,3600.648841
956.309564,-8956.491898,296.082377,1915.238745
956.309884,-8660.409521,0.000000,153.219100
956.310205,-8956.491898,-740.205942,0.000000
956.310526,-8882.471304,-666.185348,76.609550
956.310847,-10140.821405,444.123565,536.266849
956.311168,-9844.739029,1480.411884,2298.286494
956.311488,-10362.883188,222.061783,2451.505594
956.311809,-9770.718434,-962.267725,2451.505594
956.312130,-9770.718434,-1258.350101,1302.362347
956.312451,-9104.533087,-1184.329507,995.924147
956.312772,-9400.615463,-1702.473667,919.314598
956.313092,-8438.347739,814.226536,2145.067394
956.313413,-10510.924376,-2442.679609,1685.410096
956.313734,-7994.224174,-2294.638420,-1072.533697
956.314055,-8438.347739,-222.061783,-689.485948
956.314375,-11473.192101,0.000000,0.000000
956.314696,-9474.636058,296.082377,2451.505594
956.315017,-10436.903782,1480.411884,4673.182538
956.315338,-11843.295072,-2072.576638,3524.039291
956.315659,-7772.162391,-2516.700203,-1149.143247
956.315979,-12139.377449,-1332.370696,1225.752797
956.316300,-7105.977043,-592.164754,-306.438199
956.316621,-8290.306550,1998.556043,-2374.896044
956.316942,-9104.533087,1702.473667,459.657299
956.317263,-7105.977043,962.267725,-919.314598
956.317583,-10362.883188,-296.082377,689.485948
956.317904,-12213.398043,-1554.432478,3600.648841
956.318225,-9696.697840,-1776.494261,3064.381992
956.318546,-11991.336260,-1924.535449,3140.991542
956.318866,-10658.965565,1332.370696,4290.134789
956.319187,-9844.739029,1184.329507,4826.401637
956.319508,-9622.677246,222.061783,2757.943793
956.319829,-9326.594869,-1628.453072,-306.438199
956.320150,-8364.327145,-740.205942,-1762.019645
956.320470,-8216.285956,0.000000,-766.095498
956.320791,-9030.512492,592.164754,689.485948
956.321112,-9474.636058,518.144159,1838.629195
956.321433,-9622.677246,-740.205942,229.828649
956.321754,-10362.883188,0.000000,1608.800546
956.322074,-10955.047942,-518.144159,919.314598
956.322395,-10807.006753,0.000000,1915.238745
956.322716,-10288.862594,740.205942,3370.820191
956.323037,-9474.636058,296.082377,1762.019645
956.323358,-10214.842000,-888.247130,229.828649
956.323678,-8882.471304,-1036.288319,766.095498
956.323999,-9474.636058,-2442.679609,0.000000
956.324320,-8438.347739,-2220.617826,306.438199
956.324641,-8882.471304,-814.226536,459.657299
956.324961,-9474.636058,-814.226536,766.095498
956.325282,-9326.594869,-518.144159,0.000000
956.325603,-9030.512492,0.000000,0.000000
956.325924,-9252.574275,-740.205942,-919.314598
956.326245,-8512.368333,222.061783,0.000000
956.326565,-10288.862594,-148.041188,1608.800546
956.326886,-9326.594869,-1258.350101,1608.800546
956.327207,-9696.697840,-1998.556043,842.705048
956.327528,-10214.842000,-1702.473667,842.705048
956.327849,-9474.636058,740.205942,689.485948
956.328169,-9696.697840,592.164754,1838.629195
956.328490,-8808.450710,1480.411884,1991.848295
956.328811,-9474.636058,-370.102971,1838.629195
956.329132,-9326.594869,-1332.370696,0.000000
956.329452,-9844.739029,-222.061783,536.266849
956.329773,-9548.656652,0.000000,536.266849
956.330094,-9622.677246,666.185348,306.438199
956.330415,-9474.636058,2294.638420,1455.581446
956.330736,-11177.109724,666.185348,2451.505594
956.331056,-9696.697840,-592.164754,1072.533697
956.331377,-10807.006753,-666.185348,1149.143247
956.331698,-10362.883188,-814.226536,536.266849
956.332019,-9548.656652,296.082377,1225.752797
956.332340,-10955.047942,1110.308913,3217.601092
956.332660,-10436.903782,888.247130,2757.943793
956.332981,-9030.512492,0.000000,1302.362347
956.333302,-10510.924376,-444.123565,689.485948
956.333623,-8882.471304,-592.164754,0.000000
956.333944,-9104.533087,-740.205942,0.000000
956.334264,-9178.553681,74.020594,1915.238745
956.334585,-9178.553681,-740.205942,1838.629195
956.334906,-9400.615463,-2590.720797,1149.143247
956.335227,-9696.697840,-2368.659014,1225.752797
956.335547,-10066.800811,-666.185348,1302.362347
956.335868,-9770.718434,666.185348,2451.505594
956.336189,-9918.759623,962.267725,2528.115143
956.336510,-8438.347739,1702.473667,2068.457845
956.336831,-9104.533087,-1332.370696,153.219100
956.337151,-8216.285956,-1406.391290,459.657299
956.337472,-8216.285956,-888.247130,689.485948
956.337793,-8882.471304,-1480.411884,229.828649
956.338114,-8364.327145,1924.535449,2528.115143
956.338435,-10584.944971,592.164754,2987.772442
956.338755,-9178.553681,-962.267725,2374.896044
956.339076,-9844.739029,-1554.432478,1915.238745
956.339397,-9770.718434,-1554.432478,995.924147
956.339718,-9548.656652,-518.144159,1378.971896
956.340038,-9844.739029,814.226536,2298.286494
956.340359,-9178.553681,888.247130,2068.457845
956.340680,-9252.574275,222.061783,612.876398
956.341001,-9252.574275,-518.144159,0.000000
956.341322,-9992.780217,-518.144159,229.828649
956.341642,-10140.821405,-888.247130,153.219100
956.341963,-9104.533087,74.020594,1378.971896
956.342284,-11103.089130,-296.082377,2068.457845
956.342605,-9844.739029,-1036.288319,919.314598
956.342926,-9326.594869,-1776.494261,766.095498
956.343246,-10510.924376,-444.123565,612.876398
956.343567,-9252.574275,-1110.308913,-153.219100
956.343888,-10214.842000,0.000000,689.485948
956.344209,-10955.047942,0.000000,1072.533697
956.344530,-10362.883188,-888.247130,-612.876398
956.344850,-10140.821405,-518.144159,306.438199
956.345171,-9992.780217,-1332.370696,-306.438199
956.345492,-9474.636058,0.000000,-306.438199
956.345813,-10881.027347,518.144159,1072.533697
956.346133,-9622.677246,-148.041188,1685.410096
956.346454,-9400.615463,-1554.432478,153.219100
956.346775,-9770.718434,-2294.638420,-229.828649
956.347096,-9252.574275,-888.247130,229.828649
956.347417,-9400.615463,74.020594,459.657299
956.347737,-9844.739029,1406.391290,2451.505594
956.348058,-9548.656652,2368.659014,2987.772442
956.348378,-9474.636058,1628.453072,2451.505594
956.348699,-10066.800811,0.000000,1532.190996
956.349020,-10288.862594,-222.061783,1302.362347
956.349341,-9030.512492,-1480.411884,0.000000
956.349662,-8586.388927,444.123565,1608.800546
956.349983,-9548.656652,0.000000,2374.896044
956.350303,-8364.327145,-666.185348,1532.190996
956.350624,-9992.780217,-1406.391290,1302.362347
956.350945,-8808.450710,-592.164754,1225.752797
956.351266,-8586.388927,0.000000,612.876398
956.351587,-9770.718434,1184.329507,3217.601092
956.351908,-9474.636058,962.267725,3294.210641
956.352228,-9474.636058,-222.061783,1838.629195
956.352549,-9474.636058,-1406.391290,5209.449386
956.352870,-8142.265362,-1332.370696,919.314598
956.353191,-10881.027347,-2220.617826,76.609550
956.353512,-9474.636058,-222.061783,1149.143247
956.353833,-9918.759623,1184.329507,1915.238745
956.354154,-10658.965565,-518.144159,1455.581446
956.354474,-9696.697840,444.123565,1762.019645
956.354795,-11325.150913,-592.164754,1302.362347
956.355116,-9178.553681,0.000000,1455.581446
956.355437,-10881.027347,370.102971,1991.848295
956.355758,-8956.491898,74.020594,2145.067394
956.356079,-8586.388927,-962.267725,-1072.533697
956.356399,-8956.491898,222.061783,0.000000
956.356720,-8216.285956,-666.185348,-995.924147
956.357041,-9622.677246,148.041188,306.438199
956.357362,-10214.842000,0.000000,1762.019645
956.357683,-9844.739029,444.123565,2987.772442
956.358004,-11399.171507,-370.102971,2834.553343
956.358324,-9770.718434,-666.185348,1455.581446
956.358645,-10140.821405,-444.123565,919.314598
956.358966,-9178.553681,-740.205942,383.047749
956.359287,-8438.347739,-444.123565,0.000000
956.359608,-9622.677246,222.061783,229.828649
956.359929,-8808.450710,-1184.329507,-612.876398
956.360249,-8512.368333,-370.102971,-995.924147
956.360570,-10066.800811,518.144159,536.266849
956.360891,-10066.800811,148.041188,2221.676944
956.361212,-9696.697840,740.205942,1915.238745
956.361533,-10214.842000,0.000000,3294.210641
956.361854,-9844.739029,-1776.494261,2068.457845
956.362174,-9770.718434,-2294.638420,1532.190996
956.362495,-9326.594869,-1850.514855,306.438199
956.362816,-8882.471304,74.020594,-153.219100
956.363137,-7550.100608,888.247130,-229.828649
956.363458,-8956.491898,666.185348,536.266849
956.363779,-8734.430116,-148.041188,229.828649
956.364099,-9622.677246,-3256.906145,0.000000
956.364420,-10140.821405,-3849.070898,766.095498
956.364741,-9548.656652,-2516.700203,536.266849
956.365062,-9992.780217,-370.102971,3140.991542
956.365383,-10436.903782,1110.308913,3447.429741
956.365704,-9622.677246,-222.061783,2451.505594
956.366025,-8364.327145,-1110.308913,0.000000
956.366345,-9918.759623,-1332.370696,-459.657299
956.366666,-8808.450710,-222.061783,-766.095498
956.366987,-9474.636058,-370.102971,919.314598
956.367308,-9548.656652,-148.041188,2068.457845
956.367629,-8512.368333,518.144159,995.924147
956.367950,-10584.944971,-1850.514855,689.485948
956.368270,-10436.903782,-1036.288319,1378.971896
956.368591,-10288.862594,-296.082377,1225.752797
956.368912,-10288.862594,962.267725,1991.848295
956.369233,-11103.089130,2146.597232,2834.553343
956.369554,-10214.842000,1406.391290,1762.019645
956.369875,-9400.615463,-444.123565,0.000000
956.370195,-9474.636058,0.000000,-306.438199
956.370516,-9178.553681,0.000000,0.000000
956.370837,-9326.594869,222.061783,612.876398
956.371158,-10362.883188,1628.453072,2834.553343
956.371479,-10066.800811,518.144159,2987.772442
956.371800,-10881.027347,-518.144159,2451.505594
956.372120,-11029.068536,-592.164754,2451.505594
956.372441,-9770.718434,-148.041188,383.047749
956.372762,-9400.615463,1110.308913,842.705048
956.373083,-8512.368333,1184.329507,1378.971896
956.373404,-9030.512492,-1554.432478,0.000000
956.373725,-7846.182985,-1110.308913,-1378.971896
956.374045,-9252.574275,-2146.597232,-1302.362347
956.374366,-8068.244768,-1036.288319,-995.924147
956.374687,-9622.677246,-666.185348,1072.533697
956.375008,-10140.821405,518.144159,3294.210641
956.375329,-9992.780217,222.061783,3294.210641
956.375650,-11251.130318,-1332.370696,3370.820191
956.375971,-10584.944971,-1776.494261,2604.724693
956.376291,-9548.656652,-1110.308913,1685.410096
956.376612,-9622.677246,-592.164754,1302.362347
956.376933,-7920.203579,2072.576638,1608.800546
956.377254,-9104.533087,666.185348,1532.190996
956.377575,-8068.244768,-1258.350101,-153.219100
956.377896,-7476.080014,-1036.288319,-1072.533697
956.378216,-9326.594869,-1406.391290,-766.095498
956.378537,-9548.656652,148.041188,1378.971896
956.378858,-10510.924376,1628.453072,3447.429741
956.379179,-10658.965565,592.164754,3064.381992
956.379500,-9696.697840,296.082377,1378.971896
956.379821,-10510.924376,-444.123565,1455.581446
956.380141,-9474.636058,-444.123565,459.657299
956.380462,-8660.409521,222.061783,689.485948
956.380783,-8882.471304,74.020594,766.095498
956.381104,-9178.553681,74.020594,1149.143247
956.381425,-10436.903782,-1258.350101,229.828649
956.381746,-9918.759623,-962.267725,-229.828649
956.382066,-10732.986159,-222.061783,459.657299
956.382387,-10066.800811,-518.144159,536.266849
956.382708,-10214.842000,-592.164754,1302.362347
956.383029,-10584.944971,-962.267725,1608.800546
956.383350,-9548.656652,-2072.576638,76.609550
956.383671,-9770.718434,-1628.453072,76.609550
956.383991,-9696.697840,-666.185348,76.609550
956.384312,-9622.677246,0.000000,0.000000
956.384633,-9622.677246,740.205942,229.828649
956.384954,-9622.677246,1332.370696,2145.067394
956.385275,-10214.842000,-1480.411884,1072.533697
956.385596,-9548.656652,-2368.659014,766.095498
956.385917,-10066.800811,-2664.741391,-842.705048
956.386237,-8808.450710,-1480.411884,0.000000
956.386558,-9474.636058,148.041188,1378.971896
956.386879,-9252.574275,592.164754,1838.629195
956.387200,-10066.800811,-296.082377,1302.362347
956.387521,-9548.656652,-148.041188,536.266849
956.387842,-10288.862594,444.123565,689.485948
956.388162,-9918.759623,1036.288319,1532.190996
956.388483,-10214.842000,444.123565,2145.067394
956.388804,-9622.677246,-222.061783,3370.820191
956.389125,-8956.491898,-2294.638420,1149.143247
956.389446,-8660.409521,-1998.556043,-459.657299
956.389767,-9474.636058,222.061783,76.609550
956.390087,-9178.553681,518.144159,766.095498
956.390408,-7994.224174,1110.308913,1378.971896
956.390729,-8734.430116,0.000000,1762.019645
956.391050,-8734.430116,-1480.411884,842.705048
956.391371,-9696.697840,-2146.597232,1302.362347
956.391692,-9844.739029,-2072.576638,1991.848295
956.392012,-9474.636058,-814.226536,1991.848295
956.392333,-9252.574275,2072.576638,2911.162892
956.392654,-11325.150913,222.061783,3064.381992
956.392975,-8734.430116,592.164754,2145.067394
956.393296,-9696.697840,-888.247130,842.705048
956.393617,-9992.780217,-2072.576638,229.828649
956.393937,-8512.368333,148.041188,76.609550
956.394258,-9770.718434,222.061783,1685.410096
956.394579,-8660.409521,1110.308913,1991.848295
956.394900,-9696.697840,0.000000,1225.752797
956.395221,-9474.636058,74.020594,1762.019645
956.395542,-11251.130318,1554.432478,1685.410096
956.395863,-10214.842000,1406.391290,1225.752797
956.396183,-10140.821405,1110.308913,2911.162892
956.396504,-10510.924376,0.000000,2451.505594
956.396825,-10362.883188,-1258.350101,842.705048
956.397146,-10807.006753,-1036.288319,229.828649
956.397467,-10066.800811,222.061783,919.314598
956.397788,-9474.636058,962.267725,919.314598
956.398108,-10584.944971,370.102971,1762.019645
956.398429,-8660.409521,444.123565,1149.143247
956.398750,-8882.471304,-518.144159,-995.924147
956.399071,-9474.636058,-518.144159,-612.876398
956.399392,-9030.512492,-370.102971,0.000000
956.399713,-8438.347739,1258.350101,-1532.190996
956.400033,-9844.739029,1036.288319,1072.533697
956.400354,-10140.821405,1406.391290,2757.943793
956.400675,-10732.986159,-1480.411884,2834.553343
956.400996,-9770.718434,-2368.659014,1608.800546
956.401317,-10288.862594,-1924.535449,306.438199
956.401638,-8956.491898,-1184.329507,0.000000
956.401958,-8068.244768,1036.288319,689.485948
956.402279,-7846.182985,-444.123565,-306.438199
956.402600,-7328.038826,-1406.391290,-1685.410096
956.402921,-8512.368333,-2590.720797,-1915.238745
956.403242,-8068.244768,-2664.741391,-1915.238745
956.403563,-9400.615463,-814.226536,0.000000
956.403883,-9770.718434,-222.061783,2757.943793
956.404204,-10584.944971,666.185348,4060.306139
956.404525,-11917.315666,-592.164754,3983.696590
956.404846,-9844.739029,-2664.741391,2757.943793
956.405167,-9326.594869,-2146.597232,536.266849
956.405488,-9474.636058,-1480.411884,459.657299
956.405809,-8364.327145,74.020594,-306.438199
956.406129,-8586.388927,1924.535449,1072.533697
956.406450,-7624.121203,2146.597232,0.000000
956.406771,-8438.347739,518.144159,-459.657299
956.407092,-9918.759623,-1110.308913,383.047749
956.407413,-10881.027347,-1184.329507,2374.896044
956.407734,-11547.212695,-2072.576638,2145.067394
956.408054,-10140.821405,0.000000,3753.867940
956.408375,-11325.150913,0.000000,4290.134789
956.408696,-10658.965565,370.102971,2451.505594
956.409017,-11103.089130,518.144159,1455.581446
956.409338,-9252.574275,592.164754,76.609550
956.409659,-8438.347739,1036.288319,-689.485948
956.409979,-9400.615463,0.000000,536.266849
956.410300,-9474.636058,-888.247130,536.266849
956.410621,-9326.594869,-1776.494261,306.438199
956.410942,-9696.697840,-2368.659014,1608.800546
956.411263,-9992.780217,-814.226536,1225.752797
956.411584,-10288.862594,0.000000,2451.505594
956.411904,-11547.212695,666.185348,4290.134789
956.412225,-10288.862594,666.185348,3370.820191
956.412546,-10066.800811,-1702.473667,1378.971896
956.412867,-9178.553681,-1702.473667,229.828649
956.413188,-8586.388927,-592.164754,0.000000
956.413509,-8512.368333,-1110.308913,0.000000
956.413829,-8586.388927,296.082377,689.485948
956.414150,-7698.141797,740.205942,153.219100
956.414471,-9474.636058,0.000000,153.219100
956.414792,-9918.759623,296.082377,1532.190996
956.415113,-9326.594869,-222.061783,2374.896044
956.415434,-9548.656652,-592.164754,2145.067394
956.415754,-9844.739029,-296.082377,2834.553343
956.416075,-9252.574275,-370.102971,3677.258390
956.416396,-9770.718434,-1924.535449,2298.286494
956.416717,-8882.471304,0.000000,1225.752797
956.417038,-9030.512492,-444.123565,-919.314598
956.417359,-6883.915261,518.144159,-459.657299
956.417680,-7846.182985,0.000000,-842.705048
956.418000,-8364.327145,814.226536,0.000000
956.418321,-10362.883188,-1036.288319,383.047749
956.418642,-9992.780217,-592.164754,1532.190996
956.418963,-10732.986159,-444.123565,1915.238745
956.419284,-10955.047942,-1480.411884,2911.162892
956.419605,-10658.965565,222.061783,3753.867940
956.419925,-12065.356855,222.061783,3600.648841
956.420246,-10584.944971,-1110.308913,1149.143247
956.420567,-8586.388927,0.000000,-689.485948
956.420888,-9548.656652,-518.144159,-1685.410096
956.421209,-8290.306550,0.000000,-1838.629195
956.421530,-9030.512492,592.164754,-229.828649
956.421850,-9548.656652,-222.061783,459.657299
956.422171,-10140.821405,-962.267725,-383.047749
956.422492,-11547.212695,-1850.514855,919.314598
956.422813,-11103.089130,-370.102971,1762.019645
956.423134,-11399.171507,0.000000,1455.581446
956.423455,-10214.842000,2146.597232,2145.067394
956.423775,-10214.842000,74.020594,2528.115143
956.424096,-9400.615463,-1998.556043,76.609550
956.424417,-9030.512492,-1332.370696,-536.266849
956.424738,-9770.718434,-2220.617826,-229.828649
956.425059,-7772.162391,-74.020594,-306.438199
956.425380,-9548.656652,0.000000,995.924147
956.425700,-10066.800811,-370.102971,1378.971896
956.426021,-9178.553681,-1184.329507,1149.143247
956.426342,-10214.842000,-2368.659014,1072.533697
956.426663,-9474.636058,-2072.576638,612.876398
956.426984,-9104.533087,0.000000,612.876398
956.427305,-10807.006753,1036.288319,2681.334243
956.427626,-9474.636058,1998.556043,2451.505594
956.427946,-8956.491898,-592.164754,689.485948
956.428267,-8734.430116,-444.123565,76.609550
956.428588,-8882.471304,-888.247130,-153.219100
956.428909,-8512.368333,-518.144159,153.219100
956.429230,-10436.903782,814.226536,2451.505594
956.429551,-8956.491898,296.082377,1991.848295
956.429871,-9474.636058,-1702.473667,1225.752797
956.430192,-8882.471304,-2294.638420,1225.752797
956.430513,-9178.553681,-962.267725,1072.533697
956.430834,-9992.780217,-444.123565,1225.752797
956.431155,-9030.512492,1554.432478,1838.629195
956.431476,-9622.677246,1332.370696,2528.115143
956.431796,-10955.047942,-1184.329507,1455.581446
956.432117,-9104.533087,-740.205942,1685.410096
956.432438,-9844.739029,-1258.350101,995.924147
956.432759,-9326.594869,296.082377,766.095498
956.433080,-10658.965565,1110.308913,2987.772442
956.433401,-10066.800811,148.041188,2374.896044
956.433721,-8586.388927,-370.102971,1225.752797
956.434042,-9252.574275,-814.226536,306.438199
956.434363,-9104.533087,-666.185348,383.047749
956.434684,-9696.697840,-148.041188,459.657299
956.435005,-9622.677246,1332.370696,2221.676944
956.435326,-9770.718434,1406.391290,2757.943793
956.435646,-10807.006753,-1184.329507,1915.238745
956.435967,-10140.821405,-888.247130,1072.533697
956.436288,-10584.944971,-1480.411884,-919.314598
956.436609,-9770.718434,-148.041188,1149.143247
956.436930,-9622.677246,592.164754,2298.286494
956.437251,-10140.821405,0.000000,1608.800546
956.437572,-8660.409521,-592.164754,153.219100
956.437892,-9918.759623,-888.247130,0.000000
956.438213,-8216.285956,-148.041188,0.000000
956.438534,-9104.533087,0.000000,-1072.533697
956.438855,-9696.697840,1628.453072,1225.752797
956.439176,-9548.656652,1036.288319,383.047749
956.439497,-9918.759623,-666.185348,842.705048
956.439817,-10732.986159,-1924.535449,536.266849
956.440138,-10066.800811,-1554.432478,153.219100
956.440459,-10362.883188,-1480.411884,1302.362347
956.440780,-9474.636058,-222.061783,1991.848295
956.441101,-9474.636058,-1480.411884,536.266849
956.441422,-9400.615463,-814.226536,-919.314598
956.441742,-7772.162391,-2368.659014,-1762.019645
956.442063,-7846.182985,-592.164754,-1762.019645
956.442384,-8808.450710,148.041188,-1608.800546
956.442705,-9178.553681,74.020594,0.000000
956.443026,-9474.636058,-222.061783,1225.752797
956.443347,-10510.924376,-1258.350101,1225.752797
956.443667,-10732.986159,-1406.391290,2145.067394
956.443988,-10584.944971,-814.226536,1685.410096
956.444309,-10658.965565,0.000000,2068.457845
956.444630,-9918.759623,74.020594,1532.190996
956.444951,-9178.553681,0.000000,1915.238745
956.445272,-9474.636058,-370.102971,383.047749
956.445592,-9030.512492,-222.061783,536.266849
956.445913,-9474.636058,-1184.329507,229.828649
956.446234,-9252.574275,296.082377,612.876398
956.446555,-9400.615463,-592.164754,995.924147
956.446876,-9474.636058,-888.247130,1532.190996
956.447197,-9918.759623,-740.205942,842.705048
956.447517,-9474.636058,1110.308913,1532.190996
956.447838,-10732.986159,1850.514855,1991.848295
956.448159,-10288.862594,1628.453072,2451.505594
956.448480,-9918.759623,1258.350101,2987.772442
956.448801,-11251.130318,-1184.329507,4749.792088
956.449121,-9400.615463,-2368.659014,2221.676944
956.449442,-10288.862594,-3775.050304,1991.848295
956.449763,-9326.594869,-2072.576638,536.266849
956.450084,-9178.553681,-518.144159,383.047749
956.450404,-9178.553681,2294.638420,842.705048
956.450725,-8512.368333,4367.215058,3524.039291
956.451046,-11991.336260,-2516.700203,842.705048
956.451367,-6809.894666,1184.329507,612.876398
956.451688,-11473.192101,-2516.700203,-383.047749
956.452008,-9104.533087,-296.082377,2221.676944
956.452329,-8660.409521,-444.123565,1532.190996
956.452650,-11621.233289,666.185348,4673.182538
956.452971,-7846.182985,-444.123565,1072.533697
956.453292,-8586.388927,-1258.350101,-919.314598
956.453612,-11769.274478,-518.144159,1838.629195
956.453933,-6365.771101,-222.061783,-2068.457845
956.454254,-9696.697840,1480.411884,76.609550
956.454575,-9252.574275,1628.453072,3140.991542
956.454895,-7550.100608,-1036.288319,383.047749
956.455216,-10732.986159,-2368.659014,995.924147
956.455537,-9992.780217,-888.247130,1225.752797
956.455858,-9104.533087,-370.102971,995.924147
956.456179,-10140.821405,-444.123565,1762.019645
956.456499,-9548.656652,1110.308913,2298.286494
956.456820,-9030.512492,1036.288319,766.095498
956.457141,-10288.862594,-888.247130,383.047749
956.457462,-9030.512492,-370.102971,-306.438199
956.457782,-9178.553681,-666.185348,-766.095498
956.458103,-9252.574275,-296.082377,536.266849
956.458424,-10362.883188,1332.370696,2528.115143
956.458745,-9696.697840,-740.205942,2145.067394
956.459066,-10510.924376,-2738.761985,383.047749
956.459386,-8882.471304,0.000000,383.047749
956.459707,-10732.986159,-740.205942,-383.047749
956.460028,-9474.636058,148.041188,-383.047749
956.460349,-8438.347739,1184.329507,76.609550
956.460669,-8882.471304,0.000000,-1225.752797
956.460990,-9326.594869,-1332.370696,-1532.190996
956.461311,-9178.553681,-1258.350101,1685.410096
956.461632,-10510.924376,-2146.597232,459.657299
956.461953,-11103.089130,-370.102971,1915.238745
956.462273,-11029.068536,592.164754,3907.087040
956.462594,-11769.274478,-1110.308913,3753.867940
956.462915,-10807.006753,-1258.350101,1378.971896
956.463236,-10288.862594,-2072.576638,-153.219100
956.463557,-8512.368333,-1184.329507,-1072.533697
956.463877,-7846.182985,-148.041188,-995.924147
956.464198,-9104.533087,148.041188,-612.876398
956.464519,-8956.491898,-888.247130,842.705048
956.464840,-9474.636058,-1702.473667,536.266849
956.465160,-9622.677246,-962.267725,1302.362347
956.465481,-10881.027347,-518.144159,536.266849
956.465802,-10288.862594,370.102971,3064.381992
956.466123,-10732.986159,1776.494261,4136.915689
956.466444,-9992.780217,1628.453072,3600.648841
956.466764,-9104.533087,-592.164754,1762.019645
956.467085,-8660.409521,-888.247130,76.609550
956.467406,-8882.471304,-962.267725,0.000000
956.467727,-7698.141797,74.020594,0.000000
956.468047,-8734.430116,888.247130,2374.896044
956.468368,-9326.594869,0.000000,1915.238745
956.468689,-9622.677246,-1036.288319,1225.752797
956.469010,-10510.924376,-296.082377,2221.676944
956.469331,-10288.862594,-962.267725,1838.629195
956.469651,-9474.636058,-518.144159,1838.629195
956.469972,-10140.821405,444.123565,2757.943793
956.470293,-9030.512492,1110.308913,2374.896044
956.470614,-10140.821405,-1850.514855,842.705048
956.470934,-9844.739029,-1184.329507,459.657299
956.471255,-9252.574275,-888.247130,76.609550
956.471576,-9030.512492,-1258.350101,-689.485948
956.471897,-9548.656652,1554.432478,1915.238745
956.472218,-10658.965565,518.144159,2528.115143
956.472538,-9696.697840,-814.226536,919.314598
956.472859,-10066.800811,0.000000,1302.362347
956.473180,-9474.636058,-1776.494261,536.266849
956.473501,-8882.471304,0.000000,766.095498
956.473822,-11473.192101,1850.514855,612.876398
956.474142,-8808.450710,2072.576638,2221.676944
956.474463,-10362.883188,-444.123565,306.438199
956.474784,-9622.677246,-518.144159,0.000000
956.475105,-9992.780217,-222.061783,-229.828649
956.475425,-10584.944971,0.000000,536.266849
956.475746,-9770.718434,962.267725,1532.190996
956.476067,-10140.821405,592.164754,1762.019645
956.476388,-9252.574275,-1184.329507,0.000000
956.476709,-9474.636058,-1184.329507,1532.190996
956.477029,-10066.800811,-592.164754,995.924147
956.477350,-9400.615463,-1110.308913,689.485948
956.477671,-9252.574275,814.226536,1685.410096
956.477992,-10140.821405,592.164754,2528.115143
956.478312,-9918.759623,-592.164754,1072.533697
956.478633,-9548.656652,0.000000,995.924147
956.478954,-9252.574275,-666.185348,-306.438199
956.479275,-8734.430116,-740.205942,-536.266849
956.479596,-9474.636058,222.061783,459.657299
956.479916,-9622.677246,-444.123565,1378.971896
956.480237,-9252.574275,-2960.823768,229.828649
956.480558,-9400.615463,-2294.638420,766.095498
956.480879,-9918.759623,-2146.597232,4366.744339
956.481200,-9474.636058,-518.144159,76.609550
956.481520,-10214.842000,1332.370696,2451.505594
956.481841,-10066.800811,1184.329507,3753.867940
956.482162,-9622.677246,-1110.308913,2145.067394
956.482483,-9474.636058,-2368.659014,1532.190996
956.482803,-9326.594869,-2812.782580,1072.533697
956.483124,-8512.368333,-2664.741391,0.000000
956.483445,-9178.553681,-444.123565,1685.410096
956.483766,-9400.615463,296.082377,2681.334243
956.484087,-8364.327145,74.020594,153.219100
956.484407,-9992.780217,-740.205942,383.047749
956.484728,-9770.718434,0.000000,1608.800546
956.485049,-9918.759623,-1850.514855,-689.485948
956.485370,-10436.903782,370.102971,2528.115143
956.485690,-10658.965565,0.000000,3294.210641
956.486011,-9474.636058,-1184.329507,1072.533697
956.486332,-9548.656652,-1184.329507,766.095498
956.486653,-8660.409521,222.061783,153.219100
956.486974,-10066.800811,518.144159,229.828649
956.487294,-9844.739029,1036.288319,1685.410096
956.487615,-9400.615463,148.041188,1608.800546
956.487936,-9548.656652,-888.247130,229.828649
956.488257,-10214.842000,-1110.308913,689.485948
956.488577,-10140.821405,-666.185348,1302.362347
956.488898,-9770.718434,-222.061783,995.924147
956.489219,-10807.006753,888.247130,1915.238745
956.489540,-9770.718434,1628.453072,1225.752797
956.489861,-9696.697840,296.082377,-689.485948
956.490181,-9770.718434,814.226536,-995.924147
956.490502,-8586.388927,814.226536,-1455.581446
956.490823,-8808.450710,0.000000,-1991.848295
956.491144,-10066.800811,-74.020594,612.876398
956.491465,-10288.862594,-518.144159,2604.724693
956.491785,-11621.233289,-2516.700203,2987.772442
956.492106,-12287.418637,-2072.576638,4749.792088
956.492427,-10955.047942,-1776.494261,3370.820191
956.492748,-9918.759623,-666.185348,1455.581446
956.493068,-9252.574275,1628.453072,1149.143247
956.493389,-7105.977043,1110.308913,842.705048
956.493710,-6883.915261,-592.164754,-995.924147
956.494031,-7254.018232,-1554.432478,-1762.019645
956.494352,-7920.203579,-1480.411884,-1225.752797
956.494672,-9474.636058,-1110.308913,76.609550
956.494993,-11473.192101,74.020594,3524.039291
956.495314,-10362.883188,740.205942,4903.011187
956.495635,-11177.109724,-1036.288319,3217.601092
956.495955,-10436.903782,-740.205942,2911.162892
956.496276,-9992.780217,0.000000,842.705048
956.496597,-9326.594869,-740.205942,0.000000
956.496918,-8290.306550,1702.473667,306.438199
956.497239,-8364.327145,1406.391290,766.095498
956.497559,-9696.697840,666.185348,0.000000
956.497880,-9178.553681,-1184.329507,-229.828649
956.498201,-8956.491898,-296.082377,0.000000
956.498522,-10732.986159,296.082377,1685.410096
956.498842,-10807.006753,1628.453072,2834.553343
956.499163,-11103.089130,1406.391290,3217.601092
956.499484,-9844.739029,-962.267725,1915.238745
956.499805,-8882.471304,-1184.329507,-689.485948
956.500126,-9844.739029,-962.267725,-153.219100
956.500446,-9030.512492,-444.123565,-229.828649
956.500767,-8660.409521,814.226536,76.609550
956.501088,-9622.677246,1036.288319,1991.848295
956.501409,-9622.677246,-1332.370696,1225.752797
956.501730,-10955.047942,-2220.617826,153.219100
956.502050,-10140.821405,-1702.473667,919.314598
956.502371,-9770.718434,-1480.411884,995.924147
956.502692,-9252.574275,0.000000,1532.190996
956.503013,-10140.821405,-962.267725,2221.676944
956.503333,-8068.244768,-1184.329507,0.000000
956.503654,-9178.553681,-2220.617826,-612.876398
956.503975,-8808.450710,-1184.329507,-1072.533697
956.504296,-9252.574275,-296.082377,-229.828649
956.504617,-10510.924376,74.020594,1762.019645
956.504937,-9844.739029,2442.679609,3217.601092
956.505258,-11695.253884,1406.391290,3677.258390
956.505579,-12139.377449,-296.082377,3064.381992
956.505900,-11103.089130,-666.185348,2145.067394
956.506220,-10732.986159,-1184.329507,612.876398
956.506541,-8586.388927,148.041188,0.000000
956.506862,-8216.285956,1554.432478,459.657299
956.507183,-7994.224174,222.061783,1762.019645
956.507504,-6587.832884,-370.102971,-1838.629195
956.507824,-8586.388927,-1258.350101,-306.438199
956.508145,-9474.636058,-740.205942,153.219100
956.508466,-10362.883188,0.000000,2451.505594
956.508787,-10881.027347,962.267725,4366.744339
956.509107,-11399.171507,592.164754,4443.353888
956.509428,-9992.780217,74.020594,2451.505594
956.509749,-10066.800811,-1406.391290,612.876398
956.510070,-8364.327145,-740.205942,-153.219100
956.510391,-7772.162391,-1628.453072,0.000000
956.510711,-9326.594869,-518.144159,1915.238745
956.511032,-9400.615463,0.000000,1991.848295
956.511353,-9030.512492,-814.226536,-459.657299
956.511674,-9400.615463,74.020594,1455.581446
956.511995,-9992.780217,-1258.350101,919.314598
956.512315,-8438.347739,-148.041188,459.657299
956.512636,-10807.006753,-444.123565,2298.286494
956.512957,-9178.553681,0.000000,2298.286494
956.513278,-9918.759623,-1702.473667,1685.410096
956.513598,-9770.718434,-444.123565,1762.019645
956.513919,-9400.615463,74.020594,536.266849
956.514240,-10510.924376,1036.288319,1608.800546
956.514561,-10214.842000,666.185348,1762.019645
956.514882,-9030.512492,0.000000,1455.581446
956.515202,-10288.862594,-1850.514855,0.000000
956.515523,-9252.574275,-1110.308913,-842.705048
956.515844,-9696.697840,-1258.350101,0.000000
956.516165,-9030.512492,0.000000,-153.219100
956.516485,-9548.656652,1702.473667,1532.190996
956.516806,-10510.924376,814.226536,2374.896044
956.517127,-9918.759623,-666.185348,766.095498
956.517448,-10362.883188,-666.185348,842.705048
956.517769,-9622.677246,-296.082377,-306.438199
956.518089,-9252.574275,-296.082377,0.000000
956.518410,-9992.780217,666.185348,995.924147
956.518731,-10066.800811,0.000000,1302.362347
956.519052,-9104.533087,-2220.617826,-612.876398
956.519373,-8882.471304,-2516.700203,-919.314598
956.519693,-9252.574275,-1480.411884,-459.657299
956.520014,-9696.697840,-1036.288319,-459.657299
956.520335,-9622.677246,1110.308913,2298.286494
956.520656,-9770.718434,444.123565,2145.067394
956.520976,-9844.739029,-2072.576638,1302.362347
956.521297,-10584.944971,-2516.700203,1762.019645
956.521618,-10214.842000,-2442.679609,1532.190996
956.521939,-8882.471304,-1258.350101,842.705048
956.522260,-9326.594869,296.082377,2374.896044
956.522580,-9104.533087,0.000000,306.438199
956.522901,-8660.409521,-740.205942,-306.438199
956.523222,-9252.574275,-888.247130,-306.438199
956.523543,-9252.574275,-888.247130,-306.438199
956.523863,-8956.491898,-1480.411884,459.657299
956.524184,-9844.739029,0.000000,2068.457845
956.524505,-9770.718434,0.000000,2374.896044
956.524826,-10066.800811,-444.123565,1685.410096
956.525147,-10807.006753,0.000000,1915.238745
956.525467,-10584.944971,1702.473667,1532.190996
956.525788,-10436.903782,1258.350101,1532.190996
956.526109,-9622.677246,1628.453072,2374.896044
956.526430,-9178.553681,888.247130,1838.629195
956.526750,-8956.491898,-1776.494261,1149.143247
956.527071,-8808.450710,-1702.473667,459.657299
956.527392,-9474.636058,-1258.350101,689.485948
956.527713,-10066.800811,-518.144159,919.314598
956.528034,-9400.615463,1850.514855,2451.505594
956.528354,-9918.759623,2294.638420,2681.334243
956.528675,-10510.924376,888.247130,1685.410096
956.528996,-10955.047942,370.102971,842.705048
956.529317,-9548.656652,962.267725,1302.362347
956.529638,-9474.636058,-1406.391290,689.485948
956.529958,-9104.533087,370.102971,2374.896044
956.530279,-10140.821405,-814.226536,2221.676944
956.530600,-9400.615463,-1850.514855,1149.143247
956.530921,-9696.697840,-222.061783,0.000000
956.531241,-9252.574275,-222.061783,689.485948
956.531562,-8882.471304,74.020594,689.485948
956.531883,-9178.553681,296.082377,1762.019645
956.532204,-9696.697840,518.144159,1532.190996
956.532525,-9178.553681,-1998.556043,0.000000
956.532845,-8364.327145,-1258.350101,-1838.629195
956.533166,-8586.388927,592.164754,-1762.019645
956.533487,-8660.409521,1258.350101,-766.095498
956.533808,-8808.450710,2442.679609,1685.410096
956.534128,-10288.862594,296.082377,2757.943793
956.534449,-10362.883188,-2590.720797,1302.362347
956.534770,-11547.212695,-3627.009116,1838.629195
956.535091,-12213.398043,-1702.473667,2757.943793
956.535412,-10214.842000,-370.102971,2681.334243
956.535732,-9474.636058,1924.535449,2911.162892
956.536053,-8660.409521,296.082377,1225.752797
956.536374,-6957.935855,-592.164754,-612.876398
956.536695,-7179.997637,-2146.597232,-2681.334243
956.537015,-6661.853478,-1184.329507,-2757.943793
956.537336,-8586.388927,148.041188,-1302.362347
956.537657,-9622.677246,296.082377,995.924147
956.537978,-9548.656652,1258.350101,2681.334243
956.538299,-11621.233289,-592.164754,3064.381992
956.538619,-11251.130318,-1406.391290,2604.724693
956.538940,-11843.295072,-1850.514855,2681.334243
956.539261,-10510.924376,-444.123565,766.095498
956.539582,-8734.430116,814.226536,1149.143247
956.539903,-8734.430116,518.144159,1532.190996
956.540223,-8364.327145,-1036.288319,459.657299
956.540544,-9474.636058,-2220.617826,0.000000
956.540865,-9548.656652,-2368.659014,0.000000
956.541186,-9696.697840,-1998.556043,383.047749
956.541506,-11029.068536,296.082377,2604.724693
956.541827,-11177.109724,370.102971,5515.887586
956.542148,-10955.047942,-592.164754,2987.772442
956.542469,-10881.027347,-1628.453072,1762.019645
956.542790,-10066.800811,-1628.453072,229.828649
956.543110,-9104.533087,0.000000,-536.266849
956.543431,-9326.594869,1480.411884,306.438199
956.543752,-9622.677246,2960.823768,2145.067394
956.544073,-9400.615463,1110.308913,842.705048
956.544393,-9104.533087,-1110.308913,-689.485948
956.544714,-9770.718434,-1702.473667,536.266849
956.545035,-10140.821405,-1924.535449,1072.533697
956.545356,-9844.739029,0.000000,2374.896044
956.545677,-10584.944971,370.102971,3983.696590
956.545997,-8364.327145,-814.226536,1149.143247
956.546318,-8882.471304,-1628.453072,612.876398
956.546639,-9696.697840,-888.247130,919.314598
956.546960,-7920.203579,370.102971,-76.609550
956.547281,-9104.533087,1036.288319,1378.971896
956.547601,-7402.059420,1184.329507,2221.676944
956.547922,-9326.594869,-666.185348,1915.238745
956.548243,-10436.903782,-1036.288319,1915.238745
956.548564,-10214.842000,0.000000,2604.724693
956.548885,-10214.842000,-518.144159,1762.019645
956.549205,-9992.780217,0.000000,1762.019645
956.549526,-9622.677246,1628.453072,2451.505594
956.549847,-9622.677246,-296.082377,0.000000
956.550168,-7179.997637,0.000000,-612.876398
956.550489,-8512.368333,740.205942,0.000000
956.550809,-7550.100608,1184.329507,-689.485948
956.551130,-10214.842000,-296.082377,1149.143247
956.551451,-9770.718434,666.185348,2757.943793
956.551772,-9770.718434,-814.226536,2681.334243
956.552093,-11843.295072,-1776.494261,2068.457845
956.552413,-10436.903782,592.164754,1532.190996
956.552734,-11177.109724,222.061783,1915.238745
956.553055,-9918.759623,444.123565,1762.019645
956.553376,-10288.862594,1110.308913,2451.505594
956.553696,-10140.821405,-1702.473667,842.705048
956.554017,-9178.553681,-1702.473667,-306.438199
956.554338,-9622.677246,-814.226536,0.000000
956.554659,-8734.430116,222.061783,-1378.971896
956.554980,-8956.491898,1998.556043,0.000000
956.555300,-10140.821405,1702.473667,1225.752797
956.555621,-9252.574275,-222.061783,995.924147
956.555942,-10066.800811,-2812.782580,1149.143247
956.556263,-9918.759623,-2960.823768,383.047749
956.556584,-10140.821405,-1924.535449,0.000000
956.556904,-10140.821405,222.061783,1608.800546
956.557225,-9770.718434,1036.288319,2604.724693
956.557546,-10066.800811,444.123565,2374.896044
956.557867,-9770.718434,-962.267725,383.047749
956.558188,-9770.718434,-1184.329507,76.609550
956.558508,-9178.553681,-1110.308913,-766.095498
956.558829,-8734.430116,-1110.308913,1762.019645
956.559150,-9622.677246,222.061783,1608.800546
956.559471,-8586.388927,-1110.308913,689.485948
956.559792,-9030.512492,-1850.514855,-383.047749
956.560112,-9326.594869,-1406.391290,2374.896044
956.560433,-9030.512492,-1628.453072,536.266849
956.560754,-10214.842000,-1184.329507,1532.190996
956.561075,-8808.450710,0.000000,2068.457845
956.561396,-8956.491898,-444.123565,1762.019645
956.561716,-10066.800811,-740.205942,766.095498
956.562037,-9400.615463,-518.144159,995.924147
956.562358,-9918.759623,-666.185348,536.266849
956.562679,-9178.553681,222.061783,229.828649
956.563000,-8660.409521,1036.288319,1149.143247
956.563320,-10140.821405,-222.061783,1838.629195
956.563641,-9622.677246,-1184.329507,995.924147
956.563962,-10436.903782,-1036.288319,995.924147
956.564283,-9474.636058,-592.164754,-1149.143247
956.564604,-9844.739029,-296.082377,459.657299
956.564924,-10140.821405,1332.370696,2145.067394
956.565245,-10584.944971,814.226536,2068.457845
956.565566,-9622.677246,370.102971,1149.143247
956.565887,-9474.636058,-222.061783,1072.533697
956.566208,-10214.842000,-740.205942,383.047749
956.566528,-9844.739029,-296.082377,842.705048
956.566849,-9622.677246,74.020594,2298.286494
956.567170,-9770.718434,444.123565,3677.258390
956.567491,-9474.636058,-2442.679609,1225.752797
956.567812,-9326.594869,-2072.576638,306.438199
956.568132,-9622.677246,-592.164754,229.828649
956.568453,-9474.636058,1776.494261,1915.238745
956.568774,-10288.862594,2442.679609,2987.772442
956.569095,-10140.821405,1850.514855,2451.505594
956.569416,-9696.697840,222.061783,842.705048
956.569736,-9918.759623,-888.247130,919.314598
956.570057,-9178.553681,-1110.308913,842.705048
956.570378,-9326.594869,-1036.288319,1072.533697
956.570699,-10436.903782,370.102971,3064.381992
956.571020,-9474.636058,592.164754,2911.162892
956.571340,-8586.388927,-1628.453072,76.609550
956.571661,-8882.471304,-962.267725,229.828649
956.571982,-9030.512492,-148.041188,229.828649
956.572303,-9030.512492,148.041188,612.876398
956.572624,-9104.533087,444.123565,3907.087040
956.572944,-9252.574275,-444.123565,1685.410096
956.573265,-9622.677246,-1702.473667,612.876398
956.573586,-9622.677246,-888.247130,1302.362347
956.573907,-10807.006753,-1258.350101,1991.848295
956.574228,-9178.553681,-222.061783,689.485948
956.574548,-9770.718434,666.185348,1378.971896
956.574869,-9400.615463,444.123565,1915.238745
956.575190,-9474.636058,-1184.329507,612.876398
956.575511,-9992.780217,-888.247130,229.828649
956.575832,-8882.471304,-1110.308913,-842.705048
956.576152,-8956.491898,-962.267725,-995.924147
956.576473,-10066.800811,370.102971,1072.533697
956.576794,-9770.718434,444.123565,5056.230287
956.577115,-10288.862594,-1998.556043,536.266849
956.577436,-9326.594869,-1554.432478,0.000000
956.577756,-9696.697840,-888.247130,-766.095498
956.578077,-9548.656652,-296.082377,-1225.752797
956.578398,-9030.512492,2442.679609,0.000000
956.578719,-9474.636058,2220.617826,1685.410096
956.579040,-8882.471304,-148.041188,0.000000
956.579360,-10436.903782,-1850.514855,536.266849
956.579681,-9770.718434,-1554.432478,612.876398
956.580002,-10955.047942,-1628.453072,1915.238745
956.580323,-10732.986159,888.247130,3447.429741
956.580644,-10288.862594,222.061783,4060.306139
956.580964,-9400.615463,-1184.329507,2528.115143
956.581285,-9326.594869,-814.226536,612.876398
956.581606,-9326.594869,-1332.370696,229.828649
956.581927,-8808.450710,-962.267725,229.828649
956.582247,-9104.533087,0.000000,919.314598
956.582568,-9474.636058,740.205942,2145.067394
956.582889,-9770.718434,0.000000,2757.943793
956.583210,-11917.315666,-2294.638420,3753.867940
956.583531,-9696.697840,-2664.741391,1608.800546
956.583851,-9030.512492,-1258.350101,76.609550
956.584172,-10510.924376,1998.556043,766.095498
956.584493,-9326.594869,3034.844362,2681.334243
956.584814,-9770.718434,1184.329507,1072.533697
956.585135,-10807.006753,1110.308913,1838.629195
956.585455,-8956.491898,-1850.514855,-995.924147
956.585776,-10140.821405,-1110.308913,1072.533697
956.586097,-9474.636058,-888.247130,1685.410096
956.586418,-9918.759623,1776.494261,3294.210641
956.586739,-9548.656652,-1924.535449,2451.505594
956.587059,-7550.100608,-444.123565,766.095498
956.587380,-9770.718434,-370.102971,459.657299
956.587701,-10362.883188,-888.247130,612.876398
956.588022,-8882.471304,370.102971,1532.190996
956.588343,-9326.594869,222.061783,1608.800546
956.588663,-8956.491898,-518.144159,76.609550
956.588984,-8734.430116,-888.247130,459.657299
956.589305,-9622.677246,-1850.514855,2911.162892
956.589626,-9474.636058,-1036.288319,459.657299
956.589947,-9622.677246,1702.473667,1915.238745
956.590267,-9252.574275,1406.391290,2528.115143
956.590588,-9252.574275,-444.123565,1685.410096
956.590909,-8660.409521,-962.267725,0.000000
956.591230,-9104.533087,-2146.597232,-766.095498
956.591551,-8586.388927,-74.020594,0.000000
956.591871,-9992.780217,0.000000,459.657299
956.592192,-10140.821405,518.144159,2911.162892
956.592513,-10288.862594,74.020594,2987.772442
956.592834,-12953.603985,-1702.473667,2757.943793
956.593155,-10732.986159,74.020594,1915.238745
956.593475,-9992.780217,1110.308913,-536.266849
956.593796,-9178.553681,2368.659014,229.828649
956.594117,-9252.574275,1924.535449,919.314598
956.594438,-8142.265362,444.123565,306.438199
956.594759,-9696.697840,-2812.782580,-306.438199
956.595079,-8956.491898,-1924.535449,-1302.362347
956.595400,-10436.903782,-1554.432478,459.657299
956.595721,-9844.739029,74.020594,1685.410096
956.596042,-10436.903782,1184.329507,2145.067394
956.596363,-10362.883188,888.247130,1302.362347
956.596683,-9474.636058,-814.226536,0.000000
956.597004,-9030.512492,-1702.473667,-383.047749
956.597325,-9992.780217,-1110.308913,-229.828649
956.597646,-9474.636058,74.020594,0.000000
956.597967,-9548.656652,370.102971,1149.143247
956.598287,-9104.533087,-666.185348,1838.629195
956.598608,-9252.574275,-1924.535449,536.266849
956.598929,-9622.677246,-1628.453072,842.705048
956.599250,-10066.800811,-1258.350101,1225.752797
956.599571,-9252.574275,-222.061783,1455.581446
956.599891,-9770.718434,444.123565,2451.505594
956.600212,-9474.636058,-1332.370696,1302.362347
956.600533,-8290.306550,-1628.453072,-536.266849
956.600854,-9104.533087,-740.205942,0.000000
956.601175,-9030.512492,0.000000,0.000000
956.601495,-9696.697840,888.247130,1685.410096
956.601816,-10807.006753,592.164754,3140.991542
956.602137,-10362.883188,-370.102971,2987.772442
956.602458,-10436.903782,-1628.453072,1302.362347
956.602779,-10658.965565,0.000000,2451.505594
956.603099,-9844.739029,-444.123565,1915.238745
956.603420,-8660.409521,666.185348,1455.581446
956.603741,-9548.656652,888.247130,2528.115143
956.604062,-9030.512492,296.082377,1072.533697
956.604383,-9326.594869,-1184.329507,-536.266849
956.604703,-10214.842000,-814.226536,76.609550
956.605024,-8956.491898,0.000000,153.219100
956.605345,-10436.903782,370.102971,1455.581446
956.605666,-11029.068536,1702.473667,4213.525239
956.605987,-9844.739029,0.000000,2681.334243
956.606307,-10436.903782,-2516.700203,1455.581446
956.606628,-10436.903782,-740.205942,995.924147
956.606949,-9992.780217,0.000000,612.876398
956.607270,-9548.656652,1110.308913,1608.800546
956.607591,-8512.368333,1628.453072,1608.800546
956.607911,-8586.388927,0.000000,76.609550
956.608232,-8956.491898,-888.247130,-383.047749
956.608553,-9992.780217,-1036.288319,459.657299
956.608874,-9770.718434,-592.164754,919.314598
956.609195,-10214.842000,-74.020594,1762.019645
956.609515,-10066.800811,1332.370696,3140.991542
956.609836,-10436.903782,-666.185348,2987.772442
956.610157,-8364.327145,-1554.432478,689.485948
956.610478,-9326.594869,-370.102971,1685.410096
956.610798,-9622.677246,-1258.350101,0.000000
956.611119,-8290.306550,-148.041188,0.000000
956.611440,-9030.512492,-74.020594,995.924147
956.611761,-7772.162391,1924.535449,459.657299
956.612082,-10510.924376,-1406.391290,612.876398
956.612402,-9548.656652,0.000000,995.924147
956.612723,-10436.903782,-1628.453072,536.266849
956.613044,-8512.368333,-2146.597232,-2221.676944
956.613365,-9252.574275,1850.514855,2068.457845
956.613686,-10658.965565,-296.082377,3294.210641
956.614006,-9400.615463,-1480.411884,612.876398
956.614327,-9252.574275,-592.164754,536.266849
956.614648,-9326.594869,-1850.514855,-1378.971896
956.614969,-8290.306550,148.041188,-1072.533697
956.615290,-11251.130318,296.082377,1455.581446
956.615610,-8216.285956,814.226536,1149.143247
956.615931,-10066.800811,-1332.370696,-306.438199
956.616252,-10140.821405,-1628.453072,689.485948
956.616573,-9918.759623,-1036.288319,536.266849
956.616894,-10807.006753,-148.041188,1149.143247
956.617214,-10362.883188,2220.617826,2604.724693
956.617535,-10807.006753,0.000000,2681.334243
956.617856,-9252.574275,-962.267725,1072.533697
956.618177,-9548.656652,-2146.597232,76.609550
956.618498,-9696.697840,444.123565,536.266849
956.618818,-10140.821405,-296.082377,1378.971896
956.619139,-9474.636058,1036.288319,1838.629195
956.619460,-9992.780217,444.123565,1608.800546
956.619781,-9474.636058,-1554.432478,229.828649
956.620102,-10066.800811,-666.185348,1149.143247
956.620422,-9770.718434,-1406.391290,612.876398
956.620743,-8660.409521,-296.082377,153.219100
956.621064,-9474.636058,592.164754,2145.067394
956.621385,-8882.471304,740.205942,3217.601092
956.621706,-9622.677246,-814.226536,1915.238745
956.622026,-10288.862594,-444.123565,2451.505594
956.622347,-9474.636058,-1332.370696,1608.800546
956.622668,-8956.491898,-1628.453072,919.314598
956.622989,-9252.574275,-370.102971,1455.581446
956.623310,-9400.615463,592.164754,1608.800546
956.623630,-9474.636058,-814.226536,1455.581446
956.623951,-9696.697840,-1036.288319,1378.971896
956.624272,-9400.615463,-1406.391290,153.219100
956.624593,-8808.450710,-1258.350101,-1762.019645
956.624914,-8734.430116,518.144159,612.876398
956.625234,-9474.636058,1184.329507,1532.190996
956.625555,-8808.450710,-592.164754,459.657299
956.625876,-9104.533087,-592.164754,-76.609550
956.626197,-9918.759623,148.041188,536.266849
956.626518,-9844.739029,74.020594,919.314598
956.626838,-10955.047942,1110.308913,4519.963438
956.627159,-9770.718434,1184.329507,3753.867940
956.627480,-9992.780217,-370.102971,995.924147
956.627801,-10214.842000,148.041188,1302.362347
956.628122,-9252.574275,-370.102971,689.485948
956.628442,-9104.533087,-444.123565,153.219100
956.628763,-9622.677246,444.123565,1455.581446
956.629084,-9474.636058,666.185348,2298.286494
956.629405,-9844.739029,-1554.432478,1149.143247
956.629726,-10066.800811,-888.247130,1685.410096
956.630046,-10510.924376,-518.144159,1225.752797
956.630367,-10066.800811,-148.041188,459.657299
956.630688,-10066.800811,814.226536,1532.190996
956.631009,-9918.759623,666.185348,1378.971896
956.631330,-9178.553681,-1480.411884,-536.266849
956.631650,-8808.450710,-1110.308913,-1762.019645
956.631971,-8142.265362,0.000000,-1302.362347
956.632292,-8956.491898,0.000000,-766.095498
956.632613,-9918.759623,888.247130,2068.457845
956.632934,-10584.944971,740.205942,3600.648841
956.633254,-10881.027347,-2664.741391,2221.676944
956.633575,-10658.965565,-1924.535449,2145.067394
956.633896,-10658.965565,-1554.432478,1991.848295
956.634217,-9770.718434,-1480.411884,306.438199
956.634538,-8808.450710,444.123565,919.314598
956.634858,-7994.224174,1406.391290,229.828649
956.635179,-7105.977043,-962.267725,995.924147
956.635500,-9548.656652,-1776.494261,-995.924147
956.635821,-8808.450710,-740.205942,229.828649
956.636142,-9918.759623,-1628.453072,-153.219100
956.636462,-9770.718434,444.123565,1838.629195
956.636783,-10807.006753,962.267725,3677.258390
956.637104,-10066.800811,-814.226536,2451.505594
956.637425,-9770.718434,-1924.535449,612.876398
956.637746,-9400.615463,-592.164754,1149.143247
956.638066,-9474.636058,-370.102971,383.047749
956.638387,-9104.533087,740.205942,1608.800546
956.638708,-9622.677246,222.061783,1608.800546
956.639029,-8586.388927,0.000000,766.095498
956.639350,-9400.615463,-1998.556043,-689.485948
956.639670,-9474.636058,-1406.391290,612.876398
956.639991,-9992.780217,-1628.453072,0.000000
956.640312,-9992.780217,-296.082377,919.314598
956.640633,-10881.027347,1110.308913,3140.991542
956.640953,-9844.739029,-148.041188,2145.067394
956.641274,-10288.862594,-814.226536,1302.362347
956.641595,-9844.739029,0.000000,919.314598
956.641916,-9252.574275,-814.226536,306.438199
956.642237,-9770.718434,-370.102971,1762.019645
956.642557,-9104.533087,1110.308913,2987.772442
956.642878,-11251.130318,-222.061783,2757.943793
956.643199,-10362.883188,-1480.411884,2221.676944
956.643520,-10436.903782,-592.164754,2451.505594
956.643841,-10140.821405,-962.267725,842.705048
956.644161,-9178.553681,-666.185348,0.000000
956.644482,-9178.553681,296.082377,1455.581446
956.644803,-8512.368333,-296.082377,536.266849
956.645124,-8068.244768,-444.123565,-766.095498
956.645445,-9252.574275,-148.041188,76.609550
956.645765,-8808.450710,518.144159,612.876398
956.646086,-10807.006753,222.061783,1378.971896
956.646407,-10955.047942,1628.453072,4060.306139
956.646728,-10214.842000,-296.082377,2451.505594
956.647049,-9918.759623,-1776.494261,1378.971896
956.647369,-9918.759623,-740.205942,689.485948
956.647690,-9030.512492,-1110.308913,-153.219100
956.648011,-8290.306550,296.082377,76.609550
956.648332,-8882.471304,1702.473667,1838.629195
956.648652,-8734.430116,-370.102971,383.047749
956.648973,-9252.574275,-1332.370696,0.000000
956.649294,-9992.780217,-1184.329507,1302.362347
956.649615,-9844.739029,-888.247130,612.876398
956.649935,-10362.883188,740.205942,2145.067394
956.650256,-11103.089130,1110.308913,3677.258390
956.650577,-9400.615463,814.226536,1608.800546
956.650898,-10955.047942,-1850.514855,612.876398
956.651218,-9326.594869,-888.247130,612.876398
956.651539,-9178.553681,-296.082377,-612.876398
956.651860,-9178.553681,-666.185348,1685.410096
956.652181,-8512.368333,2738.761985,1455.581446
956.652501,-9992.780217,74.020594,2451.505594
956.652822,-9178.553681,-1554.432478,-76.609550
956.653143,-9844.739029,-592.164754,1378.971896
956.653464,-10584.944971,-1258.350101,1685.410096
956.653784,-10362.883188,0.000000,1302.362347
956.654105,-10732.986159,1406.391290,2911.162892
956.654426,-8882.471304,518.144159,1149.143247
956.654747,-9696.697840,-1110.308913,842.705048
956.655067,-9844.739029,-1110.308913,306.438199
956.655388,-8956.491898,-296.082377,0.000000
956.655709,-10066.800811,-888.247130,306.438199
956.656030,-8660.409521,1258.350101,1915.238745
956.656350,-10732.986159,-444.123565,2374.896044
956.656671,-9548.656652,-1702.473667,689.485948
956.656992,-8734.430116,-296.082377,1225.752797
956.657313,-9992.780217,-666.185348,1072.533697
956.657633,-8438.347739,-666.185348,153.219100
956.657954,-10288.862594,296.082377,2451.505594
956.658275,-9474.636058,-888.247130,1225.752797
956.658596,-8660.409521,-1924.535449,76.609550
956.658916,-9178.553681,-1406.391290,2374.896044
956.659237,-9030.512492,-370.102971,-383.047749
956.659558,-9918.759623,518.144159,459.657299
956.659879,-9992.780217,2072.576638,2987.772442
956.660199,-9474.636058,0.000000,2145.067394
956.660520,-9622.677246,-2368.659014,306.438199
956.660841,-9696.697840,-1998.556043,0.000000
956.661162,-9030.512492,-962.267725,-459.657299
956.661482,-9252.574275,-296.082377,0.000000
956.661803,-9252.574275,1184.329507,2068.457845
956.662124,-9326.594869,148.041188,1762.019645
956.662445,-9474.636058,-1998.556043,306.438199
956.662766,-10066.800811,-1480.411884,1532.190996
956.663086,-10140.821405,-1776.494261,612.876398
956.663407,-9326.594869,-740.205942,383.047749
956.663728,-9770.718434,1110.308913,1608.800546
956.664049,-9178.553681,1184.329507,1532.190996
956.664369,-9622.677246,-222.061783,612.876398
956.664690,-9992.780217,148.041188,1225.752797
956.665011,-10510.924376,-888.247130,229.828649
956.665332,-9548.656652,-296.082377,306.438199
956.665652,-10510.924376,888.247130,2145.067394
956.665973,-10362.883188,222.061783,3524.039291
956.666294,-10140.821405,-1258.350101,1608.800546
956.666615,-10436.903782,0.000000,3140.991542
956.666935,-10807.006753,-1406.391290,689.485948
956.667256,-8512.368333,1776.494261,459.657299
956.667577,-10658.965565,1406.391290,536.266849
956.667898,-7254.018232,2442.679609,842.705048
956.668218,-8586.388927,0.000000,229.828649
956.668539,-10214.842000,-2146.597232,1378.971896
956.668860,-7624.121203,-4367.215058,-1378.971896
956.669181,-8956.491898,-2812.782580,-995.924147
956.669501,-12583.501014,-222.061783,3140.991542
956.669822,-9622.677246,444.123565,4213.525239
956.670143,-11177.109724,-962.267725,2451.505594
956.670464,-10214.842000,74.020594,3064.381992
956.670784,-7476.080014,-1406.391290,-1455.581446
956.671105,-9770.718434,-666.185348,536.266849
956.671426,-7994.224174,518.144159,919.314598
956.671747,-7772.162391,0.000000,612.876398
956.672067,-9474.636058,-2664.741391,766.095498
956.672388,-7846.182985,-2072.576638,-306.438199
956.672709,-9326.594869,-1924.535449,0.000000
956.673030,-11103.089130,-1480.411884,1302.362347
956.673350,-8586.388927,1110.308913,2068.457845
956.673671,-10066.800811,-296.082377,1532.190996
956.673992,-9992.780217,-1332.370696,766.095498
956.674313,-9622.677246,-2146.597232,229.828649
956.674633,-9178.553681,-1850.514855,-536.266849
956.674954,-8808.450710,-1332.370696,-1302.362347
956.675275,-8956.491898,370.102971,153.219100
956.675596,-8586.388927,888.247130,1072.533697
956.675916,-9622.677246,-1110.308913,-153.219100
956.676237,-9326.594869,222.061783,0.000000
956.676558,-10955.047942,-370.102971,1072.533697
956.676879,-10955.047942,296.082377,2068.457845
956.677199,-9918.759623,814.226536,3064.381992
956.677520,-11029.068536,-962.267725,2911.162892
956.677841,-9548.656652,-1332.370696,1685.410096
956.678162,-9622.677246,-1258.350101,-689.485948
956.678482,-10066.800811,592.164754,-76.609550
956.678803,-9400.615463,2220.617826,0.000000
956.679124,-9844.739029,3034.844362,1378.971896
956.679445,-10214.842000,1332.370696,2681.334243
956.679766,-9400.615463,0.000000,1149.143247
956.680086,-10584.944971,-666.185348,2451.505594
956.680407,-11103.089130,-148.041188,1685.410096
956.680728,-10140.821405,888.247130,2757.943793
956.681049,-9992.780217,1628.453072,2987.772442
956.681369,-9030.512492,1850.514855,3064.381992
956.681690,-9252.574275,666.185348,2451.505594
956.682011,-9696.697840,0.000000,1991.848295
956.682332,-8956.491898,0.000000,2298.286494
956.682652,-8660.409521,592.164754,1532.190996
956.682973,-9400.615463,1036.288319,2221.676944
956.683294,-10066.800811,1850.514855,4519.963438
956.683615,-9696.697840,-148.041188,3983.696590
956.683935,-9992.780217,-2146.597232,2757.943793
956.684256,-9844.739029,-592.164754,2145.067394
956.684577,-9326.594869,666.185348,1685.410096
956.684898,-9918.759623,1258.350101,2068.457845
956.685218,-8882.471304,3478.967927,3447.429741
956.685539,-8956.491898,2146.597232,2757.943793
956.685860,-9770.718434,1036.288319,1532.190996
956.686181,-9696.697840,1184.329507,2681.334243
956.686501,-9696.697840,740.205942,2221.676944
956.686822,-9252.574275,740.205942,1838.629195
956.687143,-8216.285956,2590.720797,1762.019645
956.687464,-7920.203579,2294.638420,2374.896044
956.687784,-8512.368333,1036.288319,1455.581446
956.688105,-8364.327145,1406.391290,2145.067394
956.688426,-9030.512492,0.000000,1915.238745
956.688747,-9992.780217,148.041188,2374.896044
956.689067,-10658.965565,888.247130,4596.572988
956.689388,-9992.780217,1258.350101,4749.792088
956.689709,-11399.171507,1776.494261,4443.353888
956.690030,-11473.192101,2368.659014,3907.087040
956.690350,-9178.553681,3256.906145,2451.505594
956.690671,-10510.924376,2738.761985,1455.581446
956.690992,-8586.388927,2368.659014,842.705048
956.691313,-7920.203579,814.226536,76.609550
956.691633,-8068.244768,2368.659014,689.485948
956.691954,-10362.883188,888.247130,2757.943793
956.692275,-10436.903782,666.185348,3370.820191
956.692596,-10436.903782,1110.308913,3907.087040
956.692916,-11251.130318,1258.350101,3140.991542
956.693237,-10140.821405,1776.494261,3447.429741
956.693558,-10288.862594,1036.288319,3753.867940
956.693879,-9770.718434,1332.370696,2834.553343
956.694199,-8882.471304,2442.679609,2068.457845
956.694520,-10436.903782,518.144159,2374.896044
956.694841,-9030.512492,2072.576638,2987.772442
956.695162,-10436.903782,1702.473667,3447.429741
956.695482,-10436.903782,2368.659014,4366.744339
956.695803,-9474.636058,1924.535449,3907.087040
956.696124,-9400.615463,370.102971,3907.087040
956.696445,-9326.594869,740.205942,3677.258390
956.696766,-10066.800811,1110.308913,5669.106685
956.697086,-9326.594869,444.123565,4519.963438
956.697407,-9178.553681,740.205942,3370.820191
956.697728,-8956.491898,962.267725,2451.505594
956.698049,-8364.327145,1184.329507,2604.724693
956.698369,-9104.533087,1184.329507,3370.820191
956.698690,-8660.409521,518.144159,1915.238745
956.699011,-8882.471304,888.247130,2298.286494
956.699332,-9918.759623,1628.453072,4136.915689
956.699652,-11103.089130,2072.576638,6052.154434
956.699973,-11695.253884,1850.514855,6128.763984
956.700294,-9326.594869,3034.844362,4903.011187
956.700615,-9400.615463,2812.782580,4443.353888
956.700935,-9548.656652,2442.679609,3983.696590
956.701256,-8364.327145,2294.638420,2987.772442
956.701577,-8512.368333,1406.391290,2451.505594
956.701898,-8660.409521,2368.659014,2681.334243
956.702218,-9252.574275,2368.659014,3983.696590
956.702539,-10436.903782,2442.679609,6281.983084
956.702860,-10510.924376,2368.659014,3830.477490
956.703181,-10214.842000,2664.741391,2911.162892
956.703501,-9770.718434,2812.782580,2451.505594
956.703822,-9696.697840,1998.556043,1991.848295
956.704143,-10066.800811,1480.411884,2528.115143
956.704464,-10140.821405,740.205942,2068.457845
956.704784,-9030.512492,1110.308913,1455.581446
956.705105,-9918.759623,1998.556043,2374.896044
956.705426,-10584.944971,2664.741391,4366.744339
956.705747,-10732.986159,1924.535449,4136.915689
956.706067,-9992.780217,2072.576638,3600.648841
956.706388,-9622.677246,2146.597232,3140.991542
956.706709,-8586.388927,2590.720797,3983.696590
956.707030,-9622.677246,2294.638420,4366.744339
956.707350,-9622.677246,1850.514855,3753.867940
956.707671,-8882.471304,1406.391290,1991.848295
956.707992,-8660.409521,1332.370696,1072.533697
956.708313,-9326.594869,2664.741391,2145.067394
956.708633,-10214.842000,3182.885551,3983.696590
956.708954,-10881.027347,3330.926739,5209.449386
956.709275,-9992.780217,2516.700203,4749.792088
956.709596,-10066.800811,2072.576638,3753.867940
956.709916,-10140.821405,1406.391290,3677.258390
956.710237,-9622.677246,1110.308913,3983.696590
956.710558,-9252.574275,1184.329507,3447.429741
956.710879,-8068.244768,666.185348,3217.601092
956.711199,-8068.244768,740.205942,919.314598
956.711520,-9178.553681,740.205942,1378.971896
956.711841,-9992.780217,592.164754,2604.724693
956.712162,-9696.697840,1110.308913,2987.772442
956.712482,-9474.636058,1998.556043,3830.477490
956.712803,-9770.718434,1702.473667,4443.353888
956.713124,-10214.842000,1480.411884,5592.497135
956.713445,-10658.965565,592.164754,5439.278036
956.713766,-9474.636058,814.226536,4366.744339
956.714086,-9326.594869,1554.432478,3217.601092
956.714407,-8660.409521,2146.597232,2987.772442
956.714728,-8882.471304,2368.659014,2911.162892
956.715049,-8956.491898,1776.494261,4060.306139
956.715369,-9030.512492,888.247130,2374.896044
956.715690,-9252.574275,370.102971,2068.457845
956.716011,-9548.656652,-222.061783,1991.848295
956.716332,-10510.924376,518.144159,2604.724693
956.716652,-10732.986159,1924.535449,3447.429741
956.716973,-10140.821405,2516.700203,3524.039291
956.717294,-10214.842000,2368.659014,3907.087040
956.717615,-10066.800811,1924.535449,4136.915689
956.717935,-10732.986159,1480.411884,4903.011187
956.718256,-10510.924376,1924.535449,5439.278036
956.718577,-9918.759623,2072.576638,5439.278036
956.718898,-9844.739029,2368.659014,4979.620737
956.719218,-8808.450710,2368.659014,4903.011187
956.719539,-8956.491898,2664.741391,3830.477490
956.719860,-8808.450710,2146.597232,2987.772442
956.720181,-8660.409521,1850.514855,1608.800546
956.720501,-8734.430116,962.267725,76.609550
956.720822,-8956.491898,296.082377,0.000000
956.721143,-9696.697840,962.267725,229.828649
956.721464,-9918.759623,1258.350101,612.876398
956.721784,-10214.842000,1110.308913,1225.752797
956.722105,-10436.903782,1332.370696,2221.676944
956.722426,-10807.006753,666.185348,3370.820191
956.722747,-10807.006753,370.102971,4366.744339
956.723067,-10288.862594,1184.329507,4596.572988
956.723388,-9474.636058,1036.288319,5209.449386
956.723709,-8586.388927,1554.432478,4136.915689
956.724030,-8216.285956,1776.494261,3907.087040
956.724350,-8290.306550,1998.556043,3447.429741
956.724671,-8364.327145,2146.597232,3217.601092
956.724992,-8512.368333,2072.576638,2681.334243
956.725313,-9400.615463,2146.597232,3064.381992
956.725633,-9992.780217,2368.659014,3370.820191
956.725954,-10658.965565,2368.659014,3753.867940
956.726275,-10436.903782,2368.659014,4136.915689
956.726596,-10362.883188,2294.638420,3677.258390
956.726916,-10436.903782,2294.638420,3830.477490
956.727237,-10140.821405,2368.659014,3983.696590
956.727558,-10436.903782,2590.720797,2528.115143
956.727879,-9622.677246,2072.576638,3907.087040
956.728199,-9252.574275,1998.556043,3907.087040
956.728520,-9178.553681,1776.494261,4213.525239
956.728841,-9400.615463,1480.411884,4443.353888
956.729162,-9474.636058,1554.432478,4136.915689
956.729483,-9696.697840,1258.350101,3753.867940
956.729803,-9548.656652,1406.391290,3140.991542
956.730124,-9622.677246,1554.432478,2681.334243
956.730445,-9696.697840,1554.432478,2374.896044
956.730766,-9844.739029,1702.473667,1608.800546
956.731086,-9770.718434,1702.473667,1532.190996
956.731407,-9770.718434,1480.411884,1455.581446
956.731728,-9622.677246,1184.329507,1991.848295
956.732049,-9844.739029,1628.453072,2221.676944
956.732369,-9622.677246,1258.350101,2298.286494
956.732690,-9770.718434,1332.370696,2681.334243
956.733011,-9474.636058,962.267725,3140.991542
956.733332,-9326.594869,592.164754,2528.115143
956.733652,-9178.553681,222.061783,2451.505594
956.733973,-9178.553681,-592.164754,1302.362347
956.734294,-8216.285956,518.144159,1302.362347
956.734615,-9474.636058,148.041188,1915.238745
956.734935,-8956.491898,370.102971,995.924147
956.735256,-9770.718434,0.000000,995.924147
956.735577,-10510.924376,666.185348,1685.410096
956.735898,-9992.780217,962.267725,1455.581446
956.736218,-10807.006753,666.185348,1838.629195
956.736539,-9844.739029,962.267725,1838.629195
956.736860,-9622.677246,888.247130,919.314598
956.737181,-9326.594869,1480.411884,1149.143247
956.737501,-9030.512492,1628.453072,919.314598
956.737822,-9252.574275,1480.411884,1225.752797
956.738143,-9622.677246,1406.391290,2068.457845
956.738464,-9400.615463,1332.370696,2298.286494
956.738784,-9918.759623,1776.494261,1991.848295
956.739105,-10140.821405,1110.308913,2987.772442
956.739426,-9992.780217,1258.350101,3600.648841
956.739747,-10362.883188,1258.350101,3217.601092
956.740067,-9918.759623,1184.329507,2757.943793
956.740388,-9918.759623,1554.432478,3140.991542
956.740709,-10066.800811,1776.494261,3217.601092
956.741030,-9770.718434,1702.473667,3600.648841
956.741350,-10066.800811,1998.556043,4290.134789
956.741671,-10436.903782,2220.617826,4749.792088
956.741992,-9992.780217,1924.535449,5209.449386
956.742313,-10066.800811,1776.494261,5822.325785
956.742633,-9918.759623,1554.432478,6052.154434
956.742954,-9770.718434,1480.411884,5745.716235
956.743275,-9474.636058,1776.494261,6588.421283
956.743596,-9400.615463,1554.432478,6435.202183
956.743916,-9252.574275,2072.576638,6435.202183
956.744237,-9326.594869,2072.576638,6741.640382
956.744558,-9030.512492,1628.453072,6665.030833
956.744879,-9030.512492,2368.659014,6358.592633
956.745199,-9474.636058,2368.659014,6435.202183
956.745520,-9474.636058,2590.720797,6665.030833
956.745841,-9696.697840,3330.926739,6205.373534
956.746162,-9918.759623,3478.967927,6741.640382
956.746483,-9696.697840,3330.926739,6052.154434
956.746803,-9474.636058,3478.967927,5745.716235
956.747124,-9474.636058,3552.988522,4979.620737
956.747445,-9252.574275,3404.947333,4136.915689
956.747766,-9400.615463,3108.864956,4443.353888
956.748086,-9252.574275,2664.741391,3983.696590
956.748407,-9326.594869,2516.700203,3600.648841
956.748728,-9326.594869,3182.885551,2451.505594
956.749048,-9770.718434,2664.741391,2834.553343
956.749369,-9474.636058,2590.720797,1762.019645
956.749690,-9696.697840,2516.700203,383.047749
956.750011,-9548.656652,2368.659014,-459.657299
956.750331,-8956.491898,1628.453072,-1072.533697
956.750652,-9474.636058,1998.556043,-842.705048
956.750973,-9696.697840,1998.556043,-153.219100
956.751293,-10140.821405,1924.535449,536.266849
956.751614,-10362.883188,1628.453072,919.314598
956.751935,-10658.965565,1628.453072,1991.848295
956.752255,-10807.006753,1776.494261,2528.115143
956.752576,-10362.883188,1998.556043,2604.724693
956.752897,-9548.656652,2146.597232,2451.505594
956.753217,-9030.512492,2442.679609,1838.629195
956.753538,-9104.533087,1924.535449,1838.629195
956.753859,-9400.615463,1776.494261,1685.410096
956.754180,-9474.636058,1036.288319,1455.581446
956.754500,-9326.594869,1184.329507,1072.533697
956.754821,-9474.636058,1406.391290,383.047749
956.755142,-9696.697840,1628.453072,766.095498
956.755462,-9622.677246,1776.494261,1149.143247
956.755783,-9770.718434,1332.370696,1838.629195
956.756104,-9918.759623,1110.308913,3370.820191
956.756424,-10436.903782,888.247130,4519.963438
956.756745,-10510.924376,370.102971,5439.278036
956.757066,-10140.821405,1258.350101,6588.421283
956.757386,-9992.780217,1628.453072,7124.688131
956.757707,-9326.594869,2442.679609,7431.126331
956.758028,-9178.553681,2146.597232,7660.954980
956.758349,-8808.450710,740.205942,6818.249932
956.758669,-8512.368333,-1110.308913,5056.230287
956.758990,-8068.244768,-814.226536,2911.162892
956.759311,-8438.347739,74.020594,2528.115143
956.759631,-8882.471304,1036.288319,2911.162892
956.759952,-9770.718434,1480.411884,5209.449386
956.760273,-10436.903782,962.267725,3600.648841
956.760593,-10658.965565,74.020594,3140.991542
956.760914,-10732.986159,0.000000,3983.696590
956.761235,-11177.109724,74.020594,5822.325785
956.761555,-10955.047942,740.205942,7048.078582
956.761876,-9918.759623,888.247130,6971.469032
956.762197,-9474.636058,296.082377,5745.716235
956.762518,-8586.388927,74.020594,4290.134789
956.762838,-7994.224174,666.185348,3140.991542
956.763159,-8734.430116,1998.556043,3600.648841
956.763480,-8586.388927,2960.823768,3677.258390
956.763800,-9252.574275,2590.720797,3140.991542
956.764121,-9474.636058,2368.659014,2834.553343
956.764442,-10066.800811,1628.453072,2604.724693
956.764762,-11251.130318,1850.514855,3217.601092
956.765083,-11029.068536,2072.576638,2528.115143
956.765404,-11103.089130,1850.514855,919.314598
956.765724,-8660.409521,2590.720797,-153.219100
956.766045,-9252.574275,2516.700203,0.000000
956.766366,-9400.615463,2368.659014,459.657299
956.766687,-9770.718434,1776.494261,766.095498
956.767007,-8438.347739,1406.391290,919.314598
956.767328,-8808.450710,1480.411884,766.095498
956.767649,-9770.718434,1998.556043,3447.429741
956.767969,-10214.842000,1850.514855,4903.011187
956.768290,-9992.780217,1036.288319,3753.867940
956.768611,-8660.409521,1406.391290,2145.067394
956.768931,-8586.388927,1998.556043,1378.971896
956.769252,-9252.574275,2886.803174,2681.334243
956.769573,-10066.800811,2886.803174,3600.648841
956.769893,-9992.780217,2664.741391,2681.334243
956.770214,-9548.656652,3182.885551,2221.676944
956.770535,-10066.800811,3478.967927,2757.943793
956.770856,-10732.986159,3034.844362,3907.087040
956.771176,-9918.759623,3182.885551,2987.772442
956.771497,-9326.594869,2738.761985,3447.429741
956.771818,-8956.491898,1850.514855,2987.772442
956.772138,-8734.430116,740.205942,2987.772442
956.772459,-9326.594869,1628.453072,4443.353888
956.772780,-10658.965565,1628.453072,4979.620737
956.773100,-10288.862594,1776.494261,5362.668486
956.773421,-9918.759623,1110.308913,5132.839837
956.773742,-9474.636058,962.267725,4673.182538
956.774062,-10288.862594,1776.494261,4596.572988
956.774383,-10658.965565,2368.659014,6588.421283
956.774704,-9844.739029,1850.514855,6281.983084
956.775025,-9400.615463,1998.556043,4903.011187
956.775345,-9622.677246,3256.906145,4826.401637
956.775666,-10658.965565,1184.329507,4136.915689
956.775987,-8586.388927,2960.823768,3907.087040
956.776307,-10066.800811,3108.864956,3677.258390
956.776628,-8956.491898,2886.803174,3140.991542
956.776949,-8364.327145,1850.514855,2451.505594
956.777269,-9918.759623,1110.308913,3753.867940
956.777590,-9844.739029,296.082377,2834.553343
956.777911,-10140.821405,148.041188,2834.553343
956.778232,-9474.636058,1036.288319,3370.820191
956.778552,-9918.759623,370.102971,2681.334243
956.778873,-10436.903782,444.123565,3524.039291
956.779194,-9548.656652,-814.226536,3524.039291
956.779514,-8882.471304,-1702.473667,1838.629195
956.779835,-8808.450710,-1110.308913,76.609550
956.780156,-7698.141797,148.041188,-689.485948
956.780476,-7105.977043,2812.782580,-459.657299
956.780797,-9252.574275,3701.029710,229.828649
956.781118,-9030.512492,4293.194464,995.924147
956.781438,-9548.656652,1850.514855,689.485948
956.781759,-11325.150913,-518.144159,0.000000
956.782080,-11325.150913,-1406.391290,612.876398
956.782401,-10732.986159,222.061783,153.219100
956.782721,-9696.697840,814.226536,1455.581446
956.783042,-9992.780217,444.123565,1149.143247
956.783363,-8586.388927,814.226536,1149.143247
956.783683,-9844.739029,0.000000,383.047749
956.784004,-9548.656652,-962.267725,1149.143247
956.784325,-9474.636058,-1110.308913,1149.143247
956.784645,-9844.739029,666.185348,2145.067394
956.784966,-10288.862594,222.061783,2834.553343
956.785287,-9474.636058,0.000000,2451.505594
956.785607,-10066.800811,-370.102971,2604.724693
956.785928,-9918.759623,-2960.823768,76.609550
956.786249,-9400.615463,-2072.576638,-1838.629195
956.786570,-10510.924376,592.164754,76.609550
956.786890,-9474.636058,1776.494261,689.485948
956.787211,-10881.027347,1924.535449,2681.334243
956.787532,-10436.903782,-518.144159,3140.991542
956.787852,-9104.533087,-4367.215058,-1532.190996
956.788173,-9474.636058,-5107.421000,459.657299
956.788494,-9918.759623,-3552.988522,2145.067394
956.788814,-9770.718434,-1776.494261,2757.943793
956.789135,-9178.553681,-222.061783,3447.429741
956.789456,-9326.594869,74.020594,3064.381992
956.789776,-8660.409521,-1258.350101,1225.752797
956.790097,-9844.739029,-1776.494261,766.095498
956.790418,-10658.965565,-222.061783,2604.724693
956.790739,-9548.656652,1628.453072,3140.991542
956.791059,-9548.656652,-444.123565,3064.381992
956.791380,-8734.430116,444.123565,3370.820191
956.791701,-9548.656652,-666.185348,1225.752797
956.792021,-8956.491898,0.000000,459.657299
956.792342,-8882.471304,1702.473667,1762.019645
956.792663,-8438.347739,370.102971,1378.971896
956.792983,-8956.491898,0.000000,612.876398
956.793304,-10214.842000,962.267725,2451.505594
956.793625,-9844.739029,-592.164754,1838.629195
956.793945,-9622.677246,-1036.288319,1225.752797
956.794266,-10807.006753,222.061783,2374.896044
956.794587,-9622.677246,444.123565,919.314598
956.794908,-9696.697840,1406.391290,4213.525239
956.795228,-9992.780217,148.041188,2681.334243
