#time,accel_x,accel_y,accel_z
1363.245646,-9474.636058,-296.082377,1149.143247
1363.245966,-9548.656652,-370.102971,919.314598
1363.246287,-9474.636058,-296.082377,995.924147
1363.246608,-9474.636058,-444.123565,995.924147
1363.246929,-9696.697840,-222.061783,1149.143247
1363.247250,-9548.656652,-148.041188,995.924147
1363.247571,-9770.718434,0.000000,1225.752797
1363.247892,-9622.677246,0.000000,1225.752797
1363.248213,-9622.677246,-370.102971,1072.533697
1363.248534,-9474.636058,-296.082377,1072.533697
1363.248855,-9474.636058,148.041188,1072.533697
1363.249176,-9474.636058,-296.082377,919.314598
1363.249497,-9548.656652,74.020594,1302.362347
1363.249818,-9622.677246,-592.164754,1378.971896
1363.250138,-9844.739029,-740.205942,1685.410096
1363.250459,-9252.574275,-814.226536,995.924147
1363.250780,-9474.636058,-666.185348,1072.533697
1363.251101,-9474.636058,-592.164754,1225.752797
1363.251422,-9474.636058,-1110.308913,1302.362347
1363.251743,-9326.594869,-518.144159,1072.533697
1363.252064,-9770.718434,-592.164754,689.485948
1363.252385,-9844.739029,-444.123565,842.705048
1363.252706,-9844.739029,-518.144159,1455.581446
1363.253027,-9844.739029,0.000000,1225.752797
1363.253348,-9696.697840,-814.226536,383.047749
1363.253669,-9474.636058,-370.102971,536.266849
1363.253990,-9622.677246,-814.226536,536.266849
1363.254311,-9474.636058,-666.185348,1762.019645
1363.254631,-9918.759623,-1036.288319,1149.143247
1363.254952,-9474.636058,-1258.350101,1455.581446
1363.255273,-9622.677246,-1258.350101,1608.800546
1363.255594,-9992.780217,-1480.411884,2145.067394
1363.255915,-9474.636058,-1184.329507,2145.067394
1363.256236,-9770.718434,-1258.350101,1991.848295
1363.256557,-9474.636058,-1184.329507,1991.848295
1363.256878,-9474.636058,-814.226536,2145.067394
1363.257199,-9918.759623,-1332.370696,1378.971896
1363.257520,-9622.677246,-740.205942,2221.676944
1363.257841,-9474.636058,-1110.308913,2374.896044
1363.258162,-9474.636058,-888.247130,2757.943793
1363.258483,-9696.697840,-1036.288319,3370.820191
1363.258804,-9844.739029,-1036.288319,3677.258390
1363.259124,-9770.718434,-1554.432478,3830.477490
1363.259445,-9622.677246,-1554.432478,4519.963438
1363.259766,-9696.697840,-1702.473667,4443.353888
1363.260087,-9400.615463,-1924.535449,4979.620737
1363.260408,-9474.636058,-1702.473667,5209.449386
1363.260729,-9548.656652,-2294.638420,5132.839837
1363.261050,-9104.533087,-1998.556043,5286.058936
1363.261371,-9548.656652,-1036.288319,4903.011187
1363.261692,-9178.553681,-1998.556043,4903.011187
1363.262013,-9474.636058,-1998.556043,5209.449386
1363.262334,-9178.553681,-1924.535449,4903.011187
1363.262655,-9474.636058,-1628.453072,3983.696590
1363.262976,-9474.636058,-1332.370696,4673.182538
1363.263297,-9474.636058,-1776.494261,4749.792088
1363.263617,-9474.636058,-1480.411884,4673.182538
1363.263938,-9770.718434,-1850.514855,4519.963438
1363.264259,-9622.677246,-2590.720797,4903.011187
1363.264580,-9400.615463,-3849.070898,4290.134789
1363.264901,-9252.574275,-4515.256246,4290.134789
1363.265222,-9400.615463,-4885.359217,3753.867940
1363.265543,-9548.656652,-4515.256246,6052.154434
1363.265864,-9474.636058,-4737.318029,4136.915689
1363.266185,-9178.553681,-5477.523971,3983.696590
1363.266506,-8438.347739,-6143.709319,3753.867940
1363.266827,-9400.615463,-7402.059420,3524.039291
1363.267148,-8956.491898,-7179.997637,3370.820191
1363.267469,-8734.430116,-7698.141797,1991.848295
1363.267790,-8882.471304,-6809.894666,1532.190996
1363.268110,-8586.388927,-4811.338623,1149.143247
1363.268431,-9400.615463,-3256.906145,1608.800546
1363.268752,-9622.677246,-1850.514855,1608.800546
1363.269073,-9326.594869,-2146.597232,1072.533697
1363.269394,-9622.677246,-2886.803174,1532.190996
1363.269715,-9918.759623,-3775.050304,3370.820191
1363.270036,-9918.759623,-4737.318029,2451.505594
1363.270357,-9918.759623,-5773.606348,3294.210641
1363.270678,-8734.430116,-6365.771101,2987.772442
1363.270999,-8882.471304,-6587.832884,3140.991542
1363.271320,-9474.636058,-6365.771101,3064.381992
1363.271641,-8808.450710,-4811.338623,3294.210641
1363.271962,-9548.656652,-4885.359217,3294.210641
1363.272282,-9252.574275,-3701.029710,2911.162892
1363.272603,-9770.718434,-3256.906145,995.924147
1363.272924,-10214.842000,-2590.720797,1302.362347
1363.273245,-10362.883188,-1110.308913,995.924147
1363.273566,-10807.006753,814.226536,1072.533697
1363.273887,-10881.027347,1480.411884,1838.629195
1363.274208,-10955.047942,1554.432478,2068.457845
1363.274529,-11325.150913,814.226536,2374.896044
1363.274850,-11103.089130,-1258.350101,2911.162892
1363.275171,-10436.903782,-2960.823768,3370.820191
1363.275492,-9918.759623,-4737.318029,4213.525239
1363.275813,-9992.780217,-5181.441594,5362.668486
1363.276134,-9178.553681,-5255.462188,5822.325785
1363.276455,-8882.471304,-5921.647536,6435.202183
1363.276775,-8660.409521,-7402.059420,5132.839837
1363.277096,-7994.224174,-6217.729913,4136.915689
1363.277417,-8586.388927,-4145.153275,3064.381992
1363.277738,-8364.327145,-1110.308913,2911.162892
1363.278059,-8808.450710,1332.370696,2451.505594
1363.278380,-8882.471304,3849.070898,2911.162892
1363.278701,-10584.944971,2590.720797,3217.601092
1363.279022,-9844.739029,2146.597232,3294.210641
1363.279343,-10658.965565,814.226536,3600.648841
1363.279664,-9992.780217,0.000000,4290.134789
1363.279985,-9918.759623,-1258.350101,5592.497135
1363.280306,-9474.636058,-3256.906145,5898.935335
1363.280627,-8290.306550,-5329.482782,4673.182538
1363.280948,-7402.059420,-7105.977043,3600.648841
1363.281268,-6957.935855,-5625.565159,2451.505594
1363.281589,-7698.141797,-3182.885551,3524.039291
1363.281910,-8364.327145,-962.267725,3983.696590
1363.282231,-8734.430116,0.000000,5362.668486
1363.282552,-8660.409521,-296.082377,2528.115143
1363.282873,-9696.697840,222.061783,2374.896044
1363.283194,-11473.192101,962.267725,3753.867940
1363.283515,-11621.233289,444.123565,3983.696590
1363.283836,-10510.924376,-518.144159,2451.505594
1363.284157,-9770.718434,-1480.411884,0.000000
1363.284478,-9474.636058,-962.267725,-689.485948
1363.284799,-9770.718434,1110.308913,306.438199
1363.285120,-10510.924376,1924.535449,2145.067394
1363.285441,-10214.842000,-148.041188,2681.334243
1363.285761,-9696.697840,-2220.617826,2451.505594
1363.286082,-10584.944971,-2812.782580,3830.477490
1363.286403,-11251.130318,-3849.070898,4749.792088
1363.286724,-11473.192101,-4589.276840,6281.983084
1363.287045,-9918.759623,-5033.400406,4596.572988
1363.287366,-8438.347739,-3552.988522,2068.457845
1363.287687,-9696.697840,-1924.535449,1838.629195
1363.288008,-9400.615463,-740.205942,2757.943793
1363.288329,-8882.471304,-1110.308913,1455.581446
1363.288650,-8808.450710,-962.267725,383.047749
1363.288971,-9474.636058,-592.164754,612.876398
1363.289292,-10140.821405,-2442.679609,4213.525239
1363.289613,-10807.006753,-4515.256246,4060.306139
1363.289934,-9474.636058,-5847.626942,2911.162892
1363.290254,-9252.574275,-5773.606348,2068.457845
1363.290575,-9474.636058,-3627.009116,3907.087040
1363.290896,-9992.780217,-3923.091493,4903.011187
1363.291217,-8512.368333,-4515.256246,4673.182538
1363.291538,-7846.182985,-5403.503377,3370.820191
1363.291859,-8216.285956,-6291.750507,2604.724693
1363.292180,-7994.224174,-7179.997637,2604.724693
1363.292501,-8216.285956,-5255.462188,2911.162892
1363.292822,-8808.450710,-3552.988522,3447.429741
1363.293143,-9104.533087,-2368.659014,3524.039291
1363.293464,-8882.471304,-1184.329507,4366.744339
1363.293785,-9770.718434,-1998.556043,3983.696590
1363.294106,-10584.944971,-1776.494261,4443.353888
1363.294426,-10214.842000,-3034.844362,4519.963438
1363.294747,-8882.471304,-4441.235652,2911.162892
1363.295068,-8956.491898,-3849.070898,2068.457845
1363.295389,-10510.924376,-3478.967927,2681.334243
1363.295710,-8660.409521,-666.185348,5898.935335
1363.296031,-11029.068536,-4811.338623,5286.058936
1363.296352,-7772.162391,-3849.070898,4903.011187
1363.296673,-10288.862594,-5773.606348,2911.162892
1363.296994,-9326.594869,-3330.926739,3830.477490
1363.297315,-8660.409521,-3404.947333,2987.772442
1363.297636,-10510.924376,-2220.617826,4903.011187
1363.297957,-9474.636058,-1554.432478,3370.820191
1363.298278,-9992.780217,-1924.535449,1762.019645
1363.298599,-11695.253884,-962.267725,3600.648841
1363.298919,-10955.047942,-2368.659014,2681.334243
1363.299240,-10140.821405,-888.247130,2145.067394
1363.299561,-11843.295072,0.000000,2987.772442
1363.299882,-9696.697840,592.164754,1915.238745
1363.300203,-10807.006753,-740.205942,3677.258390
1363.300524,-10288.862594,-3404.947333,2604.724693
1363.300845,-8882.471304,-4219.173869,919.314598
1363.301166,-9474.636058,-3552.988522,842.705048
1363.301487,-9178.553681,-2146.597232,2451.505594
1363.301808,-8068.244768,-2368.659014,1072.533697
1363.302128,-7698.141797,-1998.556043,2298.286494
1363.302449,-8882.471304,-2590.720797,1991.848295
1363.302770,-9252.574275,-2738.761985,842.705048
1363.303091,-9918.759623,-740.205942,1455.581446
1363.303411,-9992.780217,148.041188,2834.553343
1363.303732,-9548.656652,1184.329507,2451.505594
1363.304053,-10214.842000,1628.453072,2451.505594
1363.304374,-9992.780217,814.226536,2757.943793
1363.304695,-8512.368333,-888.247130,1225.752797
1363.305015,-8512.368333,-2812.782580,2068.457845
1363.305336,-8512.368333,-2590.720797,2374.896044
1363.305657,-8438.347739,-2738.761985,2604.724693
1363.305978,-8586.388927,-2368.659014,4136.915689
1363.306299,-8290.306550,-3404.947333,4673.182538
1363.306619,-8068.244768,-3997.112087,2528.115143
1363.306940,-9696.697840,-2738.761985,2987.772442
1363.307261,-10955.047942,-740.205942,3753.867940
1363.307582,-9474.636058,296.082377,3447.429741
1363.307903,-9474.636058,-666.185348,2298.286494
1363.308223,-9622.677246,-1184.329507,689.485948
1363.308544,-8068.244768,0.000000,-766.095498
1363.308865,-10658.965565,1480.411884,2221.676944
1363.309186,-10584.944971,1258.350101,3753.867940
1363.309506,-9770.718434,74.020594,3064.381992
1363.309827,-12583.501014,-2220.617826,2451.505594
1363.310148,-9992.780217,-222.061783,5898.935335
1363.310469,-11251.130318,-1850.514855,3294.210641
1363.310790,-10732.986159,444.123565,5209.449386
1363.311110,-9844.739029,-1850.514855,3753.867940
1363.311431,-10066.800811,-3849.070898,1762.019645
1363.311752,-8438.347739,-3923.091493,0.000000
1363.312073,-8438.347739,-2516.700203,612.876398
1363.312394,-10214.842000,-1184.329507,1225.752797
1363.312714,-8734.430116,2886.803174,1685.410096
1363.313035,-11621.233289,2072.576638,1685.410096
1363.313356,-9696.697840,1332.370696,306.438199
1363.313677,-10436.903782,518.144159,459.657299
1363.313997,-10362.883188,-1554.432478,459.657299
1363.314318,-9770.718434,740.205942,306.438199
1363.314639,-11621.233289,148.041188,1762.019645
1363.314960,-8216.285956,518.144159,459.657299
1363.315281,-8808.450710,-2220.617826,-229.828649
1363.315601,-8882.471304,-2368.659014,689.485948
1363.315922,-9030.512492,-2886.803174,1378.971896
1363.316243,-9400.615463,-2368.659014,2451.505594
1363.316564,-8216.285956,-2960.823768,2451.505594
1363.316885,-8808.450710,-5033.400406,0.000000
1363.317205,-7105.977043,-2664.741391,-919.314598
1363.317526,-7846.182985,296.082377,153.219100
1363.317847,-9918.759623,1406.391290,1225.752797
1363.318168,-7846.182985,1554.432478,1225.752797
1363.318489,-11029.068536,-1036.288319,-1378.971896
1363.318809,-8734.430116,-148.041188,-1762.019645
1363.319130,-9844.739029,666.185348,-612.876398
1363.319451,-11251.130318,1258.350101,2451.505594
1363.319772,-9178.553681,814.226536,995.924147
1363.320092,-10510.924376,-444.123565,0.000000
1363.320413,-10066.800811,-1480.411884,0.000000
1363.320734,-8882.471304,-814.226536,0.000000
1363.321055,-11029.068536,-444.123565,1608.800546
1363.321376,-9622.677246,-296.082377,1149.143247
1363.321696,-8808.450710,-592.164754,1225.752797
1363.322017,-9918.759623,-3330.926739,612.876398
1363.322338,-8216.285956,-1776.494261,229.828649
1363.322659,-10881.027347,-888.247130,689.485948
1363.322980,-10732.986159,1258.350101,2681.334243
1363.323300,-10066.800811,2442.679609,2145.067394
1363.323621,-10510.924376,222.061783,-383.047749
1363.323942,-9474.636058,296.082377,-1838.629195
1363.324263,-8734.430116,2812.782580,0.000000
1363.324583,-12361.439231,1184.329507,2451.505594
1363.324904,-10658.965565,1184.329507,4060.306139
1363.325225,-11029.068536,-1702.473667,3753.867940
1363.325546,-11103.089130,-3701.029710,1915.238745
1363.325867,-9252.574275,-888.247130,2068.457845
1363.326187,-10214.842000,-666.185348,3140.991542
1363.326508,-9252.574275,1110.308913,3983.696590
1363.326829,-8660.409521,814.226536,995.924147
1363.327150,-8290.306550,-1998.556043,0.000000
1363.327471,-7031.956449,-1332.370696,-766.095498
1363.327791,-8956.491898,444.123565,1302.362347
1363.328112,-11251.130318,1850.514855,3217.601092
1363.328433,-9030.512492,1850.514855,3064.381992
1363.328754,-9178.553681,-370.102971,919.314598
1363.329075,-9030.512492,0.000000,76.609550
1363.329395,-9474.636058,1036.288319,1762.019645
1363.329716,-10214.842000,1036.288319,2681.334243
1363.330037,-9548.656652,222.061783,1685.410096
1363.330358,-7624.121203,-666.185348,-459.657299
1363.330678,-8734.430116,-2442.679609,-1149.143247
1363.330999,-7328.038826,-74.020594,383.047749
1363.331320,-9770.718434,-444.123565,383.047749
1363.331641,-10732.986159,0.000000,2528.115143
1363.331962,-8290.306550,-1184.329507,383.047749
1363.332282,-9548.656652,-2886.803174,0.000000
1363.332603,-9252.574275,-296.082377,919.314598
1363.332924,-10436.903782,0.000000,1915.238745
1363.333245,-10510.924376,370.102971,1991.848295
1363.333566,-10066.800811,222.061783,1685.410096
1363.333886,-10881.027347,-1924.535449,-1225.752797
1363.334207,-9918.759623,-1776.494261,-3217.601092
1363.334528,-8068.244768,3108.864956,-1915.238745
1363.334849,-10436.903782,2960.823768,-689.485948
1363.335169,-9178.553681,3182.885551,995.924147
1363.335490,-11029.068536,1184.329507,612.876398
1363.335811,-10436.903782,-2590.720797,-306.438199
1363.336132,-9474.636058,-2072.576638,-459.657299
1363.336453,-12583.501014,-1480.411884,2834.553343
1363.336773,-10362.883188,-1406.391290,3983.696590
1363.337094,-9474.636058,-1332.370696,1838.629195
1363.337415,-10584.944971,-1702.473667,689.485948
1363.337736,-7550.100608,296.082377,-842.705048
1363.338057,-9178.553681,888.247130,1149.143247
1363.338377,-10436.903782,1998.556043,1608.800546
1363.338698,-8068.244768,1776.494261,689.485948
1363.339019,-10066.800811,-148.041188,612.876398
1363.339340,-9696.697840,0.000000,612.876398
1363.339661,-9770.718434,-370.102971,1915.238745
1363.339981,-11547.212695,-2146.597232,4290.134789
1363.340302,-8808.450710,-1406.391290,3370.820191
1363.340623,-10214.842000,-2516.700203,2681.334243
1363.340944,-8364.327145,-2294.638420,1072.533697
1363.341264,-8660.409521,740.205942,1838.629195
1363.341585,-9696.697840,296.082377,1991.848295
1363.341906,-7772.162391,1184.329507,1685.410096
1363.342227,-10362.883188,-962.267725,2604.724693
1363.342548,-9252.574275,-3034.844362,229.828649
1363.342868,-9030.512492,-2368.659014,1378.971896
1363.343189,-10955.047942,-2516.700203,3370.820191
1363.343510,-7772.162391,-1702.473667,2451.505594
1363.343831,-9770.718434,-888.247130,2068.457845
1363.344152,-8068.244768,-2368.659014,-306.438199
1363.344472,-6587.832884,-1110.308913,-2834.553343
1363.344793,-8586.388927,1110.308913,-536.266849
1363.345114,-8586.388927,3034.844362,229.828649
1363.345435,-8142.265362,2812.782580,1762.019645
1363.345755,-11621.233289,-518.144159,3907.087040
1363.346076,-9844.739029,-2664.741391,3753.867940
1363.346397,-11029.068536,-3404.947333,3294.210641
1363.346718,-13619.789333,-1036.288319,4979.620737
1363.347039,-10288.862594,666.185348,3753.867940
1363.347359,-10362.883188,0.000000,1762.019645
1363.347680,-8808.450710,-1850.514855,919.314598
1363.348001,-6661.853478,-1332.370696,-3524.039291
1363.348322,-9474.636058,222.061783,-995.924147
1363.348643,-10584.944971,592.164754,306.438199
1363.348963,-9030.512492,2590.720797,919.314598
1363.349284,-11621.233289,296.082377,689.485948
1363.349605,-9770.718434,1702.473667,919.314598
1363.349926,-10881.027347,2590.720797,2298.286494
1363.350247,-12805.562797,148.041188,2987.772442
1363.350567,-9622.677246,-148.041188,2987.772442
1363.350888,-9474.636058,-2294.638420,-842.705048
1363.351209,-8734.430116,-2664.741391,-2528.115143
1363.351530,-7402.059420,2442.679609,-1455.581446
1363.351850,-9770.718434,1110.308913,842.705048
1363.352171,-7846.182985,1406.391290,0.000000
1363.352492,-8882.471304,740.205942,0.000000
1363.352813,-10214.842000,-2442.679609,-1149.143247
1363.353134,-10362.883188,-1036.288319,459.657299
1363.353454,-11251.130318,-740.205942,2911.162892
1363.353775,-9696.697840,-296.082377,2757.943793
1363.354096,-9622.677246,444.123565,1991.848295
1363.354417,-9696.697840,-1332.370696,306.438199
1363.354738,-7624.121203,-1480.411884,-1532.190996
1363.355058,-9326.594869,74.020594,-229.828649
1363.355379,-9326.594869,148.041188,689.485948
1363.355700,-9104.533087,-592.164754,919.314598
1363.356021,-10288.862594,0.000000,-229.828649
1363.356341,-8512.368333,-888.247130,76.609550
1363.356662,-9474.636058,592.164754,1149.143247
1363.356983,-11325.150913,592.164754,2911.162892
1363.357304,-9844.739029,0.000000,2221.676944
1363.357625,-10288.862594,-1702.473667,1685.410096
1363.357945,-9474.636058,-3182.885551,383.047749
1363.358266,-8660.409521,-1258.350101,919.314598
1363.358587,-10510.924376,-592.164754,1915.238745
1363.358908,-9400.615463,888.247130,2757.943793
1363.359229,-9178.553681,1628.453072,2757.943793
1363.359549,-9696.697840,-592.164754,1608.800546
1363.359870,-9252.574275,0.000000,766.095498
1363.360191,-10140.821405,1850.514855,2145.067394
1363.360512,-10140.821405,444.123565,3447.429741
1363.360833,-9474.636058,0.000000,3677.258390
1363.361153,-9844.739029,-2886.803174,1991.848295
1363.361474,-8068.244768,-3108.864956,-612.876398
1363.361795,-7105.977043,-1036.288319,76.609550
1363.362116,-9844.739029,222.061783,2145.067394
1363.362436,-10362.883188,1258.350101,3907.087040
1363.362757,-11399.171507,-370.102971,3677.258390
1363.363078,-9696.697840,-1554.432478,2681.334243
1363.363399,-9474.636058,-962.267725,842.705048
1363.363720,-11621.233289,-814.226536,3064.381992
1363.364040,-9400.615463,-444.123565,2604.724693
1363.364361,-8438.347739,-666.185348,3677.258390
1363.364682,-8438.347739,-3478.967927,0.000000
1363.365003,-6587.832884,-2516.700203,-1838.629195
1363.365324,-9918.759623,-1184.329507,-229.828649
1363.365644,-10807.006753,444.123565,1838.629195
1363.365965,-9548.656652,1628.453072,2987.772442
1363.366286,-10881.027347,-1924.535449,2528.115143
1363.366607,-8068.244768,-1850.514855,-459.657299
1363.366927,-11177.109724,-222.061783,2068.457845
1363.367248,-10362.883188,-962.267725,766.095498
1363.367569,-8364.327145,1036.288319,1302.362347
1363.367890,-10288.862594,-1776.494261,-1072.533697
1363.368211,-7624.121203,-1258.350101,-3677.258390
1363.368531,-7994.224174,2442.679609,-919.314598
1363.368852,-11621.233289,2294.638420,919.314598
1363.369173,-9696.697840,2516.700203,1991.848295
1363.369494,-11399.171507,-740.205942,1532.190996
1363.369815,-8956.491898,-2368.659014,-689.485948
1363.370135,-10066.800811,-1406.391290,-842.705048
1363.370456,-10510.924376,0.000000,1532.190996
1363.370777,-9992.780217,-148.041188,1991.848295
1363.371098,-8808.450710,518.144159,306.438199
1363.371419,-9622.677246,-962.267725,-1378.971896
1363.371739,-7772.162391,296.082377,-1915.238745
1363.372060,-10140.821405,1480.411884,0.000000
1363.372381,-10362.883188,1184.329507,689.485948
1363.372702,-9400.615463,2368.659014,1225.752797
1363.373022,-10066.800811,0.000000,995.924147
1363.373343,-9918.759623,-592.164754,306.438199
1363.373664,-9548.656652,148.041188,1532.190996
1363.373985,-10436.903782,-1258.350101,1532.190996
1363.374306,-9030.512492,444.123565,1915.238745
1363.374626,-9622.677246,666.185348,2298.286494
1363.374947,-9474.636058,74.020594,2528.115143
1363.375268,-9326.594869,0.000000,3447.429741
1363.375589,-10955.047942,-1332.370696,3217.601092
1363.375910,-9622.677246,-2146.597232,2221.676944
1363.376230,-8956.491898,-1480.411884,1072.533697
1363.376551,-7920.203579,-1480.411884,383.047749
1363.376872,-6143.709319,0.000000,-459.657299
1363.377193,-8068.244768,2516.700203,612.876398
1363.377513,-9178.553681,1628.453072,766.095498
1363.377834,-8438.347739,518.144159,1378.971896
1363.378155,-10140.821405,-2368.659014,689.485948
1363.378476,-9696.697840,-3108.864956,76.609550
1363.378797,-10214.842000,-666.185348,1685.410096
1363.379117,-11251.130318,1480.411884,4136.915689
1363.379438,-10214.842000,1110.308913,3983.696590
1363.379759,-9548.656652,222.061783,2681.334243
1363.380080,-9844.739029,-2812.782580,76.609550
1363.380401,-8142.265362,-666.185348,-842.705048
1363.380721,-9844.739029,-592.164754,-153.219100
1363.381042,-7994.224174,592.164754,306.438199
1363.381363,-8586.388927,-370.102971,995.924147
1363.381684,-9770.718434,-1924.535449,-612.876398
1363.382005,-8808.450710,-592.164754,-689.485948
1363.382325,-10807.006753,814.226536,1225.752797
1363.382646,-11473.192101,666.185348,3140.991542
1363.382967,-11103.089130,1480.411884,2604.724693
1363.383288,-12731.542202,-2886.803174,-766.095498
1363.383608,-7031.956449,2220.617826,536.266849
1363.383929,-14359.995275,-1036.288319,-689.485948
1363.384250,-8808.450710,1924.535449,2757.943793
1363.384571,-10510.924376,-1850.514855,-1149.143247
1363.384892,-9844.739029,-962.267725,689.485948
1363.385212,-6365.771101,-3182.885551,-2987.772442
1363.385533,-9400.615463,592.164754,383.047749
1363.385854,-9178.553681,1480.411884,2221.676944
1363.386175,-8512.368333,296.082377,-995.924147
1363.386496,-10658.965565,1850.514855,2681.334243
1363.386816,-8290.306550,-3404.947333,-919.314598
1363.387137,-9474.636058,-1110.308913,536.266849
1363.387458,-13249.686362,-888.247130,4366.744339
1363.387779,-9030.512492,444.123565,2911.162892
1363.388099,-9474.636058,370.102971,2374.896044
1363.388420,-9400.615463,-2220.617826,0.000000
1363.388741,-6809.894666,-1332.370696,-919.314598
1363.389062,-9770.718434,-1480.411884,612.876398
1363.389383,-9548.656652,-666.185348,2068.457845
1363.389703,-8586.388927,962.267725,2145.067394
1363.390024,-10214.842000,-888.247130,2374.896044
1363.390345,-9844.739029,-1702.473667,1455.581446
1363.390666,-9400.615463,-296.082377,3524.039291
1363.390987,-10288.862594,-1036.288319,2911.162892
1363.391307,-9178.553681,-444.123565,2451.505594
1363.391628,-8660.409521,-666.185348,1991.848295
1363.391949,-10066.800811,-3997.112087,-383.047749
1363.392270,-6957.935855,444.123565,-76.609550
1363.392591,-9400.615463,1406.391290,383.047749
1363.392911,-10807.006753,2294.638420,2145.067394
1363.393232,-9252.574275,1480.411884,2911.162892
1363.393553,-10807.006753,-2960.823768,0.000000
1363.393874,-9252.574275,-2146.597232,536.266849
1363.394194,-10214.842000,-666.185348,1532.190996
1363.394515,-11547.212695,-444.123565,3064.381992
1363.394836,-9104.533087,148.041188,1991.848295
1363.395157,-9326.594869,-962.267725,689.485948
1363.395478,-8216.285956,-1554.432478,-689.485948
1363.395798,-9474.636058,74.020594,-306.438199
1363.396119,-10807.006753,1258.350101,1915.238745
1363.396440,-9844.739029,1702.473667,2068.457845
1363.396761,-9548.656652,888.247130,1608.800546
1363.397082,-10362.883188,-2516.700203,76.609550
1363.397402,-8586.388927,0.000000,0.000000
1363.397723,-10214.842000,444.123565,1608.800546
1363.398044,-9474.636058,740.205942,2145.067394
1363.398365,-9918.759623,814.226536,1915.238745
1363.398685,-9992.780217,-1184.329507,0.000000
1363.399006,-8438.347739,740.205942,-842.705048
1363.399327,-9770.718434,370.102971,1149.143247
1363.399648,-9252.574275,-370.102971,1455.581446
1363.399969,-9326.594869,-148.041188,2145.067394
1363.400289,-9770.718434,-2294.638420,1149.143247
1363.400610,-7698.141797,-2220.617826,-1532.190996
1363.400931,-8808.450710,0.000000,306.438199
1363.401252,-9844.739029,0.000000,1072.533697
1363.401572,-9104.533087,1776.494261,1455.581446
1363.401893,-10362.883188,1628.453072,1455.581446
1363.402214,-8956.491898,-2220.617826,-1149.143247
1363.402534,-7624.121203,-1184.329507,-1455.581446
1363.402855,-10362.883188,-592.164754,306.438199
1363.403176,-9474.636058,74.020594,1225.752797
1363.403496,-10066.800811,962.267725,1991.848295
1363.403817,-10066.800811,-2368.659014,536.266849
1363.404138,-8660.409521,-296.082377,76.609550
1363.404458,-10066.800811,1110.308913,1838.629195
1363.404779,-11621.233289,-592.164754,1991.848295
1363.405100,-8216.285956,1110.308913,1378.971896
1363.405420,-10214.842000,-1332.370696,0.000000
1363.405741,-7698.141797,-1036.288319,-536.266849
1363.406062,-9400.615463,1036.288319,842.705048
1363.406382,-11769.274478,0.000000,3064.381992
1363.406703,-9474.636058,1406.391290,1991.848295
1363.407024,-10214.842000,-444.123565,2298.286494
1363.407344,-9474.636058,-1702.473667,1378.971896
1363.407665,-9992.780217,148.041188,2068.457845
1363.407986,-10807.006753,-1110.308913,1455.581446
1363.408306,-8586.388927,74.020594,1532.190996
1363.408627,-8956.491898,296.082377,919.314598
1363.408948,-10362.883188,-1628.453072,1838.629195
1363.409269,-9474.636058,-962.267725,919.314598
1363.409589,-9992.780217,444.123565,1378.971896
1363.409910,-10881.027347,-592.164754,1685.410096
1363.410231,-8586.388927,518.144159,2834.553343
1363.410551,-10362.883188,-4145.153275,1991.848295
1363.410872,-8216.285956,-592.164754,1302.362347
1363.411193,-10510.924376,-962.267725,919.314598
1363.411513,-8068.244768,-296.082377,1838.629195
1363.411834,-8660.409521,-296.082377,1532.190996
1363.412155,-9252.574275,-740.205942,229.828649
1363.412475,-9992.780217,-444.123565,995.924147
1363.412796,-8438.347739,1850.514855,1455.581446
1363.413117,-10732.986159,1776.494261,5056.230287
1363.413437,-11399.171507,-1406.391290,4443.353888
1363.413758,-10658.965565,-1850.514855,3677.258390
1363.414079,-10436.903782,-4145.153275,0.000000
1363.414399,-7105.977043,-888.247130,-1685.410096
1363.414720,-7698.141797,1628.453072,919.314598
1363.415041,-7994.224174,370.102971,306.438199
1363.415361,-8512.368333,1036.288319,459.657299
1363.415682,-8956.491898,-2442.679609,-1149.143247
1363.416003,-7624.121203,-2146.597232,-1838.629195
1363.416323,-11029.068536,0.000000,2451.505594
1363.416644,-12657.521608,-592.164754,4290.134789
1363.416965,-10214.842000,518.144159,3370.820191
1363.417285,-10362.883188,-370.102971,1915.238745
1363.417606,-8512.368333,-1332.370696,-1915.238745
1363.417927,-9548.656652,1036.288319,-1072.533697
1363.418247,-10140.821405,518.144159,-153.219100
1363.418568,-7328.038826,1406.391290,-2145.067394
1363.418889,-8660.409521,1702.473667,-2451.505594
1363.419210,-9474.636058,-592.164754,-842.705048
1363.419530,-9474.636058,-1406.391290,306.438199
1363.419851,-12509.480420,-592.164754,2528.115143
1363.420172,-12287.418637,-814.226536,4443.353888
1363.420492,-9992.780217,1480.411884,3217.601092
1363.420813,-11695.253884,-1924.535449,1915.238745
1363.421134,-8956.491898,0.000000,612.876398
1363.421454,-9918.759623,444.123565,153.219100
1363.421775,-9696.697840,0.000000,0.000000
1363.422096,-8290.306550,0.000000,459.657299
1363.422416,-8142.265362,-2072.576638,-383.047749
1363.422737,-9326.594869,-2738.761985,-1149.143247
1363.423058,-8512.368333,1110.308913,-536.266849
1363.423378,-10066.800811,666.185348,995.924147
1363.423699,-8882.471304,1702.473667,1991.848295
1363.424020,-9474.636058,962.267725,1838.629195
1363.424340,-10362.883188,-1998.556043,1149.143247
1363.424661,-8438.347739,814.226536,1685.410096
1363.424982,-10955.047942,-148.041188,2987.772442
1363.425302,-9622.677246,518.144159,3140.991542
1363.425623,-9918.759623,518.144159,2834.553343
1363.425944,-10066.800811,-1184.329507,1532.190996
1363.426264,-7550.100608,-1184.329507,-153.219100
1363.426585,-8734.430116,-666.185348,1302.362347
1363.426906,-9622.677246,-740.205942,1455.581446
1363.427226,-9104.533087,1258.350101,3064.381992
1363.427547,-11029.068536,-814.226536,2451.505594
1363.427868,-9030.512492,-1110.308913,919.314598
1363.428189,-9622.677246,370.102971,1532.190996
1363.428509,-10584.944971,-1406.391290,2911.162892
1363.428830,-9252.574275,0.000000,2528.115143
1363.429151,-9992.780217,-1406.391290,1685.410096
1363.429471,-9474.636058,-2664.741391,0.000000
1363.429792,-7846.182985,740.205942,-612.876398
1363.430113,-11029.068536,444.123565,1378.971896
1363.430433,-9326.594869,1406.391290,1838.629195
1363.430754,-9770.718434,666.185348,2374.896044
1363.431075,-10140.821405,-2812.782580,766.095498
1363.431395,-8512.368333,-1480.411884,-459.657299
1363.431716,-11547.212695,-296.082377,2528.115143
1363.432037,-10214.842000,-740.205942,2987.772442
1363.432357,-9400.615463,148.041188,2528.115143
1363.432678,-10584.944971,-1776.494261,1149.143247
1363.432999,-8068.244768,-1628.453072,-1532.190996
1363.433319,-9030.512492,1184.329507,-229.828649
1363.433640,-10732.986159,592.164754,1225.752797
1363.433961,-9474.636058,1258.350101,153.219100
1363.434281,-8882.471304,-148.041188,-842.705048
1363.434602,-8216.285956,-2146.597232,-3753.867940
1363.434923,-7624.121203,1036.288319,-1378.971896
1363.435243,-11473.192101,-592.164754,2298.286494
1363.435564,-10436.903782,0.000000,3370.820191
1363.435885,-11103.089130,-518.144159,3294.210641
1363.436205,-11695.253884,-4589.276840,1378.971896
1363.436526,-9548.656652,-1850.514855,383.047749
1363.436847,-10066.800811,1110.308913,1685.410096
1363.437167,-10881.027347,814.226536,1072.533697
1363.437488,-7328.038826,3404.947333,76.609550
1363.437809,-8512.368333,-1628.453072,-1762.019645
1363.438130,-6661.853478,-1406.391290,-3217.601092
1363.438450,-9474.636058,-518.144159,-229.828649
1363.438771,-10881.027347,-888.247130,2221.676944
1363.439092,-9918.759623,222.061783,2987.772442
1363.439412,-10584.944971,-1850.514855,2451.505594
1363.439733,-10362.883188,-2072.576638,995.924147
1363.440054,-9844.739029,592.164754,2068.457845
1363.440374,-10584.944971,222.061783,2451.505594
1363.440695,-8956.491898,1184.329507,1991.848295
1363.441016,-9030.512492,296.082377,995.924147
1363.441336,-7846.182985,-1480.411884,-1608.800546
1363.441657,-8438.347739,148.041188,229.828649
1363.441978,-10584.944971,222.061783,2451.505594
1363.442298,-9178.553681,-740.205942,2604.724693
1363.442619,-10066.800811,-222.061783,3907.087040
1363.442940,-11029.068536,-2590.720797,2374.896044
1363.443260,-9178.553681,-1702.473667,1072.533697
1363.443581,-9918.759623,814.226536,1915.238745
1363.443902,-10214.842000,1036.288319,2145.067394
1363.444222,-9474.636058,2960.823768,2681.334243
1363.444543,-9696.697840,-518.144159,1302.362347
1363.444864,-6735.874072,-296.082377,-1072.533697
1363.445184,-10140.821405,-1184.329507,229.828649
1363.445505,-10066.800811,0.000000,2528.115143
1363.445826,-9844.739029,222.061783,2987.772442
1363.446146,-10658.965565,-1184.329507,2528.115143
1363.446467,-9696.697840,-2220.617826,995.924147
1363.446788,-8956.491898,296.082377,383.047749
1363.447108,-11029.068536,296.082377,1378.971896
1363.447429,-9474.636058,1036.288319,1838.629195
1363.447750,-9252.574275,740.205942,2221.676944
1363.448071,-9326.594869,-1998.556043,0.000000
1363.448391,-8438.347739,-2368.659014,-1915.238745
1363.448712,-8808.450710,740.205942,1302.362347
1363.449033,-10066.800811,-222.061783,1685.410096
1363.449353,-9400.615463,1480.411884,1685.410096
1363.449674,-9918.759623,-444.123565,459.657299
1363.449995,-8586.388927,-1850.514855,-842.705048
1363.450315,-9178.553681,1036.288319,689.485948
1363.450636,-11325.150913,-370.102971,2528.115143
1363.450957,-9992.780217,518.144159,3370.820191
1363.451277,-11029.068536,-740.205942,3140.991542
1363.451598,-9918.759623,-2812.782580,459.657299
1363.451919,-9030.512492,-740.205942,-919.314598
1363.452239,-9252.574275,1258.350101,0.000000
1363.452560,-8808.450710,2146.597232,-1455.581446
1363.452881,-7920.203579,2368.659014,-459.657299
1363.453201,-8586.388927,-296.082377,-2068.457845
1363.453522,-8438.347739,74.020594,-2145.067394
1363.453843,-10436.903782,370.102971,383.047749
1363.454163,-11695.253884,0.000000,2528.115143
1363.454484,-10362.883188,1036.288319,2987.772442
1363.454805,-10807.006753,-1554.432478,2145.067394
1363.455125,-9548.656652,-1332.370696,459.657299
1363.455446,-9474.636058,148.041188,995.924147
1363.455767,-10362.883188,-1850.514855,383.047749
1363.456087,-8364.327145,296.082377,-536.266849
1363.456408,-8142.265362,814.226536,-766.095498
1363.456729,-8290.306550,296.082377,-842.705048
1363.457050,-9104.533087,444.123565,1455.581446
1363.457370,-11029.068536,-1776.494261,3064.381992
1363.457691,-11325.150913,-1554.432478,3217.601092
1363.458012,-11325.150913,-666.185348,4596.572988
1363.458332,-10658.965565,-1924.535449,2757.943793
1363.458653,-10140.821405,-740.205942,2528.115143
1363.458974,-8586.388927,-370.102971,1915.238745
1363.459294,-10214.842000,74.020594,1455.581446
1363.459615,-8956.491898,2886.803174,1149.143247
1363.459936,-10140.821405,-1628.453072,-612.876398
1363.460256,-7994.224174,-1184.329507,0.000000
1363.460577,-8512.368333,-1924.535449,229.828649
1363.460898,-10140.821405,-2294.638420,-459.657299
1363.461218,-9400.615463,0.000000,1838.629195
1363.461539,-8956.491898,-740.205942,995.924147
1363.461860,-9326.594869,-222.061783,459.657299
1363.462180,-9548.656652,2590.720797,1302.362347
1363.462501,-10066.800811,1406.391290,2145.067394
1363.462822,-9844.739029,814.226536,2681.334243
1363.463142,-10288.862594,-814.226536,2834.553343
1363.463463,-9030.512492,-3478.967927,766.095498
1363.463784,-8956.491898,-888.247130,612.876398
1363.464104,-9844.739029,1480.411884,2681.334243
1363.464425,-10066.800811,-666.185348,2451.505594
1363.464746,-7328.038826,74.020594,1838.629195
1363.465066,-10214.842000,-2368.659014,1149.143247
1363.465387,-8660.409521,148.041188,919.314598
1363.465708,-10807.006753,0.000000,2528.115143
1363.466028,-10140.821405,-1480.411884,3907.087040
1363.466349,-9030.512492,-1332.370696,1302.362347
1363.466670,-9992.780217,-1554.432478,1532.190996
1363.466991,-9474.636058,-2146.597232,1378.971896
1363.467311,-8586.388927,-814.226536,995.924147
1363.467632,-10955.047942,0.000000,1149.143247
1363.467953,-9548.656652,370.102971,995.924147
1363.468273,-8882.471304,740.205942,76.609550
1363.468594,-10584.944971,-2516.700203,153.219100
1363.468915,-8216.285956,-666.185348,-612.876398
1363.469235,-10807.006753,-296.082377,995.924147
1363.469556,-11029.068536,-1258.350101,1685.410096
1363.469877,-8882.471304,888.247130,1378.971896
1363.470197,-11177.109724,-1628.453072,229.828649
1363.470518,-8734.430116,-74.020594,-995.924147
1363.470839,-9400.615463,1628.453072,-306.438199
1363.471159,-10807.006753,1110.308913,1149.143247
1363.471480,-9030.512492,1702.473667,766.095498
1363.471801,-9844.739029,-888.247130,383.047749
1363.472121,-7698.141797,-2368.659014,-2604.724693
1363.472442,-8364.327145,-518.144159,-2221.676944
1363.472763,-9918.759623,518.144159,-76.609550
1363.473083,-9474.636058,888.247130,842.705048
1363.473404,-10436.903782,296.082377,1991.848295
1363.473725,-11029.068536,-2294.638420,2604.724693
1363.474045,-10288.862594,-962.267725,1991.848295
1363.474366,-11547.212695,-1184.329507,2681.334243
1363.474687,-9992.780217,0.000000,1685.410096
1363.475007,-9918.759623,2516.700203,3140.991542
1363.475328,-9178.553681,1406.391290,0.000000
1363.475649,-7846.182985,1776.494261,-766.095498
1363.475969,-8882.471304,222.061783,0.000000
1363.476290,-9548.656652,-1480.411884,536.266849
1363.476611,-9474.636058,-666.185348,2374.896044
1363.476932,-10140.821405,-1924.535449,1838.629195
1363.477252,-8956.491898,-1850.514855,842.705048
1363.477573,-10066.800811,814.226536,1378.971896
1363.477894,-9992.780217,1110.308913,2451.505594
1363.478214,-10584.944971,1184.329507,2528.115143
1363.478535,-9992.780217,74.020594,2068.457845
1363.478856,-9770.718434,-3182.885551,306.438199
1363.479176,-8142.265362,296.082377,-766.095498
1363.479497,-10066.800811,1110.308913,1685.410096
1363.479818,-10807.006753,370.102971,2757.943793
1363.480138,-8438.347739,1036.288319,2911.162892
1363.480459,-10288.862594,-3627.009116,689.485948
1363.480780,-8216.285956,-222.061783,2221.676944
1363.481100,-11251.130318,-148.041188,2987.772442
1363.481421,-10288.862594,148.041188,2451.505594
1363.481742,-7920.203579,2368.659014,2681.334243
1363.482062,-9474.636058,-814.226536,1072.533697
1363.482383,-7105.977043,-666.185348,-153.219100
1363.482704,-9474.636058,444.123565,1149.143247
1363.483024,-10584.944971,-1776.494261,2451.505594
1363.483345,-8068.244768,-148.041188,1762.019645
1363.483666,-9844.739029,0.000000,3677.258390
1363.483986,-9400.615463,-2664.741391,153.219100
1363.484307,-8438.347739,1480.411884,919.314598
1363.484628,-11843.295072,-222.061783,2681.334243
1363.484948,-9326.594869,74.020594,3600.648841
1363.485269,-10140.821405,-1480.411884,1225.752797
1363.485590,-8734.430116,-3330.926739,-1225.752797
1363.485910,-8068.244768,0.000000,-2145.067394
1363.486231,-10436.903782,2146.597232,689.485948
1363.486552,-11251.130318,1554.432478,1685.410096
1363.486873,-8512.368333,2146.597232,1149.143247
1363.487193,-10214.842000,-2738.761985,-536.266849
1363.487514,-9474.636058,-3330.926739,-1608.800546
1363.487835,-8364.327145,-1628.453072,0.000000
1363.488155,-10955.047942,-444.123565,919.314598
1363.488476,-9918.759623,3108.864956,2145.067394
1363.488797,-10140.821405,888.247130,1915.238745
1363.489117,-9918.759623,-2072.576638,1225.752797
1363.489438,-10288.862594,-2442.679609,612.876398
1363.489759,-9474.636058,-3182.885551,153.219100
1363.490079,-9696.697840,-1702.473667,842.705048
1363.490400,-8660.409521,444.123565,536.266849
1363.490721,-8142.265362,-1184.329507,-1608.800546
1363.491041,-7402.059420,888.247130,-689.485948
1363.491362,-9474.636058,74.020594,0.000000
1363.491683,-11029.068536,-740.205942,1838.629195
1363.492003,-9622.677246,-1332.370696,3907.087040
1363.492324,-9696.697840,-2220.617826,2451.505594
1363.492645,-10140.821405,-2886.803174,1455.581446
1363.492965,-9474.636058,-222.061783,2834.553343
1363.493286,-9992.780217,-1406.391290,2681.334243
1363.493607,-7772.162391,148.041188,1762.019645
1363.493927,-9178.553681,-1184.329507,766.095498
1363.494248,-7772.162391,-1776.494261,-919.314598
1363.494569,-8660.409521,1110.308913,-383.047749
1363.494889,-11103.089130,814.226536,2374.896044
1363.495210,-10436.903782,1776.494261,3600.648841
1363.495531,-11695.253884,-666.185348,4366.744339
1363.495852,-11103.089130,-3552.988522,2451.505594
1363.496172,-9770.718434,296.082377,2604.724693
1363.496493,-11695.253884,1184.329507,3447.429741
1363.496814,-10955.047942,888.247130,3140.991542
1363.497134,-8586.388927,2812.782580,2298.286494
1363.497455,-9474.636058,-1258.350101,612.876398
1363.497776,-7920.203579,-444.123565,-1225.752797
1363.498096,-8734.430116,-888.247130,-459.657299
1363.498417,-9548.656652,-1776.494261,1225.752797
1363.498738,-9400.615463,370.102971,1915.238745
1363.499058,-9918.759623,-2072.576638,1838.629195
1363.499379,-8956.491898,-1924.535449,612.876398
1363.499700,-9178.553681,962.267725,1455.581446
1363.500020,-11177.109724,0.000000,2145.067394
1363.500341,-9696.697840,666.185348,1915.238745
1363.500662,-10288.862594,296.082377,2604.724693
1363.500983,-10066.800811,-2664.741391,76.609550
1363.501304,-8068.244768,-370.102971,536.266849
1363.501624,-9770.718434,-962.267725,1762.019645
1363.501945,-9474.636058,-518.144159,459.657299
1363.502266,-9474.636058,148.041188,1225.752797
1363.502587,-9104.533087,-1480.411884,-612.876398
1363.502908,-7994.224174,0.000000,-306.438199
1363.503228,-9622.677246,148.041188,766.095498
1363.503549,-9844.739029,0.000000,1608.800546
1363.503870,-9326.594869,1036.288319,689.485948
1363.504191,-9770.718434,0.000000,229.828649
1363.504512,-9252.574275,-962.267725,-1915.238745
1363.504833,-9104.533087,1406.391290,-153.219100
1363.505153,-11029.068536,962.267725,1072.533697
1363.505474,-9918.759623,2072.576638,1149.143247
1363.505795,-9918.759623,1258.350101,995.924147
1363.506116,-9696.697840,-1628.453072,-995.924147
1363.506437,-8290.306550,0.000000,-229.828649
1363.506758,-10288.862594,-1184.329507,766.095498
1363.507078,-9992.780217,-1258.350101,1455.581446
1363.507399,-8512.368333,-1776.494261,1455.581446
1363.507720,-9326.594869,-3552.988522,-306.438199
1363.508041,-8956.491898,-370.102971,0.000000
1363.508362,-10881.027347,814.226536,1915.238745
1363.508682,-10584.944971,888.247130,1838.629195
1363.509003,-9548.656652,2072.576638,1915.238745
1363.509324,-10362.883188,-814.226536,306.438199
1363.509645,-9178.553681,-592.164754,-459.657299
1363.509966,-9844.739029,740.205942,842.705048
1363.510287,-9992.780217,-1036.288319,1072.533697
1363.510607,-7550.100608,-592.164754,459.657299
1363.510928,-10066.800811,-888.247130,1455.581446
1363.511249,-10066.800811,-2738.761985,1302.362347
1363.511570,-9918.759623,222.061783,1532.190996
1363.511891,-12583.501014,-888.247130,4903.011187
1363.512211,-10288.862594,-370.102971,3217.601092
1363.512532,-10362.883188,0.000000,3140.991542
1363.512853,-9770.718434,-2368.659014,1225.752797
1363.513174,-7846.182985,888.247130,383.047749
1363.513495,-9770.718434,888.247130,1072.533697
1363.513816,-9474.636058,-296.082377,1455.581446
1363.514136,-7920.203579,0.000000,919.314598
1363.514457,-10066.800811,-3552.988522,766.095498
1363.514778,-7994.224174,-2294.638420,-153.219100
1363.515099,-9770.718434,740.205942,2145.067394
1363.515420,-11177.109724,148.041188,2681.334243
1363.515740,-9474.636058,2886.803174,3370.820191
1363.516061,-10658.965565,-370.102971,3217.601092
1363.516382,-8586.388927,-2516.700203,766.095498
1363.516703,-8808.450710,-370.102971,153.219100
1363.517024,-9622.677246,-1850.514855,1608.800546
1363.517345,-7846.182985,-1258.350101,689.485948
1363.517665,-8882.471304,-1110.308913,1685.410096
1363.517986,-9622.677246,-2590.720797,306.438199
1363.518307,-8142.265362,-370.102971,0.000000
1363.518628,-11251.130318,444.123565,1838.629195
1363.518949,-11473.192101,-296.082377,3524.039291
1363.519269,-9844.739029,740.205942,1762.019645
1363.519590,-11251.130318,-1110.308913,1378.971896
1363.519911,-7476.080014,-592.164754,-2451.505594
1363.520232,-9252.574275,1406.391290,-306.438199
1363.520553,-10214.842000,-518.144159,76.609550
1363.520874,-8586.388927,1850.514855,0.000000
1363.521194,-10510.924376,-814.226536,0.000000
1363.521515,-9252.574275,-2590.720797,-1838.629195
1363.521836,-9326.594869,-518.144159,-1225.752797
1363.522157,-11251.130318,222.061783,612.876398
1363.522478,-9622.677246,2072.576638,1838.629195
1363.522798,-10658.965565,1850.514855,1915.238745
1363.523119,-9474.636058,-2146.597232,-459.657299
1363.523440,-8438.347739,-1406.391290,-1532.190996
1363.523761,-9770.718434,222.061783,306.438199
1363.524082,-11251.130318,888.247130,1149.143247
1363.524403,-8734.430116,1332.370696,1838.629195
1363.524723,-8364.327145,-1332.370696,-306.438199
1363.525044,-8734.430116,-1776.494261,-1302.362347
1363.525365,-9844.739029,-370.102971,919.314598
1363.525686,-9474.636058,-740.205942,1685.410096
1363.526007,-9770.718434,1258.350101,2604.724693
1363.526327,-9474.636058,888.247130,3370.820191
1363.526648,-10807.006753,-1998.556043,2834.553343
1363.526969,-9770.718434,-888.247130,4290.134789
1363.527290,-10955.047942,-3256.906145,2987.772442
1363.527611,-8660.409521,-1184.329507,2374.896044
1363.527932,-9252.574275,-888.247130,919.314598
1363.528252,-7624.121203,-2738.761985,-2528.115143
1363.528573,-5699.585753,1258.350101,-1608.800546
1363.528894,-8512.368333,740.205942,0.000000
1363.529215,-9030.512492,444.123565,689.485948
1363.529536,-9696.697840,148.041188,1685.410096
1363.529856,-11621.233289,-1998.556043,1378.971896
1363.530177,-9770.718434,370.102971,2451.505594
1363.530498,-11695.253884,1998.556043,3983.696590
1363.530819,-11843.295072,1332.370696,4290.134789
1363.531140,-8216.285956,1776.494261,2681.334243
1363.531461,-9622.677246,-2220.617826,0.000000
1363.531781,-7179.997637,-1036.288319,-1378.971896
1363.532102,-8438.347739,444.123565,-1302.362347
1363.532423,-9474.636058,0.000000,1608.800546
1363.532744,-8734.430116,1702.473667,2221.676944
1363.533065,-11177.109724,-592.164754,2834.553343
1363.533385,-10288.862594,-3034.844362,1149.143247
1363.533706,-10436.903782,-1332.370696,2145.067394
1363.534027,-12805.562797,-148.041188,4519.963438
1363.534348,-11769.274478,-1184.329507,3064.381992
1363.534669,-9400.615463,814.226536,2911.162892
1363.534990,-10955.047942,-1554.432478,0.000000
1363.535310,-8512.368333,-1554.432478,-1532.190996
1363.535631,-6513.812290,1110.308913,-1991.848295
1363.535952,-9030.512492,-1332.370696,-1225.752797
1363.536273,-8216.285956,592.164754,-919.314598
1363.536594,-9030.512492,-1480.411884,-1378.971896
1363.536914,-9252.574275,-1184.329507,-1532.190996
1363.537235,-9474.636058,592.164754,383.047749
1363.537556,-9252.574275,-962.267725,766.095498
1363.537877,-11621.233289,1628.453072,4443.353888
1363.538198,-10732.986159,-1850.514855,1762.019645
1363.538519,-9622.677246,-2442.679609,153.219100
1363.538839,-8586.388927,-1184.329507,536.266849
1363.539160,-9400.615463,444.123565,0.000000
1363.539481,-10140.821405,2368.659014,1455.581446
1363.539802,-9104.533087,1258.350101,995.924147
1363.540123,-5847.626942,-592.164754,-2834.553343
1363.540443,-9548.656652,-518.144159,-1378.971896
1363.540764,-10288.862594,1110.308913,2451.505594
1363.541085,-9474.636058,-296.082377,2987.772442
1363.541406,-10510.924376,-1332.370696,2757.943793
1363.541727,-8882.471304,-2516.700203,1608.800546
1363.542048,-9104.533087,-1924.535449,459.657299
1363.542368,-11917.315666,0.000000,2681.334243
1363.542689,-11473.192101,888.247130,3370.820191
1363.543010,-9696.697840,2516.700203,1378.971896
1363.543331,-9178.553681,0.000000,2374.896044
1363.543652,-10140.821405,-444.123565,2604.724693
1363.543972,-9400.615463,1036.288319,1072.533697
1363.544293,-11399.171507,-1480.411884,2451.505594
1363.544614,-7920.203579,148.041188,1838.629195
1363.544935,-10881.027347,-740.205942,2528.115143
1363.545256,-9548.656652,-3404.947333,2221.676944
1363.545577,-8882.471304,-962.267725,306.438199
1363.545897,-10732.986159,-370.102971,1762.019645
1363.546218,-9474.636058,1110.308913,2298.286494
1363.546539,-9400.615463,1850.514855,2221.676944
1363.546860,-10807.006753,-2738.761985,1838.629195
1363.547181,-7994.224174,-2146.597232,-842.705048
1363.547501,-8512.368333,0.000000,-919.314598
1363.547822,-9918.759623,0.000000,76.609550
1363.548143,-9548.656652,0.000000,919.314598
1363.548464,-8882.471304,370.102971,1532.190996
1363.548785,-9622.677246,-2146.597232,0.000000
1363.549106,-8956.491898,1998.556043,2221.676944
1363.549426,-13471.748144,-1110.308913,4519.963438
1363.549747,-11251.130318,-814.226536,3524.039291
1363.550068,-9770.718434,444.123565,3294.210641
1363.550389,-8512.368333,-1332.370696,0.000000
1363.550710,-6217.729913,1480.411884,0.000000
1363.551030,-9844.739029,74.020594,76.609550
1363.551351,-7179.997637,-148.041188,-306.438199
1363.551672,-8512.368333,0.000000,0.000000
1363.551993,-8956.491898,-962.267725,-1072.533697
1363.552314,-9104.533087,-518.144159,76.609550
1363.552635,-10732.986159,444.123565,2451.505594
1363.552955,-11029.068536,0.000000,3217.601092
1363.553276,-10288.862594,-444.123565,2221.676944
1363.553597,-10214.842000,-1480.411884,1991.848295
1363.553918,-9030.512492,-2072.576638,-612.876398
1363.554239,-9326.594869,962.267725,-536.266849
1363.554559,-10066.800811,296.082377,76.609550
1363.554880,-7994.224174,2442.679609,-995.924147
1363.555201,-9992.780217,962.267725,-153.219100
1363.555522,-9548.656652,-1850.514855,-1991.848295
1363.555843,-9178.553681,0.000000,-536.266849
1363.556164,-11325.150913,-1702.473667,306.438199
1363.556484,-9770.718434,-1332.370696,1762.019645
1363.556805,-10955.047942,370.102971,2451.505594
1363.557126,-11473.192101,-1776.494261,1225.752797
1363.557447,-7920.203579,370.102971,-1455.581446
1363.557768,-9696.697840,1776.494261,1072.533697
1363.558088,-9548.656652,-296.082377,842.705048
1363.558409,-8512.368333,740.205942,995.924147
1363.558730,-10807.006753,-2146.597232,919.314598
1363.559051,-7624.121203,-2294.638420,-459.657299
1363.559372,-9178.553681,0.000000,919.314598
1363.559693,-12139.377449,-444.123565,3370.820191
1363.560013,-9696.697840,2220.617826,3907.087040
1363.560334,-10732.986159,-444.123565,3370.820191
1363.560655,-8290.306550,-2146.597232,689.485948
1363.560976,-8438.347739,-518.144159,459.657299
1363.561297,-10807.006753,-222.061783,1685.410096
1363.561617,-9474.636058,518.144159,1991.848295
1363.561938,-8512.368333,2442.679609,2145.067394
1363.562259,-10362.883188,-1036.288319,842.705048
1363.562580,-7772.162391,0.000000,0.000000
1363.562901,-11177.109724,-1184.329507,1685.410096
1363.563222,-10510.924376,-1480.411884,2145.067394
1363.563542,-10066.800811,-592.164754,2298.286494
1363.563863,-9622.677246,-2442.679609,1685.410096
1363.564184,-8660.409521,-592.164754,919.314598
1363.564505,-10436.903782,1998.556043,3447.429741
1363.564826,-11325.150913,0.000000,4519.963438
1363.565146,-9400.615463,-444.123565,2987.772442
1363.565467,-9474.636058,-2664.741391,76.609550
1363.565788,-7254.018232,-3256.906145,-2604.724693
1363.566109,-7031.956449,666.185348,-1991.848295
1363.566430,-8882.471304,1110.308913,919.314598
1363.566751,-8512.368333,370.102971,919.314598
1363.567071,-9474.636058,-888.247130,1149.143247
1363.567392,-9770.718434,-3552.988522,-306.438199
1363.567713,-10288.862594,-1998.556043,306.438199
1363.568034,-11843.295072,0.000000,3217.601092
1363.568355,-10066.800811,666.185348,3064.381992
1363.568675,-10510.924376,2960.823768,1838.629195
1363.568996,-9474.636058,740.205942,1225.752797
1363.569317,-9548.656652,-1998.556043,0.000000
1363.569638,-9178.553681,-148.041188,919.314598
1363.569959,-9696.697840,-2072.576638,0.000000
1363.570280,-8882.471304,888.247130,0.000000
1363.570600,-9178.553681,296.082377,383.047749
1363.570921,-8882.471304,-814.226536,-1072.533697
1363.571242,-9104.533087,1036.288319,612.876398
1363.571563,-9474.636058,-1554.432478,1225.752797
1363.571884,-9770.718434,222.061783,1915.238745
1363.572204,-12731.542202,-148.041188,4213.525239
1363.572525,-12139.377449,-2442.679609,2451.505594
1363.572846,-9696.697840,-1924.535449,1225.752797
1363.573167,-10140.821405,74.020594,612.876398
1363.573488,-8290.306550,888.247130,-536.266849
1363.573809,-8142.265362,2294.638420,0.000000
1363.574129,-8290.306550,-1554.432478,-2145.067394
1363.574450,-7031.956449,-814.226536,-2757.943793
1363.574771,-8660.409521,-148.041188,-1532.190996
1363.575092,-9252.574275,-666.185348,306.438199
1363.575413,-10658.965565,296.082377,3294.210641
1363.575733,-11769.274478,-1850.514855,3140.991542
1363.576054,-10140.821405,-4219.173869,1455.581446
1363.576375,-7994.224174,-74.020594,1149.143247
1363.576696,-11547.212695,-222.061783,2528.115143
1363.577017,-9474.636058,2664.741391,4596.572988
1363.577338,-8956.491898,1702.473667,1608.800546
1363.577658,-7846.182985,-962.267725,-1302.362347
1363.577979,-6957.935855,1258.350101,-1378.971896
1363.578300,-9918.759623,0.000000,919.314598
1363.578621,-10955.047942,-666.185348,2757.943793
1363.578942,-10436.903782,148.041188,3447.429741
1363.579262,-10288.862594,-2146.597232,2451.505594
1363.579583,-9030.512492,-2072.576638,1455.581446
1363.579904,-10881.027347,444.123565,1762.019645
1363.580225,-11251.130318,666.185348,2451.505594
1363.580546,-9474.636058,2738.761985,1915.238745
1363.580867,-9104.533087,518.144159,766.095498
1363.581187,-8068.244768,-1924.535449,-536.266849
1363.581508,-9474.636058,296.082377,306.438199
1363.581829,-10732.986159,-1036.288319,1762.019645
1363.582150,-8808.450710,1110.308913,1608.800546
1363.582471,-10807.006753,-74.020594,2221.676944
1363.582791,-10955.047942,-2368.659014,0.000000
1363.583112,-8216.285956,1554.432478,612.876398
1363.583433,-12065.356855,148.041188,2221.676944
1363.583754,-8290.306550,1998.556043,1149.143247
1363.584075,-10436.903782,-222.061783,1915.238745
1363.584396,-8882.471304,-2886.803174,-383.047749
1363.584716,-7846.182985,-814.226536,-612.876398
1363.585037,-10362.883188,74.020594,2298.286494
1363.585358,-9696.697840,-1554.432478,1302.362347
1363.585679,-8808.450710,-1258.350101,1225.752797
1363.586000,-9770.718434,-2442.679609,229.828649
1363.586320,-7846.182985,-814.226536,-536.266849
1363.586641,-9622.677246,-370.102971,0.000000
1363.586962,-8882.471304,148.041188,153.219100
1363.587283,-8660.409521,0.000000,76.609550
1363.587604,-8734.430116,296.082377,153.219100
1363.587925,-10658.965565,-1850.514855,536.266849
1363.588245,-9400.615463,444.123565,2451.505594
1363.588566,-11917.315666,-740.205942,2757.943793
1363.588887,-10732.986159,-888.247130,2145.067394
1363.589208,-9252.574275,740.205942,1072.533697
1363.589529,-9696.697840,-296.082377,919.314598
1363.589849,-7994.224174,1850.514855,-1302.362347
1363.590170,-9400.615463,1554.432478,0.000000
1363.590491,-9030.512492,74.020594,-306.438199
1363.590812,-8956.491898,296.082377,76.609550
1363.591133,-9992.780217,-2368.659014,0.000000
1363.591454,-9474.636058,-1036.288319,76.609550
1363.591774,-10732.986159,888.247130,1991.848295
1363.592095,-11547.212695,0.000000,2451.505594
1363.592416,-9474.636058,1258.350101,2604.724693
1363.592737,-11029.068536,-1776.494261,1685.410096
1363.593058,-9400.615463,-2886.803174,0.000000
1363.593378,-9104.533087,-740.205942,-306.438199
1363.593699,-10140.821405,0.000000,2145.067394
1363.594020,-9400.615463,296.082377,1302.362347
1363.594341,-9696.697840,1258.350101,2298.286494
1363.594662,-9770.718434,-1628.453072,1072.533697
1363.594983,-8734.430116,0.000000,1532.190996
1363.595303,-11695.253884,-1554.432478,3294.210641
1363.595624,-10214.842000,-1924.535449,2911.162892
1363.595945,-9252.574275,0.000000,2604.724693
1363.596266,-10658.965565,-1776.494261,2145.067394
1363.596587,-7698.141797,518.144159,536.266849
1363.596907,-9844.739029,592.164754,1072.533697
1363.597228,-9474.636058,148.041188,689.485948
1363.597549,-9326.594869,1332.370696,1915.238745
1363.597870,-11103.089130,-1184.329507,2451.505594
1363.598191,-8882.471304,-3330.926739,383.047749
1363.598512,-9030.512492,-444.123565,766.095498
1363.598832,-10881.027347,-444.123565,1378.971896
1363.599153,-8586.388927,2886.803174,1915.238745
1363.599474,-11177.109724,2146.597232,2757.943793
1363.599795,-9030.512492,-1036.288319,229.828649
1363.600116,-7402.059420,-148.041188,-1455.581446
1363.600436,-10288.862594,-666.185348,306.438199
1363.600757,-9474.636058,-592.164754,1455.581446
1363.601078,-9548.656652,518.144159,1455.581446
1363.601399,-9474.636058,-740.205942,2374.896044
1363.601720,-9326.594869,-888.247130,-689.485948
1363.602041,-9474.636058,962.267725,1991.848295
1363.602361,-11029.068536,-2516.700203,1532.190996
1363.602682,-8734.430116,1628.453072,1762.019645
1363.603003,-10955.047942,-2590.720797,0.000000
1363.603324,-6809.894666,-962.267725,-1991.848295
1363.603645,-9770.718434,2294.638420,383.047749
1363.603966,-10658.965565,592.164754,3064.381992
1363.604287,-10658.965565,0.000000,4673.182538
1363.604607,-11547.212695,-2368.659014,2757.943793
1363.604928,-10288.862594,-4071.132681,-1225.752797
1363.605249,-9400.615463,-1110.308913,-459.657299
1363.605570,-9252.574275,2072.576638,689.485948
1363.605891,-9178.553681,1036.288319,1302.362347
1363.606212,-7328.038826,1480.411884,-995.924147
1363.606533,-8734.430116,-1184.329507,-2528.115143
1363.606853,-8364.327145,-2072.576638,-2987.772442
1363.607174,-10584.944971,148.041188,1225.752797
1363.607495,-11991.336260,-222.061783,2451.505594
1363.607816,-10362.883188,2072.576638,2451.505594
1363.608137,-11399.171507,296.082377,1762.019645
1363.608458,-9474.636058,148.041188,76.609550
1363.608779,-8956.491898,1776.494261,1378.971896
1363.609100,-11399.171507,-962.267725,1532.190996
1363.609420,-7698.141797,0.000000,919.314598
1363.609741,-8956.491898,-2072.576638,0.000000
1363.610062,-9474.636058,-2590.720797,0.000000
1363.610383,-8660.409521,-296.082377,689.485948
1363.610704,-11547.212695,-222.061783,3983.696590
1363.611025,-10955.047942,-518.144159,3600.648841
1363.611346,-10140.821405,-1110.308913,2451.505594
1363.611666,-11251.130318,-3552.988522,2451.505594
1363.611987,-7772.162391,0.000000,842.705048
1363.612308,-11399.171507,444.123565,2068.457845
1363.612629,-8808.450710,740.205942,1149.143247
1363.612950,-7105.977043,1332.370696,-306.438199
1363.613271,-10288.862594,-1628.453072,0.000000
1363.613592,-8364.327145,-3923.091493,-1991.848295
1363.613912,-7105.977043,1332.370696,-995.924147
1363.614233,-11177.109724,296.082377,2298.286494
1363.614554,-9770.718434,1554.432478,3524.039291
1363.614875,-10658.965565,-370.102971,4519.963438
1363.615196,-9622.677246,-3552.988522,919.314598
1363.615517,-9030.512492,-222.061783,1149.143247
1363.615838,-9992.780217,-444.123565,1991.848295
1363.616159,-10807.006753,1924.535449,5286.058936
1363.616479,-7402.059420,814.226536,1455.581446
1363.616800,-10288.862594,-3108.864956,-766.095498
1363.617121,-5699.585753,-592.164754,-689.485948
1363.617442,-9770.718434,-296.082377,229.828649
1363.617763,-10288.862594,1184.329507,2757.943793
1363.618084,-11029.068536,1258.350101,4443.353888
1363.618405,-8882.471304,-1702.473667,1302.362347
1363.618725,-8956.491898,-666.185348,0.000000
1363.619046,-9770.718434,962.267725,1685.410096
1363.619367,-8956.491898,1036.288319,2145.067394
1363.619688,-10362.883188,370.102971,2528.115143
1363.620009,-9474.636058,-1702.473667,1302.362347
1363.620330,-7846.182985,-4663.297435,-2374.896044
1363.620651,-9030.512492,-1776.494261,-459.657299
1363.620972,-10362.883188,518.144159,1378.971896
1363.621292,-9992.780217,1850.514855,1455.581446
1363.621613,-10140.821405,1702.473667,2911.162892
1363.621934,-9844.739029,-2368.659014,1915.238745
1363.622255,-8660.409521,-962.267725,-1225.752797
1363.622576,-11399.171507,-962.267725,2145.067394
1363.622897,-9252.574275,296.082377,766.095498
1363.623218,-9326.594869,2368.659014,1378.971896
1363.623538,-9696.697840,-1406.391290,0.000000
1363.623859,-6661.853478,0.000000,-2374.896044
1363.624180,-9770.718434,0.000000,-1685.410096
1363.624501,-11325.150913,-74.020594,0.000000
1363.624822,-8364.327145,1702.473667,-689.485948
1363.625143,-10362.883188,592.164754,-1225.752797
1363.625464,-9252.574275,888.247130,-766.095498
1363.625785,-9696.697840,2368.659014,1838.629195
1363.626105,-13175.665768,-592.164754,4290.134789
1363.626426,-10658.965565,-2294.638420,3370.820191
1363.626747,-10510.924376,-2812.782580,1378.971896
1363.627068,-10214.842000,-3923.091493,229.828649
1363.627389,-7624.121203,-148.041188,76.609550
1363.627710,-9178.553681,2368.659014,1302.362347
1363.628031,-8956.491898,1184.329507,153.219100
1363.628351,-7328.038826,3404.947333,536.266849
1363.628672,-10658.965565,-1480.411884,0.000000
1363.628993,-8882.471304,-2664.741391,229.828649
1363.629314,-10214.842000,-1406.391290,2604.724693
1363.629635,-10658.965565,-2146.597232,2604.724693
1363.629956,-9252.574275,74.020594,2451.505594
1363.630277,-10436.903782,0.000000,2451.505594
1363.630598,-8586.388927,-814.226536,689.485948
1363.630918,-9622.677246,592.164754,459.657299
1363.631239,-10140.821405,222.061783,2068.457845
1363.631560,-9474.636058,-370.102971,2221.676944
1363.631881,-10140.821405,-1258.350101,2298.286494
1363.632202,-9474.636058,-4219.173869,995.924147
1363.632523,-8438.347739,-1850.514855,0.000000
1363.632844,-10732.986159,-370.102971,306.438199
1363.633164,-9548.656652,0.000000,2681.334243
1363.633485,-10066.800811,296.082377,3140.991542
1363.633806,-9770.718434,-2220.617826,995.924147
1363.634127,-8734.430116,-814.226536,-383.047749
1363.634448,-9918.759623,444.123565,1225.752797
1363.634769,-9252.574275,-296.082377,1378.971896
1363.635090,-9474.636058,592.164754,2298.286494
1363.635411,-10362.883188,-1776.494261,1225.752797
1363.635731,-8364.327145,-2812.782580,-612.876398
1363.636052,-9770.718434,-592.164754,612.876398
1363.636373,-10732.986159,-740.205942,1838.629195
1363.636694,-9770.718434,1036.288319,1685.410096
1363.637015,-10288.862594,1850.514855,2145.067394
1363.637336,-9326.594869,-1480.411884,919.314598
1363.637657,-9400.615463,-1924.535449,229.828649
1363.637977,-9992.780217,-2220.617826,1455.581446
1363.638298,-10066.800811,-1628.453072,153.219100
1363.638619,-9474.636058,740.205942,1762.019645
1363.638940,-10881.027347,-962.267725,995.924147
1363.639261,-7994.224174,1258.350101,-1225.752797
1363.639582,-9548.656652,1110.308913,0.000000
1363.639903,-10584.944971,74.020594,1378.971896
1363.640224,-9400.615463,1184.329507,842.705048
1363.640544,-10658.965565,-2590.720797,76.609550
1363.640865,-7994.224174,-1628.453072,-2528.115143
1363.641186,-9622.677246,962.267725,-459.657299
1363.641507,-10510.924376,-740.205942,536.266849
1363.641828,-9030.512492,2368.659014,2145.067394
1363.642149,-10510.924376,592.164754,1532.190996
1363.642470,-9548.656652,148.041188,306.438199
1363.642790,-10288.862594,1184.329507,1762.019645
1363.643111,-11325.150913,-814.226536,2145.067394
1363.643432,-8734.430116,-888.247130,766.095498
1363.643753,-8068.244768,-962.267725,-919.314598
1363.644074,-8068.244768,-2146.597232,-1762.019645
1363.644395,-6957.935855,1036.288319,-1762.019645
1363.644716,-10140.821405,1332.370696,1608.800546
1363.645037,-9474.636058,740.205942,1915.238745
1363.645357,-9548.656652,666.185348,1838.629195
1363.645678,-11695.253884,-1776.494261,1915.238745
1363.645999,-8734.430116,-1776.494261,1225.752797
1363.646320,-10584.944971,740.205942,2834.553343
1363.646641,-12139.377449,0.000000,3830.477490
1363.646962,-8882.471304,1184.329507,1072.533697
1363.647283,-9770.718434,-592.164754,995.924147
1363.647603,-8808.450710,-1924.535449,-306.438199
1363.647924,-8586.388927,740.205942,153.219100
1363.648245,-10214.842000,814.226536,1685.410096
1363.648566,-9844.739029,1406.391290,1455.581446
1363.648887,-9252.574275,1480.411884,2451.505594
1363.649208,-9918.759623,-2146.597232,1072.533697
1363.649529,-8734.430116,-888.247130,-919.314598
1363.649849,-11029.068536,962.267725,1991.848295
1363.650170,-10732.986159,296.082377,2604.724693
1363.650491,-8364.327145,2294.638420,3600.648841
1363.650812,-11843.295072,-2146.597232,1838.629195
1363.651133,-9474.636058,-666.185348,842.705048
1363.651454,-10510.924376,592.164754,2298.286494
1363.651775,-10881.027347,-2368.659014,1991.848295
1363.652096,-8808.450710,962.267725,3217.601092
1363.652416,-10807.006753,-1628.453072,1302.362347
1363.652737,-7402.059420,-2368.659014,-1532.190996
1363.653058,-8068.244768,518.144159,-689.485948
1363.653379,-8734.430116,-148.041188,1225.752797
1363.653700,-7846.182985,-1184.329507,919.314598
1363.654021,-8808.450710,-1628.453072,1532.190996
1363.654342,-8586.388927,-4145.153275,-153.219100
1363.654662,-9104.533087,-1406.391290,383.047749
1363.654983,-11251.130318,1702.473667,1225.752797
1363.655304,-11325.150913,666.185348,4213.525239
1363.655625,-9622.677246,1258.350101,2528.115143
1363.655946,-9400.615463,-2072.576638,1072.533697
1363.656267,-8068.244768,-2516.700203,-1762.019645
1363.656588,-7994.224174,-444.123565,0.000000
1363.656909,-10362.883188,-1332.370696,1149.143247
1363.657229,-8956.491898,0.000000,1455.581446
1363.657550,-9770.718434,-1480.411884,0.000000
1363.657871,-8660.409521,-2072.576638,-1608.800546
1363.658192,-9474.636058,1702.473667,-689.485948
1363.658513,-11621.233289,1480.411884,2068.457845
1363.658834,-10436.903782,1702.473667,2374.896044
1363.659155,-9844.739029,74.020594,0.000000
1363.659475,-9030.512492,-2220.617826,-1225.752797
1363.659796,-8808.450710,0.000000,-1225.752797
1363.660117,-11029.068536,666.185348,1072.533697
1363.660438,-10140.821405,222.061783,1302.362347
1363.660759,-8660.409521,296.082377,1149.143247
1363.661080,-9474.636058,-2368.659014,-459.657299
1363.661401,-9030.512492,-2368.659014,-536.266849
1363.661722,-11103.089130,-592.164754,2374.896044
1363.662042,-10955.047942,-2072.576638,1685.410096
1363.662363,-7698.141797,2886.803174,1302.362347
1363.662684,-11769.274478,592.164754,1455.581446
1363.663005,-7031.956449,-518.144159,1608.800546
1363.663326,-9030.512492,-2220.617826,1378.971896
1363.663647,-10584.944971,-2368.659014,1991.848295
1363.663968,-8216.285956,-2072.576638,-306.438199
1363.664288,-8512.368333,-888.247130,0.000000
1363.664609,-8808.450710,-962.267725,-536.266849
1363.664930,-7179.997637,1850.514855,-1225.752797
1363.665251,-11177.109724,2664.741391,2145.067394
1363.665572,-9548.656652,1628.453072,2374.896044
1363.665893,-10658.965565,1628.453072,3600.648841
1363.666214,-11843.295072,-2294.638420,3753.867940
1363.666535,-10436.903782,-592.164754,2451.505594
1363.666855,-10881.027347,962.267725,3370.820191
1363.667176,-9104.533087,740.205942,3064.381992
1363.667497,-8290.306550,2072.576638,2374.896044
1363.667818,-9548.656652,-592.164754,1378.971896
1363.668139,-8068.244768,-1776.494261,-995.924147
1363.668460,-8364.327145,666.185348,0.000000
1363.668781,-9474.636058,-222.061783,1685.410096
1363.669101,-9178.553681,518.144159,2604.724693
1363.669422,-11103.089130,-296.082377,3524.039291
1363.669743,-9252.574275,-2516.700203,995.924147
1363.670064,-8882.471304,-296.082377,1225.752797
1363.670385,-11177.109724,-666.185348,2451.505594
1363.670706,-9696.697840,-1110.308913,1762.019645
1363.671027,-9992.780217,-444.123565,2221.676944
1363.671348,-8956.491898,-2368.659014,76.609550
1363.671668,-7254.018232,-74.020594,-3447.429741
1363.671989,-11177.109724,148.041188,1225.752797
1363.672310,-10288.862594,-1110.308913,1838.629195
1363.672631,-9770.718434,-148.041188,1838.629195
1363.672952,-10510.924376,-3552.988522,536.266849
1363.673273,-8660.409521,-1406.391290,-1072.533697
1363.673594,-10881.027347,666.185348,1149.143247
1363.673914,-11177.109724,1406.391290,1915.238745
1363.674235,-8586.388927,2294.638420,1149.143247
1363.674556,-9178.553681,-666.185348,-1685.410096
1363.674877,-7846.182985,-2368.659014,-3064.381992
1363.675198,-9104.533087,148.041188,-2374.896044
1363.675519,-11251.130318,518.144159,1532.190996
1363.675840,-9548.656652,1036.288319,1685.410096
1363.676161,-9474.636058,518.144159,1532.190996
1363.676481,-10140.821405,-1998.556043,-383.047749
1363.676802,-9104.533087,962.267725,-306.438199
1363.677123,-10436.903782,1480.411884,2604.724693
1363.677444,-10140.821405,-1110.308913,919.314598
1363.677765,-8142.265362,-1036.288319,229.828649
1363.678086,-9622.677246,-3849.070898,-1685.410096
1363.678407,-7402.059420,-1554.432478,-1302.362347
1363.678727,-10288.862594,370.102971,1608.800546
1363.679048,-10288.862594,1332.370696,2834.553343
1363.679369,-9696.697840,1924.535449,2987.772442
1363.679690,-11843.295072,-1554.432478,2298.286494
1363.680011,-8068.244768,-3108.864956,0.000000
1363.680332,-9844.739029,-1480.411884,995.924147
1363.680653,-10955.047942,74.020594,3600.648841
1363.680974,-9918.759623,1110.308913,4136.915689
1363.681294,-10732.986159,-740.205942,4903.011187
1363.681615,-10066.800811,-4515.256246,612.876398
1363.681936,-9030.512492,-2294.638420,0.000000
1363.682257,-10732.986159,-814.226536,2374.896044
1363.682578,-8882.471304,592.164754,2068.457845
1363.682899,-9252.574275,2072.576638,1532.190996
1363.683220,-8882.471304,-1702.473667,-306.438199
1363.683540,-6809.894666,-1406.391290,-2145.067394
1363.683861,-9992.780217,-444.123565,689.485948
1363.684182,-10807.006753,-1258.350101,2451.505594
1363.684503,-9474.636058,666.185348,2298.286494
1363.684824,-10732.986159,0.000000,1991.848295
1363.685145,-9030.512492,0.000000,459.657299
1363.685466,-10658.965565,592.164754,842.705048
1363.685786,-9696.697840,1480.411884,1915.238745
1363.686107,-9474.636058,1036.288319,2221.676944
1363.686428,-9844.739029,148.041188,1149.143247
1363.686749,-9030.512492,-2220.617826,-229.828649
1363.687070,-7772.162391,-222.061783,919.314598
1363.687391,-8956.491898,1406.391290,1225.752797
1363.687712,-9400.615463,370.102971,2068.457845
1363.688033,-8586.388927,1406.391290,1991.848295
1363.688353,-11399.171507,-2812.782580,612.876398
1363.688674,-8586.388927,-962.267725,-536.266849
1363.688995,-11103.089130,148.041188,1302.362347
1363.689316,-10362.883188,740.205942,1762.019645
1363.689637,-10658.965565,2442.679609,2298.286494
1363.689958,-9770.718434,518.144159,1149.143247
1363.690279,-8586.388927,-2516.700203,-1838.629195
1363.690599,-8142.265362,0.000000,-2068.457845
1363.690920,-11251.130318,-444.123565,459.657299
1363.691241,-7105.977043,518.144159,-2374.896044
1363.691562,-10436.903782,518.144159,306.438199
1363.691883,-8438.347739,-814.226536,-1302.362347
1363.692204,-8586.388927,74.020594,-612.876398
1363.692525,-10288.862594,222.061783,1378.971896
1363.692846,-12361.439231,740.205942,2757.943793
1363.693166,-11177.109724,888.247130,2451.505594
1363.693487,-10214.842000,-888.247130,1149.143247
1363.693808,-8142.265362,-740.205942,-612.876398
1363.694129,-9918.759623,888.247130,459.657299
1363.694450,-9400.615463,-370.102971,842.705048
1363.694771,-8216.285956,148.041188,0.000000
1363.695092,-9474.636058,-962.267725,306.438199
1363.695412,-9030.512492,-2664.741391,536.266849
1363.695733,-9104.533087,74.020594,2298.286494
1363.696054,-11547.212695,-1110.308913,2987.772442
1363.696375,-9770.718434,444.123565,3370.820191
1363.696696,-9548.656652,-296.082377,3140.991542
1363.697017,-9030.512492,-1998.556043,995.924147
1363.697338,-8660.409521,370.102971,1685.410096
1363.697659,-11029.068536,-592.164754,3370.820191
1363.697979,-9252.574275,-888.247130,2681.334243
1363.698300,-10288.862594,-1702.473667,1991.848295
1363.698621,-9474.636058,-2146.597232,1302.362347
1363.698942,-9400.615463,-1480.411884,766.095498
1363.699263,-10584.944971,370.102971,3370.820191
1363.699584,-10584.944971,-1036.288319,1685.410096
1363.699905,-9548.656652,0.000000,1685.410096
1363.700225,-9696.697840,-2442.679609,536.266849
1363.700546,-8216.285956,-2146.597232,-153.219100
1363.700867,-9696.697840,-296.082377,1225.752797
1363.701188,-10362.883188,-1850.514855,1532.190996
1363.701509,-8808.450710,-1258.350101,1685.410096
1363.701830,-9992.780217,-2368.659014,766.095498
1363.702151,-8956.491898,-2220.617826,-612.876398
1363.702476,-10214.842000,1702.473667,1532.190996
1363.702797,-10732.986159,2072.576638,2374.896044
1363.703118,-9474.636058,888.247130,995.924147
1363.703438,-9104.533087,1332.370696,919.314598
1363.703759,-10362.883188,-2738.761985,0.000000
1363.704080,-9474.636058,-296.082377,0.000000
1363.704400,-9548.656652,74.020594,1149.143247
1363.704721,-9770.718434,-888.247130,1072.533697
1363.705042,-9326.594869,1998.556043,2298.286494
1363.705363,-10807.006753,-1554.432478,1455.581446
1363.705683,-9030.512492,-1332.370696,76.609550
1363.706004,-9474.636058,148.041188,383.047749
1363.706325,-10436.903782,-222.061783,995.924147
1363.706645,-10214.842000,1036.288319,2221.676944
1363.706966,-9474.636058,-1850.514855,1225.752797
1363.707287,-8364.327145,-2368.659014,0.000000
1363.707607,-8512.368333,-666.185348,-1072.533697
1363.707928,-10288.862594,0.000000,689.485948
1363.708249,-9844.739029,370.102971,1072.533697
1363.708570,-9326.594869,1998.556043,1455.581446
1363.708890,-10140.821405,-1258.350101,306.438199
1363.709211,-7846.182985,-296.082377,-995.924147
1363.709532,-10362.883188,-666.185348,0.000000
1363.709852,-9844.739029,1110.308913,1532.190996
1363.710173,-10436.903782,1776.494261,2834.553343
1363.710494,-9844.739029,-1184.329507,919.314598
1363.710814,-8068.244768,-296.082377,-842.705048
1363.711135,-9474.636058,1850.514855,536.266849
1363.711456,-10510.924376,296.082377,2068.457845
1363.711777,-9178.553681,1184.329507,2604.724693
1363.712097,-9548.656652,-1332.370696,76.609550
1363.712418,-6587.832884,-1628.453072,-2911.162892
1363.712739,-8364.327145,666.185348,-1378.971896
1363.713059,-10288.862594,1776.494261,2451.505594
1363.713380,-10362.883188,1480.411884,3064.381992
1363.713701,-11177.109724,592.164754,3677.258390
1363.714022,-10510.924376,-1702.473667,2145.067394
1363.714342,-10881.027347,444.123565,1225.752797
1363.714663,-12213.398043,1776.494261,3370.820191
1363.714984,-9400.615463,3034.844362,3677.258390
1363.715304,-9104.533087,3034.844362,2068.457845
1363.715625,-9400.615463,-814.226536,0.000000
1363.715946,-8068.244768,-1702.473667,-2221.676944
1363.716266,-9622.677246,-1406.391290,-459.657299
1363.716587,-9252.574275,0.000000,995.924147
1363.716908,-9696.697840,814.226536,2757.943793
1363.717229,-11103.089130,-1628.453072,3064.381992
1363.717549,-9030.512492,-2368.659014,536.266849
1363.717870,-9474.636058,-962.267725,2068.457845
1363.718191,-10807.006753,-3034.844362,1991.848295
1363.718511,-8290.306550,-1332.370696,1455.581446
1363.718832,-10436.903782,-1628.453072,1762.019645
1363.719153,-8734.430116,-2442.679609,-306.438199
1363.719473,-7476.080014,-148.041188,1608.800546
1363.719794,-11547.212695,-3478.967927,2604.724693
1363.720115,-8660.409521,-2294.638420,1685.410096
1363.720436,-9696.697840,-1184.329507,1608.800546
1363.720756,-10288.862594,-3108.864956,919.314598
1363.721077,-6365.771101,-1924.535449,-689.485948
1363.721398,-9400.615463,-2146.597232,76.609550
1363.721718,-7624.121203,-1258.350101,-306.438199
1363.722039,-8512.368333,296.082377,229.828649
1363.722360,-10214.842000,-1776.494261,2451.505594
1363.722681,-9178.553681,-3404.947333,1532.190996
1363.723001,-9474.636058,-1554.432478,1685.410096
1363.723322,-11251.130318,-1850.514855,2451.505594
1363.723643,-9696.697840,888.247130,3370.820191
1363.723963,-11103.089130,-592.164754,3140.991542
1363.724284,-9326.594869,-3552.988522,0.000000
1363.724605,-8068.244768,-222.061783,-1608.800546
1363.724925,-10807.006753,370.102971,-229.828649
1363.725246,-9326.594869,740.205942,995.924147
1363.725567,-9918.759623,1258.350101,1378.971896
1363.725888,-10584.944971,-2072.576638,0.000000
1363.726208,-9918.759623,74.020594,-459.657299
1363.726529,-11103.089130,1480.411884,1762.019645
1363.726850,-11695.253884,592.164754,2757.943793
1363.727170,-11473.192101,1776.494261,2298.286494
1363.727491,-10955.047942,-370.102971,995.924147
1363.727812,-9622.677246,-592.164754,-536.266849
1363.728132,-8216.285956,2294.638420,-766.095498
1363.728453,-10140.821405,-444.123565,0.000000
1363.728774,-7846.182985,518.144159,-919.314598
1363.729095,-9622.677246,0.000000,-919.314598
1363.729415,-7994.224174,-1628.453072,-2298.286494
1363.729736,-7994.224174,1702.473667,-229.828649
1363.730057,-11917.315666,888.247130,2528.115143
1363.730377,-11029.068536,1258.350101,3447.429741
1363.730698,-11251.130318,666.185348,5056.230287
1363.731019,-9622.677246,-2294.638420,2068.457845
1363.731340,-8882.471304,-1554.432478,1225.752797
1363.731660,-10066.800811,-1554.432478,2298.286494
1363.731981,-7920.203579,-1406.391290,1608.800546
1363.732302,-6439.791695,592.164754,76.609550
1363.732622,-8216.285956,-1406.391290,-459.657299
1363.732943,-6365.771101,-518.144159,-1991.848295
1363.733264,-9104.533087,1480.411884,842.705048
1363.733584,-10658.965565,1184.329507,2451.505594
1363.733905,-9474.636058,2220.617826,2528.115143
1363.734226,-10584.944971,296.082377,2451.505594
1363.734547,-9474.636058,-962.267725,995.924147
1363.734867,-9992.780217,1406.391290,1838.629195
1363.735188,-13471.748144,148.041188,3140.991542
1363.735509,-6513.812290,-222.061783,3064.381992
1363.735829,-10732.986159,888.247130,1378.971896
1363.736150,-12731.542202,-666.185348,-229.828649
1363.736471,-7920.203579,2664.741391,842.705048
1363.736791,-11843.295072,2146.597232,2298.286494
1363.737112,-9400.615463,814.226536,1762.019645
1363.737433,-9400.615463,74.020594,536.266849
1363.737754,-11029.068536,-2220.617826,229.828649
1363.738074,-9252.574275,-1554.432478,-383.047749
1363.738395,-10881.027347,518.144159,3600.648841
1363.738716,-10214.842000,-814.226536,1915.238745
1363.739036,-9548.656652,-296.082377,229.828649
1363.739357,-11029.068536,-1628.453072,995.924147
1363.739678,-8882.471304,-1480.411884,-766.095498
1363.739999,-10436.903782,740.205942,842.705048
1363.740319,-11251.130318,1702.473667,3064.381992
1363.740640,-9622.677246,740.205942,1302.362347
1363.740961,-10732.986159,-1850.514855,1149.143247
1363.741281,-9104.533087,-4071.132681,-153.219100
1363.741602,-7846.182985,-3256.906145,-842.705048
1363.741923,-9696.697840,-2146.597232,995.924147
1363.742243,-9844.739029,-1480.411884,1072.533697
1363.742564,-8734.430116,148.041188,689.485948
1363.742885,-9400.615463,-1332.370696,0.000000
1363.743206,-8364.327145,0.000000,-1225.752797
1363.743526,-9770.718434,296.082377,459.657299
1363.743847,-10362.883188,-370.102971,842.705048
1363.744168,-9104.533087,74.020594,1762.019645
1363.744488,-9030.512492,-2960.823768,459.657299
1363.744809,-8586.388927,-2590.720797,-383.047749
1363.745130,-9548.656652,592.164754,459.657299
1363.745450,-10214.842000,74.020594,1378.971896
1363.745771,-8586.388927,148.041188,1225.752797
1363.746092,-8882.471304,-148.041188,1991.848295
1363.746413,-10288.862594,-3701.029710,0.000000
1363.746733,-7994.224174,-740.205942,-306.438199
1363.747054,-9918.759623,-740.205942,1991.848295
1363.747375,-8882.471304,444.123565,2068.457845
1363.747695,-10362.883188,1554.432478,3294.210641
1363.748016,-10066.800811,-1998.556043,1915.238745
1363.748337,-8216.285956,-1184.329507,612.876398
1363.748658,-10732.986159,-740.205942,0.000000
1363.748978,-10658.965565,-222.061783,1838.629195
1363.749299,-9178.553681,1258.350101,1455.581446
1363.749620,-9252.574275,-222.061783,0.000000
1363.749940,-7328.038826,666.185348,-2374.896044
1363.750261,-9770.718434,1332.370696,-612.876398
1363.750582,-10658.965565,1258.350101,2451.505594
1363.750902,-10732.986159,1776.494261,3830.477490
1363.751223,-12805.562797,-592.164754,5975.544884
1363.751544,-10807.006753,-4515.256246,3370.820191
1363.751865,-10658.965565,-1776.494261,2221.676944
1363.752185,-11177.109724,-962.267725,3140.991542
1363.752506,-8586.388927,1628.453072,2528.115143
1363.752827,-8956.491898,2072.576638,2528.115143
1363.753147,-8290.306550,-1924.535449,-1532.190996
1363.753468,-5107.421000,370.102971,-2834.553343
1363.753789,-10510.924376,-518.144159,-383.047749
1363.754109,-10436.903782,74.020594,1915.238745
1363.754430,-9918.759623,1998.556043,2911.162892
1363.754751,-11029.068536,-444.123565,3217.601092
1363.755072,-9400.615463,-296.082377,995.924147
1363.755392,-10362.883188,-296.082377,2987.772442
1363.755713,-9696.697840,-3404.947333,612.876398
1363.756034,-8438.347739,444.123565,1302.362347
1363.756354,-9474.636058,-1776.494261,536.266849
1363.756675,-6883.915261,-518.144159,-1915.238745
1363.756996,-8068.244768,2072.576638,-919.314598
1363.757317,-9474.636058,1702.473667,2145.067394
1363.757637,-10066.800811,888.247130,3600.648841
1363.757958,-11177.109724,-1554.432478,3217.601092
1363.758279,-10362.883188,-4663.297435,229.828649
1363.758599,-8882.471304,-1480.411884,-1762.019645
1363.758920,-9400.615463,666.185348,-306.438199
1363.759241,-8142.265362,1554.432478,-153.219100
1363.759561,-8068.244768,2812.782580,-842.705048
1363.759882,-9252.574275,-1036.288319,-995.924147
1363.760203,-8216.285956,-592.164754,-3217.601092
1363.760524,-10955.047942,0.000000,-383.047749
1363.760844,-11695.253884,0.000000,1608.800546
1363.761165,-10658.965565,2442.679609,4060.306139
1363.761486,-11843.295072,148.041188,1915.238745
1363.761806,-9030.512492,-1850.514855,-383.047749
1363.762127,-8364.327145,0.000000,-612.876398
1363.762448,-11473.192101,-1776.494261,1302.362347
1363.762768,-9400.615463,148.041188,1149.143247
1363.763089,-9548.656652,-1184.329507,0.000000
1363.763410,-8808.450710,-2590.720797,-1149.143247
1363.763731,-8438.347739,-296.082377,-766.095498
1363.764051,-11029.068536,592.164754,2145.067394
1363.764372,-10362.883188,1110.308913,2451.505594
1363.764693,-10881.027347,1184.329507,2604.724693
1363.765013,-11547.212695,-1480.411884,2298.286494
1363.765334,-8956.491898,-1110.308913,1149.143247
1363.765655,-11177.109724,-296.082377,2911.162892
1363.765976,-9474.636058,-1036.288319,2681.334243
1363.766296,-7698.141797,-814.226536,995.924147
1363.766617,-8364.327145,-1924.535449,0.000000
1363.766938,-8068.244768,-2146.597232,-1838.629195
1363.767258,-7624.121203,296.082377,-459.657299
1363.767579,-9844.739029,666.185348,1608.800546
1363.767900,-9474.636058,2590.720797,2834.553343
1363.768220,-12361.439231,2368.659014,6358.592633
1363.768541,-11473.192101,-2738.761985,3753.867940
1363.768862,-9770.718434,-2368.659014,2374.896044
1363.769183,-11177.109724,-2812.782580,3370.820191
1363.769503,-8956.491898,-2516.700203,2298.286494
1363.769824,-9252.574275,-1258.350101,2451.505594
1363.770145,-8956.491898,-1998.556043,153.219100
1363.770465,-6217.729913,-1332.370696,-1915.238745
1363.770786,-8142.265362,2664.741391,612.876398
1363.771107,-11695.253884,1480.411884,2757.943793
1363.771427,-10658.965565,1480.411884,3370.820191
1363.771748,-10658.965565,-2590.720797,2987.772442
1363.772069,-8882.471304,-2368.659014,842.705048
1363.772390,-9252.574275,-1406.391290,1608.800546
1363.772710,-10214.842000,-1480.411884,2451.505594
1363.773031,-7994.224174,148.041188,2757.943793
1363.773352,-11399.171507,-888.247130,2451.505594
1363.773672,-9178.553681,-1998.556043,459.657299
1363.773993,-9178.553681,0.000000,689.485948
1363.774314,-11695.253884,444.123565,2681.334243
1363.774635,-9844.739029,1924.535449,1225.752797
1363.774955,-9400.615463,1776.494261,2298.286494
1363.775276,-7846.182985,-3108.864956,-1608.800546
1363.775597,-7698.141797,-2146.597232,-2145.067394
1363.775917,-9992.780217,-2368.659014,0.000000
1363.776238,-9252.574275,-1184.329507,0.000000
1363.776559,-9326.594869,2294.638420,1149.143247
1363.776879,-11029.068536,-148.041188,-153.219100
1363.777200,-7772.162391,740.205942,-1991.848295
1363.777521,-9696.697840,2220.617826,-306.438199
1363.777842,-10807.006753,74.020594,459.657299
1363.778162,-9400.615463,222.061783,-459.657299
1363.778483,-10214.842000,-444.123565,-1302.362347
1363.778804,-8364.327145,-740.205942,-1762.019645
1363.779124,-8882.471304,518.144159,-689.485948
1363.779445,-11103.089130,-222.061783,766.095498
1363.779766,-9030.512492,1702.473667,-306.438199
1363.780086,-10288.862594,1110.308913,306.438199
1363.780407,-9696.697840,-2368.659014,612.876398
1363.780728,-9326.594869,-1702.473667,-153.219100
1363.781049,-11251.130318,-1110.308913,612.876398
1363.781369,-10436.903782,666.185348,2298.286494
1363.781690,-8438.347739,2072.576638,2221.676944
1363.782011,-10881.027347,0.000000,1991.848295
1363.782331,-7772.162391,-74.020594,-689.485948
1363.782652,-9992.780217,1036.288319,76.609550
1363.782973,-9992.780217,370.102971,2374.896044
1363.783294,-8956.491898,1110.308913,1991.848295
1363.783614,-11399.171507,0.000000,3524.039291
1363.783935,-9844.739029,-2516.700203,1302.362347
1363.784256,-8734.430116,296.082377,383.047749
1363.784576,-12361.439231,1110.308913,3753.867940
1363.784897,-9400.615463,3256.906145,2221.676944
1363.785218,-10807.006753,1258.350101,4903.011187
1363.785538,-10510.924376,-2220.617826,1378.971896
1363.785859,-6809.894666,-296.082377,-459.657299
1363.786180,-9992.780217,-2590.720797,1149.143247
1363.786501,-8586.388927,0.000000,1991.848295
1363.786821,-10214.842000,-296.082377,3217.601092
1363.787142,-9622.677246,-1258.350101,1378.971896
1363.787463,-7846.182985,0.000000,-229.828649
1363.787783,-9400.615463,740.205942,2757.943793
1363.788104,-9622.677246,-370.102971,3140.991542
1363.788425,-10066.800811,-148.041188,3370.820191
1363.788745,-9770.718434,-740.205942,2298.286494
1363.789066,-8216.285956,-2442.679609,-459.657299
1363.789387,-8364.327145,370.102971,689.485948
1363.789708,-9770.718434,-1258.350101,1532.190996
1363.790028,-8290.306550,-148.041188,1225.752797
1363.790349,-9252.574275,-518.144159,1149.143247
1363.790670,-8808.450710,-2368.659014,-536.266849
1363.790990,-8882.471304,-444.123565,0.000000
1363.791311,-11251.130318,-666.185348,2145.067394
1363.791632,-10288.862594,0.000000,2145.067394
1363.791953,-9474.636058,-444.123565,612.876398
1363.792273,-9326.594869,-1702.473667,-1302.362347
1363.792594,-6587.832884,0.000000,-3907.087040
1363.792915,-10066.800811,1850.514855,-1991.848295
1363.793235,-8808.450710,2072.576638,0.000000
1363.793556,-9474.636058,1184.329507,306.438199
1363.793877,-10955.047942,-2368.659014,919.314598
1363.794197,-10066.800811,-4293.194464,0.000000
1363.794518,-10881.027347,-1480.411884,842.705048
1363.794839,-13323.706956,-518.144159,2604.724693
1363.795160,-9252.574275,2886.803174,2145.067394
1363.795480,-10658.965565,1554.432478,1072.533697
1363.795801,-7994.224174,-444.123565,-2374.896044
1363.796122,-6883.915261,592.164754,-1532.190996
1363.796442,-9992.780217,74.020594,0.000000
1363.796763,-8882.471304,0.000000,306.438199
1363.797084,-10214.842000,0.000000,1608.800546
1363.797404,-11029.068536,-2590.720797,2068.457845
1363.797725,-9770.718434,-2590.720797,1225.752797
1363.798046,-11621.233289,-888.247130,3217.601092
1363.798367,-10881.027347,-444.123565,3064.381992
1363.798687,-9400.615463,1850.514855,2681.334243
1363.799008,-9252.574275,-370.102971,1991.848295
1363.799329,-7179.997637,-1924.535449,-689.485948
1363.799649,-7920.203579,-444.123565,536.266849
1363.799970,-9104.533087,-2368.659014,1302.362347
1363.800291,-7846.182985,-888.247130,2681.334243
1363.800612,-11177.109724,-1702.473667,3447.429741
1363.800932,-9844.739029,-3478.967927,1915.238745
1363.801253,-9252.574275,296.082377,2298.286494
1363.801574,-12213.398043,370.102971,4290.134789
1363.801894,-9474.636058,1184.329507,2757.943793
1363.802215,-9844.739029,666.185348,3064.381992
1363.802536,-9474.636058,-2590.720797,76.609550
1363.802857,-6957.935855,-740.205942,-1378.971896
1363.803178,-10658.965565,148.041188,-536.266849
1363.803499,-9474.636058,1258.350101,1991.848295
1363.803819,-9548.656652,2220.617826,2298.286494
1363.804140,-11103.089130,-1258.350101,1838.629195
1363.804461,-8068.244768,-1258.350101,919.314598
1363.804782,-11103.089130,962.267725,1838.629195
1363.805103,-11991.336260,518.144159,3447.429741
1363.805423,-10732.986159,2294.638420,3753.867940
1363.805744,-11325.150913,-370.102971,2451.505594
1363.806065,-8142.265362,-1998.556043,-2068.457845
1363.806386,-8068.244768,-222.061783,-1838.629195
1363.806707,-9992.780217,-296.082377,766.095498
1363.807028,-8068.244768,740.205942,-306.438199
1363.807348,-8660.409521,1258.350101,383.047749
1363.807669,-9400.615463,-1998.556043,-1762.019645
1363.807990,-8512.368333,-296.082377,-1532.190996
1363.808311,-11917.315666,518.144159,2298.286494
1363.808632,-11695.253884,-370.102971,3064.381992
1363.808952,-9548.656652,592.164754,2528.115143
1363.809273,-10955.047942,-2960.823768,1378.971896
1363.809594,-7772.162391,-2368.659014,-612.876398
1363.809915,-9030.512492,-814.226536,0.000000
1363.810236,-8808.450710,-888.247130,1072.533697
1363.810557,-7698.141797,592.164754,-383.047749
1363.810877,-8734.430116,518.144159,-842.705048
1363.811198,-9622.677246,-1110.308913,-995.924147
1363.811519,-9918.759623,74.020594,-459.657299
1363.811840,-10140.821405,1702.473667,1302.362347
1363.812161,-9622.677246,1036.288319,1455.581446
1363.812481,-9918.759623,1480.411884,1762.019645
1363.812802,-9844.739029,-888.247130,995.924147
1363.813123,-8438.347739,0.000000,0.000000
1363.813444,-9622.677246,1406.391290,1072.533697
1363.813765,-9178.553681,962.267725,1225.752797
1363.814085,-8512.368333,1998.556043,919.314598
1363.814406,-10362.883188,-1258.350101,153.219100
1363.814727,-8068.244768,-1110.308913,0.000000
1363.815048,-10510.924376,-1184.329507,1838.629195
1363.815369,-11843.295072,-1258.350101,3064.381992
1363.815690,-11547.212695,0.000000,3370.820191
1363.816010,-11473.192101,-1184.329507,4443.353888
1363.816331,-9030.512492,-1924.535449,1608.800546
1363.816652,-9178.553681,-296.082377,-306.438199
1363.816973,-10658.965565,1406.391290,2068.457845
1363.817294,-9104.533087,814.226536,1302.362347
1363.817614,-8956.491898,888.247130,1532.190996
1363.817935,-8882.471304,-2886.803174,-76.609550
1363.818256,-8364.327145,-2664.741391,-536.266849
1363.818577,-9178.553681,-1554.432478,2681.334243
1363.818898,-11103.089130,-1332.370696,2911.162892
1363.819219,-9622.677246,0.000000,3600.648841
1363.819539,-9844.739029,-2442.679609,1608.800546
1363.819860,-8586.388927,-962.267725,383.047749
1363.820181,-9474.636058,0.000000,1532.190996
1363.820502,-9474.636058,-518.144159,2221.676944
1363.820823,-9252.574275,0.000000,1991.848295
1363.821143,-8882.471304,-1036.288319,536.266849
1363.821464,-8586.388927,-2220.617826,-1072.533697
1363.821785,-9696.697840,222.061783,766.095498
1363.822106,-10362.883188,-370.102971,2451.505594
1363.822427,-10066.800811,-1036.288319,2757.943793
1363.822748,-10066.800811,-296.082377,2068.457845
1363.823068,-9844.739029,-3256.906145,76.609550
1363.823389,-8808.450710,-444.123565,-689.485948
1363.823710,-10658.965565,1480.411884,1991.848295
1363.824031,-9104.533087,148.041188,2298.286494
1363.824352,-9770.718434,74.020594,2298.286494
1363.824672,-10214.842000,-2516.700203,842.705048
1363.824993,-9252.574275,-1184.329507,-383.047749
1363.825314,-11547.212695,-518.144159,2221.676944
1363.825635,-10955.047942,-148.041188,2911.162892
1363.825956,-9178.553681,0.000000,1225.752797
1363.826277,-9622.677246,-1850.514855,76.609550
1363.826597,-8586.388927,-1480.411884,-1532.190996
1363.826918,-9030.512492,518.144159,-689.485948
1363.827239,-11325.150913,0.000000,2068.457845
1363.827560,-9104.533087,1184.329507,229.828649
1363.827881,-10807.006753,592.164754,1532.190996
1363.828201,-9918.759623,-1480.411884,-995.924147
1363.828522,-8142.265362,1480.411884,383.047749
1363.828843,-11325.150913,-2072.576638,1532.190996
1363.829164,-8290.306550,1850.514855,689.485948
1363.829485,-11325.150913,-592.164754,1378.971896
1363.829805,-9178.553681,-3256.906145,-1455.581446
1363.830126,-7254.018232,444.123565,-2451.505594
1363.830447,-9104.533087,370.102971,-689.485948
1363.830768,-8364.327145,1776.494261,-459.657299
1363.831089,-8808.450710,3552.988522,-229.828649
1363.831410,-11177.109724,-888.247130,1455.581446
1363.831730,-10436.903782,-2220.617826,1915.238745
1363.832051,-11251.130318,-1110.308913,3677.258390
1363.832372,-11991.336260,-2294.638420,4136.915689
1363.832693,-9992.780217,74.020594,2911.162892
1363.833014,-9474.636058,444.123565,2528.115143
1363.833334,-7698.141797,-592.164754,-995.924147
1363.833655,-7105.977043,1406.391290,-153.219100
1363.833976,-9104.533087,-1776.494261,1302.362347
1363.834297,-7179.997637,-1184.329507,842.705048
1363.834618,-9622.677246,-2368.659014,459.657299
1363.834939,-9844.739029,-1924.535449,1378.971896
1363.835259,-8956.491898,592.164754,1072.533697
1363.835580,-11695.253884,2442.679609,2911.162892
1363.835901,-10658.965565,3923.091493,4290.134789
1363.836222,-11399.171507,2072.576638,4213.525239
1363.836543,-11029.068536,-2368.659014,3370.820191
1363.836863,-9548.656652,-1406.391290,1149.143247
1363.837184,-9326.594869,-222.061783,0.000000
1363.837505,-10436.903782,296.082377,1149.143247
1363.837826,-7105.977043,3256.906145,1378.971896
1363.838147,-9696.697840,-370.102971,612.876398
1363.838468,-7476.080014,-1036.288319,-1608.800546
1363.838788,-9474.636058,-370.102971,76.609550
1363.839109,-12213.398043,-370.102971,2987.772442
1363.839430,-11251.130318,296.082377,3524.039291
1363.839751,-10807.006753,148.041188,4596.572988
1363.840072,-9474.636058,-2072.576638,842.705048
1363.840392,-8882.471304,-444.123565,-842.705048
1363.840713,-10658.965565,0.000000,1072.533697
1363.841034,-9548.656652,-1110.308913,0.000000
1363.841355,-9474.636058,74.020594,536.266849
1363.841676,-9104.533087,-1998.556043,-306.438199
1363.841996,-8660.409521,-888.247130,-1225.752797
1363.842317,-9548.656652,888.247130,2221.676944
1363.842638,-11843.295072,-1036.288319,2298.286494
1363.842959,-9400.615463,-814.226536,2221.676944
1363.843280,-10510.924376,-3478.967927,1225.752797
1363.843601,-8142.265362,-3775.050304,-229.828649
1363.843921,-9770.718434,-1554.432478,995.924147
1363.844242,-10807.006753,444.123565,2681.334243
1363.844563,-8438.347739,666.185348,1302.362347
1363.844884,-9770.718434,518.144159,383.047749
1363.845205,-6883.915261,-2220.617826,-1378.971896
1363.845525,-7402.059420,0.000000,-2911.162892
1363.845846,-8882.471304,518.144159,-612.876398
1363.846167,-7476.080014,1776.494261,-1378.971896
1363.846488,-9178.553681,2220.617826,995.924147
1363.846809,-10288.862594,-1776.494261,1149.143247
1363.847130,-8512.368333,-962.267725,536.266849
1363.847450,-12361.439231,-1480.411884,2451.505594
1363.847771,-9474.636058,-222.061783,2604.724693
1363.848092,-10584.944971,1332.370696,3294.210641
1363.848413,-10584.944971,-370.102971,2604.724693
1363.848734,-8364.327145,-1332.370696,-612.876398
1363.849054,-9104.533087,1184.329507,-459.657299
1363.849375,-10066.800811,2146.597232,2911.162892
1363.849696,-8808.450710,1332.370696,689.485948
1363.850017,-10066.800811,518.144159,2604.724693
1363.850338,-10214.842000,-2146.597232,1072.533697
1363.850659,-9770.718434,-888.247130,1149.143247
1363.850979,-11399.171507,-1036.288319,2681.334243
1363.851300,-9844.739029,0.000000,2451.505594
1363.851621,-10288.862594,1036.288319,3064.381992
1363.851942,-10732.986159,-1406.391290,919.314598
1363.852263,-7105.977043,148.041188,0.000000
1363.852583,-9548.656652,0.000000,-1149.143247
1363.852904,-9030.512492,1998.556043,-229.828649
1363.853225,-10807.006753,2146.597232,1838.629195
1363.853546,-11695.253884,0.000000,1302.362347
1363.853867,-9400.615463,-1554.432478,76.609550
1363.854188,-10807.006753,-888.247130,919.314598
1363.854508,-9918.759623,-740.205942,1378.971896
1363.854829,-10807.006753,0.000000,459.657299
1363.855150,-8660.409521,1480.411884,306.438199
1363.855471,-7772.162391,-444.123565,-2681.334243
1363.855792,-7179.997637,1924.535449,-2451.505594
1363.856112,-9474.636058,2072.576638,-229.828649
1363.856433,-9548.656652,1924.535449,1532.190996
1363.856754,-10510.924376,2368.659014,842.705048
1363.857075,-10066.800811,666.185348,1302.362347
1363.857396,-9252.574275,666.185348,-536.266849
1363.857716,-10362.883188,1776.494261,1685.410096
1363.858037,-10362.883188,1480.411884,383.047749
1363.858358,-8734.430116,2960.823768,-689.485948
1363.858679,-8808.450710,2738.761985,-459.657299
1363.859000,-10214.842000,-962.267725,-1532.190996
1363.859321,-7772.162391,0.000000,-2911.162892
1363.859641,-10066.800811,740.205942,-2068.457845
1363.859962,-10066.800811,2516.700203,-1302.362347
1363.860283,-10436.903782,3627.009116,306.438199
1363.860604,-10510.924376,1406.391290,0.000000
1363.860925,-9696.697840,148.041188,-2221.676944
1363.861245,-9326.594869,962.267725,-3140.991542
1363.861566,-10436.903782,1924.535449,-1762.019645
1363.861887,-9918.759623,3478.967927,-2374.896044
1363.862208,-9030.512492,3330.926739,-1378.971896
1363.862529,-9400.615463,814.226536,-1838.629195
1363.862850,-9104.533087,444.123565,-1838.629195
1363.863170,-9548.656652,-222.061783,-1915.238745
1363.863491,-10066.800811,1036.288319,-1455.581446
1363.863812,-10066.800811,4367.215058,-306.438199
1363.864133,-10510.924376,4515.256246,-229.828649
1363.864454,-9474.636058,3997.112087,153.219100
1363.864774,-10140.821405,2960.823768,-1072.533697
1363.865095,-9548.656652,370.102971,-1608.800546
1363.865416,-9770.718434,1628.453072,-766.095498
1363.865737,-9992.780217,2664.741391,-306.438199
1363.866058,-9548.656652,2738.761985,-1455.581446
1363.866379,-8586.388927,3923.091493,-306.438199
1363.866699,-9252.574275,2590.720797,-1378.971896
1363.867020,-9030.512492,2664.741391,-2221.676944
1363.867341,-9622.677246,2368.659014,-2374.896044
1363.867662,-9992.780217,3182.885551,-2145.067394
1363.867983,-10362.883188,3775.050304,-1378.971896
1363.868303,-9992.780217,3034.844362,229.828649
1363.868624,-9992.780217,1110.308913,306.438199
1363.868945,-10436.903782,962.267725,689.485948
1363.869266,-10732.986159,-814.226536,459.657299
1363.869587,-9104.533087,-592.164754,0.000000
1363.869908,-9252.574275,888.247130,306.438199
1363.870228,-8808.450710,1184.329507,0.000000
1363.870549,-7550.100608,1554.432478,-1225.752797
1363.870870,-7476.080014,1702.473667,-1685.410096
1363.871191,-8364.327145,666.185348,-1915.238745
1363.871512,-9548.656652,-296.082377,-1685.410096
1363.871832,-10066.800811,0.000000,-1685.410096
1363.872153,-9992.780217,1850.514855,-1838.629195
1363.872474,-11103.089130,4293.194464,0.000000
1363.872795,-11991.336260,4145.153275,1378.971896
1363.873116,-9696.697840,2812.782580,306.438199
1363.873436,-11177.109724,1480.411884,-995.924147
1363.873757,-9918.759623,1332.370696,-1532.190996
1363.874078,-9622.677246,296.082377,-1378.971896
1363.874399,-8808.450710,0.000000,-612.876398
1363.874720,-7994.224174,296.082377,-2374.896044
1363.875041,-8586.388927,1702.473667,-1225.752797
1363.875361,-9326.594869,1036.288319,-995.924147
1363.875682,-9548.656652,814.226536,0.000000
1363.876003,-10510.924376,962.267725,-229.828649
1363.876324,-10732.986159,1998.556043,0.000000
1363.876645,-11177.109724,1924.535449,0.000000
1363.876965,-9696.697840,1406.391290,-1532.190996
1363.877286,-9474.636058,4219.173869,-2374.896044
1363.877607,-11177.109724,5329.482782,-1532.190996
1363.877928,-10362.883188,5625.565159,-1225.752797
1363.878249,-10955.047942,3849.070898,-1225.752797
1363.878570,-8882.471304,3034.844362,-1838.629195
1363.878890,-10066.800811,1036.288319,-1378.971896
1363.879211,-10288.862594,222.061783,919.314598
1363.879532,-9548.656652,-2220.617826,229.828649
1363.879853,-8438.347739,-1998.556043,-1762.019645
1363.880174,-8364.327145,740.205942,-1762.019645
1363.880494,-8882.471304,2886.803174,-612.876398
1363.880815,-10362.883188,3034.844362,842.705048
1363.881136,-9104.533087,2146.597232,-1149.143247
1363.881457,-9326.594869,1776.494261,-3064.381992
1363.881778,-9326.594869,2590.720797,-2374.896044
1363.882099,-9622.677246,2664.741391,-536.266849
1363.882419,-9918.759623,1406.391290,76.609550
1363.882740,-9252.574275,444.123565,-2221.676944
1363.883061,-8142.265362,888.247130,-2604.724693
1363.883382,-9474.636058,1776.494261,-2221.676944
1363.883703,-9992.780217,3034.844362,-612.876398
1363.884023,-10140.821405,3997.112087,306.438199
1363.884344,-9992.780217,3034.844362,612.876398
1363.884665,-9104.533087,888.247130,-153.219100
1363.884986,-9400.615463,-222.061783,0.000000
1363.885307,-10214.842000,-592.164754,383.047749
1363.885628,-10066.800811,-222.061783,383.047749
1363.885948,-9400.615463,1406.391290,0.000000
1363.886269,-8660.409521,888.247130,-3064.381992
1363.886590,-7698.141797,3256.906145,-4443.353888
1363.886911,-9474.636058,4145.153275,-4213.525239
1363.887232,-9548.656652,5625.565159,-2681.334243
1363.887552,-10658.965565,5181.441594,-2145.067394
1363.887873,-11177.109724,3997.112087,-1991.848295
1363.888194,-11325.150913,2442.679609,-1302.362347
1363.888515,-12065.356855,1406.391290,-383.047749
1363.888836,-11399.171507,740.205942,229.828649
1363.889156,-11029.068536,1110.308913,383.047749
1363.889477,-10066.800811,1850.514855,383.047749
1363.889798,-9474.636058,1184.329507,153.219100
1363.890119,-8882.471304,0.000000,0.000000
1363.890440,-8734.430116,-888.247130,-1455.581446
1363.890761,-7994.224174,444.123565,-2911.162892
1363.891081,-8660.409521,2146.597232,-1378.971896
1363.891402,-9400.615463,3627.009116,-2221.676944
1363.891723,-9992.780217,5255.462188,-995.924147
1363.892044,-10658.965565,5255.462188,-1072.533697
1363.892365,-10658.965565,4811.338623,-842.705048
1363.892685,-10955.047942,3775.050304,-536.266849
1363.893006,-11029.068536,2294.638420,0.000000
1363.893327,-10362.883188,1036.288319,0.000000
1363.893648,-9474.636058,222.061783,-383.047749
1363.893969,-8438.347739,0.000000,-689.485948
1363.894290,-8364.327145,-370.102971,383.047749
1363.894610,-8216.285956,-962.267725,612.876398
1363.894931,-8734.430116,-1702.473667,919.314598
1363.895252,-8586.388927,-370.102971,2068.457845
1363.895573,-8734.430116,-740.205942,-229.828649
1363.895894,-8586.388927,222.061783,-919.314598
1363.896214,-8808.450710,1924.535449,-1991.848295
1363.896535,-9474.636058,3182.885551,-2068.457845
1363.896856,-9622.677246,4367.215058,-2451.505594
1363.897177,-10214.842000,4663.297435,-2987.772442
1363.897498,-10732.986159,4145.153275,-2451.505594
1363.897819,-11177.109724,3701.029710,-1532.190996
1363.898139,-11547.212695,2812.782580,459.657299
1363.898460,-11029.068536,1554.432478,0.000000
1363.898781,-10288.862594,222.061783,842.705048
1363.899102,-9770.718434,-1628.453072,919.314598
1363.899423,-9400.615463,-2368.659014,459.657299
1363.899743,-8882.471304,-2072.576638,0.000000
1363.900064,-8512.368333,-1036.288319,-229.828649
1363.900385,-8512.368333,518.144159,-766.095498
1363.900706,-8808.450710,1332.370696,-1149.143247
1363.901027,-8734.430116,2442.679609,-1455.581446
1363.901348,-9992.780217,3256.906145,-1838.629195
1363.901668,-10362.883188,3997.112087,-1762.019645
1363.901989,-11029.068536,4293.194464,-2145.067394
1363.902310,-11843.295072,4293.194464,-229.828649
1363.902631,-11325.150913,4071.132681,-1378.971896
1363.902952,-11103.089130,3404.947333,-1149.143247
1363.903272,-10436.903782,2146.597232,-1072.533697
1363.903593,-9992.780217,962.267725,-919.314598
1363.903914,-9770.718434,-148.041188,-383.047749
1363.904235,-9400.615463,-1036.288319,-766.095498
1363.904556,-9178.553681,-740.205942,-1072.533697
1363.904876,-8660.409521,0.000000,-1455.581446
1363.905197,-8438.347739,1184.329507,-1378.971896
1363.905518,-8808.450710,2368.659014,-2221.676944
1363.905838,-9104.533087,3849.070898,-2374.896044
1363.906159,-9622.677246,4515.256246,-2451.505594
1363.906480,-9992.780217,4885.359217,-2068.457845
1363.906801,-10362.883188,4515.256246,-1762.019645
1363.907121,-10436.903782,3775.050304,-1532.190996
1363.907442,-10658.965565,2886.803174,-842.705048
1363.907763,-10214.842000,1776.494261,-612.876398
1363.908083,-9918.759623,1184.329507,306.438199
1363.908404,-9474.636058,148.041188,229.828649
1363.908725,-9400.615463,0.000000,919.314598
1363.909046,-8734.430116,0.000000,842.705048
1363.909366,-8364.327145,370.102971,1838.629195
1363.909687,-8364.327145,148.041188,0.000000
1363.910008,-8512.368333,518.144159,-229.828649
1363.910328,-8808.450710,1332.370696,-153.219100
1363.910649,-9548.656652,2294.638420,306.438199
1363.910970,-9844.739029,2886.803174,689.485948
1363.911291,-10066.800811,2664.741391,1302.362347
1363.911611,-10362.883188,1776.494261,1302.362347
1363.911932,-10436.903782,1258.350101,995.924147
1363.912253,-10288.862594,296.082377,689.485948
1363.912573,-9770.718434,-222.061783,919.314598
1363.912894,-9326.594869,-814.226536,1225.752797
1363.913215,-9474.636058,-962.267725,1149.143247
1363.913536,-9252.574275,-592.164754,1455.581446
1363.913856,-9030.512492,-666.185348,1149.143247
1363.914177,-9474.636058,0.000000,1762.019645
1363.914498,-9622.677246,592.164754,1532.190996
1363.914819,-9548.656652,1184.329507,1225.752797
1363.915139,-9992.780217,2294.638420,2221.676944
1363.915460,-9770.718434,2516.700203,383.047749
1363.915781,-10066.800811,2590.720797,0.000000
1363.916101,-10066.800811,2590.720797,229.828649
1363.916422,-9992.780217,2294.638420,-229.828649
1363.916743,-10362.883188,2442.679609,-689.485948
1363.917064,-10362.883188,2146.597232,-459.657299
1363.917384,-10288.862594,1480.411884,-459.657299
1363.917705,-10436.903782,1036.288319,0.000000
1363.918026,-10584.944971,518.144159,-689.485948
1363.918346,-10362.883188,148.041188,-1149.143247
1363.918667,-10140.821405,370.102971,-1838.629195
1363.918988,-9400.615463,814.226536,-2528.115143
1363.919309,-9622.677246,2072.576638,-3753.867940
1363.919629,-9178.553681,2220.617826,-4136.915689
1363.919950,-9030.512492,2738.761985,-4903.011187
1363.920271,-9252.574275,2960.823768,-5362.668486
1363.920591,-9918.759623,2960.823768,-5132.839837
1363.920912,-9918.759623,3182.885551,-5209.449386
1363.921233,-10584.944971,3034.844362,-5132.839837
1363.921554,-10584.944971,3108.864956,-4443.353888
1363.921874,-10584.944971,2886.803174,-4213.525239
1363.922195,-10436.903782,3108.864956,-4213.525239
1363.922516,-10362.883188,2960.823768,-3600.648841
1363.922836,-9992.780217,2590.720797,-3294.210641
1363.923157,-9474.636058,2220.617826,-3524.039291
1363.923478,-8438.347739,1480.411884,-3830.477490
1363.923799,-8808.450710,2368.659014,-3370.820191
1363.924119,-9104.533087,3034.844362,-3447.429741
1363.924440,-9178.553681,3478.967927,-2681.334243
1363.924761,-9548.656652,5329.482782,-1225.752797
1363.925081,-9400.615463,4145.153275,-2221.676944
1363.925402,-9622.677246,4441.235652,-1225.752797
1363.925723,-9770.718434,4441.235652,-919.314598
1363.926044,-9992.780217,4515.256246,0.000000
1363.926364,-10288.862594,3775.050304,995.924147
1363.926685,-10510.924376,2812.782580,2221.676944
1363.927006,-10140.821405,1184.329507,2681.334243
1363.927326,-9770.718434,74.020594,2834.553343
1363.927647,-9178.553681,-962.267725,2911.162892
1363.927968,-9252.574275,-296.082377,2528.115143
1363.928289,-8734.430116,0.000000,1762.019645
1363.928609,-8660.409521,1258.350101,1225.752797
1363.928930,-8364.327145,2072.576638,-383.047749
1363.929251,-8956.491898,3404.947333,383.047749
1363.929571,-9992.780217,3923.091493,536.266849
1363.929892,-10214.842000,3478.967927,153.219100
1363.930213,-10214.842000,3256.906145,0.000000
1363.930534,-10436.903782,3182.885551,0.000000
1363.930854,-10807.006753,3552.988522,229.828649
1363.931175,-10658.965565,3775.050304,1378.971896
1363.931496,-10362.883188,2516.700203,1608.800546
1363.931817,-10362.883188,518.144159,1685.410096
1363.932137,-9622.677246,-1776.494261,1532.190996
1363.932458,-9400.615463,-2738.761985,1072.533697
1363.932779,-9400.615463,-2072.576638,612.876398
1363.933099,-9030.512492,-1554.432478,-1149.143247
1363.933420,-8438.347739,370.102971,-1378.971896
1363.933741,-8660.409521,1480.411884,-2451.505594
1363.934062,-8882.471304,2516.700203,-3600.648841
1363.934382,-9548.656652,3108.864956,-4519.963438
1363.934703,-10288.862594,4071.132681,-4979.620737
1363.935024,-10362.883188,4515.256246,-5515.887586
1363.935344,-10658.965565,5551.544565,-5056.230287
1363.935665,-10881.027347,5773.606348,-3370.820191
1363.935986,-11547.212695,3478.967927,-2145.067394
1363.936307,-10955.047942,296.082377,-1455.581446
1363.936627,-9844.739029,-2590.720797,-1991.848295
1363.936948,-9474.636058,-3849.070898,-2451.505594
1363.937269,-8734.430116,-2590.720797,-1532.190996
1363.937589,-9178.553681,-1924.535449,-383.047749
1363.937910,-8290.306550,-888.247130,-919.314598
1363.938231,-8586.388927,-296.082377,-2528.115143
1363.938552,-8734.430116,444.123565,-3524.039291
1363.938872,-9474.636058,2294.638420,-3907.087040
1363.939193,-9918.759623,4515.256246,-3447.429741
1363.939514,-10881.027347,5699.585753,-1991.848295
1363.939834,-10658.965565,4811.338623,-2298.286494
1363.940155,-9474.636058,2072.576638,-3524.039291
1363.940476,-9844.739029,1332.370696,-3370.820191
1363.940797,-10288.862594,1628.453072,-2068.457845
1363.941117,-10732.986159,2072.576638,0.000000
1363.941438,-9622.677246,1184.329507,1378.971896
1363.941759,-8586.388927,148.041188,-306.438199
1363.942079,-8586.388927,1110.308913,383.047749
1363.942400,-9400.615463,1332.370696,2681.334243
1363.942721,-10140.821405,148.041188,4749.792088
1363.943042,-9622.677246,-740.205942,4290.134789
1363.943362,-9326.594869,-2368.659014,995.924147
1363.943683,-7402.059420,444.123565,0.000000
1363.944004,-10066.800811,3627.009116,1302.362347
1363.944324,-9548.656652,5477.523971,1838.629195
1363.944645,-9770.718434,4071.132681,-76.609550
1363.944966,-9622.677246,4663.297435,-1685.410096
1363.945287,-9844.739029,4811.338623,-1149.143247
1363.945607,-11843.295072,4737.318029,1072.533697
1363.945928,-11991.336260,2664.741391,2451.505594
1363.946249,-10436.903782,1184.329507,689.485948
1363.946569,-9400.615463,740.205942,-766.095498
1363.946890,-9400.615463,814.226536,-842.705048
1363.947211,-9622.677246,666.185348,0.000000
1363.947532,-9326.594869,1628.453072,-76.609550
1363.947852,-8512.368333,3256.906145,-1378.971896
1363.948173,-9474.636058,3627.009116,-689.485948
1363.948494,-9770.718434,1406.391290,-1149.143247
1363.948815,-9696.697840,0.000000,-1991.848295
1363.949135,-9548.656652,666.185348,-2911.162892
1363.949456,-10066.800811,2442.679609,-2757.943793
1363.949777,-10288.862594,3404.947333,-2451.505594
1363.950097,-10288.862594,3923.091493,-2987.772442
1363.950418,-10436.903782,5107.421000,-2681.334243
1363.950739,-10881.027347,5107.421000,-2451.505594
1363.951060,-10955.047942,3849.070898,-2068.457845
1363.951380,-10066.800811,1332.370696,-2681.334243
1363.951701,-8956.491898,-296.082377,-3677.258390
1363.952022,-8734.430116,-222.061783,-4213.525239
1363.952342,-8216.285956,666.185348,-2987.772442
1363.952663,-8808.450710,1628.453072,-2834.553343
1363.952984,-9030.512492,1998.556043,-2145.067394
1363.953305,-9474.636058,2738.761985,-2145.067394
1363.953625,-9696.697840,2664.741391,-1762.019645
1363.953946,-9992.780217,3182.885551,-2374.896044
1363.954267,-10362.883188,2812.782580,-1378.971896
1363.954587,-9622.677246,2516.700203,-1685.410096
1363.954908,-9770.718434,2368.659014,-1302.362347
1363.955229,-10881.027347,1554.432478,0.000000
1363.955550,-10214.842000,1628.453072,-306.438199
1363.955870,-10066.800811,1480.411884,0.000000
1363.956191,-9770.718434,1184.329507,-306.438199
1363.956512,-9622.677246,2368.659014,-459.657299
1363.956832,-9992.780217,3478.967927,306.438199
1363.957153,-8290.306550,2368.659014,1072.533697
1363.957474,-9696.697840,-518.144159,612.876398
1363.957795,-8734.430116,-1702.473667,-306.438199
1363.958115,-9178.553681,-1554.432478,-536.266849
1363.958436,-9474.636058,-148.041188,-306.438199
1363.958757,-9104.533087,2072.576638,0.000000
1363.959077,-9696.697840,3923.091493,919.314598
1363.959398,-10214.842000,3627.009116,383.047749
1363.959719,-10658.965565,2442.679609,459.657299
1363.960040,-11547.212695,444.123565,1378.971896
1363.960360,-10288.862594,518.144159,0.000000
1363.960681,-10881.027347,962.267725,306.438199
1363.961002,-10584.944971,2072.576638,2374.896044
1363.961322,-9474.636058,444.123565,1378.971896
1363.961643,-9326.594869,-1332.370696,-612.876398
1363.961964,-9548.656652,0.000000,-459.657299
1363.962285,-9474.636058,0.000000,1302.362347
1363.962605,-9622.677246,370.102971,306.438199
1363.962926,-9104.533087,1850.514855,306.438199
1363.963247,-8956.491898,1998.556043,-766.095498
1363.963567,-9474.636058,1850.514855,-1302.362347
1363.963888,-9918.759623,2220.617826,-919.314598
1363.964209,-9474.636058,2590.720797,-1149.143247
1363.964530,-10955.047942,370.102971,-1072.533697
1363.964850,-9474.636058,2812.782580,-306.438199
1363.965171,-11103.089130,296.082377,-1149.143247
1363.965492,-9474.636058,-148.041188,-153.219100
1363.965813,-8808.450710,-1628.453072,-1149.143247
1363.966133,-9770.718434,0.000000,-306.438199
1363.966454,-9400.615463,444.123565,766.095498
1363.966775,-9770.718434,-1332.370696,995.924147
1363.967095,-9474.636058,-1776.494261,1378.971896
1363.967416,-8290.306550,-2516.700203,-2068.457845
1363.967737,-9030.512492,-592.164754,-3600.648841
1363.968058,-8364.327145,3923.091493,-2834.553343
1363.968378,-8660.409521,4219.173869,-2068.457845
1363.968699,-8216.285956,3256.906145,-3294.210641
1363.969020,-8660.409521,1628.453072,-3524.039291
1363.969340,-8808.450710,0.000000,-2451.505594
1363.969661,-10288.862594,1110.308913,0.000000
1363.969982,-11991.336260,888.247130,2604.724693
1363.970303,-11769.274478,0.000000,2987.772442
1363.970623,-9326.594869,74.020594,1532.190996
1363.970944,-10732.986159,-1924.535449,2145.067394
1363.971265,-8956.491898,-2146.597232,1455.581446
1363.971585,-9474.636058,1406.391290,2374.896044
1363.971906,-11029.068536,-740.205942,2987.772442
1363.972227,-7105.977043,148.041188,229.828649
1363.972548,-9104.533087,0.000000,766.095498
1363.972868,-8586.388927,-1776.494261,1149.143247
1363.973189,-8956.491898,962.267725,689.485948
1363.973510,-10881.027347,3182.885551,3524.039291
1363.973830,-10436.903782,1776.494261,3217.601092
1363.974151,-8956.491898,2812.782580,1838.629195
1363.974472,-11547.212695,888.247130,1991.848295
1363.974793,-8438.347739,1554.432478,1072.533697
1363.975113,-9474.636058,1184.329507,2068.457845
1363.975434,-10510.924376,-1036.288319,2911.162892
1363.975755,-7402.059420,-1776.494261,1608.800546
1363.976075,-8734.430116,-3256.906145,689.485948
1363.976396,-9252.574275,-3034.844362,1762.019645
1363.976717,-7846.182985,74.020594,1532.190996
1363.977038,-10658.965565,148.041188,4213.525239
1363.977358,-10510.924376,-518.144159,3983.696590
1363.977679,-9474.636058,-74.020594,2911.162892
1363.978000,-11325.150913,-3701.029710,2834.553343
1363.978320,-8808.450710,-1184.329507,2068.457845
1363.978641,-10066.800811,0.000000,2987.772442
1363.978962,-10362.883188,-1480.411884,2068.457845
1363.979283,-7254.018232,0.000000,-2068.457845
1363.979603,-8586.388927,-888.247130,-2221.676944
1363.979924,-8438.347739,148.041188,-1915.238745
1363.980245,-9326.594869,1702.473667,995.924147
1363.980565,-11103.089130,-1702.473667,2374.896044
1363.980886,-10362.883188,-3552.988522,689.485948
1363.981207,-9770.718434,-3108.864956,995.924147
1363.981528,-10658.965565,-4145.153275,1302.362347
1363.981848,-9992.780217,-592.164754,2528.115143
1363.982169,-10436.903782,-740.205942,2681.334243
1363.982490,-9030.512492,-1998.556043,459.657299
1363.982810,-7994.224174,-1036.288319,-1149.143247
1363.983131,-8956.491898,-1036.288319,-1991.848295
1363.983452,-8734.430116,1332.370696,-919.314598
1363.983773,-10510.924376,1924.535449,689.485948
1363.984093,-9548.656652,-444.123565,0.000000
1363.984414,-8660.409521,-148.041188,-1685.410096
1363.984735,-10510.924376,-2146.597232,-1149.143247
1363.985056,-10066.800811,444.123565,153.219100
1363.985376,-12213.398043,1776.494261,2911.162892
1363.985697,-10955.047942,444.123565,2757.943793
1363.986018,-9326.594869,-222.061783,306.438199
1363.986338,-9622.677246,-1628.453072,1838.629195
1363.986659,-9474.636058,-1480.411884,-229.828649
1363.986980,-9252.574275,1406.391290,1378.971896
1363.987301,-10732.986159,0.000000,1915.238745
1363.987621,-8216.285956,222.061783,0.000000
1363.987942,-8956.491898,740.205942,-229.828649
1363.988263,-9548.656652,-666.185348,-612.876398
1363.988583,-8882.471304,1850.514855,1225.752797
1363.988904,-10140.821405,1406.391290,2145.067394
1363.989225,-10436.903782,-444.123565,1915.238745
1363.989546,-10362.883188,-666.185348,1608.800546
1363.989866,-12065.356855,-1998.556043,2528.115143
1363.990187,-10658.965565,-148.041188,3140.991542
1363.990508,-11695.253884,2738.761985,7277.907231
1363.990828,-11917.315666,370.102971,5362.668486
1363.991149,-8956.491898,-1480.411884,995.924147
1363.991470,-7476.080014,-1850.514855,-919.314598
1363.991791,-5551.544565,-814.226536,-3447.429741
1363.992111,-6809.894666,1332.370696,-153.219100
1363.992432,-8882.471304,-148.041188,1455.581446
1363.992753,-7105.977043,-888.247130,0.000000
1363.993073,-9474.636058,-1184.329507,536.266849
1363.993394,-11843.295072,-888.247130,3524.039291
1363.993715,-10881.027347,888.247130,4443.353888
1363.994036,-13027.624579,592.164754,6128.763984
1363.994356,-10066.800811,-1406.391290,2451.505594
1363.994677,-7402.059420,0.000000,-1072.533697
1363.994998,-9696.697840,-2294.638420,-306.438199
1363.995318,-7105.977043,-1258.350101,-1608.800546
1363.995639,-7994.224174,1184.329507,919.314598
1363.995960,-9252.574275,-2146.597232,536.266849
1363.996281,-6513.812290,-1776.494261,-995.924147
1363.996601,-10510.924376,-3034.844362,612.876398
1363.996922,-9844.739029,-1554.432478,919.314598
1363.997243,-10510.924376,1776.494261,2911.162892
1363.997563,-10955.047942,0.000000,2911.162892
1363.997884,-9474.636058,-2368.659014,383.047749
1363.998205,-9622.677246,-2294.638420,-919.314598
1363.998526,-9622.677246,-1924.535449,-1225.752797
1363.998846,-10140.821405,1628.453072,1455.581446
1363.999167,-10955.047942,2368.659014,1378.971896
1363.999488,-9326.594869,222.061783,-459.657299
1363.999808,-9030.512492,1258.350101,-1378.971896
1364.000129,-11103.089130,74.020594,0.000000
1364.000450,-10807.006753,-148.041188,612.876398
1364.000771,-10881.027347,1110.308913,2374.896044
1364.001091,-11473.192101,-1036.288319,842.705048
1364.001412,-9400.615463,222.061783,612.876398
1364.001733,-10066.800811,-666.185348,306.438199
1364.002054,-8882.471304,-592.164754,0.000000
1364.002374,-9992.780217,1332.370696,1378.971896
1364.002695,-10955.047942,-444.123565,1915.238745
1364.003016,-8290.306550,-2590.720797,1762.019645
1364.003336,-9474.636058,-1554.432478,536.266849
1364.003657,-10214.842000,-2590.720797,76.609550
1364.003978,-8364.327145,1702.473667,1378.971896
1364.004299,-10658.965565,1258.350101,3370.820191
1364.004619,-9770.718434,-148.041188,1149.143247
1364.004940,-8068.244768,888.247130,766.095498
1364.005261,-10140.821405,-2146.597232,919.314598
1364.005582,-7994.224174,74.020594,459.657299
1364.005902,-10288.862594,814.226536,3524.039291
1364.006223,-10066.800811,-296.082377,4213.525239
1364.006544,-8734.430116,0.000000,3447.429741
1364.006865,-10732.986159,-1258.350101,2987.772442
1364.007185,-9474.636058,-296.082377,3677.258390
1364.007506,-9104.533087,2590.720797,3370.820191
1364.007827,-10732.986159,222.061783,3217.601092
1364.008148,-6439.791695,-370.102971,153.219100
1364.008468,-6661.853478,-1036.288319,-1991.848295
1364.008789,-8364.327145,-222.061783,-1532.190996
1364.009110,-8290.306550,1406.391290,612.876398
1364.009431,-11029.068536,814.226536,4060.306139
1364.009751,-9844.739029,-814.226536,2374.896044
1364.010072,-9030.512492,-1850.514855,612.876398
1364.010393,-11547.212695,-2516.700203,1762.019645
1364.010714,-10807.006753,-740.205942,2374.896044
1364.011034,-11177.109724,222.061783,3447.429741
1364.011355,-9844.739029,-2072.576638,2757.943793
1364.011676,-7994.224174,-1184.329507,-1302.362347
1364.011997,-9178.553681,-1036.288319,-1762.019645
1364.012317,-8956.491898,-296.082377,-1302.362347
1364.012638,-9622.677246,1850.514855,1149.143247
1364.012959,-10436.903782,-592.164754,842.705048
1364.013280,-9178.553681,-592.164754,-1149.143247
1364.013600,-10584.944971,0.000000,0.000000
1364.013921,-10510.924376,-962.267725,229.828649
1364.014242,-10881.027347,2294.638420,-229.828649
1364.014563,-11991.336260,592.164754,2068.457845
1364.014883,-9030.512492,-1406.391290,-1455.581446
1364.015204,-8808.450710,-1184.329507,-1762.019645
1364.015525,-8734.430116,-1554.432478,-2528.115143
1364.015845,-8438.347739,814.226536,-1532.190996
1364.016166,-10288.862594,1924.535449,1762.019645
1364.016487,-11325.150913,-1036.288319,2221.676944
1364.016808,-8808.450710,-1110.308913,1838.629195
1364.017128,-11991.336260,-4293.194464,1838.629195
1364.017449,-10436.903782,-3256.906145,1378.971896
1364.017770,-9844.739029,222.061783,2528.115143
1364.018091,-11251.130318,-1924.535449,2374.896044
1364.018411,-6365.771101,0.000000,1762.019645
1364.018732,-9178.553681,-1998.556043,-536.266849
1364.019053,-7772.162391,-2294.638420,-1608.800546
1364.019374,-8808.450710,1332.370696,842.705048
1364.019694,-10658.965565,1036.288319,3677.258390
1364.020015,-8882.471304,-444.123565,2221.676944
1364.020336,-9918.759623,-814.226536,766.095498
1364.020657,-9474.636058,0.000000,1838.629195
1364.020977,-9400.615463,666.185348,2374.896044
1364.021298,-10807.006753,148.041188,3600.648841
1364.021619,-9104.533087,-444.123565,2604.724693
1364.021940,-8882.471304,444.123565,1455.581446
1364.022260,-8660.409521,-518.144159,689.485948
1364.022581,-7772.162391,1776.494261,-306.438199
1364.022902,-10436.903782,2886.803174,3677.258390
1364.023223,-10510.924376,444.123565,2987.772442
1364.023543,-9178.553681,1184.329507,1302.362347
1364.023864,-11177.109724,74.020594,2681.334243
1364.024185,-8808.450710,-518.144159,1378.971896
1364.024506,-9918.759623,2072.576638,2374.896044
1364.024826,-11325.150913,370.102971,3370.820191
1364.025147,-8216.285956,0.000000,153.219100
1364.025468,-9474.636058,-296.082377,766.095498
1364.025789,-9696.697840,-444.123565,153.219100
1364.026109,-8364.327145,1776.494261,1455.581446
1364.026430,-11399.171507,222.061783,2757.943793
1364.026751,-9326.594869,-1480.411884,1072.533697
1364.027072,-8660.409521,-1480.411884,-766.095498
1364.027392,-10881.027347,-2960.823768,612.876398
1364.027713,-9992.780217,-888.247130,1225.752797
1364.028034,-11843.295072,444.123565,3600.648841
1364.028355,-11547.212695,-1554.432478,2681.334243
1364.028675,-8586.388927,-222.061783,536.266849
1364.028996,-9918.759623,-3108.864956,-1532.190996
1364.029317,-7328.038826,-1036.288319,-1915.238745
1364.029638,-9474.636058,2146.597232,-766.095498
