#time,accel_x,accel_y,accel_z
722.568431,-9548.656652,-1702.473667,-459.657299
722.568752,-9548.656652,-1628.453072,0.000000
722.569073,-9844.739029,-1924.535449,-459.657299
722.569394,-9696.697840,-1184.329507,-306.438199
722.569714,-9770.718434,-1406.391290,0.000000
722.570035,-9844.739029,-1110.308913,0.000000
722.570356,-9548.656652,-1332.370696,306.438199
722.570677,-9844.739029,-666.185348,-306.438199
722.570998,-9918.759623,-1036.288319,689.485948
722.571319,-9474.636058,-666.185348,995.924147
722.571640,-9770.718434,-370.102971,995.924147
722.571961,-9696.697840,-148.041188,1378.971896
722.572282,-9918.759623,-148.041188,1608.800546
722.572603,-9918.759623,-370.102971,842.705048
722.572924,-9696.697840,0.000000,766.095498
722.573245,-9400.615463,0.000000,383.047749
722.573566,-9178.553681,592.164754,1149.143247
722.573887,-10066.800811,518.144159,919.314598
722.574208,-9844.739029,148.041188,1149.143247
722.574529,-9770.718434,-518.144159,919.314598
722.574850,-10658.965565,-666.185348,1455.581446
722.575171,-9622.677246,-962.267725,995.924147
722.575492,-9918.759623,-888.247130,1608.800546
722.575813,-9474.636058,-666.185348,1838.629195
722.576134,-9326.594869,-1036.288319,1838.629195
722.576455,-9104.533087,-1924.535449,1302.362347
722.576776,-8956.491898,-1924.535449,1072.533697
722.577096,-9252.574275,-1406.391290,1072.533697
722.577417,-9030.512492,-814.226536,919.314598
722.577738,-8586.388927,-1110.308913,153.219100
722.578059,-9326.594869,-740.205942,766.095498
722.578380,-9400.615463,-1110.308913,76.609550
722.578701,-9548.656652,-740.205942,612.876398
722.579022,-9696.697840,-1110.308913,1072.533697
722.579343,-9474.636058,-370.102971,995.924147
722.579664,-9770.718434,-444.123565,919.314598
722.579985,-9548.656652,-444.123565,919.314598
722.580306,-9326.594869,-666.185348,919.314598
722.580627,-9474.636058,-1702.473667,76.609550
722.580948,-9474.636058,-888.247130,459.657299
722.581269,-9326.594869,-962.267725,459.657299
722.581590,-9400.615463,-962.267725,459.657299
722.581911,-9326.594869,-962.267725,-229.828649
722.582232,-9326.594869,-888.247130,229.828649
722.582553,-9548.656652,-888.247130,536.266849
722.582874,-9548.656652,-1110.308913,306.438199
722.583195,-9548.656652,-1406.391290,0.000000
722.583516,-9622.677246,-1332.370696,0.000000
722.583837,-9622.677246,-1480.411884,76.609550
722.584158,-9770.718434,-1406.391290,0.000000
722.584478,-9844.739029,-1628.453072,229.828649
722.584799,-9030.512492,-1110.308913,76.609550
722.585120,-9622.677246,-1554.432478,766.095498
722.585441,-9696.697840,-1480.411884,536.266849
722.585762,-9548.656652,-1406.391290,536.266849
722.586083,-9696.697840,-888.247130,459.657299
722.586404,-9696.697840,-666.185348,153.219100
722.586725,-9474.636058,-888.247130,306.438199
722.587046,-9622.677246,-1036.288319,383.047749
722.587367,-9474.636058,-592.164754,229.828649
722.587688,-9770.718434,-592.164754,919.314598
722.588009,-9696.697840,-962.267725,536.266849
722.588330,-9548.656652,-370.102971,536.266849
722.588651,-9844.739029,-592.164754,612.876398
722.588972,-9622.677246,-740.205942,842.705048
722.589293,-9844.739029,-888.247130,919.314598
722.589614,-9548.656652,-518.144159,995.924147
722.589935,-9548.656652,-518.144159,995.924147
722.590256,-9474.636058,-222.061783,1149.143247
722.590577,-9474.636058,-222.061783,1072.533697
722.590898,-9474.636058,222.061783,689.485948
722.591219,-9326.594869,0.000000,1302.362347
722.591540,-9326.594869,0.000000,1072.533697
722.591861,-9770.718434,0.000000,1225.752797
722.592182,-9622.677246,74.020594,1302.362347
722.592503,-10140.821405,0.000000,1455.581446
722.592824,-9474.636058,0.000000,1608.800546
722.593145,-9918.759623,-74.020594,1685.410096
722.593466,-9548.656652,-222.061783,1302.362347
722.593787,-9622.677246,-148.041188,1378.971896
722.594108,-9474.636058,0.000000,1072.533697
722.594429,-9696.697840,0.000000,1072.533697
722.594750,-9104.533087,0.000000,1225.752797
722.595071,-9844.739029,148.041188,1225.752797
722.595392,-9474.636058,370.102971,1072.533697
722.595713,-9844.739029,296.082377,1225.752797
722.596034,-10510.924376,814.226536,842.705048
722.596355,-9770.718434,370.102971,1762.019645
722.596676,-9770.718434,148.041188,1455.581446
722.596997,-9474.636058,0.000000,1072.533697
722.597318,-9474.636058,0.000000,1225.752797
722.597639,-9474.636058,0.000000,1378.971896
722.597960,-9696.697840,0.000000,1378.971896
722.598281,-9474.636058,0.000000,1378.971896
722.598602,-9548.656652,0.000000,1072.533697
722.598923,-9770.718434,370.102971,1608.800546
722.599244,-9770.718434,0.000000,1302.362347
722.599565,-9696.697840,74.020594,1072.533697
722.599886,-9622.677246,74.020594,1072.533697
722.600207,-9548.656652,148.041188,1455.581446
722.600528,-9622.677246,0.000000,1455.581446
722.600849,-9400.615463,-148.041188,1225.752797
722.601170,-9548.656652,148.041188,1302.362347
722.601491,-9474.636058,222.061783,1378.971896
722.601812,-9252.574275,-814.226536,1455.581446
722.602133,-9400.615463,0.000000,1072.533697
722.602454,-9622.677246,-148.041188,1302.362347
722.602775,-9474.636058,0.000000,1302.362347
722.603096,-9696.697840,-74.020594,1225.752797
722.603417,-9400.615463,-222.061783,919.314598
722.603738,-9622.677246,0.000000,1378.971896
722.604059,-9474.636058,-148.041188,1378.971896
722.604380,-9770.718434,-222.061783,1225.752797
722.604701,-9992.780217,-296.082377,995.924147
722.605022,-9548.656652,-370.102971,919.314598
722.605343,-9622.677246,-222.061783,1149.143247
722.605664,-9474.636058,-74.020594,1225.752797
722.605985,-9474.636058,-592.164754,1149.143247
722.606306,-9622.677246,0.000000,1072.533697
722.606627,-9400.615463,-518.144159,842.705048
722.606948,-9400.615463,-444.123565,536.266849
722.607269,-9548.656652,-666.185348,995.924147
722.607590,-9104.533087,-666.185348,1532.190996
722.607911,-9844.739029,-666.185348,842.705048
722.608232,-9770.718434,-666.185348,1149.143247
722.608553,-9992.780217,-666.185348,1072.533697
722.608874,-9326.594869,0.000000,1225.752797
722.609195,-9770.718434,-444.123565,1378.971896
722.609516,-9400.615463,-518.144159,1378.971896
722.609837,-9622.677246,-518.144159,842.705048
722.610158,-9622.677246,-518.144159,919.314598
722.610479,-9030.512492,-148.041188,1685.410096
722.610800,-9474.636058,-296.082377,1072.533697
722.611121,-9770.718434,-296.082377,919.314598
722.611442,-9548.656652,-296.082377,1302.362347
722.611763,-9770.718434,-444.123565,995.924147
722.612084,-10214.842000,222.061783,1608.800546
722.612405,-9844.739029,-222.061783,1532.190996
722.612726,-9770.718434,-666.185348,1225.752797
722.613047,-9918.759623,-518.144159,919.314598
722.613368,-9622.677246,-370.102971,842.705048
722.613689,-9474.636058,-888.247130,1225.752797
722.614010,-9622.677246,-444.123565,995.924147
722.614331,-9474.636058,-666.185348,383.047749
722.614652,-9622.677246,-592.164754,919.314598
722.614973,-9548.656652,-666.185348,1072.533697
722.615294,-9474.636058,-296.082377,1225.752797
722.615615,-9548.656652,-518.144159,995.924147
722.615936,-9696.697840,-666.185348,1149.143247
722.616257,-9474.636058,-740.205942,919.314598
722.616578,-9548.656652,-444.123565,1685.410096
722.616899,-9474.636058,-444.123565,1378.971896
722.617220,-9548.656652,-518.144159,842.705048
722.617541,-9696.697840,-518.144159,919.314598
722.617862,-9548.656652,-666.185348,919.314598
722.618183,-9474.636058,-444.123565,1149.143247
722.618504,-9622.677246,-592.164754,536.266849
722.618825,-9548.656652,-518.144159,1149.143247
722.619146,-9474.636058,-444.123565,1072.533697
722.619467,-9548.656652,0.000000,1532.190996
722.619788,-9474.636058,-296.082377,689.485948
722.620109,-9622.677246,-148.041188,1685.410096
722.620430,-9770.718434,-296.082377,1685.410096
722.620751,-9770.718434,0.000000,1608.800546
722.621072,-9696.697840,-370.102971,1532.190996
722.621393,-8882.471304,-740.205942,3677.258390
722.621714,-9622.677246,-222.061783,1378.971896
722.622035,-9474.636058,0.000000,1225.752797
722.622356,-9474.636058,0.000000,919.314598
722.622677,-9548.656652,-148.041188,1072.533697
722.622998,-9992.780217,-222.061783,766.095498
722.623319,-9770.718434,0.000000,919.314598
722.623640,-9474.636058,-222.061783,1072.533697
722.623961,-9622.677246,0.000000,995.924147
722.624282,-9548.656652,0.000000,1455.581446
722.624603,-9770.718434,74.020594,2757.943793
722.624924,-9622.677246,-296.082377,1225.752797
722.625245,-9696.697840,0.000000,1149.143247
722.625566,-9770.718434,-370.102971,919.314598
722.625887,-9622.677246,-148.041188,995.924147
722.626208,-9474.636058,0.000000,612.876398
722.626529,-9400.615463,-370.102971,459.657299
722.626850,-9474.636058,-370.102971,459.657299
722.627171,-9474.636058,-518.144159,766.095498
722.627492,-9548.656652,-370.102971,612.876398
722.627813,-9104.533087,-518.144159,919.314598
722.628134,-9770.718434,-296.082377,919.314598
722.628455,-9548.656652,-444.123565,919.314598
722.628776,-9770.718434,-370.102971,766.095498
722.629097,-9622.677246,-592.164754,842.705048
722.629418,-9326.594869,-666.185348,1225.752797
722.629739,-9474.636058,-740.205942,919.314598
722.630060,-9474.636058,-592.164754,919.314598
722.630381,-9474.636058,-444.123565,1225.752797
722.630702,-9474.636058,-444.123565,919.314598
722.631023,-9474.636058,-518.144159,1072.533697
722.631344,-9622.677246,-518.144159,995.924147
722.631665,-9696.697840,-370.102971,1225.752797
722.631986,-9622.677246,-518.144159,1302.362347
722.632307,-9400.615463,0.000000,1302.362347
722.632628,-9548.656652,-444.123565,1225.752797
722.632949,-9548.656652,-592.164754,995.924147
722.633270,-9474.636058,-814.226536,919.314598
722.633591,-9770.718434,-962.267725,1149.143247
722.633912,-9992.780217,-962.267725,995.924147
722.634233,-9474.636058,-518.144159,919.314598
722.634554,-9548.656652,-370.102971,1302.362347
722.634875,-9622.677246,-518.144159,1608.800546
722.635196,-9548.656652,-592.164754,1225.752797
722.635517,-9696.697840,222.061783,689.485948
722.635838,-9400.615463,-592.164754,1225.752797
722.636159,-9844.739029,-444.123565,995.924147
722.636480,-9548.656652,-666.185348,1455.581446
722.636801,-9844.739029,-148.041188,1149.143247
722.637122,-9474.636058,-222.061783,2757.943793
722.637443,-9696.697840,-370.102971,1455.581446
722.637764,-9844.739029,-518.144159,1455.581446
722.638085,-9622.677246,-888.247130,1302.362347
722.638406,-9474.636058,-444.123565,1072.533697
722.638728,-9622.677246,444.123565,229.828649
722.639049,-9622.677246,-370.102971,919.314598
722.639370,-9548.656652,-148.041188,1149.143247
722.639691,-9622.677246,-74.020594,1072.533697
722.640012,-9474.636058,-222.061783,1149.143247
722.640333,-9844.739029,-222.061783,1225.752797
722.640654,-9622.677246,0.000000,1532.190996
722.640975,-9696.697840,-74.020594,1149.143247
722.641296,-9770.718434,74.020594,1455.581446
722.641617,-9770.718434,0.000000,1302.362347
722.641938,-9178.553681,0.000000,306.438199
722.642259,-9696.697840,-296.082377,1149.143247
722.642580,-9548.656652,0.000000,842.705048
722.642901,-9474.636058,0.000000,766.095498
722.643222,-9400.615463,0.000000,766.095498
722.643543,-9474.636058,-74.020594,1225.752797
722.643864,-9474.636058,-148.041188,766.095498
722.644185,-9548.656652,74.020594,842.705048
722.644506,-9622.677246,0.000000,919.314598
722.644827,-9770.718434,0.000000,1072.533697
722.645148,-10140.821405,0.000000,1532.190996
722.645469,-9548.656652,-148.041188,612.876398
722.645790,-9622.677246,-148.041188,689.485948
722.646111,-9770.718434,0.000000,766.095498
722.646432,-9622.677246,-296.082377,612.876398
722.646753,-9548.656652,-296.082377,459.657299
722.647074,-9474.636058,-148.041188,842.705048
722.647395,-9474.636058,-370.102971,842.705048
722.647716,-9474.636058,-222.061783,1225.752797
722.648037,-9474.636058,-518.144159,153.219100
722.648358,-9474.636058,-74.020594,612.876398
722.648679,-9474.636058,-592.164754,1072.533697
722.649000,-9548.656652,-444.123565,766.095498
722.649321,-9474.636058,-518.144159,1072.533697
722.649642,-10214.842000,0.000000,1455.581446
722.649963,-9622.677246,-370.102971,1149.143247
722.650284,-9622.677246,-74.020594,842.705048
722.650605,-9548.656652,-592.164754,1149.143247
722.650926,-9548.656652,-592.164754,766.095498
722.651247,-9474.636058,-740.205942,459.657299
722.651568,-9474.636058,-592.164754,919.314598
722.651889,-9622.677246,-370.102971,995.924147
722.652210,-9548.656652,-444.123565,1149.143247
722.652531,-9622.677246,-444.123565,766.095498
722.652852,-9400.615463,-222.061783,0.000000
722.653173,-9844.739029,-518.144159,766.095498
722.653494,-9622.677246,-592.164754,1072.533697
722.653815,-9474.636058,-592.164754,919.314598
722.654136,-9548.656652,-592.164754,1072.533697
722.654457,-8734.430116,-1110.308913,1378.971896
722.654778,-9548.656652,-666.185348,919.314598
722.655099,-9548.656652,-814.226536,1072.533697
722.655420,-9770.718434,-592.164754,1455.581446
722.655741,-9770.718434,-370.102971,1149.143247
722.656062,-9844.739029,0.000000,766.095498
722.656383,-9548.656652,-666.185348,1149.143247
722.656704,-9548.656652,-518.144159,1455.581446
722.657025,-9548.656652,-222.061783,1149.143247
722.657346,-9696.697840,-148.041188,1915.238745
722.657667,-9548.656652,74.020594,1149.143247
722.657988,-9622.677246,0.000000,1838.629195
722.658309,-9400.615463,0.000000,1532.190996
722.658630,-9474.636058,-370.102971,1225.752797
722.658951,-9622.677246,-296.082377,1149.143247
722.659272,-9992.780217,0.000000,1455.581446
722.659593,-9474.636058,-222.061783,1532.190996
722.659914,-9622.677246,74.020594,1302.362347
722.660235,-9622.677246,-148.041188,1072.533697
722.660556,-9696.697840,-222.061783,1762.019645
722.660877,-9474.636058,-296.082377,1149.143247
722.661198,-9622.677246,0.000000,1149.143247
722.661519,-9622.677246,0.000000,1455.581446
722.661840,-9548.656652,0.000000,1225.752797
722.662161,-9400.615463,-148.041188,842.705048
722.662482,-9326.594869,-370.102971,612.876398
722.662803,-9474.636058,0.000000,919.314598
722.663124,-9474.636058,-148.041188,459.657299
722.663445,-9474.636058,0.000000,766.095498
722.663766,-9474.636058,74.020594,1072.533697
722.664087,-9474.636058,-370.102971,1532.190996
722.664408,-9474.636058,0.000000,919.314598
722.664729,-9622.677246,-296.082377,919.314598
722.665050,-9696.697840,0.000000,766.095498
722.665371,-9474.636058,-296.082377,689.485948
722.665692,-9474.636058,-296.082377,1302.362347
722.666013,-9474.636058,-222.061783,919.314598
722.666334,-9622.677246,-444.123565,766.095498
722.666655,-9696.697840,-296.082377,995.924147
722.666976,-9474.636058,-148.041188,1685.410096
722.667297,-9770.718434,-296.082377,766.095498
722.667618,-9474.636058,-370.102971,1072.533697
722.667939,-9696.697840,0.000000,1455.581446
722.668260,-9622.677246,-222.061783,1532.190996
722.668581,-9622.677246,-74.020594,612.876398
722.668902,-9622.677246,-444.123565,1378.971896
722.669223,-9696.697840,-296.082377,1302.362347
722.669544,-9622.677246,-296.082377,1302.362347
722.669865,-9548.656652,-444.123565,1149.143247
722.670186,-9474.636058,-888.247130,1225.752797
722.670507,-9474.636058,-814.226536,1532.190996
722.670828,-9548.656652,-518.144159,1378.971896
722.671149,-9622.677246,-518.144159,1608.800546
722.671470,-9548.656652,-518.144159,1225.752797
722.671791,-9622.677246,-370.102971,1532.190996
722.672112,-9622.677246,-296.082377,995.924147
722.672433,-9474.636058,-296.082377,1455.581446
722.672754,-9622.677246,-296.082377,1455.581446
722.673075,-9474.636058,-518.144159,1149.143247
722.673396,-9474.636058,-666.185348,1685.410096
722.673717,-9548.656652,-518.144159,1838.629195
722.674038,-9770.718434,-592.164754,1072.533697
722.674359,-9548.656652,-518.144159,1072.533697
722.674680,-9548.656652,-518.144159,1225.752797
722.675001,-9548.656652,-592.164754,1532.190996
722.675322,-9400.615463,0.000000,995.924147
722.675643,-9696.697840,-518.144159,1072.533697
722.675964,-9622.677246,-222.061783,995.924147
722.676285,-9622.677246,-296.082377,1149.143247
722.676606,-9474.636058,0.000000,995.924147
722.676927,-9696.697840,0.000000,919.314598
722.677248,-9622.677246,-74.020594,1149.143247
722.677569,-9622.677246,-518.144159,919.314598
722.677890,-9474.636058,-370.102971,689.485948
722.678211,-8512.368333,-592.164754,306.438199
722.678532,-9400.615463,-518.144159,919.314598
722.678853,-9474.636058,-370.102971,766.095498
722.679174,-9474.636058,-518.144159,536.266849
722.679495,-9696.697840,-148.041188,766.095498
722.679816,-9696.697840,0.000000,3294.210641
722.680137,-9400.615463,-296.082377,459.657299
722.680458,-9770.718434,-518.144159,612.876398
722.680779,-9474.636058,-296.082377,919.314598
722.681100,-9548.656652,-518.144159,766.095498
722.681421,-10436.903782,444.123565,306.438199
722.681742,-9474.636058,-222.061783,383.047749
722.682063,-9770.718434,-148.041188,612.876398
722.682384,-9548.656652,-370.102971,919.314598
722.682705,-9622.677246,-370.102971,766.095498
722.683026,-9474.636058,-370.102971,2911.162892
722.683347,-9474.636058,-370.102971,689.485948
722.683668,-9622.677246,-296.082377,766.095498
722.683989,-9474.636058,-222.061783,919.314598
722.684310,-9770.718434,-296.082377,919.314598
722.684631,-9104.533087,-444.123565,1302.362347
722.684952,-9474.636058,-592.164754,842.705048
722.685273,-9622.677246,-296.082377,919.314598
722.685594,-9844.739029,-518.144159,1149.143247
722.685915,-9474.636058,-370.102971,842.705048
722.686236,-9918.759623,222.061783,689.485948
722.686557,-9474.636058,-518.144159,1225.752797
722.686878,-9548.656652,-370.102971,1072.533697
722.687199,-9696.697840,-740.205942,1072.533697
722.687520,-9474.636058,-370.102971,1149.143247
722.687841,-9252.574275,-1258.350101,842.705048
722.688162,-9622.677246,-370.102971,919.314598
722.688483,-9622.677246,-592.164754,842.705048
722.688804,-9622.677246,-370.102971,1225.752797
722.689125,-9474.636058,-518.144159,995.924147
722.689447,-9326.594869,-740.205942,1915.238745
722.689768,-9474.636058,-296.082377,1225.752797
722.690089,-9548.656652,-296.082377,1225.752797
722.690410,-9548.656652,-592.164754,1455.581446
722.690731,-9770.718434,-296.082377,919.314598
722.691052,-9474.636058,0.000000,1838.629195
722.691373,-9622.677246,-370.102971,1149.143247
722.691694,-9696.697840,-148.041188,1072.533697
722.692015,-9770.718434,-296.082377,1072.533697
722.692336,-9770.718434,888.247130,1762.019645
722.692657,-9844.739029,-222.061783,919.314598
722.692978,-9548.656652,0.000000,919.314598
722.693299,-9548.656652,-148.041188,1149.143247
722.693620,-9548.656652,0.000000,919.314598
722.693941,-9548.656652,0.000000,1072.533697
722.694262,-9548.656652,-370.102971,1608.800546
722.694583,-9474.636058,-296.082377,1225.752797
722.694904,-9696.697840,-370.102971,1072.533697
722.695225,-9622.677246,0.000000,1532.190996
722.695546,-9474.636058,-148.041188,1225.752797
722.695867,-9104.533087,0.000000,153.219100
722.696188,-9696.697840,-74.020594,766.095498
722.696509,-9696.697840,0.000000,1149.143247
722.696830,-9474.636058,-222.061783,842.705048
722.697151,-9474.636058,-148.041188,919.314598
722.697472,-9400.615463,-888.247130,1149.143247
722.697792,-9622.677246,-296.082377,919.314598
722.698113,-9548.656652,-370.102971,919.314598
722.698434,-9400.615463,-370.102971,766.095498
722.698755,-9622.677246,-296.082377,842.705048
722.699076,-9918.759623,-370.102971,1225.752797
722.699397,-9622.677246,-370.102971,919.314598
722.699718,-9622.677246,-148.041188,995.924147
722.700039,-9622.677246,-296.082377,1149.143247
722.700359,-9474.636058,-296.082377,995.924147
722.700680,-9474.636058,-814.226536,536.266849
722.701001,-9622.677246,-518.144159,766.095498
722.701322,-9696.697840,-444.123565,995.924147
722.701643,-9474.636058,-518.144159,919.314598
722.701964,-9400.615463,-296.082377,919.314598
722.702285,-9548.656652,148.041188,1455.581446
722.702606,-9622.677246,-370.102971,1455.581446
722.702926,-9770.718434,-148.041188,1225.752797
722.703247,-9622.677246,-370.102971,1225.752797
722.703568,-9622.677246,-296.082377,919.314598
722.703889,-9770.718434,0.000000,1991.848295
722.704210,-9400.615463,-518.144159,919.314598
722.704531,-9696.697840,-444.123565,1302.362347
722.704852,-9622.677246,-296.082377,1225.752797
722.705173,-9474.636058,-518.144159,1455.581446
722.705493,-9474.636058,-370.102971,1378.971896
722.705814,-9474.636058,-592.164754,1762.019645
722.706135,-9548.656652,-296.082377,1302.362347
722.706456,-9696.697840,-222.061783,1225.752797
722.706777,-9400.615463,-296.082377,1149.143247
722.707098,-9622.677246,-222.061783,1225.752797
722.707419,-10066.800811,0.000000,1455.581446
722.707740,-9770.718434,-296.082377,1302.362347
722.708060,-9548.656652,0.000000,1302.362347
722.708381,-9696.697840,-296.082377,1378.971896
722.708702,-9770.718434,-296.082377,1149.143247
722.709023,-9474.636058,-148.041188,2298.286494
722.709344,-9696.697840,0.000000,1532.190996
722.709665,-9548.656652,-370.102971,1302.362347
722.709986,-9548.656652,-296.082377,1685.410096
722.710307,-9400.615463,-222.061783,995.924147
722.710627,-9474.636058,0.000000,1225.752797
722.710948,-9696.697840,-148.041188,1149.143247
722.711269,-9548.656652,0.000000,1225.752797
722.711590,-9474.636058,-296.082377,1302.362347
722.711911,-9622.677246,-74.020594,919.314598
722.712232,-9548.656652,0.000000,2374.896044
722.712553,-9770.718434,-148.041188,842.705048
722.712874,-9622.677246,-370.102971,1685.410096
722.713194,-9622.677246,-148.041188,919.314598
722.713515,-9622.677246,0.000000,995.924147
722.713836,-9622.677246,0.000000,919.314598
722.714157,-9474.636058,0.000000,1072.533697
722.714478,-9474.636058,-296.082377,1072.533697
722.714799,-9474.636058,-296.082377,842.705048
722.715120,-9474.636058,-444.123565,919.314598
722.715441,-9474.636058,-222.061783,1149.143247
722.715761,-9474.636058,0.000000,1225.752797
722.716082,-9548.656652,-370.102971,766.095498
722.716403,-9400.615463,-296.082377,766.095498
722.716724,-9548.656652,-518.144159,1072.533697
722.717045,-9622.677246,-296.082377,1455.581446
722.717366,-9844.739029,-148.041188,919.314598
722.717687,-9548.656652,-296.082377,766.095498
722.718008,-9474.636058,-592.164754,766.095498
722.718328,-9474.636058,-518.144159,842.705048
722.718649,-9622.677246,-444.123565,1532.190996
722.718970,-9474.636058,-592.164754,919.314598
722.719291,-9622.677246,-444.123565,612.876398
722.719612,-9548.656652,-592.164754,612.876398
722.719933,-9622.677246,-592.164754,995.924147
722.720254,-8734.430116,-888.247130,229.828649
722.720575,-9622.677246,-444.123565,1072.533697
722.720895,-9474.636058,-740.205942,689.485948
722.721216,-9474.636058,-592.164754,766.095498
722.721537,-9622.677246,-592.164754,689.485948
722.721858,-9770.718434,-74.020594,842.705048
722.722179,-9474.636058,-888.247130,689.485948
722.722500,-9696.697840,-814.226536,536.266849
722.722821,-9622.677246,-740.205942,766.095498
722.723142,-9696.697840,-814.226536,689.485948
722.723462,-9474.636058,-592.164754,1072.533697
722.723783,-9622.677246,-740.205942,689.485948
722.724104,-9696.697840,-444.123565,1072.533697
722.724425,-9844.739029,-592.164754,1149.143247
722.724746,-9474.636058,0.000000,1378.971896
722.725067,-9696.697840,-888.247130,1455.581446
722.725388,-9474.636058,-370.102971,995.924147
722.725709,-9474.636058,-592.164754,1378.971896
722.726029,-9474.636058,-444.123565,1302.362347
722.726350,-9770.718434,0.000000,1838.629195
722.726671,-9696.697840,-370.102971,1225.752797
722.726992,-9474.636058,-592.164754,1455.581446
722.727313,-9622.677246,-370.102971,1072.533697
722.727634,-9252.574275,-444.123565,1225.752797
722.727955,-9474.636058,-296.082377,1378.971896
722.728276,-9474.636058,0.000000,1072.533697
722.728597,-9548.656652,-296.082377,995.924147
722.728917,-9696.697840,0.000000,1532.190996
722.729238,-9474.636058,740.205942,2528.115143
722.729559,-9696.697840,-222.061783,1532.190996
722.729880,-9844.739029,-148.041188,1149.143247
722.730201,-9696.697840,0.000000,1302.362347
722.730522,-9474.636058,0.000000,1378.971896
722.730843,-9548.656652,-296.082377,1838.629195
722.731164,-9474.636058,0.000000,1072.533697
722.731484,-9474.636058,0.000000,919.314598
722.731805,-9400.615463,0.000000,1072.533697
722.732126,-9326.594869,222.061783,383.047749
722.732447,-9548.656652,-296.082377,1149.143247
722.732768,-9474.636058,-148.041188,919.314598
722.733089,-9548.656652,0.000000,689.485948
722.733410,-9548.656652,-148.041188,842.705048
722.733731,-9844.739029,-296.082377,1991.848295
722.734051,-9400.615463,-296.082377,536.266849
722.734372,-9474.636058,-148.041188,689.485948
722.734693,-9326.594869,-148.041188,536.266849
722.735014,-9622.677246,-148.041188,919.314598
722.735335,-9326.594869,-222.061783,919.314598
722.735656,-9474.636058,0.000000,919.314598
722.735977,-9474.636058,-74.020594,766.095498
722.736298,-9474.636058,-296.082377,842.705048
722.736618,-9326.594869,222.061783,536.266849
722.736939,-9400.615463,-518.144159,919.314598
722.737260,-9548.656652,-296.082377,766.095498
722.737581,-9622.677246,-74.020594,995.924147
722.737902,-9622.677246,-444.123565,842.705048
722.738223,-9474.636058,74.020594,1608.800546
722.738544,-9844.739029,0.000000,1455.581446
722.738865,-9696.697840,-222.061783,1149.143247
722.739185,-9622.677246,-518.144159,919.314598
722.739506,-9770.718434,-148.041188,1378.971896
722.739827,-9474.636058,-222.061783,1532.190996
722.740148,-9696.697840,-296.082377,1225.752797
722.740469,-9696.697840,-370.102971,1302.362347
722.740790,-9474.636058,-370.102971,1225.752797
722.741111,-9770.718434,-148.041188,2145.067394
722.741432,-9548.656652,-444.123565,1762.019645
722.741752,-9696.697840,-666.185348,1225.752797
722.742073,-9622.677246,-518.144159,1455.581446
722.742394,-9770.718434,-592.164754,1378.971896
722.742715,-9252.574275,0.000000,1685.410096
722.743036,-9844.739029,-592.164754,1685.410096
722.743357,-9622.677246,-296.082377,1302.362347
722.743678,-9622.677246,-370.102971,1302.362347
722.743999,-9622.677246,-592.164754,1225.752797
722.744319,-9622.677246,-592.164754,1685.410096
722.744640,-9622.677246,-444.123565,1532.190996
722.744961,-9548.656652,-740.205942,1149.143247
722.745282,-9400.615463,-444.123565,1149.143247
722.745603,-9918.759623,-74.020594,3217.601092
722.745924,-9474.636058,-518.144159,1455.581446
722.746245,-9548.656652,-74.020594,919.314598
722.746566,-9548.656652,-370.102971,1072.533697
722.746886,-9548.656652,0.000000,1225.752797
722.747207,-9474.636058,74.020594,153.219100
722.747528,-9622.677246,-148.041188,1072.533697
722.747849,-9474.636058,-296.082377,1072.533697
722.748170,-9474.636058,0.000000,1149.143247
722.748491,-9474.636058,-370.102971,2911.162892
722.748812,-9696.697840,-444.123565,842.705048
722.749133,-9474.636058,-296.082377,612.876398
722.749453,-9474.636058,-222.061783,536.266849
722.749774,-9548.656652,-296.082377,689.485948
722.750095,-9030.512492,222.061783,-229.828649
722.750416,-9622.677246,-444.123565,766.095498
722.750737,-9474.636058,-518.144159,612.876398
722.751058,-9474.636058,-444.123565,536.266849
722.751379,-9400.615463,-518.144159,612.876398
722.751700,-9696.697840,-222.061783,842.705048
722.752020,-9622.677246,-740.205942,689.485948
722.752341,-9474.636058,-666.185348,536.266849
722.752662,-9548.656652,-518.144159,842.705048
722.752983,-9770.718434,0.000000,0.000000
722.753304,-9622.677246,-370.102971,1072.533697
722.753625,-9770.718434,-296.082377,1149.143247
722.753946,-9770.718434,-296.082377,995.924147
722.754267,-9474.636058,-592.164754,1149.143247
722.754587,-10288.862594,0.000000,1302.362347
722.754908,-9474.636058,-370.102971,1149.143247
722.755229,-9622.677246,-296.082377,919.314598
722.755550,-9548.656652,-666.185348,1072.533697
722.755871,-9474.636058,-592.164754,919.314598
722.756192,-9474.636058,-592.164754,1149.143247
722.756513,-9844.739029,-518.144159,1072.533697
722.756834,-9622.677246,-740.205942,1072.533697
722.757154,-9622.677246,-518.144159,1072.533697
722.757475,-9696.697840,-370.102971,1378.971896
722.757796,-9770.718434,-444.123565,1149.143247
722.758117,-9696.697840,-444.123565,1378.971896
722.758438,-9696.697840,-296.082377,1378.971896
722.758759,-9548.656652,-444.123565,1149.143247
722.759080,-9474.636058,0.000000,1072.533697
722.759401,-9770.718434,-370.102971,1302.362347
722.759721,-9696.697840,-148.041188,1302.362347
722.760042,-9474.636058,-444.123565,1225.752797
722.760363,-9696.697840,-518.144159,1455.581446
722.760684,-9548.656652,-518.144159,1072.533697
722.761005,-9770.718434,-444.123565,1149.143247
722.761326,-9622.677246,-222.061783,1378.971896
722.761647,-9548.656652,-296.082377,1072.533697
722.761968,-9548.656652,-444.123565,1608.800546
722.762288,-9696.697840,74.020594,1608.800546
722.762609,-9770.718434,0.000000,1149.143247
722.762930,-9770.718434,-222.061783,1225.752797
722.763251,-9548.656652,-222.061783,1378.971896
722.763572,-9844.739029,-518.144159,229.828649
722.763893,-9548.656652,-148.041188,1072.533697
722.764214,-9622.677246,-74.020594,1532.190996
722.764535,-9696.697840,-296.082377,1378.971896
722.764855,-9696.697840,0.000000,919.314598
722.765176,-9622.677246,592.164754,-229.828649
722.765497,-9548.656652,0.000000,1149.143247
722.765818,-9696.697840,-148.041188,766.095498
722.766139,-9548.656652,-148.041188,1225.752797
722.766460,-9474.636058,-370.102971,842.705048
722.766781,-9622.677246,74.020594,1762.019645
722.767102,-9696.697840,-74.020594,1072.533697
722.767423,-9622.677246,0.000000,1225.752797
722.767743,-9474.636058,-370.102971,995.924147
722.768064,-9400.615463,0.000000,919.314598
722.768385,-9474.636058,0.000000,383.047749
722.768706,-9622.677246,-222.061783,1149.143247
722.769027,-9400.615463,-148.041188,919.314598
722.769348,-9474.636058,-148.041188,919.314598
722.769669,-9326.594869,0.000000,-459.657299
722.769990,-9622.677246,-148.041188,1225.752797
722.770310,-9622.677246,-296.082377,1072.533697
722.770631,-9696.697840,-148.041188,1225.752797
722.770952,-9474.636058,-296.082377,919.314598
722.771273,-9474.636058,148.041188,2145.067394
722.771594,-9770.718434,-148.041188,995.924147
722.771915,-9622.677246,-370.102971,766.095498
722.772236,-9104.533087,-370.102971,919.314598
722.772557,-9474.636058,-444.123565,689.485948
722.772877,-9474.636058,-592.164754,1302.362347
722.773198,-9622.677246,-222.061783,995.924147
722.773519,-9548.656652,-370.102971,1225.752797
722.773840,-9548.656652,-370.102971,995.924147
722.774161,-9844.739029,-222.061783,1532.190996
722.774482,-9400.615463,-370.102971,1149.143247
722.774803,-9474.636058,-296.082377,1378.971896
722.775124,-9474.636058,-296.082377,995.924147
722.775444,-9548.656652,-222.061783,1072.533697
722.775765,-9548.656652,-296.082377,-229.828649
722.776086,-9770.718434,-444.123565,1225.752797
722.776407,-9548.656652,-296.082377,1225.752797
722.776728,-9622.677246,-222.061783,1072.533697
722.777049,-9548.656652,0.000000,689.485948
722.777370,-9770.718434,-148.041188,1302.362347
722.777691,-9548.656652,-444.123565,1072.533697
722.778011,-9474.636058,-296.082377,1072.533697
722.778332,-9696.697840,-444.123565,842.705048
722.778653,-9622.677246,0.000000,1302.362347
722.778974,-9622.677246,-370.102971,1149.143247
722.779295,-9548.656652,-222.061783,1455.581446
722.779616,-9548.656652,-370.102971,1225.752797
722.779937,-9548.656652,-148.041188,1072.533697
722.780258,-8808.450710,-666.185348,1149.143247
722.780578,-9696.697840,-222.061783,1378.971896
722.780899,-9622.677246,-296.082377,1072.533697
722.781220,-9622.677246,-296.082377,995.924147
722.781541,-9696.697840,-1036.288319,919.314598
722.781862,-9770.718434,-222.061783,1072.533697
722.782183,-9770.718434,-222.061783,1608.800546
722.782504,-9770.718434,-148.041188,1072.533697
722.782825,-9474.636058,-370.102971,1072.533697
722.783145,-9474.636058,0.000000,1532.190996
722.783466,-9548.656652,-370.102971,1149.143247
722.783787,-9474.636058,-74.020594,919.314598
722.784108,-9548.656652,-370.102971,842.705048
722.784429,-9474.636058,-370.102971,766.095498
722.784750,-9252.574275,-370.102971,842.705048
722.785071,-9548.656652,-296.082377,995.924147
722.785392,-9548.656652,-222.061783,689.485948
722.785712,-9474.636058,-370.102971,842.705048
722.786033,-9696.697840,-740.205942,919.314598
722.786354,-9622.677246,-222.061783,1149.143247
722.786675,-9548.656652,-444.123565,919.314598
722.786996,-9474.636058,-518.144159,766.095498
722.787317,-9548.656652,-518.144159,919.314598
722.787638,-9474.636058,-222.061783,1455.581446
722.787959,-9770.718434,-370.102971,689.485948
722.788279,-9622.677246,-444.123565,766.095498
722.788600,-9474.636058,-296.082377,536.266849
722.788921,-9474.636058,-592.164754,1072.533697
722.789242,-9548.656652,-518.144159,612.876398
722.789563,-9770.718434,-518.144159,995.924147
722.789884,-9474.636058,-518.144159,536.266849
722.790205,-9474.636058,-222.061783,842.705048
722.790525,-9474.636058,-444.123565,1455.581446
722.790846,-9770.718434,-518.144159,766.095498
722.791167,-9622.677246,-444.123565,612.876398
722.791488,-9548.656652,-592.164754,919.314598
722.791808,-9548.656652,-592.164754,1072.533697
722.792129,-9992.780217,-962.267725,1072.533697
722.792450,-9474.636058,-666.185348,919.314598
722.792770,-9474.636058,-518.144159,689.485948
722.793091,-9622.677246,-518.144159,689.485948
722.793412,-9474.636058,-296.082377,919.314598
722.793732,-9770.718434,-296.082377,919.314598
722.794053,-9474.636058,-666.185348,919.314598
722.794374,-9548.656652,-370.102971,1072.533697
722.794695,-9548.656652,-666.185348,689.485948
722.795015,-9474.636058,-74.020594,459.657299
722.795336,-9548.656652,-962.267725,842.705048
722.795657,-9770.718434,-444.123565,612.876398
722.795977,-9548.656652,-518.144159,995.924147
722.796298,-9622.677246,-444.123565,1302.362347
722.796619,-9104.533087,-888.247130,1225.752797
722.796940,-10066.800811,-666.185348,1378.971896
722.797260,-9622.677246,-518.144159,1225.752797
722.797581,-9696.697840,-370.102971,1225.752797
722.797902,-9622.677246,-518.144159,2068.457845
722.798222,-9474.636058,-592.164754,1378.971896
722.798543,-9474.636058,-296.082377,1455.581446
722.798864,-9474.636058,-296.082377,1378.971896
722.799185,-9474.636058,-148.041188,1608.800546
722.799505,-9474.636058,-148.041188,919.314598
722.799826,-9622.677246,-148.041188,1608.800546
722.800147,-9622.677246,0.000000,1378.971896
722.800467,-9548.656652,-148.041188,1302.362347
722.800788,-9696.697840,0.000000,1532.190996
722.801109,-9252.574275,0.000000,1225.752797
722.801429,-9696.697840,-370.102971,1608.800546
722.801750,-9622.677246,-222.061783,1225.752797
722.802071,-9400.615463,-296.082377,1072.533697
722.802392,-9696.697840,-148.041188,1225.752797
722.802712,-9474.636058,74.020594,1302.362347
722.803033,-9400.615463,74.020594,1149.143247
722.803354,-9548.656652,74.020594,919.314598
722.803674,-9474.636058,0.000000,995.924147
722.803995,-9326.594869,0.000000,2528.115143
722.804316,-9770.718434,-148.041188,1072.533697
722.804637,-9548.656652,-444.123565,842.705048
722.804957,-9696.697840,-296.082377,919.314598
722.805278,-9474.636058,0.000000,995.924147
722.805599,-9474.636058,0.000000,2221.676944
722.805919,-9474.636058,0.000000,689.485948
722.806240,-9770.718434,0.000000,766.095498
722.806561,-9474.636058,-222.061783,766.095498
722.806882,-9474.636058,-74.020594,689.485948
722.807202,-9326.594869,0.000000,1149.143247
722.807523,-9474.636058,-148.041188,919.314598
722.807844,-9326.594869,0.000000,995.924147
722.808164,-9548.656652,0.000000,1302.362347
722.808485,-9548.656652,0.000000,995.924147
722.808806,-9918.759623,0.000000,1072.533697
722.809126,-9400.615463,-370.102971,1149.143247
722.809447,-9474.636058,-296.082377,919.314598
722.809768,-9622.677246,-222.061783,1149.143247
722.810089,-9622.677246,-222.061783,1915.238745
722.810409,-9474.636058,-296.082377,842.705048
722.810730,-9696.697840,-148.041188,1455.581446
722.811051,-9474.636058,-444.123565,1225.752797
722.811371,-9770.718434,-222.061783,1455.581446
722.811692,-10362.883188,222.061783,1378.971896
722.812013,-9622.677246,0.000000,1302.362347
722.812334,-9696.697840,-370.102971,1532.190996
722.812654,-9474.636058,-370.102971,1608.800546
722.812975,-9622.677246,-518.144159,1608.800546
722.813296,-9326.594869,-444.123565,842.705048
722.813616,-9622.677246,-296.082377,1532.190996
722.813937,-9474.636058,-518.144159,1302.362347
722.814258,-9696.697840,-148.041188,1302.362347
722.814578,-9548.656652,0.000000,3524.039291
722.814899,-9548.656652,-740.205942,1608.800546
722.815220,-9770.718434,-370.102971,1685.410096
722.815541,-9770.718434,-296.082377,1455.581446
722.815861,-9992.780217,-296.082377,1225.752797
722.816182,-7550.100608,-1554.432478,76.609550
722.816503,-9474.636058,-222.061783,1608.800546
722.816823,-9474.636058,-296.082377,1225.752797
722.817144,-9400.615463,-148.041188,1149.143247
722.817465,-9474.636058,-296.082377,1455.581446
722.817786,-8956.491898,-518.144159,0.000000
722.818106,-9548.656652,-518.144159,1302.362347
722.818427,-9622.677246,-222.061783,1149.143247
722.818748,-9400.615463,-296.082377,1149.143247
722.819068,-9400.615463,-148.041188,1838.629195
722.819389,-9400.615463,-370.102971,919.314598
722.819710,-9696.697840,-296.082377,919.314598
722.820031,-9696.697840,-370.102971,459.657299
722.820351,-9622.677246,-222.061783,536.266849
722.820672,-9622.677246,0.000000,536.266849
722.820993,-9548.656652,-296.082377,689.485948
722.821313,-9622.677246,-444.123565,612.876398
722.821634,-9326.594869,-740.205942,536.266849
722.821955,-9474.636058,-444.123565,612.876398
722.822275,-9474.636058,-296.082377,842.705048
722.822596,-9696.697840,-444.123565,766.095498
722.822917,-9696.697840,-444.123565,459.657299
722.823238,-9622.677246,-444.123565,306.438199
722.823558,-9696.697840,-444.123565,766.095498
722.823879,-9474.636058,-148.041188,766.095498
722.824200,-9474.636058,-518.144159,689.485948
722.824520,-9548.656652,-518.144159,842.705048
722.824841,-9400.615463,-962.267725,842.705048
722.825162,-9622.677246,-148.041188,2757.943793
722.825483,-9474.636058,-518.144159,842.705048
722.825803,-9548.656652,-296.082377,1149.143247
722.826124,-9696.697840,-518.144159,1072.533697
722.826445,-9622.677246,-444.123565,842.705048
722.826765,-9474.636058,-592.164754,2681.334243
722.827086,-9622.677246,-592.164754,1225.752797
722.827407,-9696.697840,-444.123565,1072.533697
722.827727,-9474.636058,-518.144159,995.924147
722.828048,-9474.636058,-666.185348,995.924147
722.828369,-8586.388927,-592.164754,1072.533697
722.828690,-9622.677246,-518.144159,1072.533697
722.829010,-9622.677246,-518.144159,1225.752797
722.829331,-9770.718434,-444.123565,1225.752797
722.829652,-9474.636058,-370.102971,1302.362347
722.829972,-9696.697840,-370.102971,1072.533697
722.830293,-9622.677246,-592.164754,1149.143247
722.830614,-9474.636058,-592.164754,1072.533697
722.830935,-9622.677246,-518.144159,1455.581446
722.831255,-9770.718434,0.000000,1149.143247
722.831576,-9696.697840,-444.123565,1302.362347
722.831897,-9696.697840,-296.082377,1149.143247
722.832217,-9474.636058,0.000000,1149.143247
722.832538,-9622.677246,-370.102971,766.095498
722.832859,-9548.656652,222.061783,1072.533697
722.833180,-9622.677246,-296.082377,1302.362347
722.833500,-9548.656652,-148.041188,1685.410096
722.833821,-9622.677246,-148.041188,1455.581446
722.834142,-9696.697840,-74.020594,1455.581446
722.834462,-9918.759623,0.000000,1072.533697
722.834783,-9548.656652,-370.102971,919.314598
722.835104,-9548.656652,0.000000,1225.752797
722.835424,-9696.697840,-370.102971,842.705048
722.835745,-10584.944971,814.226536,995.924147
722.836066,-9770.718434,0.000000,1072.533697
722.836387,-9474.636058,0.000000,919.314598
722.836707,-9622.677246,-444.123565,995.924147
722.837028,-9474.636058,0.000000,1149.143247
722.837349,-8882.471304,-444.123565,-1225.752797
722.837669,-9474.636058,-148.041188,919.314598
722.837990,-9770.718434,0.000000,766.095498
722.838311,-9474.636058,-222.061783,1072.533697
722.838632,-9474.636058,-296.082377,766.095498
722.838952,-10140.821405,296.082377,1149.143247
722.839273,-9696.697840,0.000000,919.314598
722.839594,-9474.636058,-296.082377,919.314598
722.839914,-9770.718434,-296.082377,689.485948
722.840235,-9548.656652,-592.164754,1302.362347
722.840556,-9622.677246,-370.102971,1149.143247
722.840877,-9622.677246,-740.205942,919.314598
722.841197,-9474.636058,-296.082377,919.314598
722.841518,-9844.739029,0.000000,919.314598
722.841839,-7994.224174,-1332.370696,-536.266849
722.842159,-9474.636058,-296.082377,766.095498
722.842480,-9474.636058,-296.082377,766.095498
722.842801,-9770.718434,-370.102971,842.705048
722.843121,-9622.677246,-370.102971,995.924147
722.843442,-9474.636058,0.000000,995.924147
722.843763,-9622.677246,-148.041188,1225.752797
722.844084,-9770.718434,-222.061783,1072.533697
722.844404,-9696.697840,-222.061783,1378.971896
722.844725,-9696.697840,-962.267725,1302.362347
722.845046,-9326.594869,-592.164754,1149.143247
722.845366,-9548.656652,-666.185348,1225.752797
722.845687,-9474.636058,-444.123565,1072.533697
722.846008,-9548.656652,-592.164754,1149.143247
722.846329,-9326.594869,-1184.329507,1532.190996
722.846649,-9548.656652,-370.102971,1072.533697
722.846970,-9548.656652,-296.082377,1455.581446
722.847291,-9918.759623,-518.144159,1149.143247
722.847611,-9474.636058,-296.082377,1302.362347
722.847932,-9696.697840,-296.082377,919.314598
722.848253,-9474.636058,-518.144159,1455.581446
722.848573,-9622.677246,-666.185348,1072.533697
722.848894,-9770.718434,-518.144159,1455.581446
722.849215,-9400.615463,-592.164754,1762.019645
722.849536,-9474.636058,-296.082377,1302.362347
722.849856,-9622.677246,-444.123565,1225.752797
722.850177,-9474.636058,-296.082377,1302.362347
722.850498,-9622.677246,-370.102971,1302.362347
722.850818,-9030.512492,-814.226536,0.000000
722.851139,-9474.636058,-148.041188,995.924147
722.851460,-9548.656652,-222.061783,1149.143247
722.851781,-9622.677246,0.000000,1149.143247
722.852101,-9548.656652,-74.020594,1455.581446
722.852422,-9474.636058,-370.102971,995.924147
722.852743,-9474.636058,0.000000,1378.971896
722.853063,-9622.677246,-222.061783,1072.533697
722.853384,-9770.718434,-148.041188,919.314598
722.853705,-9696.697840,-222.061783,1302.362347
722.854026,-9992.780217,0.000000,1225.752797
722.854346,-9548.656652,-222.061783,1072.533697
722.854667,-9548.656652,-148.041188,919.314598
722.854988,-9622.677246,-148.041188,1149.143247
722.855308,-9992.780217,0.000000,-383.047749
722.855629,-9696.697840,0.000000,612.876398
722.855950,-9474.636058,-222.061783,919.314598
722.856270,-9696.697840,-148.041188,1149.143247
722.856591,-9696.697840,-222.061783,1378.971896
722.856912,-9696.697840,-518.144159,919.314598
722.857233,-9474.636058,-518.144159,919.314598
722.857553,-9622.677246,-592.164754,766.095498
722.857874,-9474.636058,-592.164754,842.705048
722.858195,-9474.636058,-222.061783,1072.533697
722.858515,-8438.347739,-296.082377,1149.143247
722.858836,-9474.636058,-444.123565,689.485948
722.859157,-9474.636058,-444.123565,766.095498
722.859478,-9474.636058,-222.061783,689.485948
722.859798,-9622.677246,-518.144159,842.705048
722.860119,-9548.656652,-222.061783,689.485948
722.860440,-9474.636058,-444.123565,459.657299
722.860760,-9474.636058,-666.185348,612.876398
722.861081,-9548.656652,-592.164754,689.485948
722.861402,-9400.615463,-518.144159,3294.210641
722.861723,-9548.656652,-666.185348,1225.752797
722.862043,-9548.656652,-814.226536,689.485948
722.862364,-9474.636058,-666.185348,612.876398
722.862685,-9548.656652,-888.247130,919.314598
722.863005,-8068.244768,-1554.432478,612.876398
722.863326,-9548.656652,-592.164754,842.705048
722.863647,-9474.636058,-518.144159,842.705048
722.863967,-9696.697840,-444.123565,842.705048
722.864288,-9548.656652,-518.144159,842.705048
722.864609,-9326.594869,-666.185348,1302.362347
722.864930,-9622.677246,-370.102971,1072.533697
722.865250,-9696.697840,-444.123565,1072.533697
722.865571,-9548.656652,-518.144159,1072.533697
722.865892,-9474.636058,-296.082377,-536.266849
722.866212,-9548.656652,-592.164754,536.266849
722.866533,-9474.636058,-814.226536,766.095498
722.866854,-9918.759623,-666.185348,995.924147
722.867175,-9770.718434,-592.164754,1225.752797
722.867495,-8438.347739,0.000000,1072.533697
722.867816,-9696.697840,-296.082377,1072.533697
722.868137,-9770.718434,-296.082377,1149.143247
722.868457,-9844.739029,-518.144159,1608.800546
722.868778,-9696.697840,-370.102971,1838.629195
722.869099,-9548.656652,-296.082377,1838.629195
722.869419,-9548.656652,-370.102971,1455.581446
722.869740,-9548.656652,-296.082377,1455.581446
722.870061,-9400.615463,-222.061783,1762.019645
722.870382,-9548.656652,-740.205942,1455.581446
722.870702,-9548.656652,-370.102971,1072.533697
722.871023,-9474.636058,-296.082377,1225.752797
722.871344,-9326.594869,-296.082377,1225.752797
722.871664,-9474.636058,-148.041188,1455.581446
722.871985,-9474.636058,0.000000,1149.143247
722.872306,-9474.636058,0.000000,1149.143247
722.872627,-9474.636058,74.020594,1532.190996
722.872947,-9696.697840,0.000000,1532.190996
722.873268,-9622.677246,0.000000,1302.362347
722.873589,-8882.471304,-370.102971,4213.525239
722.873909,-9474.636058,0.000000,1302.362347
722.874230,-9474.636058,-296.082377,1072.533697
722.874551,-9622.677246,-296.082377,689.485948
722.874872,-9548.656652,-370.102971,766.095498
722.875192,-8586.388927,-296.082377,153.219100
722.875513,-9474.636058,-296.082377,919.314598
722.875834,-9548.656652,-370.102971,536.266849
722.876154,-9696.697840,0.000000,766.095498
722.876475,-9696.697840,-222.061783,459.657299
722.876796,-9548.656652,0.000000,919.314598
722.877116,-9770.718434,-222.061783,766.095498
722.877437,-9548.656652,-222.061783,1072.533697
722.877758,-9474.636058,-148.041188,766.095498
722.878079,-10214.842000,148.041188,1225.752797
722.878399,-9770.718434,-222.061783,995.924147
722.878720,-9622.677246,-370.102971,919.314598
722.879041,-9474.636058,-444.123565,1072.533697
722.879361,-9622.677246,-148.041188,1149.143247
722.879682,-10288.862594,518.144159,1225.752797
722.880003,-9622.677246,-148.041188,1302.362347
722.880324,-9622.677246,-592.164754,842.705048
722.880644,-9622.677246,0.000000,1149.143247
722.880965,-9622.677246,-296.082377,842.705048
722.881286,-9918.759623,148.041188,1838.629195
722.881606,-9696.697840,-444.123565,1149.143247
722.881927,-9622.677246,-222.061783,995.924147
722.882248,-9770.718434,-592.164754,1149.143247
722.882569,-9548.656652,-370.102971,459.657299
722.882889,-9622.677246,-666.185348,1685.410096
722.883210,-9474.636058,-444.123565,1149.143247
722.883531,-9474.636058,-370.102971,1225.752797
722.883851,-9400.615463,-222.061783,1225.752797
722.884172,-9400.615463,-148.041188,3064.381992
722.884493,-9548.656652,-222.061783,1302.362347
722.884813,-9844.739029,-740.205942,1302.362347
722.885134,-9548.656652,-296.082377,1072.533697
722.885455,-9622.677246,-444.123565,1378.971896
722.885776,-10066.800811,-1184.329507,1378.971896
722.886096,-9548.656652,-370.102971,1532.190996
722.886417,-9622.677246,-518.144159,1455.581446
722.886738,-9770.718434,-370.102971,1302.362347
722.887058,-9474.636058,-296.082377,1378.971896
722.887379,-9770.718434,-296.082377,1302.362347
722.887700,-9474.636058,0.000000,1149.143247
722.888021,-9770.718434,0.000000,1072.533697
722.888341,-9622.677246,0.000000,1302.362347
722.888662,-9252.574275,-740.205942,-383.047749
722.888983,-9400.615463,-296.082377,995.924147
722.889303,-9474.636058,-222.061783,1149.143247
722.889624,-9326.594869,-444.123565,995.924147
722.889945,-9548.656652,0.000000,995.924147
722.890265,-8438.347739,-444.123565,-1378.971896
722.890586,-9474.636058,-222.061783,459.657299
722.890907,-9770.718434,-222.061783,689.485948
722.891228,-9918.759623,-370.102971,842.705048
722.891548,-9622.677246,-370.102971,842.705048
722.891869,-9696.697840,-444.123565,612.876398
722.892190,-9622.677246,-296.082377,612.876398
722.892510,-9548.656652,-370.102971,842.705048
722.892831,-9474.636058,-444.123565,995.924147
722.893152,-9548.656652,-592.164754,1072.533697
722.893473,-9622.677246,-444.123565,612.876398
722.893793,-9622.677246,-370.102971,383.047749
722.894114,-9474.636058,-296.082377,536.266849
722.894435,-9696.697840,-370.102971,536.266849
722.894755,-9400.615463,74.020594,1072.533697
722.895076,-9548.656652,-666.185348,919.314598
722.895397,-9696.697840,-962.267725,689.485948
722.895717,-9474.636058,-814.226536,919.314598
722.896038,-9548.656652,-444.123565,1149.143247
722.896359,-8956.491898,-592.164754,1838.629195
722.896679,-9474.636058,-444.123565,1072.533697
722.897000,-9622.677246,-444.123565,689.485948
722.897321,-9474.636058,-444.123565,689.485948
722.897641,-9548.656652,-592.164754,1302.362347
722.897962,-9326.594869,-370.102971,1838.629195
722.898283,-9622.677246,-444.123565,1225.752797
722.898604,-9474.636058,-444.123565,1149.143247
722.898924,-9918.759623,-370.102971,919.314598
722.899245,-9992.780217,0.000000,842.705048
722.899566,-9622.677246,-518.144159,919.314598
722.899886,-9548.656652,-888.247130,689.485948
722.900207,-9770.718434,-740.205942,1149.143247
722.900528,-9548.656652,-296.082377,1072.533697
722.900848,-9474.636058,1036.288319,1685.410096
722.901169,-9548.656652,0.000000,1225.752797
722.901490,-9770.718434,-370.102971,1302.362347
722.901810,-9622.677246,-370.102971,1685.410096
722.902131,-9622.677246,-444.123565,1072.533697
722.902452,-9400.615463,0.000000,1838.629195
722.902772,-9622.677246,-370.102971,766.095498
722.903093,-9474.636058,-148.041188,1532.190996
722.903414,-9696.697840,-222.061783,1225.752797
722.903735,-9474.636058,0.000000,1685.410096
722.904055,-9622.677246,-222.061783,1532.190996
722.904376,-9622.677246,-444.123565,1608.800546
722.904697,-9548.656652,-370.102971,1225.752797
722.905017,-9844.739029,0.000000,1455.581446
722.905338,-9400.615463,-296.082377,3064.381992
722.905659,-9622.677246,-148.041188,1455.581446
722.905979,-9696.697840,0.000000,1378.971896
722.906300,-9770.718434,0.000000,1072.533697
722.906621,-9474.636058,-296.082377,995.924147
722.906941,-9622.677246,444.123565,1378.971896
722.907262,-9474.636058,-222.061783,1378.971896
722.907583,-9622.677246,-148.041188,1225.752797
722.907903,-9474.636058,-148.041188,995.924147
722.908224,-9548.656652,-222.061783,612.876398
722.908545,-9474.636058,0.000000,842.705048
722.908866,-9622.677246,-222.061783,842.705048
722.909186,-9400.615463,-148.041188,1072.533697
722.909507,-9548.656652,-74.020594,842.705048
722.909828,-9622.677246,74.020594,3524.039291
722.910148,-9548.656652,0.000000,766.095498
722.910469,-9548.656652,-518.144159,689.485948
722.910790,-9770.718434,-444.123565,766.095498
722.911110,-9474.636058,-518.144159,689.485948
722.911431,-9400.615463,-222.061783,-229.828649
722.911752,-9696.697840,0.000000,1072.533697
722.912072,-9474.636058,0.000000,1072.533697
722.912393,-9474.636058,-296.082377,995.924147
722.912714,-9548.656652,-666.185348,919.314598
722.913034,-9474.636058,-518.144159,766.095498
722.913355,-9548.656652,-592.164754,995.924147
722.913676,-9474.636058,-370.102971,842.705048
722.913996,-9474.636058,-518.144159,1302.362347
722.914317,-9548.656652,-370.102971,1455.581446
722.914638,-9474.636058,-444.123565,766.095498
722.914959,-9770.718434,-296.082377,995.924147
722.915279,-9548.656652,-370.102971,1378.971896
722.915600,-9770.718434,-296.082377,1072.533697
722.915921,-9326.594869,-370.102971,-2298.286494
722.916241,-9622.677246,-444.123565,842.705048
722.916562,-9474.636058,-740.205942,1149.143247
722.916883,-9474.636058,-148.041188,1149.143247
722.917203,-9622.677246,-370.102971,995.924147
722.917524,-8808.450710,-666.185348,229.828649
722.917845,-9770.718434,-518.144159,1072.533697
722.918165,-9696.697840,-296.082377,1302.362347
722.918486,-9770.718434,-222.061783,1072.533697
722.918807,-9622.677246,0.000000,1149.143247
722.919127,-9844.739029,-444.123565,995.924147
722.919448,-9474.636058,-444.123565,1149.143247
722.919769,-9696.697840,-518.144159,919.314598
722.920090,-9622.677246,-370.102971,995.924147
722.920410,-10066.800811,-666.185348,2987.772442
722.920731,-9844.739029,-444.123565,1378.971896
722.921052,-9770.718434,-296.082377,1378.971896
722.921372,-9548.656652,-222.061783,1149.143247
722.921693,-9474.636058,-222.061783,1072.533697
722.922014,-10066.800811,0.000000,1532.190996
722.922334,-9622.677246,0.000000,1302.362347
722.922655,-9548.656652,0.000000,1225.752797
722.922976,-9474.636058,0.000000,1378.971896
722.923296,-9548.656652,0.000000,1225.752797
722.923617,-9548.656652,0.000000,1302.362347
722.923938,-9622.677246,-222.061783,1378.971896
722.924258,-9548.656652,-148.041188,1378.971896
722.924579,-9474.636058,-222.061783,919.314598
722.924900,-9178.553681,518.144159,536.266849
722.925221,-9622.677246,-222.061783,995.924147
722.925541,-9474.636058,-518.144159,612.876398
722.925862,-9622.677246,-148.041188,842.705048
722.926183,-9622.677246,-222.061783,842.705048
722.926503,-9844.739029,1184.329507,689.485948
722.926824,-9696.697840,-74.020594,689.485948
722.927145,-9474.636058,-222.061783,1072.533697
722.927465,-9548.656652,-222.061783,536.266849
722.927786,-9548.656652,-296.082377,1149.143247
722.928107,-9548.656652,-1110.308913,1149.143247
722.928427,-9622.677246,-444.123565,689.485948
722.928748,-9548.656652,-592.164754,612.876398
722.929069,-9474.636058,-296.082377,842.705048
722.929389,-9622.677246,0.000000,1915.238745
722.929710,-9548.656652,-444.123565,842.705048
722.930031,-9400.615463,0.000000,842.705048
722.930352,-9622.677246,-296.082377,766.095498
722.930672,-9622.677246,-518.144159,536.266849
722.930993,-9622.677246,444.123565,1302.362347
722.931314,-9770.718434,-222.061783,689.485948
722.931634,-9622.677246,-370.102971,842.705048
722.931955,-9622.677246,-666.185348,766.095498
722.932276,-9474.636058,-962.267725,995.924147
722.932596,-9622.677246,-814.226536,1378.971896
722.932917,-9548.656652,-666.185348,842.705048
722.933238,-9548.656652,-518.144159,842.705048
722.933558,-9622.677246,-814.226536,919.314598
722.933879,-9326.594869,-518.144159,1685.410096
722.934200,-9622.677246,-518.144159,1149.143247
722.934520,-9474.636058,-518.144159,995.924147
722.934841,-9696.697840,-666.185348,1072.533697
722.935162,-9548.656652,-592.164754,919.314598
722.935483,-8956.491898,-370.102971,1149.143247
722.935803,-9474.636058,-740.205942,1072.533697
722.936124,-9844.739029,-592.164754,995.924147
722.936445,-9548.656652,-592.164754,1072.533697
722.936765,-9770.718434,-740.205942,919.314598
722.937086,-9104.533087,-1702.473667,919.314598
722.937407,-9770.718434,-518.144159,1072.533697
722.937727,-9844.739029,-444.123565,1149.143247
722.938048,-9770.718434,-444.123565,1378.971896
722.938369,-9622.677246,-518.144159,1149.143247
722.938689,-9918.759623,-740.205942,1762.019645
722.939010,-9622.677246,-518.144159,1608.800546
722.939331,-9770.718434,-296.082377,1532.190996
722.939651,-9548.656652,-592.164754,1378.971896
722.939972,-9622.677246,-148.041188,1762.019645
722.940293,-9252.574275,-444.123565,536.266849
722.940614,-9548.656652,-74.020594,1302.362347
722.940934,-9548.656652,0.000000,1302.362347
722.941255,-9474.636058,-222.061783,1608.800546
722.941576,-9400.615463,-370.102971,2528.115143
722.941896,-9622.677246,-296.082377,1455.581446
722.942217,-9844.739029,-148.041188,1608.800546
722.942538,-9622.677246,0.000000,1455.581446
722.942858,-9622.677246,0.000000,1532.190996
722.943179,-9104.533087,0.000000,3830.477490
722.943500,-9548.656652,-148.041188,995.924147
722.943820,-9474.636058,0.000000,1225.752797
722.944141,-9622.677246,0.000000,1455.581446
722.944462,-9548.656652,0.000000,689.485948
722.944782,-8734.430116,-74.020594,-612.876398
722.945103,-9400.615463,0.000000,919.314598
722.945424,-9622.677246,-148.041188,919.314598
722.945745,-9548.656652,-592.164754,689.485948
722.946065,-9696.697840,-444.123565,919.314598
722.946386,-9918.759623,0.000000,1149.143247
722.946707,-9696.697840,-444.123565,459.657299
722.947027,-9474.636058,-148.041188,689.485948
722.947348,-9622.677246,148.041188,919.314598
722.947669,-9474.636058,666.185348,919.314598
722.947989,-9474.636058,-74.020594,1455.581446
722.948310,-9696.697840,0.000000,919.314598
722.948631,-9474.636058,-296.082377,612.876398
722.948951,-9474.636058,-148.041188,919.314598
722.949272,-9326.594869,-518.144159,919.314598
722.949593,-9770.718434,-74.020594,612.876398
722.949913,-9622.677246,-148.041188,919.314598
722.950234,-9696.697840,-296.082377,1149.143247
722.950555,-9770.718434,-444.123565,1072.533697
722.950876,-9474.636058,0.000000,1225.752797
722.951196,-9696.697840,-370.102971,919.314598
722.951517,-9622.677246,0.000000,1072.533697
722.951838,-9548.656652,-222.061783,1302.362347
722.952158,-9844.739029,-444.123565,1762.019645
722.952479,-9252.574275,-592.164754,1378.971896
722.952800,-9770.718434,-518.144159,1072.533697
722.953120,-9622.677246,-444.123565,1532.190996
722.953441,-9770.718434,-148.041188,1225.752797
722.953762,-9770.718434,-222.061783,1455.581446
722.954082,-9548.656652,74.020594,1685.410096
722.954403,-9326.594869,-666.185348,1149.143247
722.954724,-9474.636058,-814.226536,1378.971896
722.955044,-9474.636058,-370.102971,1378.971896
722.955365,-9622.677246,-518.144159,1302.362347
722.955686,-9992.780217,0.000000,-229.828649
722.956006,-9104.533087,-444.123565,842.705048
722.956327,-9622.677246,-296.082377,1378.971896
722.956648,-9622.677246,-666.185348,1608.800546
722.956969,-9696.697840,-740.205942,1532.190996
722.957289,-9770.718434,-666.185348,2987.772442
722.957610,-9622.677246,-444.123565,1455.581446
722.957931,-9474.636058,-444.123565,1378.971896
722.958251,-9622.677246,-222.061783,1378.971896
722.958572,-9474.636058,-296.082377,1378.971896
722.958893,-8660.409521,-296.082377,-919.314598
722.959213,-9770.718434,-222.061783,1455.581446
722.959534,-9548.656652,-148.041188,1378.971896
722.959855,-9474.636058,-444.123565,995.924147
722.960175,-9696.697840,-148.041188,1532.190996
722.960496,-9548.656652,-370.102971,689.485948
722.960817,-9474.636058,-74.020594,766.095498
722.961137,-9474.636058,-296.082377,919.314598
722.961458,-9770.718434,-222.061783,919.314598
722.961779,-9696.697840,-222.061783,1072.533697
722.962100,-9548.656652,0.000000,-1149.143247
722.962420,-9474.636058,0.000000,842.705048
722.962741,-9696.697840,-222.061783,919.314598
722.963062,-9474.636058,-148.041188,919.314598
722.963382,-9548.656652,-444.123565,689.485948
722.963703,-8956.491898,0.000000,919.314598
722.964024,-9770.718434,-592.164754,612.876398
722.964344,-9548.656652,-444.123565,842.705048
722.964665,-9548.656652,-444.123565,459.657299
722.964986,-9548.656652,-222.061783,612.876398
722.965306,-9992.780217,-1110.308913,1378.971896
722.965627,-9770.718434,-444.123565,689.485948
722.965948,-9548.656652,-444.123565,1072.533697
722.966268,-9696.697840,-666.185348,766.095498
722.966589,-9400.615463,-370.102971,919.314598
722.966910,-9178.553681,-518.144159,0.000000
722.967231,-9548.656652,-518.144159,1072.533697
722.967551,-9474.636058,-444.123565,995.924147
722.967872,-9474.636058,-518.144159,919.314598
722.968193,-9326.594869,-1036.288319,1225.752797
722.968513,-9474.636058,-740.205942,1072.533697
722.968834,-9548.656652,-370.102971,919.314598
722.969155,-9548.656652,-370.102971,1302.362347
722.969475,-9474.636058,-296.082377,1072.533697
722.969796,-9030.512492,-1184.329507,1302.362347
722.970117,-9548.656652,-592.164754,842.705048
722.970437,-9844.739029,-518.144159,1378.971896
722.970758,-9548.656652,-592.164754,1378.971896
722.971079,-9474.636058,-666.185348,919.314598
722.971399,-9474.636058,0.000000,689.485948
722.971720,-9622.677246,-444.123565,1225.752797
722.972041,-9770.718434,-518.144159,1149.143247
722.972362,-9474.636058,-370.102971,1302.362347
722.972682,-9474.636058,-666.185348,919.314598
722.973003,-8438.347739,-888.247130,995.924147
722.973324,-9400.615463,-444.123565,995.924147
722.973644,-9548.656652,-74.020594,1149.143247
722.973965,-9474.636058,-148.041188,1072.533697
722.974286,-9474.636058,-296.082377,1225.752797
722.974606,-8808.450710,-222.061783,612.876398
722.974927,-9696.697840,-518.144159,1378.971896
722.975248,-9844.739029,-222.061783,1455.581446
722.975568,-9622.677246,-296.082377,1072.533697
722.975889,-9474.636058,-296.082377,1225.752797
722.976210,-10584.944971,518.144159,1455.581446
722.976530,-9474.636058,-296.082377,1302.362347
722.976851,-9622.677246,-370.102971,995.924147
722.977172,-9474.636058,-222.061783,1072.533697
722.977493,-9844.739029,0.000000,153.219100
722.977813,-9622.677246,-222.061783,1225.752797
722.978134,-9548.656652,0.000000,1225.752797
722.978455,-9400.615463,0.000000,995.924147
722.978775,-9844.739029,-296.082377,995.924147
722.979096,-9474.636058,-148.041188,1838.629195
722.979417,-9548.656652,-296.082377,1149.143247
722.979737,-9548.656652,-148.041188,612.876398
722.980058,-9622.677246,0.000000,383.047749
722.980379,-9622.677246,-222.061783,612.876398
722.980699,-9696.697840,222.061783,0.000000
722.981020,-9326.594869,-222.061783,612.876398
722.981341,-9548.656652,-370.102971,766.095498
722.981661,-9622.677246,-296.082377,995.924147
722.981982,-9696.697840,-444.123565,995.924147
722.982303,-9622.677246,-148.041188,689.485948
722.982624,-9548.656652,-222.061783,842.705048
722.982944,-9696.697840,-296.082377,1149.143247
722.983265,-9696.697840,-222.061783,1149.143247
722.983586,-9400.615463,0.000000,1225.752797
722.983906,-9474.636058,-296.082377,1149.143247
722.984227,-9474.636058,-444.123565,995.924147
722.984548,-9474.636058,-518.144159,995.924147
722.984868,-9548.656652,-370.102971,919.314598
722.985189,-9326.594869,444.123565,766.095498
722.985510,-9474.636058,-444.123565,842.705048
722.985830,-9622.677246,-592.164754,919.314598
722.986151,-9622.677246,-518.144159,995.924147
722.986472,-9622.677246,-296.082377,1149.143247
722.986792,-9622.677246,-222.061783,536.266849
722.987113,-9622.677246,-296.082377,995.924147
722.987434,-9622.677246,-740.205942,919.314598
722.987755,-9474.636058,-444.123565,766.095498
722.988075,-9548.656652,-592.164754,2068.457845
722.988396,-9474.636058,-222.061783,1072.533697
722.988717,-9548.656652,-222.061783,1532.190996
722.989037,-9548.656652,-592.164754,1149.143247
722.989358,-9696.697840,-518.144159,1149.143247
722.989679,-9474.636058,-148.041188,76.609550
722.989999,-9770.718434,-518.144159,919.314598
722.990320,-9474.636058,-518.144159,919.314598
722.990641,-9474.636058,-222.061783,919.314598
722.990961,-9622.677246,-222.061783,1302.362347
722.991282,-10362.883188,0.000000,229.828649
722.991603,-9770.718434,-370.102971,1455.581446
722.991923,-9622.677246,-74.020594,1225.752797
722.992244,-9474.636058,-296.082377,995.924147
722.992565,-9400.615463,-962.267725,1608.800546
722.992885,-9622.677246,-296.082377,1302.362347
722.993206,-9474.636058,-444.123565,1302.362347
722.993527,-9622.677246,-296.082377,1072.533697
722.993847,-9548.656652,0.000000,1455.581446
722.994168,-9918.759623,-296.082377,1225.752797
722.994488,-9474.636058,-148.041188,1072.533697
722.994809,-9622.677246,0.000000,1149.143247
722.995130,-9770.718434,0.000000,1302.362347
722.995450,-9474.636058,0.000000,1378.971896
722.995771,-9622.677246,0.000000,459.657299
722.996092,-9548.656652,-296.082377,995.924147
722.996412,-9474.636058,-296.082377,766.095498
722.996733,-9548.656652,0.000000,842.705048
722.997053,-9548.656652,0.000000,995.924147
722.997374,-9622.677246,0.000000,995.924147
722.997695,-9696.697840,0.000000,766.095498
722.998015,-9474.636058,-222.061783,919.314598
722.998336,-9474.636058,-592.164754,919.314598
722.998657,-10066.800811,0.000000,-383.047749
722.998977,-9622.677246,-444.123565,689.485948
722.999298,-9400.615463,-222.061783,766.095498
722.999618,-9474.636058,-148.041188,842.705048
722.999939,-9400.615463,0.000000,689.485948
723.000260,-9474.636058,148.041188,2604.724693
723.000580,-9548.656652,-296.082377,612.876398
723.000901,-9474.636058,-518.144159,689.485948
723.001222,-9548.656652,-740.205942,766.095498
723.001542,-9474.636058,-592.164754,689.485948
723.001863,-9474.636058,-444.123565,1608.800546
723.002183,-9622.677246,-370.102971,995.924147
723.002504,-9474.636058,-518.144159,459.657299
723.002825,-9474.636058,-370.102971,995.924147
723.003145,-9474.636058,-592.164754,1838.629195
723.003466,-9178.553681,-222.061783,1072.533697
723.003787,-9548.656652,-296.082377,919.314598
723.004107,-9474.636058,-444.123565,536.266849
723.004428,-9622.677246,-296.082377,689.485948
723.004749,-9992.780217,-666.185348,919.314598
723.005069,-9622.677246,-518.144159,842.705048
723.005390,-9696.697840,-740.205942,689.485948
723.005710,-9474.636058,-518.144159,919.314598
723.006031,-9548.656652,-740.205942,919.314598
723.006352,-9474.636058,-962.267725,-536.266849
723.006672,-9770.718434,-592.164754,842.705048
723.006993,-9696.697840,-740.205942,1378.971896
723.007314,-9474.636058,-740.205942,1072.533697
723.007634,-9474.636058,-666.185348,766.095498
723.007955,-9622.677246,-296.082377,689.485948
723.008275,-9696.697840,-518.144159,1072.533697
723.008596,-9770.718434,-444.123565,919.314598
723.008917,-9548.656652,-296.082377,1608.800546
723.009237,-9696.697840,-592.164754,1762.019645
723.009558,-9770.718434,-888.247130,1991.848295
723.009879,-9548.656652,-814.226536,1685.410096
723.010199,-9770.718434,-814.226536,995.924147
723.010520,-9696.697840,-296.082377,1378.971896
723.010840,-9548.656652,-518.144159,1838.629195
723.011161,-9474.636058,-444.123565,1608.800546
723.011482,-9622.677246,-148.041188,1149.143247
723.011802,-9548.656652,-222.061783,1149.143247
723.012123,-9622.677246,-74.020594,1608.800546
723.012444,-9474.636058,-444.123565,1762.019645
723.012764,-9548.656652,-444.123565,1532.190996
723.013085,-9474.636058,-370.102971,1608.800546
723.013405,-9474.636058,0.000000,1532.190996
723.013726,-9474.636058,0.000000,1915.238745
723.014047,-9400.615463,-148.041188,1608.800546
723.014367,-9474.636058,-444.123565,1149.143247
723.014688,-9474.636058,0.000000,1302.362347
723.015009,-9770.718434,-148.041188,1072.533697
723.015329,-9178.553681,0.000000,306.438199
723.015650,-9474.636058,-296.082377,919.314598
723.015970,-9548.656652,0.000000,1149.143247
723.016291,-9474.636058,0.000000,1072.533697
723.016612,-9548.656652,0.000000,536.266849
723.016932,-9474.636058,-370.102971,689.485948
723.017253,-9474.636058,-296.082377,766.095498
723.017574,-9622.677246,-148.041188,919.314598
723.017894,-9548.656652,0.000000,842.705048
723.018215,-9474.636058,-148.041188,2298.286494
723.018535,-9326.594869,-370.102971,919.314598
723.018856,-9548.656652,-222.061783,766.095498
723.019177,-9400.615463,-296.082377,689.485948
723.019497,-9548.656652,0.000000,1072.533697
723.019818,-9474.636058,-1036.288319,919.314598
723.020139,-9474.636058,-148.041188,919.314598
723.020459,-9400.615463,-148.041188,995.924147
723.020780,-9548.656652,-148.041188,919.314598
723.021100,-9696.697840,-296.082377,919.314598
723.021421,-9696.697840,0.000000,995.924147
723.021742,-9770.718434,0.000000,995.924147
723.022062,-9474.636058,-148.041188,1149.143247
723.022383,-9770.718434,-296.082377,1302.362347
723.022704,-9548.656652,740.205942,612.876398
723.023024,-9622.677246,-370.102971,1072.533697
723.023345,-9548.656652,-296.082377,1149.143247
723.023665,-9770.718434,-370.102971,1378.971896
723.023986,-9474.636058,-296.082377,1378.971896
723.024307,-9548.656652,-74.020594,1762.019645
723.024627,-9622.677246,0.000000,1608.800546
723.024948,-9844.739029,-148.041188,1455.581446
723.025269,-9770.718434,-148.041188,1378.971896
723.025589,-9326.594869,74.020594,1915.238745
723.025910,-9474.636058,-592.164754,1302.362347
723.026230,-9622.677246,-370.102971,1225.752797
723.026551,-9696.697840,-444.123565,1378.971896
723.026872,-9696.697840,-444.123565,1685.410096
723.027192,-9252.574275,-370.102971,1685.410096
723.027513,-9474.636058,-370.102971,1302.362347
723.027834,-9474.636058,-296.082377,1302.362347
723.028154,-9622.677246,-148.041188,1455.581446
723.028475,-9622.677246,-148.041188,459.657299
723.028795,-9548.656652,-444.123565,1455.581446
723.029116,-9696.697840,-296.082377,1072.533697
723.029437,-9622.677246,0.000000,1302.362347
723.029757,-9474.636058,-222.061783,1149.143247
723.030078,-9696.697840,-592.164754,1225.752797
723.030399,-9474.636058,-148.041188,842.705048
723.030719,-9548.656652,-222.061783,1149.143247
723.031040,-9474.636058,0.000000,1149.143247
723.031360,-9548.656652,-296.082377,766.095498
723.031681,-9548.656652,0.000000,689.485948
723.032002,-9474.636058,-444.123565,689.485948
723.032322,-9548.656652,-148.041188,766.095498
723.032643,-9548.656652,-444.123565,766.095498
723.032964,-9474.636058,0.000000,1532.190996
723.033284,-9548.656652,-444.123565,689.485948
723.033605,-9474.636058,-296.082377,306.438199
723.033925,-9696.697840,-444.123565,766.095498
723.034246,-9770.718434,-370.102971,766.095498
723.034567,-9622.677246,-148.041188,1225.752797
723.034887,-9622.677246,-518.144159,689.485948
723.035208,-9622.677246,-592.164754,689.485948
723.035529,-9548.656652,-666.185348,766.095498
723.035849,-9474.636058,-222.061783,1378.971896
723.036170,-9252.574275,-592.164754,689.485948
723.036490,-9474.636058,-370.102971,612.876398
723.036811,-9548.656652,-740.205942,995.924147
723.037132,-9622.677246,-444.123565,536.266849
723.037452,-9548.656652,-518.144159,995.924147
723.037773,-9474.636058,-518.144159,689.485948
723.038094,-9474.636058,-814.226536,1149.143247
723.038414,-9696.697840,-370.102971,842.705048
723.038735,-9696.697840,-592.164754,1149.143247
723.039055,-9622.677246,-518.144159,689.485948
723.039376,-9474.636058,-592.164754,1072.533697
723.039697,-9474.636058,-666.185348,995.924147
723.040017,-9548.656652,-666.185348,995.924147
723.040338,-9548.656652,-666.185348,1149.143247
723.040659,-9474.636058,-444.123565,1532.190996
723.040979,-9622.677246,-370.102971,1149.143247
723.041300,-9548.656652,-518.144159,1225.752797
723.041620,-9548.656652,-444.123565,1302.362347
723.041941,-10140.821405,-222.061783,1915.238745
723.042262,-9622.677246,-666.185348,1302.362347
723.042582,-9622.677246,-962.267725,919.314598
723.042903,-9474.636058,-518.144159,1149.143247
723.043224,-9548.656652,-296.082377,1378.971896
723.043544,-9474.636058,-222.061783,919.314598
723.043865,-9400.615463,-296.082377,1072.533697
723.044185,-9548.656652,-370.102971,1149.143247
723.044506,-9918.759623,-370.102971,1149.143247
723.044827,-9326.594869,-148.041188,1915.238745
723.045147,-9918.759623,-296.082377,1225.752797
723.045468,-9622.677246,-444.123565,1149.143247
723.045789,-9548.656652,-444.123565,1225.752797
723.046109,-9474.636058,-444.123565,995.924147
723.046430,-9104.533087,-666.185348,612.876398
723.046750,-9548.656652,0.000000,995.924147
723.047071,-9548.656652,-296.082377,1149.143247
723.047392,-9622.677246,-148.041188,1302.362347
723.047712,-9474.636058,-518.144159,1149.143247
723.048033,-9400.615463,0.000000,766.095498
723.048354,-9548.656652,-148.041188,1225.752797
723.048674,-9622.677246,-296.082377,1072.533697
723.048995,-9622.677246,-296.082377,1225.752797
723.049315,-9326.594869,-592.164754,766.095498
723.049636,-9622.677246,0.000000,919.314598
723.049957,-9696.697840,-74.020594,842.705048
723.050277,-9622.677246,-296.082377,919.314598
723.050598,-9770.718434,-74.020594,1072.533697
723.050919,-9252.574275,-296.082377,1302.362347
723.051239,-9622.677246,-148.041188,842.705048
723.051560,-9474.636058,-296.082377,1072.533697
723.051880,-9474.636058,-296.082377,766.095498
723.052201,-9474.636058,0.000000,1455.581446
723.052522,-9474.636058,-148.041188,766.095498
723.052842,-9548.656652,-222.061783,612.876398
723.053163,-9474.636058,0.000000,1225.752797
723.053484,-9548.656652,-518.144159,1072.533697
723.053804,-9622.677246,222.061783,229.828649
723.054125,-9696.697840,-370.102971,995.924147
723.054445,-9770.718434,-444.123565,1072.533697
723.054766,-9474.636058,-444.123565,1149.143247
723.055087,-9622.677246,-592.164754,1072.533697
723.055407,-9474.636058,-444.123565,842.705048
723.055728,-9474.636058,-370.102971,1149.143247
723.056049,-9696.697840,-222.061783,1072.533697
723.056369,-9622.677246,-518.144159,995.924147
723.056690,-9326.594869,-148.041188,2298.286494
723.057010,-9622.677246,-370.102971,1149.143247
723.057331,-9474.636058,-444.123565,1225.752797
723.057652,-9548.656652,-666.185348,995.924147
723.057972,-9474.636058,-444.123565,1225.752797
723.058293,-9474.636058,0.000000,1149.143247
723.058614,-9548.656652,-74.020594,1455.581446
723.058934,-9696.697840,-296.082377,1378.971896
723.059255,-9548.656652,-222.061783,1378.971896
723.059575,-9770.718434,-444.123565,2145.067394
723.059896,-9474.636058,-444.123565,1608.800546
723.060217,-9474.636058,-370.102971,919.314598
723.060537,-9548.656652,-296.082377,995.924147
723.060858,-9770.718434,-370.102971,1378.971896
723.061179,-9474.636058,-296.082377,2911.162892
723.061499,-9770.718434,-148.041188,1225.752797
723.061820,-9548.656652,-74.020594,919.314598
723.062140,-9622.677246,-222.061783,1302.362347
723.062461,-9696.697840,-370.102971,995.924147
723.062782,-9400.615463,-296.082377,689.485948
723.063102,-9548.656652,-296.082377,1378.971896
723.063423,-9474.636058,-222.061783,1378.971896
723.063744,-9548.656652,-296.082377,1072.533697
723.064064,-9622.677246,-962.267725,1455.581446
723.064385,-9474.636058,0.000000,1149.143247
723.064705,-9696.697840,-74.020594,1378.971896
723.065026,-9474.636058,0.000000,1762.019645
723.065347,-9474.636058,-296.082377,1149.143247
723.065667,-9548.656652,-222.061783,1072.533697
723.065988,-9474.636058,-148.041188,995.924147
723.066309,-9548.656652,0.000000,995.924147
723.066629,-9548.656652,-222.061783,1149.143247
723.066950,-9548.656652,-370.102971,1072.533697
723.067270,-9770.718434,-148.041188,1378.971896
723.067591,-9622.677246,-74.020594,1225.752797
723.067912,-9622.677246,-296.082377,689.485948
723.068232,-9622.677246,0.000000,919.314598
723.068553,-9548.656652,-592.164754,1149.143247
723.068874,-9770.718434,0.000000,919.314598
723.069194,-9474.636058,-444.123565,842.705048
723.069515,-9474.636058,-370.102971,612.876398
723.069835,-9400.615463,-444.123565,919.314598
723.070156,-9252.574275,-296.082377,689.485948
723.070477,-9474.636058,-444.123565,919.314598
723.070797,-9622.677246,-222.061783,1225.752797
723.071118,-9622.677246,-518.144159,689.485948
723.071439,-9548.656652,-444.123565,919.314598
723.071759,-9474.636058,-666.185348,1302.362347
723.072080,-9548.656652,-592.164754,842.705048
723.072400,-9770.718434,-518.144159,919.314598
723.072721,-9548.656652,-370.102971,689.485948
723.073042,-10140.821405,-296.082377,1915.238745
723.073362,-9548.656652,-518.144159,842.705048
723.073683,-9622.677246,-592.164754,612.876398
723.074004,-9548.656652,-666.185348,459.657299
723.074324,-9474.636058,-518.144159,536.266849
723.074645,-10140.821405,-592.164754,383.047749
723.074965,-9696.697840,-518.144159,919.314598
723.075286,-9622.677246,-444.123565,995.924147
723.075607,-9474.636058,-814.226536,842.705048
723.075927,-9474.636058,-592.164754,1149.143247
723.076248,-9770.718434,-592.164754,1072.533697
723.076569,-9770.718434,-370.102971,995.924147
723.076889,-9696.697840,-740.205942,919.314598
723.077210,-9696.697840,-592.164754,766.095498
723.077530,-9696.697840,-666.185348,689.485948
723.077851,-9622.677246,-592.164754,995.924147
723.078172,-9622.677246,-222.061783,689.485948
723.078492,-9474.636058,-444.123565,995.924147
723.078813,-9770.718434,-518.144159,842.705048
723.079134,-9104.533087,-148.041188,1455.581446
723.079454,-9770.718434,-518.144159,1225.752797
723.079775,-9844.739029,-370.102971,1685.410096
723.080095,-9622.677246,-518.144159,1378.971896
723.080416,-9548.656652,-518.144159,1532.190996
723.080737,-9548.656652,-518.144159,1608.800546
723.081057,-9474.636058,-296.082377,1532.190996
723.081378,-9622.677246,-444.123565,1455.581446
723.081699,-9622.677246,0.000000,1149.143247
723.082019,-9548.656652,-592.164754,1302.362347
723.082340,-9770.718434,148.041188,1378.971896
723.082660,-9770.718434,74.020594,1685.410096
723.082981,-9548.656652,-222.061783,1685.410096
723.083302,-9474.636058,-370.102971,1838.629195
723.083622,-9474.636058,444.123565,1455.581446
723.083943,-9474.636058,-148.041188,1455.581446
723.084264,-9696.697840,74.020594,1378.971896
723.084584,-9474.636058,-148.041188,919.314598
723.084905,-9622.677246,0.000000,1608.800546
723.085225,-9548.656652,74.020594,1302.362347
723.085546,-9696.697840,74.020594,1225.752797
723.085867,-9622.677246,0.000000,1072.533697
723.086187,-9548.656652,0.000000,842.705048
723.086508,-9326.594869,74.020594,612.876398
723.086829,-9474.636058,0.000000,919.314598
723.087149,-9474.636058,0.000000,842.705048
723.087470,-9548.656652,0.000000,919.314598
723.087790,-9474.636058,0.000000,919.314598
723.088111,-9622.677246,-148.041188,995.924147
723.088432,-9770.718434,-222.061783,459.657299
723.088752,-9548.656652,0.000000,766.095498
723.089073,-9696.697840,0.000000,536.266849
723.089394,-9474.636058,370.102971,1149.143247
723.089714,-9474.636058,-148.041188,612.876398
723.090035,-9548.656652,0.000000,766.095498
723.090355,-9622.677246,-148.041188,766.095498
723.090676,-9474.636058,0.000000,995.924147
723.090997,-9252.574275,-74.020594,306.438199
723.091317,-9474.636058,74.020594,1149.143247
723.091638,-9474.636058,-370.102971,536.266849
723.091959,-9548.656652,-296.082377,842.705048
723.092279,-9548.656652,-370.102971,842.705048
723.092600,-9992.780217,0.000000,1149.143247
723.092920,-9622.677246,-222.061783,1149.143247
723.093241,-9474.636058,-592.164754,919.314598
723.093562,-9548.656652,-370.102971,1225.752797
723.093882,-9474.636058,-148.041188,2374.896044
723.094203,-9696.697840,-222.061783,1302.362347
723.094524,-9992.780217,-666.185348,1302.362347
723.094844,-9696.697840,-444.123565,1149.143247
723.095165,-9548.656652,-370.102971,1302.362347
723.095485,-9474.636058,-296.082377,536.266849
723.095806,-9622.677246,-444.123565,1455.581446
723.096126,-9548.656652,-148.041188,1302.362347
723.096447,-9770.718434,-444.123565,1532.190996
723.096768,-9400.615463,-592.164754,459.657299
723.097088,-9548.656652,-518.144159,1532.190996
723.097409,-9770.718434,-666.185348,1378.971896
723.097729,-9622.677246,-518.144159,1455.581446
723.098050,-9548.656652,-666.185348,1532.190996
723.098371,-9696.697840,-962.267725,1378.971896
723.098691,-9770.718434,-444.123565,1302.362347
723.099012,-9696.697840,-370.102971,1378.971896
723.099332,-9622.677246,-666.185348,1225.752797
723.099653,-9548.656652,-296.082377,1149.143247
723.099974,-9844.739029,0.000000,1455.581446
723.100294,-9474.636058,-370.102971,1455.581446
723.100615,-9622.677246,-296.082377,1302.362347
723.100935,-9474.636058,-370.102971,1072.533697
723.101256,-9622.677246,-222.061783,1225.752797
723.101577,-9326.594869,-148.041188,995.924147
723.101897,-9474.636058,-444.123565,1072.533697
723.102218,-9474.636058,-296.082377,689.485948
723.102538,-9548.656652,-518.144159,919.314598
723.102859,-9400.615463,-444.123565,1915.238745
723.103180,-9548.656652,-370.102971,995.924147
723.103500,-9844.739029,-666.185348,612.876398
723.103821,-9622.677246,-370.102971,842.705048
723.104141,-9696.697840,-444.123565,612.876398
723.104462,-10140.821405,518.144159,0.000000
723.104783,-9696.697840,-296.082377,459.657299
723.105103,-9770.718434,-296.082377,919.314598
723.105424,-9548.656652,-444.123565,459.657299
723.105744,-9326.594869,-370.102971,766.095498
723.106065,-10066.800811,-444.123565,842.705048
723.106386,-9696.697840,-444.123565,536.266849
723.106706,-9474.636058,-296.082377,612.876398
723.107027,-9548.656652,-518.144159,689.485948
723.107347,-9474.636058,-592.164754,1685.410096
723.107668,-9622.677246,-592.164754,1072.533697
723.107989,-9696.697840,-592.164754,612.876398
723.108309,-9548.656652,-444.123565,1225.752797
723.108630,-9548.656652,-296.082377,1149.143247
723.108950,-9622.677246,-592.164754,1225.752797
723.109271,-9548.656652,-222.061783,995.924147
723.109592,-9622.677246,-296.082377,766.095498
723.109912,-9474.636058,-592.164754,919.314598
723.110233,-9622.677246,-592.164754,842.705048
723.110553,-9770.718434,-222.061783,1302.362347
723.110874,-9696.697840,-518.144159,1072.533697
723.111195,-9474.636058,-666.185348,1149.143247
723.111515,-9622.677246,-444.123565,995.924147
723.111836,-8956.491898,-962.267725,2451.505594
723.112156,-9622.677246,-518.144159,1455.581446
723.112477,-9622.677246,-592.164754,919.314598
723.112798,-9770.718434,-370.102971,1532.190996
723.113118,-9400.615463,-592.164754,1149.143247
723.113439,-10066.800811,-296.082377,842.705048
723.113759,-9252.574275,-444.123565,1072.533697
723.114080,-9474.636058,-296.082377,1225.752797
723.114400,-9548.656652,-370.102971,1149.143247
723.114721,-9326.594869,-148.041188,1149.143247
723.115042,-9622.677246,-444.123565,1762.019645
723.115362,-9622.677246,-222.061783,1378.971896
723.115683,-9474.636058,-296.082377,1225.752797
723.116003,-9696.697840,-296.082377,1532.190996
723.116324,-9622.677246,-370.102971,1225.752797
723.116645,-9548.656652,-222.061783,1225.752797
723.116965,-9770.718434,-222.061783,1225.752797
723.117286,-9474.636058,-296.082377,1149.143247
723.117606,-9474.636058,0.000000,1302.362347
723.117927,-9622.677246,-296.082377,1455.581446
723.118248,-9622.677246,-296.082377,1302.362347
723.118568,-9548.656652,-222.061783,1455.581446
723.118889,-9622.677246,-296.082377,1302.362347
723.119209,-9474.636058,-296.082377,1149.143247
723.119530,-9770.718434,148.041188,995.924147
723.119851,-9400.615463,0.000000,995.924147
723.120171,-9474.636058,0.000000,1302.362347
723.120492,-9992.780217,-222.061783,1072.533697
723.120812,-9696.697840,-222.061783,919.314598
723.121133,-9252.574275,-222.061783,1378.971896
723.121454,-9474.636058,-222.061783,919.314598
723.121774,-9474.636058,-518.144159,1302.362347
723.122095,-9548.656652,-222.061783,1149.143247
723.122415,-9474.636058,-518.144159,919.314598
723.122736,-9622.677246,-592.164754,689.485948
723.123057,-9548.656652,-222.061783,919.314598
723.123377,-9696.697840,-148.041188,1072.533697
723.123698,-9474.636058,-222.061783,1532.190996
723.124018,-9474.636058,-222.061783,1455.581446
723.124339,-9474.636058,-148.041188,1455.581446
723.124660,-9548.656652,-370.102971,1149.143247
723.124980,-9622.677246,-444.123565,1149.143247
723.125301,-9474.636058,-370.102971,1225.752797
723.125621,-9622.677246,-370.102971,1532.190996
723.125942,-9474.636058,-148.041188,689.485948
723.126263,-9474.636058,-222.061783,995.924147
723.126583,-9548.656652,-518.144159,842.705048
723.126904,-9548.656652,-666.185348,1149.143247
723.127224,-9992.780217,0.000000,2221.676944
723.127545,-9696.697840,-296.082377,1149.143247
723.127866,-9696.697840,-296.082377,1072.533697
723.128186,-9992.780217,-296.082377,1072.533697
723.128507,-9548.656652,-370.102971,842.705048
723.128827,-9030.512492,-1110.308913,842.705048
723.129148,-9548.656652,-444.123565,1072.533697
723.129469,-9474.636058,-666.185348,919.314598
723.129789,-9474.636058,-592.164754,1149.143247
723.130110,-9696.697840,-444.123565,995.924147
723.130430,-9474.636058,-444.123565,612.876398
723.130751,-9548.656652,-444.123565,1072.533697
723.131072,-9474.636058,-518.144159,1149.143247
723.131392,-9696.697840,-444.123565,1378.971896
723.131713,-9548.656652,222.061783,2068.457845
723.132033,-9474.636058,-296.082377,919.314598
723.132354,-9770.718434,-370.102971,1378.971896
723.132675,-9770.718434,-518.144159,1225.752797
723.132995,-9992.780217,-370.102971,1302.362347
723.133316,-9474.636058,-296.082377,842.705048
723.133636,-9548.656652,-148.041188,995.924147
723.133957,-9474.636058,-296.082377,1225.752797
723.134277,-9622.677246,-370.102971,1455.581446
723.134598,-9548.656652,-222.061783,842.705048
723.134919,-9844.739029,222.061783,306.438199
723.135239,-9548.656652,-148.041188,1149.143247
723.135560,-9844.739029,-296.082377,1225.752797
723.135880,-9844.739029,-370.102971,919.314598
723.136201,-9548.656652,-148.041188,919.314598
723.136522,-9252.574275,-296.082377,1225.752797
723.136842,-9770.718434,-370.102971,1149.143247
723.137163,-9770.718434,-370.102971,1302.362347
723.137483,-9622.677246,-296.082377,1149.143247
723.137804,-9474.636058,0.000000,1072.533697
723.138125,-9400.615463,-148.041188,612.876398
723.138445,-9474.636058,-296.082377,1225.752797
723.138766,-9474.636058,-370.102971,919.314598
723.139086,-9548.656652,-74.020594,995.924147
723.139407,-9474.636058,74.020594,689.485948
723.139728,-9474.636058,-518.144159,1225.752797
723.140048,-9548.656652,-518.144159,1072.533697
723.140369,-9770.718434,-370.102971,1072.533697
723.140689,-9696.697840,-222.061783,919.314598
723.141010,-10732.986159,148.041188,-459.657299
723.141331,-9622.677246,-296.082377,995.924147
723.141651,-9696.697840,-222.061783,766.095498
723.141972,-9474.636058,-296.082377,1149.143247
723.142292,-9622.677246,-148.041188,612.876398
723.142613,-9474.636058,148.041188,536.266849
723.142934,-9474.636058,-444.123565,842.705048
723.143254,-9548.656652,-370.102971,689.485948
723.143575,-9548.656652,-296.082377,612.876398
723.143895,-9622.677246,-296.082377,842.705048
723.144216,-10140.821405,0.000000,1455.581446
723.144537,-9918.759623,-444.123565,919.314598
723.144857,-9622.677246,-518.144159,1072.533697
723.145178,-9918.759623,-592.164754,689.485948
723.145498,-9770.718434,-592.164754,919.314598
723.145819,-9770.718434,-666.185348,383.047749
723.146140,-9548.656652,-370.102971,842.705048
723.146460,-9474.636058,-444.123565,1225.752797
723.146781,-9770.718434,-740.205942,842.705048
723.147101,-9400.615463,-518.144159,689.485948
723.147422,-9400.615463,-666.185348,689.485948
723.147743,-9770.718434,-518.144159,995.924147
723.148063,-9474.636058,-592.164754,995.924147
723.148384,-9622.677246,-518.144159,842.705048
723.148704,-9622.677246,-592.164754,1225.752797
723.149025,-9400.615463,-814.226536,995.924147
723.149346,-9696.697840,-592.164754,842.705048
723.149666,-9770.718434,-370.102971,1378.971896
723.149987,-9696.697840,-370.102971,1302.362347
723.150307,-8956.491898,-888.247130,383.047749
723.150628,-9622.677246,-518.144159,1532.190996
723.150949,-9622.677246,-592.164754,1455.581446
723.151269,-9770.718434,-148.041188,1225.752797
723.151590,-9474.636058,-518.144159,1378.971896
723.151910,-9918.759623,0.000000,1685.410096
723.152231,-9696.697840,0.000000,1455.581446
723.152552,-9548.656652,-222.061783,1455.581446
723.152872,-9622.677246,-296.082377,1455.581446
723.153193,-9474.636058,-74.020594,1455.581446
723.153513,-9622.677246,-592.164754,1455.581446
723.153834,-9622.677246,-222.061783,1149.143247
723.154154,-9770.718434,-370.102971,1532.190996
723.154475,-9622.677246,0.000000,1378.971896
723.154796,-9548.656652,-296.082377,1149.143247
723.155116,-9326.594869,0.000000,1149.143247
723.155437,-9622.677246,-74.020594,1378.971896
723.155757,-9474.636058,-148.041188,1302.362347
723.156078,-9622.677246,-296.082377,1302.362347
723.156399,-9252.574275,0.000000,919.314598
723.156719,-9622.677246,-222.061783,842.705048
723.157040,-9400.615463,-148.041188,1072.533697
723.157360,-9622.677246,0.000000,1225.752797
723.157681,-9326.594869,0.000000,842.705048
723.158002,-9992.780217,0.000000,2451.505594
723.158322,-9474.636058,-296.082377,612.876398
723.158643,-9548.656652,-222.061783,1378.971896
723.158963,-9622.677246,-444.123565,842.705048
723.159284,-9474.636058,-296.082377,306.438199
723.159605,-9326.594869,-74.020594,0.000000
723.159925,-9548.656652,-370.102971,689.485948
723.160246,-9548.656652,-444.123565,1072.533697
723.160566,-9622.677246,-518.144159,919.314598
723.160887,-9474.636058,-148.041188,842.705048
723.161208,-9474.636058,-370.102971,766.095498
723.161528,-9474.636058,-74.020594,995.924147
723.161849,-9622.677246,0.000000,1149.143247
723.162169,-9770.718434,0.000000,1225.752797
723.162490,-9548.656652,0.000000,919.314598
723.162811,-9474.636058,-592.164754,1302.362347
723.163131,-9548.656652,-592.164754,842.705048
723.163452,-9770.718434,-296.082377,995.924147
723.163772,-9474.636058,-296.082377,1149.143247
723.164093,-9474.636058,-518.144159,1225.752797
723.164414,-9622.677246,-370.102971,995.924147
723.164734,-9770.718434,-222.061783,1149.143247
723.165055,-9696.697840,-592.164754,1532.190996
723.165375,-9696.697840,-222.061783,1532.190996
723.165696,-9178.553681,-1332.370696,1302.362347
723.166017,-9548.656652,-222.061783,1532.190996
723.166337,-9548.656652,-444.123565,1685.410096
723.166658,-9622.677246,-444.123565,1225.752797
723.166978,-9474.636058,-370.102971,1225.752797
723.167299,-9992.780217,148.041188,1838.629195
723.167620,-9622.677246,-74.020594,1762.019645
723.167940,-9770.718434,-444.123565,1455.581446
723.168261,-9474.636058,-222.061783,1455.581446
723.168581,-9918.759623,-370.102971,1149.143247
723.168902,-8808.450710,-74.020594,1685.410096
723.169223,-9696.697840,-518.144159,1302.362347
723.169543,-9548.656652,-222.061783,1685.410096
723.169864,-9548.656652,-518.144159,1302.362347
723.170184,-9622.677246,0.000000,1225.752797
723.170505,-9474.636058,74.020594,1302.362347
723.170826,-9474.636058,0.000000,1378.971896
723.171146,-9622.677246,0.000000,1225.752797
723.171467,-9548.656652,-296.082377,1149.143247
723.171787,-9548.656652,-296.082377,1378.971896
723.172108,-9548.656652,0.000000,306.438199
723.172429,-9548.656652,-370.102971,1302.362347
723.172749,-9548.656652,0.000000,1225.752797
723.173070,-9474.636058,-222.061783,766.095498
723.173390,-9548.656652,-74.020594,919.314598
723.173711,-9326.594869,-592.164754,1378.971896
723.174031,-9474.636058,-148.041188,766.095498
723.174352,-9548.656652,0.000000,766.095498
723.174673,-9770.718434,-296.082377,766.095498
723.174993,-9548.656652,-296.082377,689.485948
723.175314,-9178.553681,-148.041188,229.828649
723.175634,-9696.697840,-74.020594,766.095498
723.175955,-9474.636058,-444.123565,689.485948
723.176276,-9696.697840,-370.102971,689.485948
723.176596,-9474.636058,-444.123565,766.095498
723.176917,-9400.615463,-888.247130,1072.533697
723.177237,-9474.636058,-592.164754,459.657299
723.177558,-9622.677246,-370.102971,766.095498
723.177879,-9696.697840,-592.164754,1072.533697
723.178199,-9548.656652,-592.164754,995.924147
723.178520,-9696.697840,-444.123565,612.876398
723.178840,-9474.636058,-888.247130,1072.533697
723.179161,-9622.677246,-296.082377,1302.362347
723.179482,-9622.677246,-518.144159,766.095498
723.179802,-9326.594869,0.000000,2451.505594
723.180123,-9770.718434,-370.102971,1225.752797
723.180443,-9474.636058,-814.226536,1072.533697
723.180764,-9622.677246,-666.185348,995.924147
723.181085,-9696.697840,-666.185348,1072.533697
723.181405,-9400.615463,-296.082377,1225.752797
723.181726,-9622.677246,-814.226536,689.485948
723.182046,-9474.636058,-592.164754,919.314598
723.182367,-9622.677246,-888.247130,995.924147
723.182688,-9548.656652,-296.082377,1225.752797
723.183008,-9844.739029,-518.144159,612.876398
723.183329,-9622.677246,-518.144159,1072.533697
723.183649,-9548.656652,-592.164754,689.485948
723.183970,-9474.636058,-592.164754,1149.143247
723.184291,-9696.697840,-592.164754,1378.971896
723.184611,-9326.594869,-518.144159,1608.800546
723.184932,-9622.677246,-444.123565,1225.752797
723.185252,-9548.656652,-296.082377,1149.143247
723.185573,-9696.697840,0.000000,1455.581446
723.185894,-9474.636058,0.000000,1378.971896
723.186214,-10214.842000,-74.020594,1455.581446
723.186535,-9696.697840,-370.102971,1378.971896
723.186855,-9770.718434,-296.082377,1149.143247
723.187176,-9474.636058,-370.102971,1302.362347
723.187497,-9548.656652,-296.082377,2068.457845
723.187817,-9770.718434,0.000000,1302.362347
723.188138,-9548.656652,-74.020594,1302.362347
723.188458,-9696.697840,0.000000,1378.971896
723.188779,-9696.697840,0.000000,1225.752797
723.189100,-9474.636058,0.000000,1685.410096
723.189420,-9474.636058,0.000000,1302.362347
723.189741,-9696.697840,-296.082377,1072.533697
723.190061,-9474.636058,-222.061783,919.314598
723.190382,-9622.677246,-222.061783,1072.533697
723.190703,-9992.780217,74.020594,1225.752797
723.191023,-9622.677246,-296.082377,1072.533697
723.191344,-9400.615463,-74.020594,842.705048
723.191664,-9696.697840,-148.041188,612.876398
723.191985,-9474.636058,0.000000,842.705048
723.192306,-9474.636058,-148.041188,1072.533697
723.192626,-9474.636058,-148.041188,1072.533697
723.192947,-9844.739029,0.000000,1149.143247
723.193267,-9474.636058,0.000000,689.485948
723.193588,-9622.677246,0.000000,1302.362347
723.193908,-9474.636058,0.000000,612.876398
723.194229,-9548.656652,-74.020594,1072.533697
723.194550,-9548.656652,-148.041188,995.924147
723.194870,-9548.656652,0.000000,1072.533697
723.195191,-9474.636058,814.226536,536.266849
723.195511,-9326.594869,-370.102971,1225.752797
723.195832,-9474.636058,0.000000,1302.362347
723.196153,-9548.656652,-444.123565,689.485948
723.196473,-9548.656652,-148.041188,995.924147
723.196794,-9548.656652,0.000000,153.219100
723.197114,-9474.636058,-370.102971,1225.752797
723.197435,-9622.677246,-444.123565,1378.971896
723.197756,-9622.677246,-444.123565,995.924147
723.198076,-9696.697840,-296.082377,1072.533697
723.198397,-9178.553681,-592.164754,2068.457845
723.198717,-9474.636058,-370.102971,1302.362347
723.199038,-9474.636058,-444.123565,1225.752797
723.199359,-9474.636058,-148.041188,1225.752797
723.199679,-9770.718434,-444.123565,1149.143247
723.200000,-9474.636058,-518.144159,0.000000
723.200320,-9622.677246,0.000000,842.705048
723.200641,-9844.739029,-370.102971,1378.971896
723.200962,-9696.697840,-222.061783,1302.362347
723.201282,-9918.759623,-592.164754,1149.143247
723.201603,-9400.615463,222.061783,1072.533697
723.201924,-9622.677246,-592.164754,612.876398
723.202244,-9622.677246,-296.082377,1302.362347
723.202565,-9770.718434,-370.102971,1608.800546
723.202885,-9548.656652,-370.102971,1378.971896
723.203206,-9770.718434,-222.061783,1302.362347
723.203527,-9178.553681,-148.041188,536.266849
723.203847,-9770.718434,-296.082377,1455.581446
723.204168,-9622.677246,-222.061783,1378.971896
723.204489,-9474.636058,-74.020594,1608.800546
723.204809,-9548.656652,-370.102971,1225.752797
723.205130,-9696.697840,370.102971,3294.210641
723.205451,-9622.677246,-296.082377,1072.533697
723.205771,-9696.697840,0.000000,1455.581446
723.206092,-9622.677246,-222.061783,1225.752797
723.206412,-9548.656652,0.000000,1532.190996
723.206733,-9326.594869,-148.041188,2451.505594
723.207054,-9622.677246,0.000000,1455.581446
723.207374,-9770.718434,-296.082377,1455.581446
723.207695,-9622.677246,-222.061783,1225.752797
723.208016,-9474.636058,-444.123565,1149.143247
723.208336,-9474.636058,0.000000,1072.533697
723.208657,-9548.656652,-148.041188,1072.533697
723.208978,-9474.636058,-296.082377,1149.143247
723.209298,-9696.697840,-222.061783,1072.533697
723.209619,-9474.636058,-370.102971,1149.143247
723.209939,-8956.491898,-296.082377,1915.238745
723.210260,-9622.677246,-296.082377,1149.143247
723.210581,-9622.677246,-74.020594,919.314598
723.210901,-9474.636058,-444.123565,919.314598
723.211222,-9474.636058,-444.123565,459.657299
723.211543,-9844.739029,-222.061783,229.828649
723.211863,-9622.677246,-962.267725,919.314598
723.212184,-9474.636058,-518.144159,995.924147
723.212505,-9622.677246,-296.082377,842.705048
723.212825,-9622.677246,-370.102971,919.314598
723.213146,-9770.718434,-518.144159,995.924147
723.213466,-10288.862594,-148.041188,1225.752797
723.213787,-9474.636058,-518.144159,1072.533697
723.214108,-9400.615463,-666.185348,536.266849
723.214428,-9622.677246,-666.185348,995.924147
723.214749,-9474.636058,-296.082377,459.657299
723.215070,-10140.821405,-148.041188,689.485948
723.215390,-9696.697840,-296.082377,995.924147
723.215711,-9548.656652,-814.226536,766.095498
723.216032,-9770.718434,-518.144159,842.705048
723.216352,-9622.677246,-518.144159,995.924147
723.216673,-9622.677246,-444.123565,536.266849
723.216993,-9696.697840,-370.102971,1991.848295
723.217314,-9622.677246,-740.205942,919.314598
723.217635,-9474.636058,-518.144159,689.485948
723.217955,-9770.718434,-518.144159,919.314598
723.218276,-9548.656652,-518.144159,612.876398
723.218597,-9548.656652,-518.144159,842.705048
723.218917,-9622.677246,-592.164754,919.314598
723.219238,-9474.636058,-592.164754,842.705048
723.219559,-9696.697840,-444.123565,1378.971896
723.219879,-9696.697840,-888.247130,1225.752797
723.220200,-8882.471304,-1036.288319,1225.752797
723.220520,-9622.677246,-666.185348,1455.581446
723.220841,-9622.677246,-518.144159,1149.143247
723.221162,-9696.697840,-370.102971,1149.143247
723.221482,-9622.677246,-444.123565,1378.971896
723.221803,-9844.739029,-444.123565,1378.971896
723.222124,-9548.656652,-814.226536,1072.533697
723.222444,-9622.677246,-518.144159,1685.410096
723.222765,-9622.677246,-370.102971,1455.581446
723.223086,-9622.677246,-296.082377,1532.190996
723.223406,-9696.697840,-296.082377,1915.238745
723.223727,-9474.636058,-296.082377,1532.190996
723.224047,-9622.677246,-296.082377,1532.190996
723.224368,-9474.636058,-296.082377,1532.190996
723.224689,-10510.924376,-74.020594,1225.752797
723.225009,-9696.697840,-148.041188,1302.362347
723.225330,-9622.677246,0.000000,1608.800546
723.225651,-9474.636058,0.000000,1532.190996
723.225971,-9548.656652,-148.041188,1225.752797
723.226292,-9992.780217,0.000000,842.705048
723.226612,-9474.636058,-518.144159,1149.143247
723.226933,-9326.594869,-296.082377,842.705048
723.227254,-9474.636058,-370.102971,1225.752797
723.227574,-9252.574275,-222.061783,0.000000
723.227895,-9548.656652,-222.061783,1149.143247
723.228216,-9548.656652,-222.061783,1225.752797
723.228536,-9770.718434,-296.082377,1072.533697
723.228857,-9548.656652,0.000000,919.314598
723.229178,-9178.553681,0.000000,-229.828649
723.229498,-9548.656652,-148.041188,919.314598
723.229819,-9696.697840,-148.041188,842.705048
723.230139,-9474.636058,0.000000,842.705048
723.230460,-9474.636058,0.000000,842.705048
723.230781,-9770.718434,0.000000,1225.752797
723.231101,-9622.677246,-370.102971,919.314598
723.231422,-9474.636058,0.000000,689.485948
723.231743,-9622.677246,-370.102971,536.266849
723.232063,-9474.636058,148.041188,842.705048
723.232384,-9548.656652,-222.061783,612.876398
723.232705,-9548.656652,0.000000,842.705048
723.233025,-9696.697840,-222.061783,919.314598
723.233346,-9548.656652,-222.061783,766.095498
723.233666,-9918.759623,666.185348,1378.971896
723.233987,-9696.697840,0.000000,1225.752797
723.234308,-9918.759623,-370.102971,1072.533697
723.234628,-9474.636058,-148.041188,1072.533697
723.234949,-9548.656652,0.000000,919.314598
723.235270,-9474.636058,-296.082377,1302.362347
723.235590,-9770.718434,-222.061783,1302.362347
723.235911,-9548.656652,-296.082377,1455.581446
723.236232,-9622.677246,-148.041188,995.924147
723.236552,-9548.656652,222.061783,2145.067394
723.236873,-9548.656652,-592.164754,1225.752797
723.237193,-9474.636058,-296.082377,1225.752797
723.237514,-9474.636058,-296.082377,1608.800546
723.237835,-9474.636058,-222.061783,1225.752797
723.238155,-9918.759623,0.000000,1149.143247
723.238476,-9770.718434,-444.123565,1455.581446
723.238797,-9770.718434,0.000000,1685.410096
723.239117,-9622.677246,-370.102971,1685.410096
723.239438,-9474.636058,-222.061783,2145.067394
723.239759,-9844.739029,-148.041188,1608.800546
723.240079,-9622.677246,-370.102971,1455.581446
723.240400,-9474.636058,-222.061783,1532.190996
723.240720,-9400.615463,-296.082377,1378.971896
723.241041,-9400.615463,0.000000,1685.410096
723.241362,-9400.615463,-444.123565,1378.971896
723.241682,-9474.636058,-296.082377,1378.971896
723.242003,-9474.636058,-592.164754,1225.752797
723.242324,-9548.656652,-222.061783,1225.752797
723.242644,-9474.636058,-740.205942,1149.143247
723.242965,-9622.677246,-222.061783,1225.752797
723.243286,-9474.636058,-592.164754,919.314598
723.243606,-9474.636058,-222.061783,612.876398
723.243927,-9474.636058,-296.082377,1762.019645
723.244247,-9770.718434,0.000000,842.705048
723.244568,-9696.697840,-222.061783,1072.533697
723.244889,-9548.656652,-222.061783,766.095498
723.245209,-9622.677246,-370.102971,766.095498
723.245530,-9548.656652,-74.020594,1302.362347
723.245851,-9622.677246,-518.144159,766.095498
723.246171,-9548.656652,-518.144159,995.924147
723.246492,-9622.677246,-148.041188,689.485948
723.246813,-9548.656652,-592.164754,1302.362347
723.247133,-9622.677246,-222.061783,0.000000
723.247454,-9696.697840,-666.185348,459.657299
723.247774,-9770.718434,-518.144159,842.705048
723.248095,-9474.636058,-592.164754,689.485948
723.248416,-10066.800811,-814.226536,0.000000
723.248736,-9622.677246,-740.205942,919.314598
723.249057,-9696.697840,-814.226536,919.314598
723.249378,-9622.677246,-740.205942,842.705048
723.249698,-9770.718434,-296.082377,612.876398
723.250019,-9252.574275,-740.205942,612.876398
723.250340,-9622.677246,-444.123565,459.657299
723.250660,-9548.656652,-518.144159,1149.143247
723.250981,-9474.636058,-592.164754,995.924147
723.251301,-9770.718434,-370.102971,1915.238745
723.251622,-9474.636058,-592.164754,766.095498
723.251943,-9548.656652,-592.164754,842.705048
723.252263,-9844.739029,-888.247130,766.095498
723.252584,-9548.656652,-666.185348,842.705048
723.252905,-10658.965565,-296.082377,0.000000
723.253225,-9548.656652,-814.226536,919.314598
723.253546,-9622.677246,-740.205942,995.924147
723.253867,-9696.697840,-740.205942,1149.143247
723.254187,-9548.656652,-518.144159,1225.752797
723.254508,-9548.656652,-592.164754,919.314598
723.254828,-9474.636058,-444.123565,1302.362347
723.255149,-9474.636058,-444.123565,1149.143247
723.255470,-9548.656652,-444.123565,1455.581446
723.255790,-9252.574275,-74.020594,1532.190996
723.256111,-9622.677246,-296.082377,1302.362347
723.256432,-9622.677246,-370.102971,1378.971896
723.256752,-9622.677246,-444.123565,1532.190996
723.257073,-9770.718434,-296.082377,1378.971896
723.257394,-9918.759623,0.000000,1455.581446
723.257714,-9622.677246,-444.123565,1378.971896
723.258035,-9622.677246,0.000000,1455.581446
723.258355,-9548.656652,-222.061783,919.314598
723.258676,-9474.636058,-518.144159,153.219100
723.258997,-9622.677246,0.000000,1608.800546
723.259317,-9622.677246,0.000000,1302.362347
723.259638,-9548.656652,-296.082377,1532.190996
723.259959,-9622.677246,-148.041188,1378.971896
723.260279,-9548.656652,222.061783,1149.143247
723.260600,-9548.656652,0.000000,1302.362347
723.260920,-9622.677246,0.000000,1225.752797
723.261241,-9622.677246,74.020594,1072.533697
723.261562,-9622.677246,0.000000,842.705048
723.261882,-9622.677246,0.000000,459.657299
723.262203,-9622.677246,0.000000,689.485948
723.262524,-9548.656652,0.000000,919.314598
723.262844,-9622.677246,0.000000,842.705048
723.263165,-9992.780217,444.123565,995.924147
723.263486,-9326.594869,-222.061783,1302.362347
723.263806,-9548.656652,0.000000,919.314598
723.264127,-9474.636058,-148.041188,1149.143247
723.264447,-9548.656652,-148.041188,1455.581446
723.264768,-9918.759623,148.041188,995.924147
723.265089,-9622.677246,-296.082377,1072.533697
723.265409,-9622.677246,-444.123565,919.314598
723.265730,-9474.636058,-296.082377,919.314598
723.266051,-9474.636058,-370.102971,919.314598
723.266371,-9474.636058,-666.185348,1072.533697
723.266692,-9474.636058,-148.041188,995.924147
723.267013,-9548.656652,-148.041188,1072.533697
723.267333,-9548.656652,-148.041188,842.705048
723.267654,-9474.636058,0.000000,1225.752797
723.267974,-9474.636058,-518.144159,1149.143247
723.268295,-9474.636058,-296.082377,1455.581446
723.268616,-9548.656652,-370.102971,1378.971896
723.268936,-9696.697840,-296.082377,1225.752797
723.269257,-9474.636058,-592.164754,1149.143247
723.269578,-9622.677246,-444.123565,1072.533697
723.269898,-9548.656652,-296.082377,1225.752797
723.270219,-9696.697840,-592.164754,919.314598
723.270540,-9474.636058,-370.102971,1991.848295
723.270860,-9622.677246,-592.164754,1072.533697
723.271181,-9622.677246,-296.082377,1072.533697
723.271501,-9400.615463,-370.102971,995.924147
723.271822,-9622.677246,-222.061783,995.924147
723.272143,-9400.615463,-74.020594,1302.362347
723.272463,-9696.697840,-444.123565,1149.143247
723.272784,-9844.739029,-518.144159,1378.971896
723.273105,-9770.718434,-444.123565,1149.143247
723.273425,-9696.697840,-518.144159,919.314598
723.273746,-9400.615463,-592.164754,919.314598
723.274067,-9548.656652,-370.102971,1225.752797
723.274387,-9548.656652,-592.164754,1302.362347
723.274708,-9548.656652,-370.102971,1455.581446
723.275028,-9770.718434,-518.144159,689.485948
723.275349,-9770.718434,-222.061783,1072.533697
723.275670,-9474.636058,-444.123565,1532.190996
723.275990,-9696.697840,-148.041188,1072.533697
723.276311,-9474.636058,-296.082377,919.314598
723.276632,-9548.656652,0.000000,1838.629195
723.276952,-9622.677246,-148.041188,1532.190996
723.277273,-9696.697840,-296.082377,1455.581446
723.277594,-9696.697840,-296.082377,1302.362347
723.277914,-9548.656652,-370.102971,1302.362347
723.278235,-10214.842000,-592.164754,1378.971896
723.278555,-9622.677246,-370.102971,995.924147
723.278876,-9474.636058,-518.144159,919.314598
723.279197,-9548.656652,-296.082377,1378.971896
723.279517,-9770.718434,-370.102971,0.000000
723.279838,-9474.636058,-296.082377,995.924147
723.280159,-9622.677246,-296.082377,1072.533697
723.280479,-9474.636058,-222.061783,1072.533697
723.280800,-9622.677246,0.000000,919.314598
723.281121,-9844.739029,0.000000,1378.971896
723.281441,-9548.656652,-370.102971,1455.581446
723.281762,-9696.697840,-518.144159,689.485948
723.282082,-9548.656652,-222.061783,919.314598
723.282403,-9696.697840,-222.061783,919.314598
723.282724,-9474.636058,-740.205942,536.266849
723.283044,-9474.636058,-296.082377,689.485948
723.283365,-9474.636058,-666.185348,995.924147
723.283686,-9622.677246,-370.102971,995.924147
723.284006,-9622.677246,-518.144159,842.705048
723.284327,-9400.615463,-518.144159,1149.143247
723.284648,-9400.615463,-296.082377,689.485948
723.284968,-9622.677246,-296.082377,1072.533697
723.285289,-9622.677246,0.000000,919.314598
723.285609,-10066.800811,-1258.350101,1302.362347
723.285930,-9770.718434,-518.144159,842.705048
723.286251,-9696.697840,-666.185348,766.095498
723.286571,-9548.656652,-518.144159,1072.533697
723.286892,-9622.677246,-444.123565,766.095498
723.287213,-9622.677246,-592.164754,995.924147
723.287533,-9474.636058,-592.164754,1072.533697
723.287854,-9548.656652,-814.226536,995.924147
723.288175,-9622.677246,-592.164754,766.095498
723.288495,-9992.780217,-1036.288319,1302.362347
723.288816,-9474.636058,-518.144159,842.705048
723.289136,-9622.677246,-370.102971,1072.533697
723.289457,-9474.636058,-148.041188,1072.533697
723.289778,-9474.636058,-444.123565,995.924147
723.290098,-9696.697840,-666.185348,612.876398
723.290419,-9622.677246,-518.144159,689.485948
723.290740,-9474.636058,-666.185348,842.705048
723.291060,-9696.697840,-518.144159,1072.533697
723.291381,-9696.697840,-148.041188,1838.629195
723.291701,-9696.697840,-370.102971,1149.143247
723.292022,-9622.677246,-592.164754,1455.581446
723.292343,-9992.780217,-666.185348,1072.533697
723.292663,-9548.656652,-592.164754,1378.971896
723.292984,-10288.862594,-148.041188,2068.457845
723.293305,-9548.656652,-296.082377,1455.581446
723.293625,-9400.615463,-296.082377,1378.971896
723.293946,-9400.615463,0.000000,1455.581446
723.294267,-9696.697840,-296.082377,1302.362347
723.294587,-9474.636058,-222.061783,1532.190996
723.294908,-9622.677246,-370.102971,1302.362347
723.295228,-9548.656652,0.000000,1608.800546
723.295549,-9622.677246,-444.123565,1608.800546
723.295870,-9474.636058,0.000000,612.876398
723.296190,-9844.739029,-444.123565,1149.143247
723.296511,-9548.656652,-148.041188,1762.019645
723.296832,-9548.656652,-444.123565,1532.190996
723.297152,-9474.636058,-296.082377,1455.581446
723.297473,-9252.574275,-814.226536,612.876398
723.297794,-9622.677246,-222.061783,766.095498
723.298114,-9548.656652,0.000000,1149.143247
723.298435,-9548.656652,-148.041188,766.095498
723.298755,-9474.636058,-370.102971,1532.190996
723.299076,-9474.636058,-296.082377,612.876398
723.299397,-9548.656652,-296.082377,1072.533697
723.299717,-9622.677246,-148.041188,842.705048
723.300038,-9622.677246,0.000000,919.314598
723.300359,-9548.656652,296.082377,1915.238745
723.300679,-9474.636058,-148.041188,995.924147
723.301000,-9474.636058,-222.061783,919.314598
723.301321,-9474.636058,-518.144159,842.705048
723.301641,-9474.636058,-296.082377,459.657299
723.301962,-9474.636058,-444.123565,995.924147
723.302282,-9400.615463,-222.061783,536.266849
723.302603,-9622.677246,-222.061783,766.095498
723.302924,-9622.677246,0.000000,1149.143247
723.303244,-9622.677246,-296.082377,1072.533697
723.303565,-9548.656652,-222.061783,842.705048
723.303886,-9770.718434,-370.102971,995.924147
723.304206,-9844.739029,-370.102971,1149.143247
723.304527,-9696.697840,-444.123565,1225.752797
723.304848,-9622.677246,-296.082377,1532.190996
723.305168,-9548.656652,-444.123565,1225.752797
723.305489,-9696.697840,-296.082377,1149.143247
723.305810,-9622.677246,0.000000,1149.143247
723.306130,-9622.677246,-444.123565,1302.362347
723.306451,-9696.697840,-296.082377,689.485948
723.306771,-9548.656652,-666.185348,995.924147
723.307092,-9770.718434,-444.123565,1302.362347
723.307413,-9548.656652,-444.123565,1762.019645
723.307733,-9696.697840,-444.123565,1378.971896
723.308054,-9474.636058,-370.102971,1225.752797
723.308375,-9622.677246,-74.020594,1225.752797
723.308695,-9770.718434,-222.061783,1532.190996
723.309016,-9918.759623,-222.061783,1455.581446
723.309337,-9696.697840,0.000000,1072.533697
723.309657,-9622.677246,-148.041188,1608.800546
723.309978,-9474.636058,-296.082377,1455.581446
723.310298,-9474.636058,-518.144159,1455.581446
723.310619,-9474.636058,-296.082377,1225.752797
723.310940,-9992.780217,-148.041188,842.705048
723.311260,-9474.636058,-444.123565,1225.752797
723.311581,-9622.677246,0.000000,1225.752797
723.311902,-9622.677246,0.000000,1302.362347
723.312222,-9622.677246,74.020594,1302.362347
723.312543,-9918.759623,148.041188,1225.752797
723.312864,-9696.697840,-296.082377,1149.143247
723.313184,-9548.656652,0.000000,995.924147
723.313505,-9696.697840,0.000000,1072.533697
723.313826,-9844.739029,148.041188,2911.162892
723.314146,-9622.677246,0.000000,1149.143247
723.314467,-9474.636058,0.000000,766.095498
723.314787,-9474.636058,-148.041188,842.705048
723.315108,-9474.636058,-296.082377,1225.752797
723.315429,-8068.244768,-222.061783,766.095498
723.315749,-9548.656652,-444.123565,995.924147
723.316070,-9622.677246,-222.061783,766.095498
723.316391,-9622.677246,-296.082377,383.047749
723.316711,-9474.636058,-370.102971,2068.457845
723.317032,-9696.697840,-296.082377,689.485948
723.317353,-9548.656652,-370.102971,612.876398
723.317673,-9622.677246,-296.082377,536.266849
723.317994,-9696.697840,-444.123565,919.314598
723.318314,-9104.533087,-222.061783,1302.362347
723.318635,-10066.800811,0.000000,919.314598
723.318956,-9474.636058,-592.164754,842.705048
723.319276,-9622.677246,-444.123565,919.314598
723.319597,-9622.677246,-592.164754,995.924147
723.319918,-9844.739029,-666.185348,689.485948
723.320238,-9548.656652,-518.144159,1072.533697
723.320559,-9474.636058,-518.144159,1149.143247
723.320880,-9474.636058,-518.144159,766.095498
723.321200,-9474.636058,-740.205942,1378.971896
723.321521,-9844.739029,-888.247130,919.314598
723.321842,-9548.656652,-740.205942,1149.143247
723.322162,-9696.697840,-888.247130,1149.143247
723.322483,-9696.697840,-592.164754,766.095498
723.322803,-9696.697840,-1036.288319,2221.676944
723.323124,-9548.656652,-518.144159,1149.143247
723.323445,-9474.636058,-666.185348,1225.752797
723.323765,-9622.677246,-814.226536,1149.143247
723.324086,-9548.656652,-518.144159,1072.533697
723.324407,-9178.553681,-962.267725,4826.401637
723.324727,-9474.636058,-518.144159,1302.362347
723.325048,-9548.656652,-592.164754,1302.362347
723.325369,-9474.636058,-666.185348,1455.581446
723.325689,-9474.636058,-740.205942,1225.752797
723.326010,-8734.430116,-962.267725,-229.828649
723.326330,-9474.636058,-518.144159,1225.752797
723.326651,-9474.636058,-592.164754,1225.752797
723.326972,-9622.677246,-814.226536,1225.752797
723.327292,-9400.615463,-814.226536,-459.657299
723.327613,-9844.739029,-370.102971,1455.581446
723.327934,-9622.677246,-148.041188,1225.752797
723.328254,-9622.677246,-296.082377,1532.190996
723.328575,-9622.677246,-444.123565,1225.752797
723.328896,-9400.615463,148.041188,1072.533697
723.329216,-9770.718434,-444.123565,1302.362347
723.329537,-9770.718434,-148.041188,1302.362347
723.329858,-9918.759623,-444.123565,1149.143247
723.330178,-9474.636058,-222.061783,1378.971896
723.330499,-9474.636058,74.020594,1072.533697
723.330819,-9400.615463,0.000000,1072.533697
723.331140,-9474.636058,-222.061783,1149.143247
723.331461,-9474.636058,-148.041188,995.924147
723.331781,-9548.656652,0.000000,612.876398
723.332102,-9326.594869,370.102971,612.876398
723.332423,-9770.718434,0.000000,919.314598
723.332743,-9622.677246,-74.020594,1225.752797
723.333064,-9770.718434,0.000000,1149.143247
723.333385,-9474.636058,444.123565,689.485948
723.333705,-9474.636058,0.000000,689.485948
723.334026,-9622.677246,-296.082377,689.485948
723.334346,-9474.636058,-222.061783,1149.143247
723.334667,-9474.636058,-370.102971,919.314598
723.334988,-9474.636058,296.082377,612.876398
723.335308,-9400.615463,-444.123565,842.705048
723.335629,-9696.697840,-222.061783,1149.143247
723.335950,-9474.636058,-296.082377,842.705048
723.336270,-9474.636058,-74.020594,1225.752797
723.336591,-9030.512492,-370.102971,1455.581446
723.336912,-9548.656652,-148.041188,1072.533697
723.337232,-9696.697840,-296.082377,995.924147
723.337553,-9474.636058,-222.061783,1072.533697
723.337874,-9622.677246,-148.041188,383.047749
723.338194,-9400.615463,-148.041188,1532.190996
723.338515,-9548.656652,0.000000,1225.752797
723.338835,-9474.636058,0.000000,766.095498
723.339156,-9770.718434,-444.123565,1302.362347
723.339477,-9030.512492,0.000000,2221.676944
723.339797,-9548.656652,-370.102971,842.705048
723.340118,-9548.656652,-296.082377,1072.533697
723.340439,-9770.718434,-148.041188,1225.752797
723.340759,-9770.718434,-222.061783,842.705048
723.341080,-9770.718434,-222.061783,1149.143247
723.341401,-9252.574275,0.000000,995.924147
723.341721,-9770.718434,-296.082377,1455.581446
723.342042,-9770.718434,-370.102971,1072.533697
723.342362,-9622.677246,-222.061783,1072.533697
723.342683,-9622.677246,-296.082377,536.266849
723.343004,-9696.697840,-370.102971,1072.533697
723.343324,-9474.636058,-592.164754,919.314598
723.343645,-9696.697840,-296.082377,919.314598
723.343966,-9770.718434,-296.082377,919.314598
723.344286,-9622.677246,-148.041188,1378.971896
723.344607,-9696.697840,-222.061783,1302.362347
723.344928,-9548.656652,-148.041188,1455.581446
723.345248,-9696.697840,-222.061783,1532.190996
723.345569,-9178.553681,296.082377,1302.362347
723.345890,-9474.636058,-296.082377,1225.752797
723.346210,-9474.636058,-148.041188,1149.143247
723.346531,-9474.636058,-222.061783,1072.533697
723.346851,-9474.636058,-222.061783,995.924147
723.347172,-9474.636058,370.102971,995.924147
723.347493,-9474.636058,0.000000,1072.533697
723.347813,-9622.677246,-222.061783,1378.971896
723.348134,-9918.759623,-370.102971,1302.362347
723.348455,-9622.677246,-74.020594,995.924147
723.348775,-9992.780217,0.000000,1225.752797
723.349096,-9770.718434,0.000000,1072.533697
723.349417,-9622.677246,-296.082377,995.924147
723.349737,-9474.636058,-148.041188,842.705048
723.350058,-10140.821405,148.041188,1072.533697
723.350378,-9548.656652,-148.041188,1072.533697
723.350699,-9548.656652,-444.123565,612.876398
723.351020,-9474.636058,-148.041188,612.876398
723.351340,-9622.677246,-370.102971,1455.581446
723.351661,-9918.759623,-1036.288319,1225.752797
723.351982,-9548.656652,-518.144159,766.095498
723.352302,-9474.636058,-444.123565,842.705048
723.352623,-10066.800811,-370.102971,612.876398
723.352944,-9770.718434,-296.082377,919.314598
723.353264,-8808.450710,-1110.308913,459.657299
723.353585,-9622.677246,-592.164754,689.485948
723.353906,-9474.636058,-666.185348,689.485948
723.354226,-9474.636058,-592.164754,842.705048
723.354547,-9474.636058,-740.205942,536.266849
723.354867,-9548.656652,-814.226536,459.657299
723.355188,-9548.656652,-296.082377,612.876398
723.355509,-9622.677246,-444.123565,1072.533697
723.355829,-9622.677246,-370.102971,689.485948
723.356150,-9770.718434,-814.226536,1302.362347
723.356471,-9770.718434,-592.164754,995.924147
723.356791,-9474.636058,-592.164754,842.705048
723.357112,-9474.636058,-592.164754,612.876398
723.357433,-9548.656652,-666.185348,612.876398
723.357753,-8882.471304,0.000000,1149.143247
723.358074,-9474.636058,-592.164754,459.657299
723.358394,-9622.677246,-370.102971,995.924147
723.358715,-9696.697840,-592.164754,1149.143247
723.359036,-9696.697840,-592.164754,1838.629195
723.359356,-9770.718434,-148.041188,1072.533697
723.359677,-9622.677246,-518.144159,766.095498
723.359998,-9770.718434,-592.164754,1072.533697
723.360318,-9548.656652,-814.226536,1149.143247
723.360639,-9104.533087,-444.123565,689.485948
723.360960,-9622.677246,-814.226536,612.876398
723.361280,-9548.656652,-444.123565,1072.533697
723.361601,-9770.718434,-296.082377,995.924147
723.361922,-9622.677246,-518.144159,1149.143247
723.362242,-9696.697840,-370.102971,2298.286494
723.362563,-9770.718434,-518.144159,1072.533697
723.362883,-9696.697840,-518.144159,1225.752797
723.363204,-9770.718434,-518.144159,1455.581446
723.363525,-9696.697840,-592.164754,1378.971896
723.363845,-9474.636058,-370.102971,2911.162892
723.364166,-9548.656652,-148.041188,1455.581446
723.364487,-9622.677246,-222.061783,1225.752797
723.364807,-9844.739029,0.000000,1685.410096
723.365128,-9844.739029,-74.020594,1532.190996
723.365449,-9696.697840,-222.061783,1991.848295
723.365769,-9622.677246,-370.102971,1225.752797
723.366090,-9918.759623,-444.123565,1532.190996
723.366410,-9548.656652,-74.020594,1225.752797
723.366731,-9474.636058,-296.082377,-229.828649
723.367052,-9474.636058,-296.082377,1072.533697
723.367372,-9474.636058,0.000000,1225.752797
723.367693,-9696.697840,0.000000,1302.362347
723.368014,-9622.677246,-370.102971,1149.143247
723.368334,-9030.512492,0.000000,-766.095498
723.368655,-9622.677246,0.000000,995.924147
723.368976,-9696.697840,0.000000,1225.752797
723.369296,-9400.615463,0.000000,995.924147
723.369617,-9474.636058,0.000000,1072.533697
723.369938,-9548.656652,0.000000,1608.800546
723.370258,-9548.656652,0.000000,1072.533697
723.370579,-9622.677246,0.000000,1149.143247
723.370899,-9548.656652,-148.041188,1149.143247
723.371220,-9474.636058,-222.061783,229.828649
723.371541,-9400.615463,-222.061783,1225.752797
723.371861,-9548.656652,-296.082377,1149.143247
723.372182,-9474.636058,-296.082377,1072.533697
723.372503,-9696.697840,-296.082377,842.705048
723.372823,-9400.615463,-814.226536,1378.971896
723.373144,-9474.636058,-296.082377,689.485948
723.373465,-9622.677246,-148.041188,1072.533697
723.373785,-9548.656652,-296.082377,766.095498
723.374106,-9622.677246,-296.082377,919.314598
723.374426,-9622.677246,-444.123565,1838.629195
723.374747,-9770.718434,0.000000,1149.143247
723.375068,-9622.677246,-370.102971,1378.971896
723.375388,-9622.677246,-148.041188,1685.410096
723.375709,-9548.656652,-444.123565,1608.800546
723.376030,-9918.759623,-370.102971,612.876398
723.376350,-9696.697840,-222.061783,1149.143247
723.376671,-9474.636058,-222.061783,1149.143247
723.376992,-9622.677246,-74.020594,1149.143247
723.377312,-9844.739029,-370.102971,153.219100
723.377633,-9696.697840,-444.123565,1378.971896
723.377954,-9622.677246,-370.102971,1302.362347
723.378274,-9770.718434,-222.061783,1455.581446
723.378595,-9548.656652,-370.102971,1378.971896
723.378915,-9992.780217,-1036.288319,2068.457845
723.379236,-9474.636058,-370.102971,1378.971896
723.379557,-9474.636058,-370.102971,1302.362347
723.379877,-9548.656652,-148.041188,1532.190996
723.380198,-9622.677246,-296.082377,1455.581446
723.380519,-9474.636058,-370.102971,1838.629195
723.380839,-9696.697840,-222.061783,1302.362347
723.381160,-9622.677246,-296.082377,1455.581446
723.381481,-9622.677246,-222.061783,1455.581446
723.381801,-8882.471304,0.000000,1455.581446
723.382122,-9474.636058,-518.144159,1608.800546
723.382442,-9474.636058,-518.144159,1225.752797
723.382763,-9474.636058,-370.102971,1225.752797
723.383084,-9474.636058,0.000000,1378.971896
723.383404,-10362.883188,-222.061783,-536.266849
723.383725,-9622.677246,-296.082377,1685.410096
723.384046,-9696.697840,-370.102971,919.314598
723.384366,-9474.636058,-148.041188,1149.143247
723.384687,-9474.636058,-296.082377,995.924147
723.385008,-9178.553681,-518.144159,995.924147
723.385328,-9104.533087,-222.061783,1072.533697
