#time,accel_x,accel_y,accel_z
1303.919338,-9696.697840,-74.020594,1225.752797
1303.919659,-9622.677246,-222.061783,919.314598
1303.919980,-9696.697840,-296.082377,919.314598
1303.920301,-9548.656652,-222.061783,1302.362347
1303.920622,-9400.615463,-148.041188,995.924147
1303.920943,-9622.677246,0.000000,995.924147
1303.921265,-9474.636058,-296.082377,919.314598
1303.921586,-9400.615463,-296.082377,1149.143247
1303.921907,-9622.677246,-296.082377,612.876398
1303.922228,-9696.697840,-222.061783,919.314598
1303.922549,-9622.677246,-592.164754,1072.533697
1303.922870,-9548.656652,-370.102971,766.095498
1303.923192,-9622.677246,74.020594,0.000000
1303.923513,-9844.739029,0.000000,919.314598
1303.923834,-9770.718434,0.000000,1455.581446
1303.924155,-9622.677246,-518.144159,1532.190996
1303.924476,-9696.697840,-814.226536,1225.752797
1303.924797,-8956.491898,-814.226536,842.705048
1303.925119,-9992.780217,-740.205942,1302.362347
1303.925440,-9548.656652,-592.164754,1225.752797
1303.925761,-9400.615463,-962.267725,1149.143247
1303.926082,-9326.594869,-666.185348,1072.533697
1303.926403,-9474.636058,-592.164754,689.485948
1303.926724,-9622.677246,-444.123565,1225.752797
1303.927046,-9770.718434,-518.144159,1225.752797
1303.927367,-9770.718434,-1184.329507,612.876398
1303.927688,-9770.718434,-370.102971,459.657299
1303.928009,-9474.636058,-370.102971,612.876398
1303.928330,-9622.677246,-518.144159,1149.143247
1303.928651,-9474.636058,-962.267725,1455.581446
1303.928973,-9770.718434,-1332.370696,1378.971896
1303.929294,-9474.636058,-1332.370696,1378.971896
1303.929615,-9696.697840,-1554.432478,1685.410096
1303.929936,-9918.759623,-1406.391290,2221.676944
1303.930257,-9548.656652,-814.226536,2298.286494
1303.930578,-9696.697840,-1480.411884,2221.676944
1303.930900,-9400.615463,-1258.350101,1915.238745
1303.931221,-9474.636058,-1110.308913,2145.067394
1303.931542,-9696.697840,-1332.370696,2145.067394
1303.931863,-9844.739029,-592.164754,2145.067394
1303.932184,-9474.636058,-962.267725,2374.896044
1303.932505,-9622.677246,-1036.288319,2528.115143
1303.932827,-9474.636058,-888.247130,2911.162892
1303.933148,-9918.759623,-1332.370696,3064.381992
1303.933469,-9770.718434,-1406.391290,3983.696590
1303.933790,-9696.697840,-1480.411884,4596.572988
1303.934111,-9622.677246,-1998.556043,4749.792088
1303.934432,-9474.636058,-2812.782580,6435.202183
1303.934753,-9474.636058,-2960.823768,5898.935335
1303.935075,-9178.553681,-3627.009116,5362.668486
1303.935396,-8956.491898,-3478.967927,5515.887586
1303.935717,-9252.574275,-3330.926739,4443.353888
1303.936038,-9104.533087,-3404.947333,5822.325785
1303.936359,-9252.574275,-3849.070898,5898.935335
1303.936680,-8882.471304,-3997.112087,5975.544884
1303.937002,-9474.636058,-4589.276840,5286.058936
1303.937323,-9400.615463,-4811.338623,5286.058936
1303.937644,-9326.594869,-5033.400406,4979.620737
1303.937965,-9400.615463,-4515.256246,4903.011187
1303.938286,-9548.656652,-4219.173869,4519.963438
1303.938607,-8882.471304,-2812.782580,4443.353888
1303.938929,-9474.636058,-3627.009116,4290.134789
1303.939250,-9474.636058,-3849.070898,4213.525239
1303.939571,-9696.697840,-4219.173869,4366.744339
1303.939892,-9400.615463,-4367.215058,6358.592633
1303.940213,-9474.636058,-5107.421000,3983.696590
1303.940534,-9400.615463,-5107.421000,3753.867940
1303.940856,-9474.636058,-5773.606348,3294.210641
1303.941177,-9104.533087,-5921.647536,2757.943793
1303.941498,-8956.491898,-5403.503377,1532.190996
1303.941819,-9252.574275,-4737.318029,995.924147
1303.942140,-9252.574275,-3478.967927,919.314598
1303.942461,-9622.677246,-2146.597232,919.314598
1303.942783,-10436.903782,-1036.288319,1608.800546
1303.943104,-10214.842000,-444.123565,612.876398
1303.943425,-10732.986159,-296.082377,1072.533697
1303.943746,-10658.965565,-1406.391290,2068.457845
1303.944067,-10658.965565,-2738.761985,2145.067394
1303.944388,-10288.862594,-3627.009116,3217.601092
1303.944710,-9770.718434,-4959.379811,2374.896044
1303.945031,-9178.553681,-5773.606348,2451.505594
1303.945352,-9178.553681,-5329.482782,2604.724693
1303.945673,-9030.512492,-4515.256246,3217.601092
1303.945994,-9252.574275,-3997.112087,3064.381992
1303.946315,-9400.615463,-3849.070898,2451.505594
1303.946637,-9474.636058,-3256.906145,1915.238745
1303.946958,-9770.718434,-2368.659014,1072.533697
1303.947279,-9622.677246,-1184.329507,689.485948
1303.947600,-9770.718434,814.226536,612.876398
1303.947921,-10214.842000,2812.782580,766.095498
1303.948242,-10140.821405,3108.864956,1685.410096
1303.948564,-10584.944971,2220.617826,2757.943793
1303.948885,-10584.944971,0.000000,3524.039291
1303.949206,-10584.944971,-2220.617826,4060.306139
1303.949527,-10066.800811,-4145.153275,4519.963438
1303.949848,-9178.553681,-4737.318029,5132.839837
1303.950169,-8808.450710,-4737.318029,6205.373534
1303.950490,-8290.306550,-5329.482782,6281.983084
1303.950812,-7328.038826,-4959.379811,5362.668486
1303.951133,-7994.224174,-4811.338623,4519.963438
1303.951454,-8068.244768,-3552.988522,3447.429741
1303.951775,-7624.121203,-1924.535449,2911.162892
1303.952096,-9030.512492,518.144159,2681.334243
1303.952417,-9252.574275,2886.803174,4903.011187
1303.952739,-9918.759623,2812.782580,3600.648841
1303.953060,-10881.027347,2072.576638,4366.744339
1303.953381,-10807.006753,222.061783,3600.648841
1303.953702,-11177.109724,-518.144159,4290.134789
1303.954023,-10288.862594,-2072.576638,4596.572988
1303.954344,-9548.656652,-2368.659014,4979.620737
1303.954666,-9326.594869,-4663.297435,5056.230287
1303.954987,-8438.347739,-6291.750507,4136.915689
1303.955308,-6661.853478,-6587.832884,919.314598
1303.955629,-8734.430116,-5181.441594,2834.553343
1303.955950,-8956.491898,-2738.761985,3907.087040
1303.956271,-9400.615463,-1850.514855,4060.306139
1303.956593,-9474.636058,-1332.370696,3217.601092
1303.956914,-9178.553681,-962.267725,1991.848295
1303.957235,-10214.842000,0.000000,2451.505594
1303.957556,-11399.171507,-148.041188,3600.648841
1303.957877,-11029.068536,-1036.288319,3140.991542
1303.958198,-9770.718434,-2368.659014,689.485948
1303.958520,-9326.594869,-2812.782580,-612.876398
1303.958841,-9104.533087,-1258.350101,-459.657299
1303.959162,-9770.718434,-518.144159,1225.752797
1303.959483,-10436.903782,0.000000,2987.772442
1303.959804,-9548.656652,-2738.761985,2834.553343
1303.960125,-9326.594869,-4515.256246,2221.676944
1303.960447,-9992.780217,-4589.276840,3600.648841
1303.960768,-10510.924376,-5107.421000,5056.230287
1303.961089,-9696.697840,-6661.853478,4443.353888
1303.961410,-8216.285956,-6291.750507,2068.457845
1303.961731,-7846.182985,-4441.235652,995.924147
1303.962052,-9474.636058,-2590.720797,2298.286494
1303.962374,-10362.883188,-1776.494261,4136.915689
1303.962695,-9770.718434,-2516.700203,2604.724693
1303.963016,-8734.430116,-1406.391290,1532.190996
1303.963337,-11473.192101,-2368.659014,2528.115143
1303.963658,-10066.800811,-1554.432478,6281.983084
1303.963979,-10584.944971,-4589.276840,4213.525239
1303.964301,-8512.368333,-4663.297435,2374.896044
1303.964622,-8512.368333,-2516.700203,2221.676944
1303.964943,-10066.800811,-1702.473667,4596.572988
1303.965264,-10436.903782,-2664.741391,5439.278036
1303.965585,-9104.533087,-3997.112087,4749.792088
1303.965906,-8882.471304,-5107.421000,3294.210641
1303.966227,-8586.388927,-5255.462188,2604.724693
1303.966549,-9770.718434,-4885.359217,1455.581446
1303.966870,-8142.265362,-2738.761985,2068.457845
1303.967191,-8216.285956,-222.061783,1608.800546
1303.967512,-8734.430116,666.185348,1455.581446
1303.967833,-8512.368333,1924.535449,1532.190996
1303.968154,-10881.027347,592.164754,2528.115143
1303.968476,-10807.006753,-370.102971,2681.334243
1303.968797,-9844.739029,-888.247130,2528.115143
1303.969118,-11029.068536,-3552.988522,2145.067394
1303.969439,-8956.491898,-1184.329507,1302.362347
1303.969760,-10362.883188,666.185348,3370.820191
1303.970081,-10288.862594,-888.247130,4749.792088
1303.970403,-8438.347739,-962.267725,3370.820191
1303.970724,-9770.718434,-2442.679609,3447.429741
1303.971045,-8586.388927,-2368.659014,1378.971896
1303.971366,-8438.347739,-2220.617826,1685.410096
1303.971687,-8216.285956,-1480.411884,2374.896044
1303.972008,-9178.553681,-1184.329507,2911.162892
1303.972330,-9548.656652,-592.164754,1149.143247
1303.972651,-9474.636058,-296.082377,1225.752797
1303.972972,-10732.986159,666.185348,2068.457845
1303.973293,-11547.212695,1184.329507,689.485948
1303.973614,-10066.800811,2516.700203,0.000000
1303.973935,-10436.903782,3627.009116,0.000000
1303.974257,-8438.347739,2886.803174,-995.924147
1303.974578,-10732.986159,888.247130,0.000000
1303.974899,-9844.739029,0.000000,0.000000
1303.975220,-8216.285956,-2072.576638,-1225.752797
1303.975541,-10140.821405,-740.205942,306.438199
1303.975862,-9474.636058,-518.144159,919.314598
1303.976182,-9030.512492,-814.226536,1225.752797
1303.976503,-9844.739029,518.144159,1149.143247
1303.976824,-9252.574275,-370.102971,0.000000
1303.977145,-9548.656652,444.123565,383.047749
1303.977465,-10658.965565,740.205942,1378.971896
1303.977786,-9696.697840,518.144159,459.657299
1303.978107,-9474.636058,962.267725,-842.705048
1303.978428,-8734.430116,3256.906145,-1378.971896
1303.978749,-8734.430116,4885.359217,-842.705048
1303.979069,-9622.677246,3997.112087,-459.657299
1303.979390,-9844.739029,2442.679609,1532.190996
1303.979711,-10362.883188,-222.061783,1685.410096
1303.980032,-10807.006753,-1850.514855,2221.676944
1303.980352,-10362.883188,-3478.967927,3677.258390
1303.980673,-9030.512492,-2664.741391,3677.258390
1303.980994,-9770.718434,-2590.720797,2911.162892
1303.981315,-8956.491898,-1702.473667,3140.991542
1303.981636,-7476.080014,-1480.411884,2451.505594
1303.981956,-8882.471304,-2664.741391,1455.581446
1303.982277,-9622.677246,-2146.597232,1762.019645
1303.982598,-8734.430116,-2146.597232,689.485948
1303.982919,-9030.512492,-888.247130,229.828649
1303.983239,-9622.677246,2664.741391,-536.266849
1303.983560,-10807.006753,1776.494261,2451.505594
1303.983881,-10955.047942,370.102971,3600.648841
1303.984202,-11177.109724,-1924.535449,2451.505594
1303.984523,-10584.944971,-2664.741391,2068.457845
1303.984843,-10510.924376,-3923.091493,995.924147
1303.985164,-8586.388927,-1406.391290,1378.971896
1303.985485,-9104.533087,-740.205942,689.485948
1303.985806,-8808.450710,-148.041188,919.314598
1303.986126,-7476.080014,-666.185348,383.047749
1303.986447,-9178.553681,-2220.617826,612.876398
1303.986768,-10436.903782,-3404.947333,1149.143247
1303.987089,-10140.821405,-3478.967927,919.314598
1303.987410,-9992.780217,-1702.473667,0.000000
1303.987730,-9696.697840,1480.411884,1149.143247
1303.988051,-9992.780217,2516.700203,1762.019645
1303.988372,-9844.739029,1628.453072,1532.190996
1303.988693,-9400.615463,888.247130,536.266849
1303.989013,-10288.862594,-740.205942,-1072.533697
1303.989334,-9548.656652,-1850.514855,-612.876398
1303.989655,-9400.615463,-814.226536,153.219100
1303.989976,-9474.636058,0.000000,536.266849
1303.990297,-10066.800811,148.041188,1302.362347
1303.990617,-8808.450710,-1332.370696,1762.019645
1303.990938,-9474.636058,-3404.947333,1072.533697
1303.991259,-10584.944971,-3627.009116,536.266849
1303.991580,-9696.697840,-1776.494261,2298.286494
1303.991900,-8660.409521,148.041188,0.000000
1303.992221,-9622.677246,2516.700203,0.000000
1303.992542,-9770.718434,2812.782580,459.657299
1303.992863,-9030.512492,2146.597232,536.266849
1303.993184,-10140.821405,666.185348,612.876398
1303.993504,-10658.965565,0.000000,612.876398
1303.993825,-10658.965565,-1258.350101,1302.362347
1303.994146,-9326.594869,-592.164754,1302.362347
1303.994467,-9844.739029,0.000000,1532.190996
1303.994787,-9770.718434,222.061783,1838.629195
1303.995108,-8882.471304,0.000000,1149.143247
1303.995429,-8734.430116,-740.205942,842.705048
1303.995750,-9622.677246,-518.144159,1072.533697
1303.996071,-9326.594869,-444.123565,1455.581446
1303.996391,-8586.388927,222.061783,1378.971896
1303.996712,-8882.471304,1776.494261,1072.533697
1303.997033,-9696.697840,2072.576638,1532.190996
1303.997354,-9104.533087,2886.803174,2374.896044
1303.997674,-10807.006753,222.061783,2145.067394
1303.997995,-10140.821405,444.123565,1225.752797
1303.998316,-9992.780217,222.061783,689.485948
1303.998637,-9844.739029,1924.535449,919.314598
1303.998958,-9474.636058,1554.432478,1838.629195
1303.999278,-10140.821405,814.226536,1225.752797
1303.999599,-8734.430116,962.267725,1149.143247
1303.999920,-9622.677246,148.041188,1149.143247
1304.000241,-10510.924376,0.000000,1072.533697
1304.000561,-9770.718434,-1480.411884,1149.143247
1304.000882,-9326.594869,-1036.288319,0.000000
1304.001203,-9474.636058,666.185348,-536.266849
1304.001524,-9030.512492,2072.576638,995.924147
1304.001845,-9696.697840,1184.329507,1762.019645
1304.002165,-10066.800811,-370.102971,919.314598
1304.002486,-10288.862594,-740.205942,1072.533697
1304.002807,-9622.677246,-2294.638420,306.438199
1304.003128,-8586.388927,-1480.411884,612.876398
1304.003448,-10140.821405,-962.267725,383.047749
1304.003769,-9696.697840,222.061783,1608.800546
1304.004090,-9400.615463,0.000000,612.876398
1304.004411,-8364.327145,-444.123565,-229.828649
1304.004732,-9104.533087,-1850.514855,-1378.971896
1304.005052,-8660.409521,-962.267725,-1455.581446
1304.005373,-9770.718434,-1628.453072,-153.219100
1304.005694,-9400.615463,0.000000,383.047749
1304.006015,-10362.883188,518.144159,2451.505594
1304.006335,-10658.965565,-1036.288319,3677.258390
1304.006656,-10436.903782,-2146.597232,3753.867940
1304.006977,-10881.027347,-3997.112087,3217.601092
1304.007298,-9918.759623,-3701.029710,1455.581446
1304.007619,-8068.244768,-1036.288319,459.657299
1304.007939,-9030.512492,-444.123565,383.047749
1304.008260,-8660.409521,814.226536,842.705048
1304.008581,-8586.388927,0.000000,1455.581446
1304.008902,-9178.553681,-1332.370696,919.314598
1304.009222,-10584.944971,-1406.391290,1838.629195
1304.009543,-10881.027347,-2146.597232,1378.971896
1304.009864,-9918.759623,-814.226536,1225.752797
1304.010185,-10140.821405,1850.514855,1149.143247
1304.010506,-10066.800811,1776.494261,1838.629195
1304.010826,-9474.636058,888.247130,2298.286494
1304.011147,-8882.471304,-2072.576638,2528.115143
1304.011468,-10214.842000,-2960.823768,919.314598
1304.011789,-9770.718434,-3108.864956,1302.362347
1304.012109,-8290.306550,-1480.411884,1149.143247
1304.012430,-9474.636058,-1110.308913,1838.629195
1304.012751,-9178.553681,-740.205942,2451.505594
1304.013072,-9030.512492,-1332.370696,2528.115143
1304.013393,-9326.594869,-2368.659014,1685.410096
1304.013713,-10436.903782,-2072.576638,1532.190996
1304.014034,-10584.944971,-1702.473667,536.266849
1304.014355,-9104.533087,1406.391290,306.438199
1304.014676,-9252.574275,2220.617826,-153.219100
1304.014996,-9178.553681,2220.617826,689.485948
1304.015317,-9474.636058,1258.350101,2068.457845
1304.015638,-9474.636058,-1332.370696,536.266849
1304.015959,-9992.780217,-2368.659014,1225.752797
1304.016280,-10436.903782,-2220.617826,919.314598
1304.016600,-9030.512492,-518.144159,1149.143247
1304.016921,-9622.677246,1184.329507,1915.238745
1304.017242,-9770.718434,1110.308913,1762.019645
1304.017563,-8068.244768,74.020594,536.266849
1304.017883,-9474.636058,-814.226536,229.828649
1304.018204,-10658.965565,-1258.350101,-842.705048
1304.018525,-9326.594869,-370.102971,-612.876398
1304.018846,-9400.615463,1554.432478,-459.657299
1304.019167,-8956.491898,2812.782580,-1149.143247
1304.019487,-10066.800811,3997.112087,229.828649
1304.019808,-10584.944971,2664.741391,1225.752797
1304.020129,-10066.800811,666.185348,1225.752797
1304.020450,-11325.150913,-1628.453072,1302.362347
1304.020770,-10732.986159,-2072.576638,1608.800546
1304.021091,-9992.780217,-1332.370696,919.314598
1304.021412,-10140.821405,-666.185348,1455.581446
1304.021733,-9474.636058,-148.041188,1532.190996
1304.022054,-7698.141797,-444.123565,153.219100
1304.022374,-8216.285956,-518.144159,1378.971896
1304.022695,-9844.739029,-222.061783,0.000000
1304.023016,-9030.512492,-222.061783,-536.266849
1304.023337,-9178.553681,444.123565,-689.485948
1304.023657,-9918.759623,2516.700203,383.047749
1304.023978,-10584.944971,2220.617826,1838.629195
1304.024299,-10436.903782,1258.350101,3140.991542
1304.024620,-10362.883188,0.000000,3064.381992
1304.024941,-11029.068536,-2220.617826,2298.286494
1304.025261,-10881.027347,-2442.679609,1685.410096
1304.025582,-8808.450710,-1332.370696,1915.238745
1304.025903,-9474.636058,-370.102971,1608.800546
1304.026224,-8808.450710,74.020594,1838.629195
1304.026544,-7846.182985,-370.102971,1302.362347
1304.026865,-9178.553681,-1850.514855,842.705048
1304.027186,-10066.800811,-1850.514855,1762.019645
1304.027507,-9844.739029,-2812.782580,1685.410096
1304.027828,-8882.471304,-1406.391290,1072.533697
1304.028148,-10066.800811,296.082377,612.876398
1304.028469,-11029.068536,1702.473667,2221.676944
1304.028790,-9992.780217,1998.556043,2528.115143
1304.029111,-10510.924376,-444.123565,2145.067394
1304.029431,-9252.574275,-2368.659014,1149.143247
1304.029752,-9474.636058,-3108.864956,-153.219100
1304.030073,-8808.450710,-2294.638420,-76.609550
1304.030394,-8142.265362,-814.226536,-459.657299
1304.030715,-7624.121203,-296.082377,612.876398
1304.031035,-8068.244768,-1332.370696,919.314598
1304.031356,-8068.244768,-2516.700203,612.876398
1304.031677,-10362.883188,-3404.947333,842.705048
1304.031998,-10584.944971,-3404.947333,1072.533697
1304.032318,-8512.368333,-1480.411884,306.438199
1304.032639,-10140.821405,1258.350101,842.705048
1304.032960,-9992.780217,3701.029710,1915.238745
1304.033281,-9474.636058,2738.761985,1149.143247
1304.033601,-10214.842000,1258.350101,1838.629195
1304.033922,-9918.759623,0.000000,842.705048
1304.034243,-10732.986159,-1702.473667,766.095498
1304.034564,-10214.842000,-962.267725,2451.505594
1304.034885,-10214.842000,0.000000,919.314598
1304.035205,-9622.677246,0.000000,2757.943793
1304.035526,-9104.533087,-1480.411884,1838.629195
1304.035847,-8734.430116,-1332.370696,2068.457845
1304.036168,-10510.924376,-3182.885551,842.705048
1304.036488,-9178.553681,-2368.659014,383.047749
1304.036809,-8438.347739,0.000000,-306.438199
1304.037130,-9844.739029,1998.556043,153.219100
1304.037451,-10214.842000,3627.009116,842.705048
1304.037772,-9770.718434,2590.720797,2298.286494
1304.038092,-10214.842000,814.226536,1762.019645
1304.038413,-11325.150913,-1110.308913,1455.581446
1304.038734,-10510.924376,-1998.556043,1225.752797
1304.039055,-9252.574275,-518.144159,1608.800546
1304.039375,-9252.574275,0.000000,1302.362347
1304.039696,-9474.636058,0.000000,1532.190996
1304.040017,-7920.203579,0.000000,1302.362347
1304.040338,-9474.636058,-1776.494261,842.705048
1304.040659,-9474.636058,-1184.329507,536.266849
1304.040979,-10732.986159,-2812.782580,1149.143247
1304.041300,-9178.553681,-1258.350101,0.000000
1304.041621,-9918.759623,1628.453072,383.047749
1304.041942,-10214.842000,1998.556043,1455.581446
1304.042262,-8882.471304,3404.947333,1608.800546
1304.042583,-11325.150913,148.041188,1455.581446
1304.042904,-10288.862594,-296.082377,0.000000
1304.043225,-9770.718434,-444.123565,-383.047749
1304.043546,-9400.615463,-592.164754,76.609550
1304.043866,-8438.347739,518.144159,536.266849
1304.044187,-9474.636058,1332.370696,766.095498
1304.044508,-8364.327145,888.247130,1149.143247
1304.044829,-8734.430116,0.000000,919.314598
1304.045149,-10658.965565,-1998.556043,1149.143247
1304.045470,-9548.656652,-3034.844362,459.657299
1304.045791,-9252.574275,-1554.432478,0.000000
1304.046112,-9622.677246,1258.350101,76.609550
1304.046433,-10288.862594,3108.864956,1685.410096
1304.046753,-9400.615463,2368.659014,1915.238745
1304.047074,-9770.718434,592.164754,1225.752797
1304.047395,-10732.986159,-1406.391290,1225.752797
1304.047716,-10214.842000,-2664.741391,689.485948
1304.048036,-9104.533087,-1036.288319,689.485948
1304.048357,-10140.821405,74.020594,1455.581446
1304.048678,-9548.656652,962.267725,2298.286494
1304.048999,-8882.471304,0.000000,2451.505594
1304.049320,-9326.594869,-1924.535449,2068.457845
1304.049640,-10140.821405,-2516.700203,1225.752797
1304.049961,-10066.800811,-3404.947333,1455.581446
1304.050282,-8734.430116,-1998.556043,0.000000
1304.050603,-8290.306550,1258.350101,76.609550
1304.050923,-10436.903782,1776.494261,2068.457845
1304.051244,-8882.471304,1850.514855,2451.505594
1304.051565,-9770.718434,-296.082377,-383.047749
1304.051886,-9992.780217,-1258.350101,1072.533697
1304.052207,-10658.965565,-2072.576638,1149.143247
1304.052527,-9918.759623,-962.267725,2145.067394
1304.052848,-10288.862594,-888.247130,2298.286494
1304.053169,-8290.306550,-1258.350101,1378.971896
1304.053490,-8364.327145,-1110.308913,1838.629195
1304.053810,-9474.636058,-2368.659014,1915.238745
1304.054131,-9474.636058,-1998.556043,919.314598
1304.054452,-9030.512492,-1406.391290,-842.705048
1304.054773,-7624.121203,444.123565,-612.876398
1304.055094,-9030.512492,1998.556043,-306.438199
1304.055414,-10510.924376,1184.329507,2221.676944
1304.055735,-9474.636058,370.102971,2451.505594
1304.056056,-10584.944971,-1480.411884,2681.334243
1304.056377,-12139.377449,-2886.803174,1915.238745
1304.056697,-10732.986159,-1702.473667,2528.115143
1304.057018,-9400.615463,-296.082377,1608.800546
1304.057339,-9400.615463,814.226536,1302.362347
1304.057660,-8586.388927,1628.453072,612.876398
1304.057981,-7698.141797,-296.082377,76.609550
1304.058301,-8734.430116,-1702.473667,0.000000
1304.058622,-9992.780217,-1554.432478,2145.067394
1304.058943,-10066.800811,-3849.070898,689.485948
1304.059264,-8956.491898,-814.226536,536.266849
1304.059584,-9992.780217,1110.308913,995.924147
1304.059905,-10288.862594,2590.720797,2451.505594
1304.060226,-9918.759623,2072.576638,2298.286494
1304.060547,-10214.842000,740.205942,919.314598
1304.060868,-10140.821405,0.000000,459.657299
1304.061188,-10584.944971,-1480.411884,76.609550
1304.061509,-8660.409521,-1258.350101,229.828649
1304.061830,-9548.656652,-222.061783,306.438199
1304.062151,-9770.718434,74.020594,1072.533697
1304.062471,-8808.450710,148.041188,1455.581446
1304.062792,-10140.821405,-1332.370696,1455.581446
1304.063113,-10510.924376,-1554.432478,766.095498
1304.063434,-10436.903782,-1554.432478,842.705048
1304.063755,-9326.594869,222.061783,229.828649
1304.064075,-9696.697840,1850.514855,0.000000
1304.064396,-9770.718434,2664.741391,612.876398
1304.064717,-9030.512492,1628.453072,995.924147
1304.065038,-9548.656652,-592.164754,536.266849
1304.065358,-10140.821405,-1702.473667,-229.828649
1304.065679,-10066.800811,-1554.432478,-153.219100
1304.066000,-9474.636058,888.247130,842.705048
1304.066321,-9992.780217,1702.473667,1302.362347
1304.066642,-9474.636058,1110.308913,1838.629195
1304.066962,-8586.388927,-370.102971,1072.533697
1304.067283,-9178.553681,-2072.576638,919.314598
1304.067604,-10658.965565,-3404.947333,1378.971896
1304.067925,-9844.739029,-2738.761985,919.314598
1304.068245,-8364.327145,0.000000,1149.143247
1304.068566,-9474.636058,2812.782580,536.266849
1304.068887,-9548.656652,3552.988522,2068.457845
1304.069208,-8512.368333,1998.556043,2145.067394
1304.069529,-9548.656652,-666.185348,1378.971896
1304.069849,-9844.739029,-1554.432478,919.314598
1304.070170,-10288.862594,-2072.576638,842.705048
1304.070491,-9178.553681,-888.247130,1149.143247
1304.070812,-9474.636058,518.144159,2374.896044
1304.071132,-9104.533087,74.020594,4136.915689
1304.071453,-8438.347739,-518.144159,2374.896044
1304.071774,-10066.800811,-1998.556043,1455.581446
1304.072095,-10140.821405,-1924.535449,1608.800546
1304.072416,-10732.986159,-2442.679609,1532.190996
1304.072736,-8512.368333,-518.144159,306.438199
1304.073057,-9844.739029,370.102971,0.000000
1304.073378,-9696.697840,1776.494261,842.705048
1304.073699,-9252.574275,740.205942,1225.752797
1304.074019,-10288.862594,-962.267725,2145.067394
1304.074340,-10955.047942,-2368.659014,536.266849
1304.074661,-9844.739029,-2368.659014,229.828649
1304.074982,-9918.759623,-740.205942,536.266849
1304.075302,-8808.450710,740.205942,995.924147
1304.075623,-9548.656652,1850.514855,1532.190996
1304.075944,-8882.471304,1036.288319,2068.457845
1304.076265,-9992.780217,-444.123565,1762.019645
1304.076585,-11399.171507,-1850.514855,3064.381992
1304.076906,-10584.944971,-4293.194464,2068.457845
1304.077227,-8956.491898,-2886.803174,689.485948
1304.077548,-9030.512492,-296.082377,-153.219100
1304.077868,-8660.409521,2220.617826,689.485948
1304.078189,-8290.306550,2220.617826,1762.019645
1304.078510,-8364.327145,0.000000,-383.047749
1304.078831,-9104.533087,-1406.391290,-1532.190996
1304.079151,-9548.656652,-1036.288319,-1149.143247
1304.079472,-9474.636058,222.061783,459.657299
1304.079793,-10510.924376,814.226536,2068.457845
1304.080113,-9548.656652,962.267725,2451.505594
1304.080434,-9548.656652,-814.226536,1378.971896
1304.080755,-9474.636058,-518.144159,1608.800546
1304.081076,-10955.047942,-1480.411884,1685.410096
1304.081396,-10658.965565,-2368.659014,1762.019645
1304.081717,-8142.265362,-1110.308913,0.000000
1304.082038,-8512.368333,962.267725,-536.266849
1304.082359,-8956.491898,2368.659014,459.657299
1304.082679,-8364.327145,2442.679609,919.314598
1304.083000,-9622.677246,-740.205942,1149.143247
1304.083321,-9696.697840,-1554.432478,536.266849
1304.083642,-9770.718434,-1776.494261,306.438199
1304.083962,-9770.718434,148.041188,1608.800546
1304.084283,-10732.986159,1036.288319,2681.334243
1304.084604,-10140.821405,1628.453072,2987.772442
1304.084924,-9918.759623,-148.041188,1455.581446
1304.085245,-8734.430116,-370.102971,612.876398
1304.085566,-10955.047942,-1332.370696,76.609550
1304.085887,-8808.450710,-1258.350101,306.438199
1304.086207,-9548.656652,-296.082377,306.438199
1304.086528,-8142.265362,1554.432478,-612.876398
1304.086849,-9178.553681,2294.638420,612.876398
1304.087170,-9252.574275,962.267725,1608.800546
1304.087490,-9030.512492,-518.144159,1302.362347
1304.087811,-11621.233289,-1406.391290,1762.019645
1304.088132,-10362.883188,-1332.370696,1991.848295
1304.088453,-8586.388927,-222.061783,2681.334243
1304.088773,-10807.006753,74.020594,2145.067394
1304.089094,-10140.821405,518.144159,1225.752797
1304.089415,-8734.430116,1036.288319,1455.581446
1304.089735,-10584.944971,0.000000,3217.601092
1304.090056,-9548.656652,0.000000,1149.143247
1304.090377,-10214.842000,-1924.535449,689.485948
1304.090698,-8734.430116,-962.267725,0.000000
1304.091018,-8290.306550,518.144159,-766.095498
1304.091339,-8956.491898,1184.329507,383.047749
1304.091660,-8882.471304,222.061783,1225.752797
1304.091981,-8734.430116,-1110.308913,919.314598
1304.092301,-10362.883188,-2442.679609,995.924147
1304.092622,-10066.800811,-740.205942,1455.581446
1304.092943,-10214.842000,-1184.329507,2451.505594
1304.093264,-10288.862594,296.082377,2528.115143
1304.093584,-10658.965565,666.185348,2911.162892
1304.093905,-8882.471304,0.000000,1072.533697
1304.094226,-8882.471304,-1554.432478,689.485948
1304.094546,-9326.594869,-2368.659014,0.000000
1304.094867,-8586.388927,-1554.432478,-383.047749
1304.095188,-9326.594869,-1110.308913,76.609550
1304.095509,-9548.656652,1480.411884,995.924147
1304.095829,-9844.739029,1702.473667,1608.800546
1304.096150,-10288.862594,222.061783,2604.724693
1304.096471,-9474.636058,-962.267725,2451.505594
1304.096792,-10436.903782,-2368.659014,1302.362347
1304.097112,-10436.903782,-2368.659014,1378.971896
1304.097433,-8512.368333,-1036.288319,689.485948
1304.097754,-9326.594869,0.000000,1149.143247
1304.098075,-9252.574275,148.041188,1838.629195
1304.098395,-8586.388927,-518.144159,1225.752797
1304.098716,-9178.553681,-1110.308913,1072.533697
1304.099037,-10214.842000,-2442.679609,689.485948
1304.099357,-9622.677246,-2146.597232,459.657299
1304.099678,-9844.739029,-1110.308913,689.485948
1304.099999,-9474.636058,740.205942,842.705048
1304.100320,-9548.656652,2294.638420,2068.457845
1304.100640,-9844.739029,1332.370696,2068.457845
1304.100961,-10510.924376,296.082377,1225.752797
1304.101282,-10658.965565,-1406.391290,919.314598
1304.101603,-9770.718434,-1480.411884,919.314598
1304.101923,-8586.388927,222.061783,612.876398
1304.102244,-9770.718434,1036.288319,1991.848295
1304.102565,-10066.800811,148.041188,1685.410096
1304.102886,-8882.471304,148.041188,1532.190996
1304.103206,-10214.842000,-1406.391290,1302.362347
1304.103527,-9918.759623,-888.247130,1302.362347
1304.103848,-10584.944971,-1628.453072,76.609550
1304.104168,-8216.285956,518.144159,-612.876398
1304.104489,-8882.471304,2442.679609,-1455.581446
1304.104810,-9770.718434,3182.885551,536.266849
1304.105131,-9548.656652,1258.350101,2987.772442
1304.105451,-10436.903782,-1184.329507,2145.067394
1304.105772,-11547.212695,-3108.864956,2298.286494
1304.106093,-10955.047942,-4441.235652,1685.410096
1304.106414,-9992.780217,-2294.638420,1838.629195
1304.106734,-9696.697840,-444.123565,1302.362347
1304.107055,-8956.491898,814.226536,689.485948
1304.107376,-7846.182985,1258.350101,459.657299
1304.107697,-8142.265362,592.164754,-536.266849
1304.108017,-8660.409521,-666.185348,0.000000
1304.108338,-9770.718434,-1480.411884,0.000000
1304.108659,-8808.450710,-444.123565,0.000000
1304.108979,-9770.718434,1406.391290,689.485948
1304.109300,-11103.089130,1480.411884,1991.848295
1304.109621,-9622.677246,592.164754,3064.381992
1304.109942,-10214.842000,-1036.288319,1838.629195
1304.110262,-10288.862594,-1628.453072,612.876398
1304.110583,-9474.636058,-962.267725,-459.657299
1304.110904,-8512.368333,1110.308913,0.000000
1304.111225,-9326.594869,1480.411884,689.485948
1304.111545,-7920.203579,1184.329507,459.657299
1304.111866,-8660.409521,-370.102971,842.705048
1304.112187,-9770.718434,-1110.308913,306.438199
1304.112508,-11251.130318,-1776.494261,2145.067394
1304.112828,-11029.068536,-1332.370696,2298.286494
1304.113149,-9622.677246,148.041188,1685.410096
1304.113470,-8808.450710,962.267725,842.705048
1304.113790,-9326.594869,2886.803174,459.657299
1304.114111,-8660.409521,1258.350101,1225.752797
1304.114432,-9400.615463,-370.102971,1378.971896
1304.114753,-10510.924376,-2590.720797,1149.143247
1304.115073,-9622.677246,-3034.844362,842.705048
1304.115394,-9104.533087,-2294.638420,1532.190996
1304.115715,-10066.800811,-1554.432478,2221.676944
1304.116036,-9548.656652,-296.082377,2528.115143
1304.116356,-9030.512492,-1258.350101,1072.533697
1304.116677,-8808.450710,-444.123565,1378.971896
1304.116998,-10732.986159,-962.267725,1225.752797
1304.117319,-10658.965565,-2072.576638,1302.362347
1304.117639,-9474.636058,-814.226536,766.095498
1304.117960,-9696.697840,666.185348,0.000000
1304.118281,-9400.615463,2368.659014,1225.752797
1304.118601,-10436.903782,1184.329507,2451.505594
1304.118922,-9548.656652,-222.061783,2298.286494
1304.119243,-10214.842000,-2442.679609,612.876398
1304.119564,-9252.574275,-2072.576638,0.000000
1304.119884,-9400.615463,-444.123565,1225.752797
1304.120205,-10214.842000,0.000000,1302.362347
1304.120526,-9252.574275,296.082377,1838.629195
1304.120847,-8438.347739,-148.041188,1149.143247
1304.121167,-8956.491898,-1332.370696,1378.971896
1304.121488,-10807.006753,-2368.659014,1685.410096
1304.121809,-9770.718434,-2368.659014,2068.457845
1304.122130,-9104.533087,-1480.411884,76.609550
1304.122450,-8660.409521,1480.411884,76.609550
1304.122771,-10066.800811,2072.576638,1225.752797
1304.123092,-8956.491898,2220.617826,1532.190996
1304.123412,-10140.821405,-592.164754,1532.190996
1304.123733,-9622.677246,-1850.514855,689.485948
1304.124054,-9770.718434,-2664.741391,306.438199
1304.124375,-9474.636058,-1036.288319,1378.971896
1304.124695,-9992.780217,370.102971,1302.362347
1304.125016,-9622.677246,1332.370696,1991.848295
1304.125337,-8956.491898,444.123565,1378.971896
1304.125658,-8882.471304,592.164754,459.657299
1304.125978,-11843.295072,1332.370696,229.828649
1304.126299,-10066.800811,-296.082377,1915.238745
1304.126620,-9770.718434,-148.041188,1225.752797
1304.126941,-10288.862594,74.020594,1378.971896
1304.127261,-10362.883188,-222.061783,1608.800546
1304.127582,-9622.677246,-370.102971,1302.362347
1304.127903,-9474.636058,-814.226536,612.876398
1304.128223,-9770.718434,-814.226536,-229.828649
1304.128544,-9178.553681,74.020594,-383.047749
1304.128865,-9178.553681,370.102971,0.000000
1304.129186,-8956.491898,888.247130,76.609550
1304.129506,-9400.615463,0.000000,689.485948
1304.129827,-9474.636058,0.000000,1302.362347
1304.130148,-10214.842000,-740.205942,1378.971896
1304.130469,-11177.109724,-2738.761985,842.705048
1304.130789,-8882.471304,-2146.597232,842.705048
1304.131110,-9474.636058,-1406.391290,-459.657299
1304.131431,-8808.450710,2368.659014,-459.657299
1304.131752,-10807.006753,2072.576638,1455.581446
1304.132072,-8216.285956,1628.453072,1149.143247
1304.132393,-9030.512492,-148.041188,153.219100
1304.132714,-9918.759623,-2368.659014,0.000000
1304.133034,-8808.450710,-1554.432478,689.485948
1304.133355,-9844.739029,-518.144159,1608.800546
1304.133676,-9770.718434,444.123565,2374.896044
1304.133997,-9696.697840,814.226536,2374.896044
1304.134317,-9992.780217,592.164754,3370.820191
1304.134638,-10362.883188,-592.164754,2221.676944
1304.134959,-10955.047942,-888.247130,2145.067394
1304.135280,-9548.656652,-1924.535449,919.314598
1304.135600,-8216.285956,0.000000,-306.438199
1304.135921,-9030.512492,1332.370696,-995.924147
1304.136242,-8512.368333,2146.597232,383.047749
1304.136563,-8808.450710,1406.391290,919.314598
1304.136883,-9474.636058,-814.226536,612.876398
1304.137204,-10362.883188,-1480.411884,1225.752797
1304.137525,-10584.944971,-2516.700203,1532.190996
1304.137845,-9992.780217,-1554.432478,1838.629195
1304.138166,-10362.883188,-740.205942,2834.553343
1304.138487,-10214.842000,-1110.308913,4596.572988
1304.138808,-9178.553681,-1776.494261,1838.629195
1304.139128,-10140.821405,-1924.535449,1608.800546
1304.139449,-10436.903782,-1406.391290,919.314598
1304.139770,-9252.574275,-888.247130,0.000000
1304.140091,-8364.327145,666.185348,-1302.362347
1304.140411,-7920.203579,2590.720797,-1378.971896
1304.140732,-9474.636058,2516.700203,-383.047749
1304.141053,-8882.471304,814.226536,689.485948
1304.141374,-9844.739029,-1110.308913,689.485948
1304.141694,-10510.924376,-2146.597232,1608.800546
1304.142015,-11473.192101,-2664.741391,2987.772442
1304.142336,-9918.759623,-1036.288319,3447.429741
1304.142656,-10288.862594,-1110.308913,2911.162892
1304.142977,-9474.636058,-962.267725,2528.115143
1304.143298,-8586.388927,-1776.494261,1608.800546
1304.143619,-9104.533087,-1998.556043,842.705048
1304.143939,-8956.491898,-1406.391290,229.828649
1304.144260,-8586.388927,-1184.329507,-306.438199
1304.144581,-8068.244768,0.000000,-383.047749
1304.144902,-9178.553681,1628.453072,0.000000
1304.145222,-10510.924376,1776.494261,1762.019645
1304.145543,-10066.800811,592.164754,2834.553343
1304.145864,-10807.006753,-592.164754,2604.724693
1304.146185,-11621.233289,-1406.391290,2068.457845
1304.146505,-10288.862594,-888.247130,1685.410096
1304.146826,-8808.450710,74.020594,2987.772442
1304.147147,-9252.574275,-1184.329507,689.485948
1304.147467,-7179.997637,1850.514855,612.876398
1304.147788,-9918.759623,0.000000,153.219100
1304.148109,-7476.080014,148.041188,1838.629195
1304.148430,-10584.944971,-2516.700203,1302.362347
1304.148750,-10510.924376,-3108.864956,1225.752797
1304.149071,-8660.409521,-1110.308913,-1149.143247
1304.149392,-10066.800811,2812.782580,689.485948
1304.149713,-11251.130318,4367.215058,2374.896044
1304.150033,-10214.842000,1924.535449,2068.457845
1304.150354,-10288.862594,296.082377,1378.971896
1304.150675,-9474.636058,-1776.494261,-536.266849
1304.150996,-9474.636058,-1628.453072,76.609550
1304.151316,-9992.780217,-370.102971,1302.362347
1304.151637,-9770.718434,370.102971,1455.581446
1304.151958,-9104.533087,222.061783,1149.143247
1304.152278,-8882.471304,-296.082377,766.095498
1304.152599,-9918.759623,-666.185348,1149.143247
1304.152920,-10732.986159,-1332.370696,1072.533697
1304.153241,-9770.718434,-1406.391290,306.438199
1304.153561,-8142.265362,444.123565,0.000000
1304.153882,-8660.409521,1332.370696,-229.828649
1304.154203,-9104.533087,2368.659014,383.047749
1304.154524,-9474.636058,1480.411884,1149.143247
1304.154844,-9326.594869,-444.123565,383.047749
1304.155165,-9844.739029,-370.102971,-1685.410096
1304.155486,-9770.718434,-296.082377,612.876398
1304.155807,-9918.759623,592.164754,1072.533697
1304.156127,-10066.800811,962.267725,2374.896044
1304.156448,-9326.594869,-518.144159,2451.505594
1304.156769,-8438.347739,-1850.514855,919.314598
1304.157089,-9030.512492,-2738.761985,1608.800546
1304.157410,-9770.718434,-2738.761985,919.314598
1304.157731,-9548.656652,-1924.535449,919.314598
1304.158052,-8438.347739,1110.308913,76.609550
1304.158372,-8808.450710,3404.947333,459.657299
1304.158693,-10288.862594,2664.741391,1455.581446
1304.159014,-9770.718434,1406.391290,2451.505594
1304.159335,-9104.533087,-1850.514855,1225.752797
1304.159655,-10066.800811,-2442.679609,-153.219100
1304.159976,-9770.718434,-1850.514855,-229.828649
1304.160297,-9400.615463,0.000000,1532.190996
1304.160618,-9474.636058,370.102971,2221.676944
1304.160938,-10066.800811,370.102971,2298.286494
1304.161259,-9474.636058,-962.267725,2987.772442
1304.161580,-11621.233289,-2960.823768,3294.210641
1304.161900,-11769.274478,-2664.741391,3907.087040
1304.162221,-10658.965565,-3997.112087,2451.505594
1304.162542,-8068.244768,-1924.535449,-153.219100
1304.162863,-8438.347739,1480.411884,-766.095498
1304.163183,-9178.553681,2368.659014,-306.438199
1304.163504,-7624.121203,1776.494261,689.485948
1304.163825,-9326.594869,-222.061783,459.657299
1304.164146,-10362.883188,-1258.350101,229.828649
1304.164466,-11399.171507,-2146.597232,1072.533697
1304.164787,-10436.903782,-444.123565,2604.724693
1304.165108,-10436.903782,-370.102971,3294.210641
1304.165429,-10214.842000,-962.267725,2451.505594
1304.165749,-8882.471304,-1628.453072,1225.752797
1304.166070,-9104.533087,-1850.514855,459.657299
1304.166391,-8956.491898,-2146.597232,689.485948
1304.166711,-9104.533087,-2072.576638,0.000000
1304.167032,-7994.224174,518.144159,-689.485948
1304.167353,-9326.594869,1776.494261,-612.876398
1304.167674,-9326.594869,2812.782580,1378.971896
1304.167994,-9770.718434,740.205942,2451.505594
1304.168315,-10436.903782,-1480.411884,1762.019645
1304.168636,-10881.027347,-1258.350101,1608.800546
1304.168957,-11177.109724,-962.267725,1149.143247
1304.169277,-9400.615463,370.102971,1838.629195
1304.169598,-9252.574275,444.123565,766.095498
1304.169919,-8808.450710,962.267725,842.705048
1304.170240,-8290.306550,1036.288319,766.095498
1304.170560,-9770.718434,296.082377,1072.533697
1304.170881,-9992.780217,-1702.473667,1072.533697
1304.171202,-9548.656652,-2220.617826,612.876398
1304.171522,-9326.594869,-666.185348,229.828649
1304.171843,-9474.636058,1258.350101,612.876398
1304.172164,-10362.883188,2072.576638,1915.238745
1304.172485,-8956.491898,518.144159,1302.362347
1304.172805,-9400.615463,148.041188,842.705048
1304.173126,-11621.233289,-1184.329507,383.047749
1304.173447,-9474.636058,-740.205942,766.095498
1304.173768,-9178.553681,-592.164754,459.657299
1304.174088,-9474.636058,592.164754,842.705048
1304.174409,-8808.450710,148.041188,995.924147
1304.174730,-9696.697840,-888.247130,2298.286494
1304.175050,-8956.491898,-1554.432478,1072.533697
1304.175371,-9474.636058,-1998.556043,766.095498
1304.175692,-9918.759623,-1258.350101,1302.362347
1304.176012,-8882.471304,1184.329507,2681.334243
1304.176333,-9400.615463,2886.803174,1455.581446
1304.176654,-10584.944971,2442.679609,2451.505594
1304.176974,-9844.739029,1258.350101,2451.505594
1304.177295,-10510.924376,-740.205942,2068.457845
1304.177616,-10288.862594,-2516.700203,1302.362347
1304.177936,-8734.430116,-370.102971,-459.657299
1304.178257,-9252.574275,0.000000,842.705048
1304.178578,-8512.368333,1850.514855,-383.047749
1304.178898,-9030.512492,2442.679609,-536.266849
1304.179219,-9030.512492,888.247130,0.000000
1304.179540,-9770.718434,-592.164754,1072.533697
1304.179860,-10807.006753,-1998.556043,995.924147
1304.180181,-11103.089130,-3256.906145,3140.991542
1304.180502,-9548.656652,-592.164754,1532.190996
1304.180822,-10214.842000,518.144159,1302.362347
1304.181143,-10732.986159,1184.329507,2374.896044
1304.181464,-9104.533087,1110.308913,1455.581446
1304.181784,-8290.306550,-666.185348,383.047749
1304.182105,-11029.068536,-1332.370696,229.828649
1304.182426,-9474.636058,-1924.535449,-306.438199
1304.182746,-9992.780217,-1406.391290,1149.143247
1304.183067,-10140.821405,74.020594,2068.457845
1304.183388,-9178.553681,-814.226536,1685.410096
1304.183708,-9770.718434,-1776.494261,2451.505594
1304.184029,-9178.553681,-1480.411884,2068.457845
1304.184350,-10584.944971,-1702.473667,1915.238745
1304.184670,-9992.780217,-1924.535449,1302.362347
1304.184991,-8512.368333,0.000000,-153.219100
1304.185312,-9622.677246,1480.411884,-1302.362347
1304.185632,-9400.615463,2442.679609,536.266849
1304.185953,-8290.306550,962.267725,306.438199
1304.186274,-9030.512492,-296.082377,153.219100
1304.186594,-10658.965565,-740.205942,153.219100
1304.186915,-10807.006753,-666.185348,1455.581446
1304.187236,-9622.677246,-888.247130,1838.629195
1304.187556,-9696.697840,-444.123565,2145.067394
1304.187877,-9474.636058,-518.144159,2145.067394
1304.188198,-9030.512492,-1998.556043,1762.019645
1304.188518,-9252.574275,-1332.370696,1838.629195
1304.188839,-9696.697840,-1924.535449,1455.581446
1304.189160,-9178.553681,-2146.597232,536.266849
1304.189480,-8512.368333,-962.267725,459.657299
1304.189801,-8364.327145,1036.288319,-153.219100
1304.190122,-9474.636058,1480.411884,919.314598
1304.190442,-8142.265362,1036.288319,1762.019645
1304.190763,-9696.697840,-1110.308913,1532.190996
1304.191084,-10066.800811,-1628.453072,1608.800546
1304.191404,-10140.821405,-1850.514855,3217.601092
1304.191725,-9178.553681,-592.164754,2145.067394
1304.192046,-10807.006753,0.000000,2451.505594
1304.192366,-9696.697840,1406.391290,2451.505594
1304.192687,-9770.718434,1332.370696,4673.182538
1304.193008,-9770.718434,-888.247130,2298.286494
1304.193328,-9844.739029,-1110.308913,919.314598
1304.193649,-9326.594869,-2442.679609,306.438199
1304.193970,-8068.244768,-740.205942,-612.876398
1304.194290,-9548.656652,1554.432478,919.314598
1304.194611,-10140.821405,1998.556043,1685.410096
1304.194932,-10214.842000,296.082377,1915.238745
1304.195252,-10288.862594,-592.164754,1532.190996
1304.195573,-11695.253884,-370.102971,1685.410096
1304.195894,-11695.253884,-444.123565,1915.238745
1304.196214,-9400.615463,0.000000,842.705048
1304.196535,-8734.430116,-296.082377,-612.876398
1304.196856,-8290.306550,0.000000,-2145.067394
1304.197176,-7846.182985,-592.164754,-1991.848295
1304.197497,-9252.574275,-740.205942,-229.828649
1304.197818,-9770.718434,-1184.329507,0.000000
1304.198138,-9918.759623,-2146.597232,76.609550
1304.198459,-9474.636058,-148.041188,306.438199
1304.198780,-10436.903782,444.123565,536.266849
1304.199100,-10214.842000,1776.494261,2068.457845
1304.199421,-9474.636058,74.020594,2298.286494
1304.199742,-8290.306550,-518.144159,459.657299
1304.200062,-9770.718434,-1998.556043,-689.485948
1304.200383,-9178.553681,-1258.350101,-612.876398
1304.200704,-7698.141797,74.020594,-459.657299
1304.201024,-8882.471304,666.185348,0.000000
1304.201345,-9326.594869,1776.494261,919.314598
1304.201666,-9326.594869,814.226536,919.314598
1304.201986,-10140.821405,74.020594,1838.629195
1304.202307,-11399.171507,-2516.700203,2604.724693
1304.202628,-9844.739029,-2664.741391,1762.019645
1304.202948,-9844.739029,-1332.370696,2068.457845
1304.203269,-9548.656652,444.123565,919.314598
1304.203590,-9252.574275,2442.679609,1762.019645
1304.203910,-8882.471304,814.226536,1762.019645
1304.204231,-9104.533087,740.205942,1378.971896
1304.204552,-10732.986159,-1406.391290,689.485948
1304.204872,-10288.862594,-2368.659014,1378.971896
1304.205193,-9030.512492,-1998.556043,1225.752797
1304.205514,-9918.759623,-1036.288319,1762.019645
1304.205834,-10214.842000,-592.164754,2298.286494
1304.206155,-8808.450710,444.123565,1455.581446
1304.206476,-9918.759623,518.144159,1378.971896
1304.206796,-10732.986159,0.000000,1685.410096
1304.207117,-10288.862594,-888.247130,1685.410096
1304.207438,-10214.842000,-740.205942,229.828649
1304.207758,-9770.718434,740.205942,153.219100
1304.208079,-8956.491898,1998.556043,1915.238745
1304.208400,-9918.759623,0.000000,2681.334243
1304.208720,-9770.718434,-1480.411884,2221.676944
1304.209041,-10436.903782,-2886.803174,612.876398
1304.209362,-9252.574275,-1480.411884,1685.410096
1304.209682,-9548.656652,-444.123565,1455.581446
1304.210003,-9252.574275,296.082377,1991.848295
1304.210324,-9252.574275,0.000000,1378.971896
1304.210644,-8364.327145,-444.123565,842.705048
1304.210965,-8438.347739,-740.205942,306.438199
1304.211286,-10510.924376,-1332.370696,1532.190996
1304.211606,-9844.739029,-1258.350101,1455.581446
1304.211927,-9178.553681,-222.061783,1072.533697
1304.212248,-9918.759623,1480.411884,0.000000
1304.212568,-9400.615463,1998.556043,919.314598
1304.212889,-9548.656652,444.123565,919.314598
1304.213210,-9696.697840,-814.226536,1455.581446
1304.213530,-9622.677246,-2590.720797,-536.266849
1304.213851,-8956.491898,-1480.411884,-306.438199
1304.214172,-9104.533087,-1184.329507,0.000000
1304.214492,-9104.533087,814.226536,0.000000
1304.214813,-9326.594869,814.226536,612.876398
1304.215134,-8142.265362,518.144159,153.219100
1304.215454,-9770.718434,-74.020594,306.438199
1304.215775,-11547.212695,-1924.535449,1225.752797
1304.216096,-9844.739029,-1998.556043,1838.629195
1304.216416,-9622.677246,-1184.329507,1685.410096
1304.216737,-11103.089130,444.123565,1991.848295
1304.217058,-10658.965565,1036.288319,2528.115143
1304.217378,-9918.759623,222.061783,2145.067394
1304.217699,-9474.636058,-1110.308913,1455.581446
1304.218020,-10288.862594,-1480.411884,-153.219100
1304.218340,-9474.636058,0.000000,0.000000
1304.218661,-8808.450710,888.247130,76.609550
1304.218982,-9474.636058,1110.308913,612.876398
1304.219302,-9918.759623,74.020594,1072.533697
1304.219623,-9400.615463,-962.267725,1072.533697
1304.219944,-10436.903782,-296.082377,1608.800546
1304.220264,-11843.295072,0.000000,2681.334243
1304.220585,-10436.903782,-592.164754,3830.477490
1304.220906,-10214.842000,-1554.432478,536.266849
1304.221226,-8142.265362,1110.308913,-766.095498
1304.221547,-9178.553681,1332.370696,383.047749
1304.221868,-8660.409521,1480.411884,2374.896044
1304.222188,-9622.677246,-1184.329507,1532.190996
1304.222509,-9400.615463,-2072.576638,-842.705048
1304.222830,-9474.636058,-592.164754,1455.581446
1304.223150,-9918.759623,-1036.288319,1838.629195
1304.223471,-9548.656652,-370.102971,2451.505594
1304.223792,-9844.739029,-1258.350101,1991.848295
1304.224112,-8290.306550,0.000000,689.485948
1304.224433,-8364.327145,666.185348,1072.533697
1304.224754,-11325.150913,-444.123565,2145.067394
1304.225074,-8512.368333,-962.267725,383.047749
1304.225395,-8512.368333,-222.061783,-842.705048
1304.225716,-8956.491898,1776.494261,229.828649
1304.226036,-9696.697840,2294.638420,3600.648841
1304.226357,-10658.965565,666.185348,3983.696590
1304.226678,-10066.800811,-962.267725,3677.258390
1304.226998,-11177.109724,-3330.926739,1838.629195
1304.227319,-9696.697840,-3330.926739,2145.067394
1304.227640,-9030.512492,-2960.823768,1455.581446
1304.227960,-8882.471304,-1110.308913,1455.581446
1304.228281,-8586.388927,-370.102971,612.876398
1304.228602,-7254.018232,0.000000,0.000000
1304.228922,-8734.430116,74.020594,-919.314598
1304.229243,-10288.862594,-740.205942,383.047749
1304.229564,-10510.924376,-962.267725,306.438199
1304.229884,-10362.883188,518.144159,459.657299
1304.230205,-10881.027347,2368.659014,536.266849
1304.230526,-10584.944971,2368.659014,1991.848295
1304.230846,-10584.944971,370.102971,2068.457845
1304.231167,-10362.883188,-1110.308913,1455.581446
1304.231488,-10214.842000,-1554.432478,0.000000
1304.231808,-9622.677246,-2220.617826,306.438199
1304.232129,-8438.347739,-740.205942,383.047749
1304.232450,-9548.656652,0.000000,1532.190996
1304.232770,-9326.594869,-148.041188,1915.238745
1304.233091,-8586.388927,-370.102971,1608.800546
1304.233412,-9770.718434,-666.185348,1455.581446
1304.233732,-10436.903782,-1554.432478,1378.971896
1304.234053,-9844.739029,-1554.432478,1378.971896
1304.234374,-8956.491898,-518.144159,0.000000
1304.234694,-8512.368333,1406.391290,0.000000
1304.235015,-9400.615463,2072.576638,306.438199
1304.235336,-8956.491898,1184.329507,1072.533697
1304.235656,-9770.718434,-370.102971,1072.533697
1304.235977,-9918.759623,-518.144159,1225.752797
1304.236298,-9992.780217,-740.205942,2068.457845
1304.236618,-9992.780217,-1480.411884,2681.334243
1304.236939,-9252.574275,-592.164754,2604.724693
1304.237260,-8808.450710,-1924.535449,2987.772442
1304.237580,-8734.430116,-1776.494261,2221.676944
1304.237901,-9474.636058,-1480.411884,2145.067394
1304.238222,-10658.965565,-2294.638420,1685.410096
1304.238542,-9252.574275,-1554.432478,-689.485948
1304.238863,-9326.594869,296.082377,0.000000
1304.239184,-9474.636058,2368.659014,-153.219100
1304.239504,-9844.739029,3404.947333,153.219100
1304.239825,-9474.636058,2442.679609,459.657299
1304.240145,-8882.471304,518.144159,76.609550
1304.240466,-10214.842000,-740.205942,-306.438199
1304.240787,-10658.965565,-1702.473667,1149.143247
1304.241107,-10066.800811,-1628.453072,2068.457845
1304.241428,-10214.842000,-1332.370696,1455.581446
1304.241749,-9548.656652,-1184.329507,1915.238745
1304.242069,-9104.533087,-1628.453072,1608.800546
1304.242390,-9252.574275,-1258.350101,1685.410096
1304.242711,-9992.780217,-962.267725,1378.971896
1304.243031,-8808.450710,-370.102971,0.000000
1304.243352,-8216.285956,666.185348,-919.314598
1304.243673,-9400.615463,2442.679609,-766.095498
1304.243993,-10140.821405,3108.864956,1225.752797
1304.244314,-10807.006753,1258.350101,2145.067394
1304.244635,-10214.842000,-1036.288319,1838.629195
1304.244955,-11103.089130,-2368.659014,1149.143247
1304.245276,-10955.047942,-1850.514855,1149.143247
1304.245597,-9178.553681,-962.267725,1302.362347
1304.245917,-8808.450710,666.185348,842.705048
1304.246238,-7994.224174,592.164754,919.314598
1304.246559,-8364.327145,0.000000,153.219100
1304.246879,-8290.306550,-370.102971,689.485948
1304.247200,-9622.677246,-2590.720797,-306.438199
1304.247521,-9474.636058,-1332.370696,229.828649
1304.247841,-8956.491898,-888.247130,-153.219100
1304.248162,-10510.924376,2368.659014,2068.457845
1304.248483,-10658.965565,2516.700203,3140.991542
1304.248803,-9474.636058,1110.308913,1685.410096
1304.249124,-10140.821405,0.000000,1302.362347
1304.249445,-9844.739029,-1480.411884,153.219100
1304.249765,-10066.800811,-814.226536,383.047749
1304.250086,-9326.594869,-1406.391290,1455.581446
1304.250407,-8216.285956,-592.164754,229.828649
1304.250727,-9400.615463,-1036.288319,766.095498
1304.251048,-8586.388927,-1036.288319,1915.238745
1304.251369,-10658.965565,-1036.288319,2528.115143
1304.251689,-11769.274478,-1702.473667,2834.553343
1304.252010,-10658.965565,-2442.679609,1608.800546
1304.252331,-8808.450710,-592.164754,-153.219100
1304.252651,-10140.821405,1480.411884,-153.219100
1304.252972,-10362.883188,2516.700203,995.924147
1304.253293,-9474.636058,2516.700203,2145.067394
1304.253613,-9474.636058,-518.144159,689.485948
1304.253934,-9474.636058,-1480.411884,689.485948
1304.254255,-9844.739029,-1924.535449,612.876398
1304.254575,-9770.718434,-962.267725,1455.581446
1304.254896,-9992.780217,296.082377,2604.724693
1304.255217,-9992.780217,-518.144159,4213.525239
1304.255537,-8068.244768,-1776.494261,1608.800546
1304.255858,-9548.656652,-2220.617826,1149.143247
1304.256179,-10066.800811,-2442.679609,1072.533697
1304.256499,-9622.677246,-1480.411884,459.657299
1304.256820,-8586.388927,1258.350101,-306.438199
1304.257141,-9104.533087,2516.700203,-383.047749
1304.257461,-9178.553681,3478.967927,1072.533697
1304.257782,-9844.739029,1406.391290,2298.286494
1304.258103,-9400.615463,-888.247130,2068.457845
1304.258423,-10510.924376,-1924.535449,2298.286494
1304.258744,-10214.842000,-2960.823768,1915.238745
1304.259065,-9400.615463,-2072.576638,2528.115143
1304.259385,-9326.594869,0.000000,2068.457845
1304.259706,-9104.533087,370.102971,2145.067394
1304.260027,-8364.327145,296.082377,2221.676944
1304.260347,-9326.594869,-1332.370696,1762.019645
1304.260668,-9622.677246,-1850.514855,1225.752797
1304.260989,-9992.780217,-2368.659014,1378.971896
1304.261309,-8734.430116,74.020594,612.876398
1304.261630,-10288.862594,1924.535449,842.705048
1304.261951,-10066.800811,2220.617826,842.705048
1304.262271,-9178.553681,962.267725,153.219100
1304.262592,-10066.800811,-888.247130,0.000000
1304.262913,-10658.965565,-1184.329507,-153.219100
1304.263233,-10584.944971,-1776.494261,306.438199
1304.263554,-9474.636058,-222.061783,383.047749
1304.263875,-9474.636058,592.164754,536.266849
1304.264195,-9548.656652,0.000000,536.266849
1304.264516,-8142.265362,-666.185348,229.828649
1304.264837,-9104.533087,-2368.659014,-995.924147
1304.265157,-9770.718434,-2368.659014,-612.876398
1304.265478,-9992.780217,-1702.473667,-383.047749
1304.265799,-9622.677246,1110.308913,383.047749
1304.266119,-10510.924376,2146.597232,1685.410096
1304.266440,-10807.006753,1110.308913,1915.238745
1304.266761,-9696.697840,1036.288319,2068.457845
1304.267081,-10584.944971,-1702.473667,766.095498
1304.267402,-9474.636058,592.164754,612.876398
1304.267723,-10288.862594,-222.061783,842.705048
1304.268043,-7772.162391,1406.391290,306.438199
1304.268364,-8734.430116,1406.391290,766.095498
1304.268685,-8290.306550,-296.082377,459.657299
1304.269005,-7846.182985,-518.144159,1302.362347
1304.269326,-10066.800811,-2146.597232,1302.362347
1304.269647,-10362.883188,-1702.473667,2374.896044
1304.269967,-10214.842000,-2072.576638,2451.505594
1304.270288,-9252.574275,-518.144159,1455.581446
1304.270609,-9992.780217,1776.494261,1072.533697
1304.270929,-10510.924376,1480.411884,1378.971896
1304.271250,-8586.388927,1110.308913,1762.019645
1304.271571,-10732.986159,-740.205942,1685.410096
1304.271891,-10140.821405,-1924.535449,536.266849
1304.272212,-8734.430116,-2368.659014,1302.362347
1304.272533,-9622.677246,-1110.308913,1915.238745
1304.272853,-10214.842000,-1332.370696,2221.676944
1304.273174,-9030.512492,-1480.411884,2604.724693
1304.273495,-9770.718434,-2812.782580,2451.505594
1304.273815,-9474.636058,-1702.473667,1991.848295
1304.274136,-10288.862594,-1998.556043,1685.410096
1304.274457,-9030.512492,-1332.370696,1378.971896
1304.274777,-8808.450710,-444.123565,-1991.848295
1304.275098,-9326.594869,2368.659014,-689.485948
1304.275419,-10066.800811,2812.782580,1302.362347
1304.275739,-9326.594869,518.144159,1072.533697
1304.276060,-10066.800811,-740.205942,1302.362347
1304.276381,-10510.924376,-592.164754,1072.533697
1304.276701,-11251.130318,-370.102971,2451.505594
1304.277022,-10881.027347,444.123565,3830.477490
1304.277343,-10658.965565,-296.082377,3524.039291
1304.277664,-9400.615463,-1702.473667,2145.067394
1304.277984,-9104.533087,-2368.659014,919.314598
1304.278305,-8956.491898,-2072.576638,153.219100
1304.278626,-8734.430116,-740.205942,-536.266849
1304.278946,-8438.347739,0.000000,-1455.581446
1304.279267,-7179.997637,1406.391290,-1991.848295
1304.279588,-8956.491898,2146.597232,-1762.019645
1304.279908,-9844.739029,1776.494261,229.828649
1304.280229,-9474.636058,296.082377,1378.971896
1304.280550,-12065.356855,-2220.617826,1838.629195
1304.280871,-11029.068536,-2738.761985,1991.848295
1304.281191,-10214.842000,-1554.432478,1455.581446
1304.281512,-9992.780217,-518.144159,1762.019645
1304.281833,-8882.471304,666.185348,229.828649
1304.282153,-9326.594869,1184.329507,766.095498
1304.282474,-8290.306550,0.000000,76.609550
1304.282795,-8882.471304,-518.144159,76.609550
1304.283115,-10732.986159,-1702.473667,1455.581446
1304.283436,-9696.697840,-2738.761985,536.266849
1304.283757,-8586.388927,-666.185348,76.609550
1304.284078,-9844.739029,1110.308913,536.266849
1304.284398,-9770.718434,2590.720797,1915.238745
1304.284719,-10436.903782,1924.535449,1838.629195
1304.285040,-9474.636058,518.144159,689.485948
1304.285360,-10066.800811,74.020594,-229.828649
1304.285681,-10140.821405,296.082377,306.438199
1304.286002,-9622.677246,222.061783,383.047749
1304.286322,-9548.656652,592.164754,1685.410096
1304.286643,-9252.574275,-592.164754,689.485948
1304.286964,-9400.615463,-2294.638420,995.924147
1304.287285,-9992.780217,-2368.659014,1302.362347
1304.287605,-11177.109724,-2590.720797,1915.238745
1304.287926,-10658.965565,-1998.556043,2068.457845
1304.288247,-8882.471304,-370.102971,1072.533697
1304.288567,-9400.615463,1184.329507,459.657299
1304.288888,-9400.615463,1480.411884,919.314598
1304.289209,-7846.182985,1036.288319,766.095498
1304.289529,-8734.430116,-814.226536,153.219100
1304.289850,-9030.512492,-2220.617826,-766.095498
1304.290171,-8660.409521,-1850.514855,1838.629195
1304.290492,-9622.677246,-370.102971,1455.581446
1304.290812,-9770.718434,1332.370696,2757.943793
1304.291133,-10510.924376,666.185348,3524.039291
1304.291454,-9474.636058,-222.061783,3677.258390
1304.291774,-9622.677246,-1850.514855,2374.896044
1304.292095,-9992.780217,-2812.782580,2221.676944
1304.292416,-8734.430116,-3330.926739,1455.581446
1304.292736,-7772.162391,-1776.494261,229.828649
1304.293057,-8586.388927,814.226536,76.609550
1304.293378,-9400.615463,2590.720797,1762.019645
1304.293699,-9400.615463,1924.535449,2451.505594
1304.294019,-10140.821405,444.123565,1991.848295
1304.294340,-10510.924376,-1406.391290,1532.190996
1304.294661,-11251.130318,-1924.535449,1302.362347
1304.294981,-9918.759623,0.000000,2451.505594
1304.295302,-10214.842000,-1184.329507,2451.505594
1304.295623,-8290.306550,-962.267725,1455.581446
1304.295943,-8882.471304,-1554.432478,459.657299
1304.296264,-8660.409521,-1110.308913,229.828649
1304.296585,-9992.780217,-740.205942,383.047749
1304.296906,-9548.656652,-740.205942,76.609550
1304.297226,-9104.533087,0.000000,306.438199
1304.297547,-10066.800811,740.205942,-536.266849
1304.297868,-10584.944971,444.123565,1378.971896
1304.298188,-10214.842000,-1110.308913,1532.190996
1304.298509,-9474.636058,-1628.453072,1762.019645
1304.298830,-10955.047942,-1554.432478,0.000000
1304.299150,-10362.883188,-296.082377,153.219100
1304.299471,-8660.409521,1110.308913,306.438199
1304.299792,-9474.636058,1554.432478,0.000000
1304.300113,-9104.533087,888.247130,-153.219100
1304.300433,-8586.388927,-148.041188,0.000000
1304.300754,-9548.656652,-962.267725,766.095498
1304.301075,-10510.924376,-1702.473667,1302.362347
1304.301395,-9548.656652,-2368.659014,1149.143247
1304.301716,-8734.430116,0.000000,306.438199
1304.302037,-9992.780217,1628.453072,766.095498
1304.302357,-10288.862594,2072.576638,1991.848295
1304.302678,-9696.697840,1628.453072,1532.190996
1304.302999,-9104.533087,-814.226536,766.095498
1304.303320,-9992.780217,-1998.556043,306.438199
1304.303640,-9622.677246,-1110.308913,842.705048
1304.303961,-9104.533087,0.000000,1378.971896
1304.304282,-9326.594869,1036.288319,1685.410096
1304.304602,-9548.656652,888.247130,2221.676944
1304.304923,-9030.512492,296.082377,2374.896044
1304.305244,-10510.924376,-666.185348,2068.457845
1304.305564,-10140.821405,-1332.370696,1991.848295
1304.305885,-9696.697840,-1406.391290,1685.410096
1304.306206,-9178.553681,-296.082377,1378.971896
1304.306527,-9104.533087,1628.453072,612.876398
1304.306847,-9178.553681,2220.617826,2451.505594
1304.307168,-8956.491898,666.185348,2145.067394
1304.307489,-9326.594869,-962.267725,766.095498
1304.307809,-10658.965565,-1332.370696,612.876398
1304.308130,-9770.718434,-1480.411884,459.657299
1304.308451,-9474.636058,-296.082377,1149.143247
1304.308771,-10066.800811,-592.164754,1532.190996
1304.309092,-9252.574275,-592.164754,766.095498
1304.309413,-9030.512492,-592.164754,536.266849
1304.309734,-11029.068536,0.000000,1302.362347
1304.310054,-10955.047942,-1184.329507,1685.410096
1304.310375,-9844.739029,-1776.494261,1225.752797
1304.310696,-8956.491898,-666.185348,0.000000
1304.311016,-9326.594869,1406.391290,1302.362347
1304.311337,-9030.512492,2886.803174,1225.752797
1304.311658,-9252.574275,518.144159,995.924147
1304.311978,-8660.409521,-592.164754,306.438199
1304.312299,-9992.780217,-2294.638420,-459.657299
1304.312620,-9844.739029,-2886.803174,-153.219100
1304.312941,-9400.615463,74.020594,612.876398
1304.313261,-10732.986159,1332.370696,1915.238745
1304.313582,-9326.594869,1036.288319,2221.676944
1304.313903,-8586.388927,0.000000,919.314598
1304.314223,-8882.471304,-1258.350101,-612.876398
1304.314544,-9548.656652,-1036.288319,-536.266849
1304.314865,-8956.491898,-1036.288319,-536.266849
1304.315185,-9696.697840,814.226536,1149.143247
1304.315506,-9326.594869,1702.473667,76.609550
1304.315827,-10288.862594,1628.453072,1915.238745
1304.316148,-10436.903782,0.000000,3370.820191
1304.316468,-11103.089130,-2590.720797,2911.162892
1304.316789,-10362.883188,-3627.009116,2221.676944
1304.317110,-10066.800811,-2886.803174,2145.067394
1304.317430,-8660.409521,-74.020594,1608.800546
1304.317751,-9178.553681,592.164754,1685.410096
1304.318072,-8882.471304,888.247130,766.095498
1304.318392,-8290.306550,-740.205942,306.438199
1304.318713,-9474.636058,-1184.329507,536.266849
1304.319034,-10955.047942,-1776.494261,1762.019645
1304.319355,-10955.047942,-1332.370696,1608.800546
1304.319675,-9474.636058,-296.082377,1838.629195
1304.319996,-9770.718434,814.226536,1149.143247
1304.320317,-10362.883188,1628.453072,1991.848295
1304.320637,-9548.656652,962.267725,2221.676944
1304.320958,-9992.780217,-666.185348,1685.410096
1304.321279,-9992.780217,-1406.391290,689.485948
1304.321599,-9696.697840,-1332.370696,689.485948
1304.321920,-9400.615463,0.000000,1225.752797
1304.322241,-9548.656652,0.000000,1915.238745
1304.322562,-9400.615463,-814.226536,1762.019645
1304.322882,-8438.347739,-1184.329507,1532.190996
1304.323203,-9844.739029,-1998.556043,689.485948
1304.323524,-10066.800811,-666.185348,1608.800546
1304.323844,-10214.842000,-1184.329507,1608.800546
1304.324165,-7920.203579,-222.061783,76.609550
1304.324486,-9326.594869,2368.659014,0.000000
1304.324806,-9992.780217,3034.844362,1378.971896
1304.325127,-8660.409521,1184.329507,2911.162892
1304.325448,-9622.677246,-1332.370696,995.924147
1304.325769,-9400.615463,-2368.659014,-536.266849
1304.326089,-9400.615463,-1406.391290,0.000000
1304.326410,-9548.656652,296.082377,2221.676944
1304.326731,-9548.656652,1332.370696,2987.772442
1304.327051,-10436.903782,666.185348,2911.162892
1304.327372,-10066.800811,0.000000,2604.724693
1304.327693,-9992.780217,-1702.473667,2068.457845
1304.328013,-10362.883188,-2886.803174,1991.848295
1304.328334,-8882.471304,-2368.659014,-612.876398
1304.328655,-7994.224174,0.000000,-1532.190996
1304.328976,-7846.182985,2220.617826,-1378.971896
1304.329296,-8882.471304,2442.679609,-306.438199
1304.329617,-9844.739029,1406.391290,766.095498
1304.329938,-10288.862594,-370.102971,766.095498
1304.330258,-11695.253884,-1332.370696,1225.752797
1304.330579,-10881.027347,-1036.288319,1762.019645
1304.330900,-9844.739029,-296.082377,1608.800546
1304.331220,-10881.027347,-296.082377,1532.190996
1304.331541,-9252.574275,-296.082377,842.705048
1304.331862,-8290.306550,-1258.350101,-229.828649
1304.332183,-9104.533087,-1776.494261,1532.190996
1304.332503,-9844.739029,-1406.391290,0.000000
1304.332824,-9844.739029,-1332.370696,0.000000
1304.333145,-8734.430116,148.041188,-306.438199
1304.333465,-9770.718434,1184.329507,76.609550
1304.333786,-10436.903782,1776.494261,1455.581446
1304.334107,-9918.759623,814.226536,2145.067394
1304.334427,-10436.903782,-666.185348,2681.334243
1304.334748,-10288.862594,-2146.597232,1838.629195
1304.335069,-9030.512492,-1924.535449,1532.190996
1304.335390,-9252.574275,-518.144159,1608.800546
1304.335710,-9030.512492,666.185348,1302.362347
1304.336031,-8586.388927,592.164754,1685.410096
1304.336352,-7846.182985,-888.247130,1532.190996
1304.336672,-8660.409521,-518.144159,536.266849
1304.336993,-10955.047942,-1776.494261,1762.019645
1304.337314,-10066.800811,-1258.350101,1532.190996
1304.337634,-9622.677246,-296.082377,1455.581446
1304.337955,-9474.636058,1332.370696,1149.143247
1304.338276,-9918.759623,2368.659014,1991.848295
1304.338597,-9030.512492,1110.308913,2221.676944
1304.338917,-9326.594869,-888.247130,1149.143247
1304.339238,-8438.347739,-2294.638420,0.000000
1304.339559,-9252.574275,-1258.350101,76.609550
1304.339879,-9474.636058,-1184.329507,306.438199
1304.340200,-9252.574275,296.082377,1838.629195
1304.340521,-9918.759623,-962.267725,2604.724693
1304.340841,-8660.409521,-888.247130,1991.848295
1304.341162,-10214.842000,-1184.329507,1762.019645
1304.341483,-11251.130318,-1036.288319,1991.848295
1304.341804,-9844.739029,-1628.453072,1685.410096
1304.342124,-8808.450710,-888.247130,459.657299
1304.342445,-8882.471304,740.205942,-383.047749
1304.342766,-9474.636058,1406.391290,383.047749
1304.343086,-9770.718434,1554.432478,1762.019645
1304.343407,-9252.574275,0.000000,1608.800546
1304.343728,-10881.027347,-592.164754,995.924147
1304.344048,-11251.130318,-1924.535449,1608.800546
1304.344369,-9548.656652,-962.267725,2528.115143
1304.344690,-10658.965565,370.102971,2528.115143
1304.345011,-10066.800811,-1258.350101,2221.676944
1304.345331,-8290.306550,-1776.494261,0.000000
1304.345652,-9104.533087,-814.226536,0.000000
1304.345973,-9104.533087,-1184.329507,-612.876398
1304.346293,-7846.182985,296.082377,-1532.190996
1304.346614,-9474.636058,2368.659014,383.047749
1304.346935,-9918.759623,2442.679609,-459.657299
1304.347255,-9474.636058,2072.576638,1532.190996
1304.347576,-10510.924376,-1628.453072,1915.238745
1304.347897,-9844.739029,-2146.597232,1838.629195
1304.348218,-9548.656652,-3256.906145,536.266849
1304.348538,-10288.862594,-1702.473667,1685.410096
1304.348859,-7328.038826,0.000000,0.000000
1304.349180,-9400.615463,74.020594,536.266849
1304.349500,-8586.388927,-222.061783,1072.533697
1304.349821,-7920.203579,222.061783,0.000000
1304.350142,-9696.697840,-518.144159,1149.143247
1304.350462,-10732.986159,-962.267725,1838.629195
1304.350783,-9326.594869,-1480.411884,995.924147
1304.351104,-9992.780217,-592.164754,689.485948
1304.351425,-9844.739029,1924.535449,842.705048
1304.351745,-10436.903782,2368.659014,842.705048
1304.352066,-10362.883188,1554.432478,1915.238745
1304.352387,-9696.697840,148.041188,689.485948
1304.352707,-9622.677246,-592.164754,0.000000
1304.353028,-10288.862594,-1702.473667,-153.219100
1304.353349,-8660.409521,-518.144159,842.705048
1304.353669,-9992.780217,-222.061783,919.314598
1304.353990,-9548.656652,-444.123565,1072.533697
1304.354311,-8882.471304,-444.123565,1072.533697
1304.354632,-9622.677246,-1110.308913,1149.143247
1304.354952,-10658.965565,-1406.391290,842.705048
1304.355273,-9622.677246,-1110.308913,1149.143247
1304.355594,-9548.656652,-962.267725,76.609550
1304.355914,-9622.677246,1924.535449,459.657299
1304.356235,-10066.800811,1702.473667,1302.362347
1304.356556,-9622.677246,222.061783,2451.505594
1304.356876,-9622.677246,-370.102971,1302.362347
1304.357197,-10510.924376,-1480.411884,689.485948
1304.357518,-10140.821405,-2146.597232,919.314598
1304.357839,-8512.368333,0.000000,995.924147
1304.358159,-9474.636058,-444.123565,1149.143247
1304.358480,-8216.285956,814.226536,1149.143247
1304.358801,-8882.471304,-666.185348,1838.629195
1304.359121,-8808.450710,-962.267725,1072.533697
1304.359442,-10066.800811,-1184.329507,1685.410096
1304.359763,-9252.574275,-1406.391290,1455.581446
1304.360083,-8586.388927,222.061783,612.876398
1304.360404,-9992.780217,2220.617826,689.485948
1304.360725,-9770.718434,2738.761985,2221.676944
1304.361046,-9326.594869,1554.432478,1915.238745
1304.361366,-9548.656652,148.041188,2681.334243
1304.361687,-9696.697840,-2072.576638,1149.143247
1304.362008,-9992.780217,-2072.576638,1378.971896
1304.362328,-9400.615463,-2146.597232,1608.800546
1304.362649,-9770.718434,-518.144159,1838.629195
1304.362970,-9548.656652,-592.164754,2451.505594
1304.363290,-8808.450710,-1332.370696,2298.286494
1304.363611,-9474.636058,-1924.535449,1302.362347
1304.363932,-9474.636058,-2590.720797,459.657299
1304.364253,-8142.265362,-2368.659014,-306.438199
1304.364573,-8364.327145,666.185348,-1302.362347
1304.364894,-9252.574275,2664.741391,-766.095498
1304.365215,-10288.862594,3108.864956,1302.362347
1304.365535,-10436.903782,1332.370696,3217.601092
1304.365856,-11177.109724,-2072.576638,2298.286494
1304.366177,-11843.295072,-3404.947333,2221.676944
1304.366497,-11251.130318,-3627.009116,2298.286494
1304.366818,-9326.594869,-1702.473667,1455.581446
1304.367139,-9326.594869,814.226536,536.266849
1304.367460,-8660.409521,2294.638420,766.095498
1304.367780,-8142.265362,1702.473667,153.219100
1304.368101,-8734.430116,0.000000,0.000000
1304.368422,-10066.800811,-1480.411884,0.000000
1304.368742,-9548.656652,-2368.659014,0.000000
1304.369063,-9770.718434,-296.082377,306.438199
1304.369384,-10214.842000,1998.556043,1915.238745
1304.369704,-9770.718434,2590.720797,3370.820191
1304.370025,-9918.759623,1998.556043,2451.505594
1304.370346,-9918.759623,370.102971,612.876398
1304.370667,-9844.739029,-222.061783,459.657299
1304.370987,-10732.986159,-1850.514855,1225.752797
1304.371308,-8364.327145,-1258.350101,1149.143247
1304.371629,-9104.533087,-962.267725,1072.533697
1304.371949,-8438.347739,-740.205942,1455.581446
1304.372270,-8438.347739,-1332.370696,2145.067394
1304.372591,-9770.718434,-2146.597232,1838.629195
1304.372911,-10066.800811,-2516.700203,995.924147
1304.373232,-9770.718434,-2072.576638,76.609550
1304.373553,-8364.327145,1628.453072,0.000000
1304.373874,-10955.047942,1924.535449,1072.533697
1304.374194,-8882.471304,2738.761985,1532.190996
1304.374515,-9400.615463,296.082377,842.705048
1304.374836,-9770.718434,-518.144159,612.876398
1304.375156,-10066.800811,-2368.659014,383.047749
1304.375477,-10807.006753,-1924.535449,383.047749
1304.375798,-9474.636058,296.082377,1838.629195
1304.376118,-9474.636058,1406.391290,995.924147
1304.376439,-9696.697840,1406.391290,2451.505594
1304.376760,-8808.450710,0.000000,2681.334243
1304.377081,-9696.697840,-1924.535449,2681.334243
1304.377401,-11029.068536,-3849.070898,2528.115143
1304.377722,-9474.636058,-3701.029710,1302.362347
1304.378043,-8808.450710,-1702.473667,-306.438199
1304.378363,-9474.636058,1628.453072,-383.047749
1304.378684,-9326.594869,3330.926739,0.000000
1304.379005,-8734.430116,3330.926739,-383.047749
1304.379326,-9030.512492,740.205942,-995.924147
1304.379646,-9622.677246,-444.123565,-1225.752797
1304.379967,-10584.944971,-1332.370696,-919.314598
1304.380288,-9844.739029,-370.102971,1455.581446
1304.380608,-10807.006753,-666.185348,2221.676944
1304.380929,-9770.718434,-1850.514855,2834.553343
1304.381250,-8808.450710,-2220.617826,2911.162892
1304.381571,-9104.533087,-2294.638420,919.314598
1304.381891,-10807.006753,-1332.370696,1378.971896
1304.382212,-9252.574275,-370.102971,612.876398
1304.382533,-7846.182985,888.247130,-766.095498
1304.382853,-9326.594869,592.164754,-383.047749
1304.383174,-8808.450710,2146.597232,229.828649
1304.383495,-10066.800811,-370.102971,1455.581446
1304.383816,-9770.718434,-1480.411884,1225.752797
1304.384136,-11325.150913,-1036.288319,1762.019645
1304.384457,-10214.842000,-814.226536,1915.238745
1304.384778,-9622.677246,444.123565,2374.896044
1304.385098,-9992.780217,1184.329507,2451.505594
1304.385419,-10436.903782,296.082377,3217.601092
1304.385740,-8512.368333,-666.185348,1838.629195
1304.386060,-9622.677246,-2368.659014,1991.848295
1304.386381,-9770.718434,-3256.906145,1608.800546
1304.386702,-10584.944971,-3923.091493,3140.991542
1304.387023,-8660.409521,-1628.453072,76.609550
1304.387343,-9770.718434,1776.494261,1149.143247
1304.387664,-10214.842000,3330.926739,2451.505594
1304.387985,-9844.739029,1702.473667,2145.067394
1304.388305,-10584.944971,-444.123565,1225.752797
1304.388626,-9474.636058,-1184.329507,-153.219100
1304.388947,-8734.430116,-1776.494261,-536.266849
1304.389268,-9252.574275,-518.144159,229.828649
1304.389588,-9326.594869,0.000000,536.266849
1304.389909,-9400.615463,-222.061783,1225.752797
1304.390230,-8586.388927,-518.144159,1532.190996
1304.390550,-9992.780217,-1850.514855,1762.019645
1304.390871,-11177.109724,-1628.453072,2068.457845
1304.391192,-10214.842000,-1110.308913,1302.362347
1304.391513,-8808.450710,740.205942,459.657299
1304.391833,-8956.491898,1776.494261,612.876398
1304.392154,-8734.430116,666.185348,842.705048
1304.392475,-7846.182985,-666.185348,1302.362347
1304.392795,-9178.553681,-1406.391290,383.047749
1304.393116,-10510.924376,-1110.308913,1072.533697
1304.393437,-9992.780217,-296.082377,1608.800546
1304.393758,-10066.800811,0.000000,2374.896044
1304.394078,-10066.800811,370.102971,1455.581446
1304.394399,-9622.677246,370.102971,2145.067394
1304.394720,-10066.800811,-2368.659014,2221.676944
1304.395040,-9474.636058,-3330.926739,2068.457845
1304.395361,-10510.924376,-3552.988522,1455.581446
1304.395682,-9252.574275,-2664.741391,0.000000
1304.396003,-8660.409521,1110.308913,306.438199
1304.396323,-9696.697840,2812.782580,306.438199
1304.396644,-8734.430116,3627.009116,1149.143247
1304.396965,-10140.821405,1110.308913,995.924147
1304.397285,-10436.903782,444.123565,1072.533697
1304.397606,-10362.883188,-1850.514855,-306.438199
1304.397927,-9326.594869,-518.144159,1378.971896
1304.398248,-9622.677246,0.000000,1532.190996
1304.398568,-9696.697840,222.061783,995.924147
1304.398889,-9400.615463,666.185348,1302.362347
1304.399210,-8956.491898,-296.082377,0.000000
1304.399530,-9918.759623,-148.041188,229.828649
1304.399851,-10510.924376,-1184.329507,766.095498
1304.400172,-9326.594869,-1036.288319,0.000000
1304.400492,-9178.553681,0.000000,-766.095498
1304.400813,-9252.574275,1036.288319,229.828649
1304.401134,-9992.780217,962.267725,1762.019645
1304.401455,-9992.780217,-370.102971,1455.581446
1304.401775,-9326.594869,-1036.288319,1225.752797
1304.402096,-10584.944971,-2664.741391,153.219100
1304.402417,-8808.450710,-296.082377,76.609550
1304.402737,-9326.594869,74.020594,1149.143247
1304.403058,-9104.533087,666.185348,1072.533697
1304.403379,-9400.615463,-296.082377,1608.800546
1304.403700,-8956.491898,-1406.391290,459.657299
1304.404020,-8364.327145,-2146.597232,229.828649
1304.404341,-10362.883188,-2664.741391,536.266849
1304.404662,-9030.512492,-1258.350101,1302.362347
1304.404982,-8956.491898,888.247130,919.314598
1304.405303,-9548.656652,1628.453072,995.924147
1304.405624,-8882.471304,1776.494261,1378.971896
1304.405945,-9844.739029,74.020594,1991.848295
1304.406265,-10362.883188,-222.061783,2068.457845
1304.406586,-10732.986159,-1332.370696,2068.457845
1304.406907,-9770.718434,-1036.288319,2298.286494
1304.407227,-8364.327145,-666.185348,1915.238745
1304.407548,-9696.697840,74.020594,1762.019645
1304.407869,-9474.636058,74.020594,1991.848295
1304.408190,-8882.471304,-740.205942,1532.190996
1304.408510,-9178.553681,-296.082377,1225.752797
1304.408831,-9992.780217,-1184.329507,919.314598
1304.409152,-9548.656652,-1554.432478,1302.362347
1304.409472,-8956.491898,-296.082377,842.705048
1304.409793,-10288.862594,666.185348,689.485948
1304.410114,-9770.718434,1480.411884,2221.676944
1304.410435,-9474.636058,962.267725,3677.258390
1304.410755,-10584.944971,-518.144159,1991.848295
1304.411076,-10436.903782,-1036.288319,919.314598
1304.411397,-10288.862594,-1110.308913,689.485948
1304.411717,-9030.512492,-296.082377,229.828649
1304.412038,-9622.677246,0.000000,229.828649
1304.412359,-9474.636058,0.000000,766.095498
1304.412680,-9326.594869,-814.226536,1072.533697
1304.413000,-10066.800811,-1628.453072,1455.581446
1304.413321,-11029.068536,-2294.638420,612.876398
1304.413642,-9474.636058,-2072.576638,612.876398
1304.413962,-9474.636058,-740.205942,459.657299
1304.414283,-9178.553681,740.205942,0.000000
1304.414604,-8216.285956,740.205942,229.828649
1304.414924,-7698.141797,518.144159,-612.876398
1304.415245,-9030.512492,-222.061783,-689.485948
1304.415566,-10214.842000,-814.226536,0.000000
1304.415887,-10214.842000,-740.205942,1762.019645
1304.416207,-10066.800811,-888.247130,2681.334243
1304.416528,-10510.924376,-370.102971,2911.162892
1304.416849,-10732.986159,-962.267725,2911.162892
1304.417169,-9474.636058,-888.247130,2528.115143
1304.417490,-8956.491898,-888.247130,1838.629195
1304.417811,-9104.533087,-1110.308913,995.924147
1304.418132,-7698.141797,-962.267725,-689.485948
1304.418452,-8142.265362,0.000000,-995.924147
1304.418773,-8660.409521,1998.556043,-612.876398
1304.419094,-9474.636058,2368.659014,1225.752797
1304.419414,-9992.780217,518.144159,2221.676944
1304.419735,-9918.759623,-1184.329507,1532.190996
1304.420056,-11325.150913,-2072.576638,1608.800546
1304.420377,-10955.047942,-1406.391290,1608.800546
1304.420697,-9844.739029,0.000000,1838.629195
1304.421018,-10658.965565,666.185348,1455.581446
1304.421339,-9178.553681,592.164754,1072.533697
1304.421659,-8882.471304,-222.061783,842.705048
1304.421980,-9696.697840,-1332.370696,306.438199
1304.422301,-10214.842000,-1924.535449,536.266849
1304.422622,-9548.656652,-1998.556043,153.219100
1304.422942,-9918.759623,518.144159,1302.362347
1304.423263,-10658.965565,1480.411884,995.924147
1304.423584,-9844.739029,2368.659014,1991.848295
1304.423904,-9770.718434,888.247130,2221.676944
1304.424225,-10140.821405,-148.041188,1378.971896
1304.424546,-10288.862594,-1184.329507,766.095498
1304.424867,-10214.842000,-1554.432478,383.047749
1304.425187,-8364.327145,-222.061783,383.047749
1304.425508,-8956.491898,148.041188,153.219100
1304.425829,-9400.615463,74.020594,1455.581446
1304.426149,-7772.162391,-518.144159,612.876398
1304.426470,-9548.656652,-518.144159,1378.971896
1304.426791,-10214.842000,-1110.308913,2145.067394
1304.427111,-9548.656652,-148.041188,1149.143247
1304.427432,-10288.862594,-222.061783,2298.286494
1304.427753,-9696.697840,444.123565,2681.334243
1304.428074,-9770.718434,-296.082377,2604.724693
1304.428394,-8216.285956,-1924.535449,1991.848295
1304.428715,-8660.409521,-2368.659014,0.000000
1304.429036,-8364.327145,-444.123565,0.000000
1304.429356,-8438.347739,444.123565,-842.705048
1304.429677,-7698.141797,1406.391290,612.876398
1304.429998,-8512.368333,370.102971,76.609550
1304.430319,-9622.677246,666.185348,1072.533697
1304.430639,-9030.512492,-1850.514855,459.657299
1304.430960,-10510.924376,-1998.556043,1225.752797
1304.431281,-11251.130318,-2368.659014,1762.019645
1304.431601,-9622.677246,-1628.453072,229.828649
1304.431922,-9548.656652,1554.432478,459.657299
1304.432243,-11621.233289,1776.494261,919.314598
1304.432564,-9400.615463,2368.659014,995.924147
1304.432884,-11621.233289,222.061783,842.705048
1304.433205,-10066.800811,-592.164754,995.924147
1304.433526,-10436.903782,-2368.659014,0.000000
1304.433846,-10140.821405,-1036.288319,1149.143247
1304.434167,-8586.388927,-888.247130,536.266849
1304.434488,-9918.759623,0.000000,1838.629195
1304.434809,-10214.842000,148.041188,2298.286494
1304.435129,-8660.409521,-1036.288319,1532.190996
1304.435450,-10140.821405,-2294.638420,1455.581446
1304.435771,-10214.842000,-1702.473667,1685.410096
1304.436091,-9474.636058,-740.205942,919.314598
1304.436412,-9548.656652,296.082377,919.314598
1304.436733,-9474.636058,1628.453072,1072.533697
1304.437054,-9918.759623,1554.432478,2451.505594
1304.437374,-10436.903782,-1036.288319,2604.724693
1304.437695,-9548.656652,-1258.350101,1608.800546
1304.438016,-10140.821405,-2294.638420,536.266849
1304.438336,-8734.430116,-370.102971,76.609550
1304.438657,-8586.388927,-1184.329507,459.657299
1304.438978,-7772.162391,518.144159,766.095498
1304.439299,-8216.285956,-666.185348,1072.533697
1304.439619,-7994.224174,-1406.391290,-153.219100
1304.439940,-9474.636058,-1480.411884,1532.190996
1304.440261,-10732.986159,-592.164754,2145.067394
1304.440581,-10066.800811,666.185348,2298.286494
1304.440902,-9474.636058,1406.391290,1455.581446
1304.441223,-8882.471304,2368.659014,383.047749
1304.441543,-9252.574275,2442.679609,766.095498
1304.441864,-9104.533087,1110.308913,1532.190996
1304.442185,-9474.636058,-666.185348,919.314598
1304.442506,-9696.697840,-1554.432478,306.438199
1304.442826,-9252.574275,-2220.617826,0.000000
1304.443147,-9252.574275,-1184.329507,459.657299
1304.443468,-10362.883188,592.164754,1838.629195
1304.443788,-10658.965565,1184.329507,689.485948
1304.444109,-10658.965565,0.000000,2451.505594
1304.444430,-10288.862594,-2368.659014,1685.410096
1304.444751,-10436.903782,-3478.967927,612.876398
1304.445071,-10436.903782,-2590.720797,0.000000
1304.445392,-8808.450710,0.000000,-1072.533697
1304.445713,-9252.574275,1924.535449,-306.438199
1304.446033,-9770.718434,1998.556043,536.266849
1304.446354,-9178.553681,370.102971,0.000000
1304.446675,-10066.800811,444.123565,153.219100
1304.446996,-11547.212695,-2368.659014,536.266849
1304.447316,-10510.924376,-1554.432478,766.095498
1304.447637,-10732.986159,-666.185348,2221.676944
1304.447958,-9622.677246,-1554.432478,383.047749
1304.448278,-8734.430116,592.164754,1072.533697
1304.448599,-9770.718434,-1480.411884,1149.143247
1304.448920,-7550.100608,-296.082377,-842.705048
1304.449241,-9992.780217,-148.041188,76.609550
1304.449561,-9030.512492,0.000000,0.000000
1304.449882,-7846.182985,2220.617826,229.828649
1304.450203,-10066.800811,2146.597232,153.219100
1304.450523,-9326.594869,2664.741391,2451.505594
1304.450844,-10584.944971,592.164754,4213.525239
1304.451165,-10214.842000,-1110.308913,2221.676944
1304.451486,-10436.903782,-1554.432478,1455.581446
1304.451806,-9474.636058,-148.041188,1685.410096
1304.452127,-8586.388927,-592.164754,2528.115143
1304.452448,-9252.574275,-592.164754,1838.629195
1304.452768,-8290.306550,-1184.329507,1378.971896
1304.453089,-8364.327145,-1776.494261,766.095498
1304.453410,-9992.780217,-888.247130,2145.067394
1304.453731,-10881.027347,-2146.597232,2145.067394
1304.454051,-9918.759623,-1998.556043,1915.238745
1304.454372,-9030.512492,74.020594,919.314598
1304.454693,-9548.656652,888.247130,689.485948
1304.455013,-9918.759623,1628.453072,1991.848295
1304.455334,-9844.739029,74.020594,2451.505594
1304.455655,-10214.842000,-962.267725,1838.629195
1304.455975,-10807.006753,-1628.453072,1762.019645
1304.456296,-10066.800811,-666.185348,2681.334243
1304.456617,-9474.636058,0.000000,1991.848295
1304.456938,-10140.821405,0.000000,2298.286494
1304.457258,-9178.553681,0.000000,1838.629195
1304.457579,-9030.512492,-1332.370696,1302.362347
1304.457900,-9770.718434,-1702.473667,536.266849
1304.458220,-9918.759623,-740.205942,612.876398
1304.458541,-9622.677246,-518.144159,536.266849
1304.458862,-8956.491898,1258.350101,-229.828649
1304.459183,-9474.636058,2886.803174,0.000000
1304.459503,-9622.677246,1628.453072,766.095498
1304.459824,-9400.615463,0.000000,1302.362347
1304.460145,-10140.821405,-962.267725,995.924147
1304.460465,-10881.027347,-444.123565,1838.629195
1304.460786,-10066.800811,-518.144159,1455.581446
1304.461107,-9622.677246,0.000000,1608.800546
1304.461428,-9474.636058,-962.267725,689.485948
1304.461748,-7994.224174,-888.247130,-229.828649
1304.462069,-8290.306550,-370.102971,0.000000
1304.462390,-9400.615463,-592.164754,536.266849
1304.462710,-10510.924376,-1184.329507,1532.190996
1304.463031,-9326.594869,-1850.514855,842.705048
1304.463352,-8956.491898,-1628.453072,-536.266849
1304.463673,-9400.615463,370.102971,306.438199
1304.463993,-10066.800811,740.205942,1455.581446
1304.464314,-9178.553681,-222.061783,842.705048
1304.464635,-8882.471304,-1258.350101,-1225.752797
1304.464955,-9400.615463,-1258.350101,-1149.143247
1304.465276,-9474.636058,-962.267725,229.828649
1304.465597,-9918.759623,0.000000,1149.143247
1304.465918,-10732.986159,814.226536,2451.505594
1304.466238,-10288.862594,0.000000,2451.505594
1304.466559,-10510.924376,-1036.288319,2374.896044
1304.466880,-10436.903782,-1776.494261,2068.457845
1304.467200,-10436.903782,-1776.494261,1378.971896
1304.467521,-9030.512492,-1036.288319,0.000000
1304.467842,-8216.285956,1036.288319,-612.876398
1304.468162,-9178.553681,2516.700203,-383.047749
1304.468483,-9178.553681,2442.679609,842.705048
1304.468804,-9326.594869,666.185348,536.266849
1304.469125,-9918.759623,-666.185348,766.095498
1304.469445,-10510.924376,-1110.308913,1378.971896
1304.469766,-10436.903782,-1480.411884,2451.505594
1304.470087,-10066.800811,-1036.288319,2681.334243
1304.470407,-9992.780217,-370.102971,2528.115143
1304.470728,-8734.430116,-518.144159,995.924147
1304.471049,-8216.285956,-148.041188,919.314598
1304.471370,-9400.615463,-666.185348,995.924147
1304.471690,-8660.409521,-1332.370696,536.266849
1304.472011,-8956.491898,-1332.370696,0.000000
1304.472332,-8808.450710,0.000000,-306.438199
1304.472652,-9622.677246,1480.411884,1225.752797
1304.472973,-10510.924376,1776.494261,2911.162892
1304.473294,-10584.944971,-74.020594,3600.648841
1304.473615,-9770.718434,-1258.350101,1532.190996
1304.473935,-10288.862594,-1850.514855,995.924147
1304.474256,-9474.636058,-740.205942,1532.190996
1304.474577,-9548.656652,0.000000,2911.162892
1304.474897,-8882.471304,222.061783,2221.676944
1304.475218,-8660.409521,-1702.473667,229.828649
1304.475539,-7402.059420,-1110.308913,0.000000
1304.475860,-9992.780217,-1850.514855,2298.286494
1304.476181,-9548.656652,-1702.473667,1302.362347
1304.476501,-9992.780217,-1258.350101,612.876398
1304.476822,-9696.697840,1480.411884,0.000000
1304.477143,-9992.780217,2368.659014,995.924147
1304.477464,-10140.821405,2220.617826,1685.410096
1304.477785,-11177.109724,666.185348,2757.943793
1304.478106,-9770.718434,-2368.659014,0.000000
1304.478427,-10658.965565,-1776.494261,-153.219100
1304.478748,-9400.615463,-740.205942,0.000000
1304.479068,-9548.656652,222.061783,1608.800546
1304.479389,-10436.903782,740.205942,2451.505594
1304.479710,-10066.800811,-370.102971,2451.505594
1304.480031,-9474.636058,-814.226536,1072.533697
1304.480352,-9918.759623,-2590.720797,1149.143247
1304.480673,-9992.780217,-3256.906145,153.219100
1304.480994,-7994.224174,-962.267725,-995.924147
1304.481314,-8142.265362,1332.370696,-1608.800546
1304.481635,-8142.265362,4071.132681,-1072.533697
1304.481956,-9474.636058,2664.741391,766.095498
1304.482277,-9918.759623,1036.288319,1149.143247
1304.482598,-11103.089130,-370.102971,1225.752797
1304.482919,-11917.315666,-1554.432478,1302.362347
1304.483240,-10510.924376,-1776.494261,2145.067394
1304.483561,-9548.656652,-814.226536,2451.505594
1304.483881,-9474.636058,-666.185348,1838.629195
1304.484202,-9474.636058,-962.267725,2757.943793
1304.484523,-7624.121203,-962.267725,1072.533697
1304.484844,-8808.450710,-1998.556043,383.047749
1304.485165,-9622.677246,-1480.411884,995.924147
1304.485486,-9252.574275,-1406.391290,689.485948
1304.485807,-9178.553681,-148.041188,459.657299
1304.486128,-9474.636058,2072.576638,536.266849
1304.486448,-10066.800811,2516.700203,2145.067394
1304.486769,-10436.903782,1628.453072,2528.115143
1304.487090,-11177.109724,1850.514855,2528.115143
1304.487411,-11547.212695,148.041188,1685.410096
1304.487732,-10066.800811,0.000000,1378.971896
1304.488053,-9548.656652,-1036.288319,1378.971896
1304.488374,-10436.903782,-1184.329507,459.657299
1304.488694,-9548.656652,-1332.370696,995.924147
1304.489015,-8734.430116,-1406.391290,1149.143247
1304.489336,-9178.553681,-1258.350101,842.705048
1304.489657,-10140.821405,-2220.617826,919.314598
1304.489978,-9178.553681,-2146.597232,-153.219100
1304.490299,-8438.347739,148.041188,-1378.971896
1304.490620,-9400.615463,1702.473667,-995.924147
1304.490941,-9326.594869,1998.556043,536.266849
1304.491261,-8808.450710,1036.288319,459.657299
1304.491582,-10288.862594,-888.247130,612.876398
1304.491903,-10288.862594,-296.082377,612.876398
1304.492224,-10658.965565,-740.205942,1838.629195
1304.492545,-10362.883188,-814.226536,842.705048
1304.492866,-9548.656652,0.000000,2528.115143
1304.493187,-9326.594869,-962.267725,1532.190996
1304.493508,-7846.182985,0.000000,995.924147
1304.493828,-9474.636058,-1036.288319,1685.410096
1304.494149,-9178.553681,-2442.679609,229.828649
1304.494470,-7772.162391,-1406.391290,689.485948
1304.494791,-8364.327145,-962.267725,0.000000
1304.495112,-8586.388927,1036.288319,383.047749
1304.495433,-10807.006753,1628.453072,2451.505594
1304.495754,-9400.615463,1480.411884,2374.896044
1304.496074,-10658.965565,-592.164754,766.095498
1304.496395,-10658.965565,-222.061783,2068.457845
1304.496716,-10510.924376,-3108.864956,2298.286494
1304.497037,-10066.800811,814.226536,1762.019645
1304.497358,-9548.656652,-592.164754,842.705048
1304.497679,-9400.615463,-592.164754,1915.238745
1304.498000,-9178.553681,-1924.535449,536.266849
1304.498321,-9622.677246,-1628.453072,1225.752797
1304.498641,-9992.780217,-1702.473667,1532.190996
1304.498962,-9548.656652,-2368.659014,612.876398
1304.499283,-9770.718434,-740.205942,536.266849
1304.499604,-10510.924376,444.123565,459.657299
1304.499925,-9992.780217,1184.329507,612.876398
1304.500246,-10214.842000,222.061783,1532.190996
1304.500567,-9548.656652,-666.185348,919.314598
1304.500887,-10732.986159,-814.226536,689.485948
1304.501208,-10881.027347,0.000000,1302.362347
1304.501529,-10140.821405,222.061783,1991.848295
1304.501850,-10510.924376,148.041188,2221.676944
1304.502171,-9918.759623,-518.144159,1838.629195
1304.502492,-8216.285956,0.000000,842.705048
1304.502813,-10436.903782,-962.267725,1532.190996
1304.503134,-9400.615463,-518.144159,1455.581446
1304.503454,-9474.636058,-1332.370696,1378.971896
1304.503775,-8586.388927,-444.123565,536.266849
1304.504096,-9030.512492,1628.453072,383.047749
1304.504417,-9474.636058,1850.514855,995.924147
1304.504738,-9474.636058,1480.411884,1072.533697
1304.505059,-9178.553681,148.041188,842.705048
1304.505380,-10140.821405,-1332.370696,842.705048
1304.505701,-9400.615463,-1480.411884,919.314598
1304.506021,-10288.862594,-296.082377,2604.724693
1304.506342,-9400.615463,0.000000,2451.505594
1304.506663,-9474.636058,0.000000,2757.943793
1304.506984,-8068.244768,-814.226536,2298.286494
1304.507305,-8512.368333,-1702.473667,919.314598
1304.507626,-9474.636058,-1998.556043,1149.143247
1304.507947,-9104.533087,-2442.679609,76.609550
1304.508267,-8216.285956,-222.061783,0.000000
1304.508588,-9770.718434,888.247130,689.485948
1304.508909,-9474.636058,1480.411884,1838.629195
1304.509230,-9992.780217,370.102971,1072.533697
1304.509551,-10362.883188,-1406.391290,1149.143247
1304.509872,-10214.842000,-1628.453072,995.924147
1304.510193,-10510.924376,-1554.432478,842.705048
1304.510514,-9622.677246,0.000000,1072.533697
1304.510834,-9918.759623,370.102971,1532.190996
1304.511155,-9622.677246,-370.102971,919.314598
1304.511476,-8660.409521,-222.061783,383.047749
1304.511797,-10288.862594,-1184.329507,383.047749
1304.512118,-10066.800811,-1702.473667,153.219100
1304.512439,-9548.656652,-1480.411884,-383.047749
1304.512760,-9474.636058,0.000000,-459.657299
1304.513081,-9622.677246,1184.329507,-229.828649
1304.513401,-10584.944971,1554.432478,-229.828649
1304.513722,-9844.739029,222.061783,1225.752797
1304.514043,-10288.862594,-296.082377,76.609550
1304.514364,-10955.047942,-814.226536,536.266849
1304.514685,-9622.677246,-444.123565,306.438199
1304.515006,-9548.656652,592.164754,1225.752797
1304.515327,-9918.759623,444.123565,1532.190996
1304.515647,-8512.368333,148.041188,995.924147
1304.515968,-8364.327145,-1036.288319,842.705048
1304.516289,-9252.574275,-814.226536,76.609550
1304.516610,-10066.800811,-1184.329507,995.924147
1304.516931,-9400.615463,-666.185348,995.924147
1304.517252,-8068.244768,0.000000,229.828649
1304.517573,-9178.553681,2368.659014,-689.485948
1304.517894,-9696.697840,1406.391290,2068.457845
1304.518214,-9770.718434,74.020594,2604.724693
1304.518535,-9918.759623,-1480.411884,2528.115143
1304.518856,-9622.677246,-2738.761985,1455.581446
1304.519177,-9400.615463,-2368.659014,1608.800546
1304.519498,-9326.594869,-1258.350101,1762.019645
1304.519819,-9474.636058,-148.041188,1991.848295
1304.520140,-8512.368333,222.061783,1915.238745
1304.520461,-8734.430116,-1480.411884,1072.533697
1304.520781,-9252.574275,-1998.556043,1072.533697
1304.521102,-9918.759623,-2072.576638,1762.019645
1304.521423,-9252.574275,-2294.638420,1149.143247
1304.521744,-8808.450710,0.000000,2911.162892
1304.522065,-10362.883188,1036.288319,1149.143247
1304.522386,-10140.821405,1480.411884,1608.800546
1304.522707,-9992.780217,592.164754,2145.067394
1304.523027,-10658.965565,-740.205942,2068.457845
1304.523348,-10288.862594,-1184.329507,612.876398
1304.523669,-10584.944971,-1554.432478,919.314598
1304.523990,-9548.656652,222.061783,1838.629195
1304.524311,-9992.780217,222.061783,1838.629195
1304.524632,-9992.780217,0.000000,383.047749
1304.524953,-8734.430116,-148.041188,1072.533697
1304.525274,-10584.944971,-2294.638420,919.314598
1304.525594,-9474.636058,-1628.453072,459.657299
1304.525915,-9770.718434,-1406.391290,306.438199
1304.526236,-9548.656652,-444.123565,229.828649
1304.526557,-9844.739029,3256.906145,459.657299
1304.526878,-10140.821405,2442.679609,1225.752797
1304.527199,-9548.656652,1480.411884,1378.971896
1304.527520,-9918.759623,-740.205942,153.219100
1304.527840,-10214.842000,-1924.535449,459.657299
1304.528161,-9622.677246,-1924.535449,-229.828649
1304.528482,-8808.450710,518.144159,153.219100
1304.528803,-9696.697840,1924.535449,2145.067394
1304.529124,-9400.615463,1332.370696,2374.896044
1304.529445,-9474.636058,-296.082377,2911.162892
1304.529766,-11177.109724,-1850.514855,3370.820191
1304.530087,-10584.944971,-3849.070898,4136.915689
1304.530407,-9696.697840,-3775.050304,1455.581446
1304.530728,-9474.636058,-1702.473667,689.485948
1304.531049,-7698.141797,2072.576638,-153.219100
1304.531370,-8142.265362,3256.906145,0.000000
1304.531691,-8364.327145,2368.659014,689.485948
1304.532012,-8216.285956,0.000000,-612.876398
1304.532333,-10732.986159,-2220.617826,306.438199
1304.532654,-9770.718434,-1702.473667,842.705048
1304.532974,-9770.718434,-1480.411884,919.314598
1304.533295,-11029.068536,0.000000,2298.286494
1304.533616,-9474.636058,444.123565,2145.067394
1304.533937,-9252.574275,0.000000,1685.410096
1304.534258,-9548.656652,-962.267725,2757.943793
1304.534579,-10140.821405,-1628.453072,766.095498
1304.534900,-9622.677246,-2220.617826,-689.485948
1304.535220,-8734.430116,0.000000,-383.047749
1304.535541,-9178.553681,1332.370696,383.047749
1304.535862,-9696.697840,740.205942,1455.581446
1304.536183,-9622.677246,-370.102971,1378.971896
1304.536504,-9548.656652,-1924.535449,766.095498
1304.536825,-10584.944971,-2368.659014,383.047749
1304.537146,-10214.842000,0.000000,612.876398
1304.537467,-9326.594869,2590.720797,1455.581446
1304.537787,-10362.883188,1628.453072,459.657299
1304.538108,-7698.141797,1850.514855,0.000000
1304.538429,-8142.265362,296.082377,-153.219100
1304.538750,-9622.677246,-1702.473667,-306.438199
1304.539071,-10807.006753,-1184.329507,1685.410096
1304.539392,-10510.924376,-1406.391290,1225.752797
1304.539713,-9548.656652,222.061783,842.705048
1304.540034,-10362.883188,1702.473667,1225.752797
1304.540354,-10066.800811,1554.432478,2374.896044
1304.540675,-9474.636058,0.000000,1532.190996
1304.540996,-9400.615463,-814.226536,153.219100
1304.541317,-8660.409521,-296.082377,0.000000
1304.541638,-8586.388927,-444.123565,-229.828649
1304.541959,-8068.244768,666.185348,1149.143247
1304.542280,-8808.450710,148.041188,1378.971896
1304.542600,-8808.450710,0.000000,1685.410096
1304.542921,-9104.533087,-1184.329507,1838.629195
1304.543242,-10140.821405,-814.226536,2451.505594
1304.543563,-11029.068536,-1110.308913,2451.505594
1304.543884,-10436.903782,-592.164754,2528.115143
1304.544205,-9326.594869,-296.082377,1608.800546
1304.544526,-9326.594869,-296.082377,459.657299
1304.544847,-9474.636058,-370.102971,2145.067394
1304.545167,-9474.636058,-1702.473667,2374.896044
1304.545488,-9622.677246,-2664.741391,2298.286494
1304.545809,-9548.656652,-2146.597232,1072.533697
1304.546130,-9400.615463,-1480.411884,1072.533697
1304.546451,-9474.636058,444.123565,1149.143247
1304.546772,-10732.986159,1036.288319,1991.848295
1304.547093,-9178.553681,370.102971,1838.629195
1304.547414,-8512.368333,-370.102971,1072.533697
1304.547734,-10066.800811,-1850.514855,1302.362347
1304.548055,-10214.842000,-2294.638420,153.219100
1304.548376,-9326.594869,-666.185348,0.000000
1304.548697,-9326.594869,1776.494261,-536.266849
1304.549018,-9474.636058,4071.132681,536.266849
1304.549339,-10140.821405,2442.679609,995.924147
1304.549660,-9326.594869,296.082377,2221.676944
1304.549980,-10140.821405,-1924.535449,536.266849
1304.550301,-10510.924376,-2516.700203,842.705048
1304.550622,-9844.739029,-2146.597232,1608.800546
1304.550943,-9400.615463,-1184.329507,2145.067394
1304.551264,-9252.574275,-888.247130,1608.800546
1304.551585,-8216.285956,-666.185348,919.314598
1304.551906,-7846.182985,-1110.308913,0.000000
1304.552227,-9770.718434,-1332.370696,0.000000
1304.552547,-10140.821405,-814.226536,459.657299
1304.552868,-9252.574275,-888.247130,153.219100
1304.553189,-9622.677246,0.000000,-306.438199
1304.553510,-9622.677246,1924.535449,76.609550
1304.553831,-9918.759623,1554.432478,1838.629195
1304.554152,-10288.862594,0.000000,1608.800546
1304.554473,-9918.759623,-1036.288319,306.438199
1304.554793,-10140.821405,-2072.576638,-306.438199
1304.555114,-9400.615463,-962.267725,-306.438199
1304.555435,-9696.697840,74.020594,1225.752797
1304.555756,-10140.821405,-296.082377,1991.848295
1304.556077,-8660.409521,-296.082377,842.705048
1304.556398,-9252.574275,-962.267725,612.876398
1304.556719,-10214.842000,-666.185348,612.876398
1304.557040,-10214.842000,-370.102971,919.314598
1304.557360,-10066.800811,0.000000,612.876398
1304.557681,-9104.533087,1480.411884,306.438199
1304.558002,-9400.615463,2294.638420,1685.410096
1304.558323,-9770.718434,1258.350101,1991.848295
1304.558644,-9474.636058,-444.123565,1455.581446
1304.558965,-9918.759623,-1332.370696,1455.581446
1304.559286,-10140.821405,-1110.308913,1685.410096
1304.559607,-10066.800811,-518.144159,1991.848295
1304.559927,-9474.636058,-370.102971,2374.896044
1304.560248,-9622.677246,296.082377,1455.581446
1304.560569,-9326.594869,888.247130,1991.848295
1304.560890,-9178.553681,-148.041188,1838.629195
1304.561211,-9622.677246,-740.205942,2145.067394
1304.561532,-9622.677246,-1998.556043,1532.190996
1304.561853,-8882.471304,-2516.700203,229.828649
1304.562173,-9104.533087,666.185348,0.000000
1304.562494,-9770.718434,1924.535449,1762.019645
1304.562815,-9770.718434,1998.556043,2987.772442
1304.563136,-9844.739029,74.020594,2604.724693
1304.563457,-9474.636058,-1998.556043,1532.190996
1304.563778,-9030.512492,-2442.679609,0.000000
1304.564099,-9030.512492,-1850.514855,-229.828649
1304.564420,-8586.388927,-888.247130,0.000000
1304.564740,-8216.285956,222.061783,-536.266849
1304.565061,-8808.450710,222.061783,612.876398
1304.565382,-9104.533087,-222.061783,1685.410096
1304.565703,-11029.068536,-592.164754,2911.162892
1304.566024,-13027.624579,-2368.659014,3677.258390
1304.566345,-11399.171507,-2812.782580,1991.848295
1304.566666,-9400.615463,-1258.350101,995.924147
1304.566987,-9992.780217,296.082377,459.657299
1304.567307,-8808.450710,2220.617826,306.438199
1304.567628,-8808.450710,1110.308913,536.266849
1304.567949,-9030.512492,74.020594,-612.876398
1304.568270,-9104.533087,-888.247130,-919.314598
1304.568591,-10066.800811,-2886.803174,0.000000
1304.568912,-9622.677246,-296.082377,1225.752797
1304.569233,-10955.047942,222.061783,1991.848295
1304.569553,-9992.780217,592.164754,2911.162892
1304.569874,-9696.697840,148.041188,1915.238745
1304.570195,-10362.883188,0.000000,1608.800546
1304.570516,-11029.068536,-2072.576638,1532.190996
1304.570837,-9178.553681,-296.082377,-306.438199
1304.571158,-9178.553681,814.226536,-229.828649
1304.571479,-9178.553681,1702.473667,-536.266849
1304.571800,-8956.491898,3182.885551,842.705048
1304.572120,-10288.862594,296.082377,1838.629195
1304.572441,-9770.718434,-518.144159,1455.581446
1304.572762,-10807.006753,-2294.638420,1762.019645
1304.573083,-10362.883188,-2072.576638,1991.848295
1304.573404,-9030.512492,-444.123565,3447.429741
1304.573725,-9252.574275,148.041188,2374.896044
1304.574046,-8512.368333,0.000000,2145.067394
1304.574367,-7624.121203,-592.164754,1225.752797
1304.574687,-9474.636058,-1406.391290,1225.752797
1304.575008,-9030.512492,-2072.576638,306.438199
1304.575329,-9474.636058,-1850.514855,0.000000
1304.575650,-8882.471304,222.061783,0.000000
1304.575971,-9770.718434,3182.885551,1838.629195
1304.576292,-11325.150913,740.205942,2834.553343
1304.576613,-5625.565159,1702.473667,2451.505594
1304.576933,-13027.624579,-1776.494261,459.657299
1304.577254,-9622.677246,-1776.494261,459.657299
1304.577575,-8586.388927,-2516.700203,383.047749
1304.577896,-10807.006753,222.061783,1608.800546
1304.578217,-9474.636058,74.020594,919.314598
1304.578538,-9474.636058,814.226536,612.876398
1304.578859,-8512.368333,-444.123565,1302.362347
1304.579179,-9474.636058,444.123565,1378.971896
1304.579500,-11103.089130,-1628.453072,1915.238745
1304.579821,-10214.842000,-1332.370696,2528.115143
1304.580142,-9548.656652,-1480.411884,76.609550
1304.580463,-9992.780217,592.164754,-306.438199
1304.580783,-9844.739029,1406.391290,0.000000
1304.581104,-8586.388927,2072.576638,76.609550
1304.581425,-9548.656652,814.226536,-919.314598
1304.581746,-9104.533087,222.061783,-612.876398
1304.582067,-10140.821405,-1184.329507,-612.876398
1304.582388,-9992.780217,-740.205942,1378.971896
1304.582708,-9474.636058,444.123565,2068.457845
1304.583029,-9918.759623,-1924.535449,2298.286494
1304.583350,-8586.388927,-1628.453072,1302.362347
1304.583671,-9104.533087,-1332.370696,1302.362347
1304.583992,-10066.800811,-2368.659014,153.219100
1304.584312,-8956.491898,222.061783,153.219100
1304.584633,-9326.594869,1258.350101,-306.438199
1304.584954,-8734.430116,2516.700203,1608.800546
1304.585275,-10214.842000,1480.411884,1991.848295
1304.585596,-9252.574275,-740.205942,1762.019645
1304.585916,-10436.903782,-1554.432478,1455.581446
1304.586237,-10955.047942,-1998.556043,1378.971896
1304.586558,-9178.553681,-222.061783,3217.601092
1304.586879,-9474.636058,0.000000,2757.943793
1304.587200,-9400.615463,0.000000,2374.896044
1304.587521,-9104.533087,-296.082377,1455.581446
1304.587841,-8216.285956,222.061783,689.485948
1304.588162,-9178.553681,-1850.514855,1302.362347
1304.588483,-9548.656652,-2368.659014,1378.971896
1304.588804,-9104.533087,-2294.638420,842.705048
1304.589125,-8808.450710,-222.061783,306.438199
1304.589445,-10955.047942,2072.576638,1455.581446
1304.589766,-10807.006753,1406.391290,2451.505594
1304.590087,-10288.862594,0.000000,2528.115143
1304.590408,-11029.068536,-1036.288319,1762.019645
1304.590729,-10066.800811,-1924.535449,1762.019645
1304.591049,-9918.759623,-2146.597232,1149.143247
1304.591370,-9178.553681,-1332.370696,842.705048
1304.591691,-8734.430116,-296.082377,229.828649
1304.592012,-7920.203579,592.164754,0.000000
1304.592333,-8512.368333,-666.185348,995.924147
1304.592654,-8882.471304,-666.185348,919.314598
1304.592974,-10066.800811,-962.267725,1302.362347
1304.593295,-10140.821405,-222.061783,1225.752797
1304.593616,-10214.842000,1184.329507,1072.533697
1304.593937,-10732.986159,2146.597232,1838.629195
1304.594258,-10140.821405,2146.597232,2145.067394
1304.594578,-9696.697840,-296.082377,1991.848295
1304.594899,-9770.718434,-1480.411884,1225.752797
1304.595220,-9918.759623,-1628.453072,229.828649
1304.595541,-9030.512492,-1036.288319,459.657299
1304.595862,-9178.553681,-740.205942,1532.190996
1304.596183,-9030.512492,-814.226536,612.876398
1304.596503,-8956.491898,-962.267725,1149.143247
1304.596824,-8216.285956,-962.267725,919.314598
1304.597145,-9474.636058,-1258.350101,1455.581446
1304.597466,-10362.883188,-2220.617826,1685.410096
1304.597787,-8956.491898,-2072.576638,0.000000
1304.598107,-8290.306550,0.000000,-766.095498
1304.598428,-9622.677246,2294.638420,229.828649
1304.598749,-9622.677246,2738.761985,689.485948
1304.599070,-9326.594869,1332.370696,1225.752797
1304.599391,-9770.718434,-370.102971,153.219100
1304.599711,-10066.800811,-962.267725,0.000000
1304.600032,-10436.903782,-2146.597232,689.485948
1304.600353,-9918.759623,-1258.350101,995.924147
1304.600674,-9992.780217,-592.164754,1455.581446
1304.600995,-10214.842000,-1110.308913,1302.362347
1304.601316,-8882.471304,-666.185348,1532.190996
1304.601636,-10436.903782,-1406.391290,995.924147
1304.601957,-9844.739029,-962.267725,153.219100
1304.602278,-9844.739029,0.000000,0.000000
1304.602599,-9474.636058,1332.370696,0.000000
1304.602920,-9770.718434,2516.700203,536.266849
1304.603240,-10066.800811,1480.411884,306.438199
1304.603561,-9104.533087,-222.061783,766.095498
1304.603882,-9844.739029,-1184.329507,383.047749
1304.604203,-9474.636058,-1776.494261,-306.438199
1304.604524,-8882.471304,-444.123565,0.000000
1304.604845,-10510.924376,1554.432478,1838.629195
1304.605165,-10214.842000,0.000000,2221.676944
1304.605486,-9178.553681,-740.205942,1915.238745
1304.605807,-9474.636058,-1332.370696,2145.067394
1304.606128,-8586.388927,-1924.535449,1762.019645
1304.606449,-10214.842000,-1184.329507,1991.848295
1304.606769,-9326.594869,-888.247130,1455.581446
1304.607090,-8142.265362,74.020594,-536.266849
1304.607411,-8290.306550,1702.473667,-383.047749
1304.607732,-8956.491898,2664.741391,995.924147
1304.608053,-9400.615463,1184.329507,1455.581446
1304.608373,-10436.903782,-962.267725,1762.019645
1304.608694,-8956.491898,-592.164754,2298.286494
1304.609015,-9918.759623,-1702.473667,1532.190996
1304.609336,-9474.636058,-1702.473667,2911.162892
1304.609657,-9178.553681,-1036.288319,2681.334243
1304.609978,-9474.636058,-1776.494261,1991.848295
1304.610298,-7994.224174,-1776.494261,536.266849
1304.610619,-9104.533087,-1036.288319,995.924147
1304.610940,-10140.821405,-1184.329507,1915.238745
1304.611261,-9474.636058,-1554.432478,766.095498
1304.611582,-8808.450710,-518.144159,-383.047749
1304.611902,-8956.491898,740.205942,383.047749
1304.612223,-10140.821405,0.000000,1455.581446
1304.612544,-9918.759623,-370.102971,2221.676944
1304.612865,-9326.594869,-592.164754,1532.190996
1304.613186,-9104.533087,-592.164754,-1455.581446
1304.613506,-8586.388927,740.205942,-1838.629195
1304.613827,-9400.615463,1924.535449,-383.047749
1304.614148,-9622.677246,1702.473667,842.705048
1304.614469,-10214.842000,148.041188,1378.971896
1304.614790,-10214.842000,-962.267725,2681.334243
1304.615111,-11843.295072,-3775.050304,3140.991542
1304.615431,-12213.398043,-3108.864956,3753.867940
1304.615752,-10881.027347,-2442.679609,3294.210641
1304.616073,-9252.574275,148.041188,919.314598
1304.616394,-9400.615463,3330.926739,76.609550
1304.616715,-8438.347739,2442.679609,-689.485948
1304.617035,-8290.306550,888.247130,-383.047749
1304.617356,-9474.636058,370.102971,-919.314598
1304.617677,-9474.636058,74.020594,229.828649
1304.617998,-10362.883188,-740.205942,1378.971896
1304.618319,-10140.821405,-1332.370696,2298.286494
1304.618640,-10955.047942,0.000000,2987.772442
1304.618960,-10807.006753,-518.144159,3753.867940
1304.619281,-8734.430116,-1110.308913,2834.553343
1304.619602,-9474.636058,-1406.391290,2068.457845
1304.619923,-8882.471304,-2664.741391,153.219100
1304.620244,-8142.265362,-2220.617826,-995.924147
1304.620564,-8364.327145,444.123565,-1149.143247
1304.620885,-9474.636058,1628.453072,0.000000
1304.621206,-9252.574275,1924.535449,1532.190996
1304.621527,-10510.924376,74.020594,2528.115143
1304.621848,-10288.862594,-1924.535449,1455.581446
1304.622168,-11547.212695,-2368.659014,995.924147
1304.622489,-9622.677246,-1036.288319,1149.143247
1304.622810,-9622.677246,888.247130,1838.629195
1304.623131,-9622.677246,1924.535449,1991.848295
1304.623452,-8882.471304,1184.329507,1149.143247
1304.623773,-8364.327145,-592.164754,536.266849
1304.624093,-9252.574275,-1702.473667,0.000000
1304.624414,-9400.615463,-2368.659014,0.000000
1304.624735,-9622.677246,-2294.638420,536.266849
1304.625056,-8808.450710,-444.123565,842.705048
1304.625377,-9474.636058,1184.329507,2374.896044
1304.625697,-10288.862594,296.082377,1608.800546
1304.626018,-9326.594869,-222.061783,995.924147
1304.626339,-11769.274478,-592.164754,689.485948
1304.626660,-10362.883188,0.000000,842.705048
1304.626981,-9696.697840,-74.020594,919.314598
1304.627301,-9474.636058,1110.308913,1532.190996
1304.627622,-9400.615463,0.000000,995.924147
1304.627943,-8956.491898,0.000000,1608.800546
1304.628264,-8216.285956,-1258.350101,1532.190996
1304.628585,-8364.327145,-1480.411884,0.000000
1304.628906,-10214.842000,-740.205942,1072.533697
1304.629226,-9474.636058,-296.082377,1378.971896
1304.629547,-9178.553681,814.226536,1149.143247
1304.629868,-10658.965565,1998.556043,2451.505594
1304.630189,-9474.636058,222.061783,2221.676944
1304.630510,-9992.780217,-1628.453072,2374.896044
1304.630830,-10066.800811,-1406.391290,1915.238745
1304.631151,-9622.677246,-1554.432478,842.705048
1304.631472,-10288.862594,-814.226536,1149.143247
1304.631793,-7846.182985,1184.329507,995.924147
1304.632114,-9696.697840,0.000000,536.266849
1304.632435,-9252.574275,296.082377,1991.848295
1304.632755,-9252.574275,-1480.411884,1225.752797
1304.633076,-9918.759623,-2368.659014,1532.190996
1304.633397,-10066.800811,-2738.761985,1225.752797
1304.633718,-8956.491898,-1702.473667,1072.533697
1304.634039,-9400.615463,-148.041188,689.485948
1304.634359,-10066.800811,1036.288319,842.705048
1304.634680,-9696.697840,1628.453072,1762.019645
1304.635001,-10140.821405,-592.164754,1838.629195
1304.635322,-9992.780217,-1776.494261,689.485948
1304.635643,-10584.944971,-1480.411884,229.828649
1304.635963,-9400.615463,-1036.288319,612.876398
1304.636284,-8956.491898,0.000000,919.314598
1304.636605,-9474.636058,666.185348,1455.581446
1304.636926,-9474.636058,814.226536,1302.362347
1304.637247,-9474.636058,-148.041188,1149.143247
1304.637568,-9992.780217,-814.226536,1838.629195
1304.637888,-9844.739029,-2072.576638,1378.971896
1304.638209,-9326.594869,-962.267725,689.485948
1304.638530,-9326.594869,1110.308913,229.828649
1304.638851,-10214.842000,2590.720797,612.876398
1304.639172,-9400.615463,2960.823768,1149.143247
1304.639492,-9474.636058,962.267725,1225.752797
1304.639813,-10214.842000,-518.144159,536.266849
1304.640134,-9474.636058,0.000000,76.609550
1304.640455,-9696.697840,-1628.453072,153.219100
1304.640776,-7402.059420,296.082377,689.485948
1304.641096,-10066.800811,1110.308913,1225.752797
1304.641417,-8364.327145,-74.020594,1072.533697
1304.641738,-8512.368333,-740.205942,1915.238745
1304.642059,-9696.697840,-1406.391290,766.095498
1304.642380,-9992.780217,-2072.576638,2068.457845
1304.642701,-10066.800811,-1850.514855,1991.848295
1304.643021,-8956.491898,148.041188,1455.581446
1304.643342,-9696.697840,1036.288319,1762.019645
1304.643663,-9622.677246,222.061783,1838.629195
1304.643984,-8364.327145,-1332.370696,689.485948
1304.644305,-9474.636058,-1554.432478,689.485948
1304.644625,-9622.677246,-1924.535449,919.314598
1304.644946,-9252.574275,-1110.308913,1225.752797
1304.645267,-9844.739029,-370.102971,1915.238745
1304.645588,-9474.636058,370.102971,842.705048
1304.645909,-9548.656652,1332.370696,1225.752797
1304.646230,-9844.739029,370.102971,1532.190996
1304.646550,-10436.903782,0.000000,1225.752797
1304.646871,-10732.986159,-666.185348,1149.143247
1304.647192,-9918.759623,-1776.494261,-383.047749
1304.647513,-9474.636058,-222.061783,0.000000
1304.647834,-9474.636058,1110.308913,-229.828649
1304.648154,-9474.636058,1184.329507,1149.143247
1304.648475,-9474.636058,592.164754,1072.533697
1304.648796,-10066.800811,-296.082377,919.314598
1304.649117,-10436.903782,-1406.391290,229.828649
1304.649438,-10066.800811,-592.164754,536.266849
1304.649758,-9252.574275,148.041188,766.095498
1304.650079,-9918.759623,740.205942,842.705048
1304.650400,-8734.430116,518.144159,3140.991542
1304.650721,-8734.430116,-74.020594,766.095498
1304.651042,-9474.636058,-1850.514855,1072.533697
1304.651363,-10510.924376,-2738.761985,459.657299
1304.651683,-9400.615463,-2590.720797,0.000000
1304.652004,-10140.821405,-814.226536,229.828649
1304.652325,-10214.842000,1036.288319,1838.629195
1304.652646,-10214.842000,962.267725,3140.991542
1304.652967,-9696.697840,-370.102971,2145.067394
1304.653287,-9622.677246,-1184.329507,766.095498
1304.653608,-9622.677246,-2146.597232,612.876398
1304.653929,-8290.306550,-2368.659014,0.000000
1304.654250,-7105.977043,-370.102971,1302.362347
1304.654571,-10955.047942,592.164754,1685.410096
1304.654891,-8290.306550,0.000000,2145.067394
1304.655212,-8956.491898,-2368.659014,919.314598
1304.655533,-9844.739029,-1554.432478,1608.800546
1304.655854,-9548.656652,-1628.453072,842.705048
1304.656175,-10214.842000,-592.164754,1608.800546
1304.656496,-9326.594869,814.226536,1072.533697
1304.656816,-9474.636058,1406.391290,0.000000
1304.657137,-9178.553681,1776.494261,919.314598
1304.657458,-8808.450710,-296.082377,1149.143247
1304.657779,-9844.739029,-1036.288319,689.485948
1304.658100,-10955.047942,-1554.432478,1532.190996
1304.658420,-9400.615463,-740.205942,919.314598
1304.658741,-9696.697840,1628.453072,919.314598
1304.659062,-11029.068536,370.102971,2221.676944
1304.659383,-9474.636058,0.000000,2681.334243
1304.659704,-9548.656652,-1258.350101,1608.800546
1304.660025,-10288.862594,-1924.535449,842.705048
1304.660345,-9622.677246,-1406.391290,153.219100
1304.660666,-9844.739029,0.000000,0.000000
1304.660987,-9770.718434,2220.617826,766.095498
1304.661308,-10214.842000,2960.823768,536.266849
1304.661629,-9252.574275,1998.556043,1455.581446
1304.661949,-9844.739029,-592.164754,1532.190996
1304.662270,-10658.965565,-1036.288319,1685.410096
1304.662591,-11695.253884,-1628.453072,2604.724693
1304.662912,-10140.821405,-1702.473667,1378.971896
1304.663233,-8808.450710,-370.102971,1532.190996
1304.663553,-9622.677246,222.061783,1072.533697
1304.663874,-8364.327145,1258.350101,1762.019645
1304.664195,-8512.368333,370.102971,1149.143247
1304.664516,-9696.697840,-740.205942,1378.971896
1304.664837,-9474.636058,-2072.576638,229.828649
1304.665158,-8956.491898,-1036.288319,229.828649
1304.665478,-9844.739029,-222.061783,919.314598
1304.665799,-9696.697840,1258.350101,1762.019645
1304.666120,-9474.636058,518.144159,1608.800546
1304.666441,-9104.533087,0.000000,1225.752797
1304.666762,-9178.553681,-592.164754,536.266849
1304.667082,-9770.718434,-814.226536,0.000000
1304.667403,-9178.553681,-2072.576638,612.876398
1304.667724,-8216.285956,-1036.288319,0.000000
1304.668045,-8956.491898,-888.247130,306.438199
1304.668366,-8956.491898,-1184.329507,995.924147
1304.668687,-9252.574275,-1628.453072,1302.362347
1304.669007,-9770.718434,-1924.535449,306.438199
1304.669328,-10214.842000,-1850.514855,-153.219100
1304.669649,-9622.677246,-888.247130,-612.876398
1304.669970,-9474.636058,666.185348,-306.438199
1304.670291,-9622.677246,2220.617826,0.000000
1304.670611,-9548.656652,3108.864956,766.095498
1304.670932,-10658.965565,1258.350101,1532.190996
1304.671253,-10362.883188,-222.061783,229.828649
1304.671574,-10955.047942,-1110.308913,76.609550
1304.671895,-9474.636058,370.102971,306.438199
1304.672215,-9326.594869,148.041188,0.000000
1304.672536,-8586.388927,1036.288319,-689.485948
1304.672857,-8438.347739,1702.473667,-766.095498
1304.673178,-8808.450710,370.102971,0.000000
1304.673499,-10362.883188,0.000000,1455.581446
1304.673820,-11251.130318,-1406.391290,2451.505594
1304.674140,-10807.006753,-2442.679609,2374.896044
1304.674461,-10807.006753,-222.061783,2451.505594
1304.674782,-10881.027347,1184.329507,2987.772442
1304.675103,-10140.821405,1258.350101,3447.429741
1304.675424,-8882.471304,0.000000,2681.334243
1304.675744,-8512.368333,-370.102971,919.314598
1304.676065,-9252.574275,-1998.556043,459.657299
1304.676386,-7698.141797,-1628.453072,1302.362347
1304.676707,-9326.594869,-1628.453072,1608.800546
1304.677028,-9252.574275,-740.205942,2604.724693
1304.677348,-8956.491898,-2294.638420,2528.115143
1304.677669,-9474.636058,-2738.761985,2604.724693
1304.677990,-9474.636058,-1998.556043,2451.505594
1304.678311,-10658.965565,-1702.473667,1838.629195
1304.678632,-9252.574275,0.000000,2221.676944
1304.678953,-8808.450710,1110.308913,1072.533697
1304.679274,-9696.697840,2146.597232,1991.848295
1304.679595,-10732.986159,1258.350101,2221.676944
1304.679916,-9770.718434,-2072.576638,1762.019645
1304.680237,-10214.842000,-3034.844362,1532.190996
1304.680557,-9918.759623,-3108.864956,0.000000
1304.680878,-8734.430116,-592.164754,689.485948
1304.681199,-9178.553681,1036.288319,1455.581446
1304.681520,-9326.594869,1406.391290,1532.190996
1304.681841,-8956.491898,74.020594,766.095498
1304.682162,-8734.430116,-1036.288319,536.266849
1304.682483,-9474.636058,-2960.823768,229.828649
1304.682804,-10955.047942,-2664.741391,1149.143247
1304.683124,-10510.924376,-1406.391290,536.266849
1304.683445,-9178.553681,1036.288319,-459.657299
1304.683766,-10140.821405,3552.988522,0.000000
1304.684087,-9992.780217,2664.741391,995.924147
1304.684408,-9918.759623,1554.432478,536.266849
1304.684729,-10732.986159,-296.082377,-153.219100
1304.685050,-9918.759623,-1554.432478,-766.095498
1304.685370,-9770.718434,-888.247130,-153.219100
1304.685691,-9622.677246,-740.205942,459.657299
1304.686012,-9400.615463,444.123565,612.876398
1304.686333,-9104.533087,222.061783,995.924147
1304.686654,-9104.533087,-148.041188,1072.533697
1304.686975,-9918.759623,0.000000,1149.143247
1304.687296,-11177.109724,-666.185348,1378.971896
1304.687617,-10214.842000,-740.205942,612.876398
1304.687937,-8438.347739,1554.432478,-1838.629195
1304.688258,-9918.759623,1776.494261,229.828649
1304.688579,-9548.656652,1628.453072,1072.533697
1304.688900,-9622.677246,74.020594,1532.190996
1304.689221,-10658.965565,-1258.350101,1149.143247
1304.689542,-9770.718434,-2368.659014,-383.047749
1304.689863,-9030.512492,-1036.288319,153.219100
1304.690184,-9770.718434,-222.061783,1608.800546
1304.690504,-8364.327145,666.185348,459.657299
1304.690825,-9030.512492,518.144159,919.314598
1304.691146,-8364.327145,-666.185348,459.657299
1304.691467,-9030.512492,-2072.576638,229.828649
1304.691788,-10955.047942,-1628.453072,2068.457845
1304.692109,-10807.006753,-1554.432478,4443.353888
1304.692430,-9400.615463,1258.350101,1532.190996
1304.692751,-10510.924376,2220.617826,1991.848295
1304.693071,-9104.533087,1628.453072,1991.848295
1304.693392,-9474.636058,0.000000,1225.752797
1304.693713,-9548.656652,-1110.308913,1608.800546
1304.694034,-9696.697840,-962.267725,459.657299
1304.694355,-9104.533087,-296.082377,1532.190996
1304.694676,-10362.883188,-666.185348,2298.286494
1304.694997,-9474.636058,1628.453072,2298.286494
1304.695318,-10436.903782,-370.102971,2451.505594
1304.695638,-8364.327145,-296.082377,2298.286494
1304.695959,-10436.903782,-1702.473667,1838.629195
1304.696280,-9474.636058,-1332.370696,0.000000
1304.696601,-9844.739029,-666.185348,1072.533697
1304.696922,-8660.409521,1110.308913,383.047749
1304.697243,-9326.594869,2368.659014,-229.828649
1304.697564,-9474.636058,2368.659014,919.314598
1304.697884,-9104.533087,148.041188,1302.362347
1304.698205,-9696.697840,-888.247130,995.924147
1304.698526,-10658.965565,-2146.597232,1302.362347
1304.698847,-9474.636058,-2294.638420,1378.971896
1304.699168,-9030.512492,-1258.350101,1915.238745
1304.699489,-10362.883188,-1036.288319,1991.848295
1304.699810,-7328.038826,518.144159,1762.019645
1304.700131,-9474.636058,-1110.308913,1225.752797
1304.700451,-9030.512492,-444.123565,2528.115143
1304.700772,-9696.697840,-1776.494261,383.047749
1304.701093,-10066.800811,-2664.741391,0.000000
1304.701414,-8438.347739,-592.164754,-383.047749
1304.701735,-10881.027347,518.144159,0.000000
1304.702056,-9622.677246,1406.391290,1455.581446
1304.702377,-10140.821405,0.000000,1149.143247
1304.702698,-10732.986159,-814.226536,1455.581446
1304.703018,-10436.903782,-2072.576638,1072.533697
1304.703339,-10214.842000,-1406.391290,459.657299
1304.703660,-9030.512492,-888.247130,1915.238745
1304.703981,-10140.821405,-1406.391290,1225.752797
1304.704302,-7920.203579,-1554.432478,1072.533697
1304.704623,-9252.574275,-2072.576638,1532.190996
1304.704944,-9474.636058,-592.164754,1302.362347
1304.705265,-9178.553681,-1036.288319,306.438199
1304.705585,-10807.006753,0.000000,1149.143247
1304.705906,-8660.409521,1332.370696,0.000000
1304.706227,-9400.615463,2220.617826,76.609550
1304.706548,-10066.800811,2442.679609,1455.581446
