#time,accel_x,accel_y,accel_z
1309.021629,-9696.697840,-370.102971,1225.752797
1309.021951,-9400.615463,-444.123565,1149.143247
1309.022272,-9474.636058,-296.082377,1149.143247
1309.022593,-9696.697840,-296.082377,1149.143247
1309.022914,-9622.677246,-370.102971,919.314598
1309.023236,-9474.636058,-222.061783,995.924147
1309.023557,-9622.677246,-444.123565,1455.581446
1309.023878,-9696.697840,-296.082377,919.314598
1309.024200,-9474.636058,-148.041188,1991.848295
1309.024521,-9622.677246,-518.144159,1072.533697
1309.024842,-9474.636058,-444.123565,995.924147
1309.025164,-9992.780217,-814.226536,1991.848295
1309.025485,-9474.636058,-444.123565,1378.971896
1309.025806,-9918.759623,-592.164754,1455.581446
1309.026128,-9474.636058,-962.267725,1378.971896
1309.026449,-9326.594869,-1110.308913,2374.896044
1309.026770,-9474.636058,-814.226536,1072.533697
1309.027092,-9548.656652,-592.164754,766.095498
1309.027413,-9622.677246,-666.185348,1149.143247
1309.027734,-9474.636058,-518.144159,1072.533697
1309.028056,-9104.533087,-962.267725,766.095498
1309.028377,-9622.677246,-444.123565,536.266849
1309.028698,-9770.718434,-962.267725,689.485948
1309.029020,-9474.636058,-592.164754,1072.533697
1309.029341,-8882.471304,-222.061783,2145.067394
1309.029662,-9548.656652,-1184.329507,1608.800546
1309.029984,-9770.718434,-1258.350101,1685.410096
1309.030305,-9696.697840,-1554.432478,2145.067394
1309.030626,-9770.718434,-1554.432478,2221.676944
1309.030947,-9178.553681,-1628.453072,2145.067394
1309.031269,-9474.636058,-1554.432478,1991.848295
1309.031590,-9326.594869,-1702.473667,2068.457845
1309.031911,-9548.656652,-1480.411884,2068.457845
1309.032233,-9770.718434,-962.267725,3064.381992
1309.032554,-9474.636058,-1332.370696,2528.115143
1309.032875,-9548.656652,-1406.391290,2528.115143
1309.033197,-9474.636058,-1628.453072,2911.162892
1309.033518,-9696.697840,-1850.514855,3217.601092
1309.033839,-9696.697840,-2294.638420,3524.039291
1309.034161,-9696.697840,-2516.700203,4213.525239
1309.034482,-9474.636058,-3182.885551,4596.572988
1309.034803,-9474.636058,-3701.029710,4596.572988
1309.035125,-9178.553681,-3701.029710,5056.230287
1309.035446,-9400.615463,-4145.153275,5592.497135
1309.035767,-9104.533087,-4293.194464,5669.106685
1309.036089,-9104.533087,-4367.215058,5669.106685
1309.036410,-8438.347739,-4515.256246,5592.497135
1309.036731,-9178.553681,-4811.338623,5975.544884
1309.037053,-8956.491898,-4737.318029,6281.983084
1309.037374,-9474.636058,-4885.359217,6205.373534
1309.037695,-8808.450710,-4441.235652,5056.230287
1309.038017,-9178.553681,-4885.359217,5515.887586
1309.038338,-9178.553681,-4737.318029,5286.058936
1309.038659,-9474.636058,-4219.173869,4979.620737
1309.038981,-9474.636058,-3849.070898,4519.963438
1309.039302,-9474.636058,-3330.926739,3983.696590
1309.039623,-9400.615463,-3108.864956,4136.915689
1309.039944,-9622.677246,-2738.761985,4290.134789
1309.040266,-9696.697840,-2960.823768,4213.525239
1309.040587,-9622.677246,-3034.844362,4443.353888
1309.040908,-9622.677246,-3849.070898,3983.696590
1309.041230,-9696.697840,-4219.173869,3830.477490
1309.041551,-9770.718434,-4959.379811,3294.210641
1309.041872,-9474.636058,-4737.318029,1685.410096
1309.042194,-9326.594869,-3997.112087,1455.581446
1309.042515,-9474.636058,-2368.659014,995.924147
1309.042836,-9548.656652,-1406.391290,459.657299
1309.043158,-9918.759623,-148.041188,229.828649
1309.043479,-10066.800811,0.000000,459.657299
1309.043800,-10288.862594,74.020594,459.657299
1309.044122,-10584.944971,-666.185348,1225.752797
1309.044443,-10510.924376,-1332.370696,1685.410096
1309.044764,-10362.883188,-2368.659014,2604.724693
1309.045086,-9918.759623,-3182.885551,2374.896044
1309.045407,-9326.594869,-3849.070898,2298.286494
1309.045728,-9104.533087,-4441.235652,2451.505594
1309.046050,-8586.388927,-4811.338623,3064.381992
1309.046371,-8956.491898,-4441.235652,2528.115143
1309.046692,-8512.368333,-4515.256246,2374.896044
1309.047014,-8734.430116,-3849.070898,2068.457845
1309.047335,-8956.491898,-3552.988522,1685.410096
1309.047656,-8438.347739,-2294.638420,536.266849
1309.047977,-9030.512492,-148.041188,766.095498
1309.048299,-9474.636058,1332.370696,919.314598
1309.048620,-9844.739029,2442.679609,1225.752797
1309.048941,-11177.109724,3108.864956,2681.334243
1309.049263,-10732.986159,1702.473667,2987.772442
1309.049584,-10584.944971,0.000000,3907.087040
1309.049905,-10436.903782,-2146.597232,4826.401637
1309.050227,-9770.718434,-3552.988522,6435.202183
1309.050548,-9326.594869,-3997.112087,6281.983084
1309.050869,-9030.512492,-4293.194464,7124.688131
1309.051191,-8364.327145,-5033.400406,7277.907231
1309.051512,-8216.285956,-6143.709319,6052.154434
1309.051833,-8068.244768,-5625.565159,4673.182538
1309.052155,-8216.285956,-4367.215058,2451.505594
1309.052476,-7920.203579,0.000000,2604.724693
1309.052797,-10066.800811,1406.391290,3217.601092
1309.053119,-9474.636058,4219.173869,4519.963438
1309.053440,-10955.047942,3034.844362,3370.820191
1309.053761,-11547.212695,1776.494261,3830.477490
1309.054083,-10584.944971,-296.082377,3600.648841
1309.054404,-11547.212695,-1924.535449,4673.182538
1309.054725,-11177.109724,-2812.782580,5439.278036
1309.055047,-9548.656652,-4663.297435,4903.011187
1309.055368,-9548.656652,-6291.750507,5286.058936
1309.055689,-7846.182985,-7624.121203,3907.087040
1309.056011,-8364.327145,-6735.874072,2681.334243
1309.056332,-9326.594869,-4589.276840,3524.039291
1309.056653,-8808.450710,-3034.844362,3294.210641
1309.056974,-8734.430116,-2516.700203,2528.115143
1309.057296,-9030.512492,-1998.556043,1762.019645
1309.057617,-9474.636058,-1110.308913,1838.629195
1309.057938,-10881.027347,-888.247130,2834.553343
1309.058260,-11029.068536,-1184.329507,3370.820191
1309.058581,-10140.821405,-2738.761985,2681.334243
1309.058902,-9918.759623,-3775.050304,459.657299
1309.059224,-9252.574275,-3108.864956,0.000000
1309.059545,-9252.574275,-1702.473667,689.485948
1309.059866,-9326.594869,-1628.453072,1455.581446
1309.060188,-9178.553681,-2812.782580,2068.457845
1309.060509,-8216.285956,-4219.173869,1149.143247
1309.060830,-9178.553681,-4293.194464,1455.581446
1309.061152,-9918.759623,-4071.132681,3907.087040
1309.061473,-9696.697840,-4737.318029,3907.087040
1309.061794,-9178.553681,-5255.462188,4213.525239
1309.062116,-9178.553681,-5329.482782,2221.676944
1309.062437,-8586.388927,-3330.926739,2221.676944
1309.062758,-10140.821405,-2072.576638,4749.792088
1309.063080,-9696.697840,-1258.350101,3983.696590
1309.063401,-9030.512492,-1776.494261,1915.238745
1309.063722,-10066.800811,-666.185348,2834.553343
1309.064044,-9696.697840,-1480.411884,2911.162892
1309.064365,-10732.986159,-3849.070898,3753.867940
1309.064686,-9030.512492,-5033.400406,3140.991542
1309.065007,-9030.512492,-3330.926739,1838.629195
1309.065329,-10214.842000,-1628.453072,3524.039291
1309.065650,-10436.903782,-740.205942,4366.744339
1309.065971,-9622.677246,-2368.659014,5745.716235
1309.066293,-9918.759623,-3330.926739,4366.744339
1309.066614,-9918.759623,-4515.256246,4060.306139
1309.066935,-9992.780217,-6439.791695,4443.353888
1309.067257,-9622.677246,-4145.153275,3677.258390
1309.067578,-10436.903782,-2368.659014,3753.867940
1309.067899,-9548.656652,0.000000,2911.162892
1309.068221,-9770.718434,1184.329507,2681.334243
1309.068542,-9622.677246,1850.514855,2451.505594
1309.068863,-10140.821405,1702.473667,2068.457845
1309.069185,-10584.944971,0.000000,1762.019645
1309.069506,-9252.574275,-1110.308913,1532.190996
1309.069827,-8882.471304,-1554.432478,459.657299
1309.070149,-9252.574275,-1406.391290,1608.800546
1309.070470,-9992.780217,-1036.288319,3753.867940
1309.070791,-8882.471304,-296.082377,4290.134789
1309.071113,-10066.800811,-2220.617826,2451.505594
1309.071434,-8956.491898,-1480.411884,2834.553343
1309.071755,-10066.800811,-2220.617826,3064.381992
1309.072077,-8364.327145,-2146.597232,2528.115143
1309.072398,-9104.533087,-1258.350101,2451.505594
1309.072719,-8586.388927,-1480.411884,1838.629195
1309.073041,-8364.327145,-296.082377,1149.143247
1309.073362,-9474.636058,-370.102971,1685.410096
1309.073683,-9992.780217,-222.061783,1455.581446
1309.074004,-9770.718434,-1110.308913,306.438199
1309.074325,-9178.553681,-222.061783,-842.705048
1309.074646,-9104.533087,1480.411884,-1378.971896
1309.074967,-10140.821405,2072.576638,919.314598
1309.075289,-10066.800811,888.247130,766.095498
1309.075610,-8512.368333,-592.164754,153.219100
1309.075931,-9844.739029,-1628.453072,0.000000
1309.076252,-8734.430116,-1480.411884,-229.828649
1309.076573,-8512.368333,-888.247130,229.828649
1309.076894,-9474.636058,-222.061783,1532.190996
1309.077215,-8808.450710,962.267725,1149.143247
1309.077536,-8734.430116,370.102971,536.266849
1309.077858,-9770.718434,74.020594,383.047749
1309.078179,-10955.047942,-740.205942,459.657299
1309.078500,-9844.739029,-740.205942,-306.438199
1309.078821,-10066.800811,1924.535449,76.609550
1309.079142,-10881.027347,2516.700203,306.438199
1309.079463,-10066.800811,2368.659014,383.047749
1309.079784,-9992.780217,1776.494261,1378.971896
1309.080105,-10955.047942,1110.308913,1685.410096
1309.080426,-11843.295072,-666.185348,1378.971896
1309.080748,-9844.739029,-592.164754,2374.896044
1309.081069,-8586.388927,-1554.432478,2298.286494
1309.081390,-9252.574275,-1332.370696,842.705048
1309.081711,-9844.739029,-1332.370696,2068.457845
1309.082032,-7994.224174,-1628.453072,2374.896044
1309.082353,-9622.677246,-2590.720797,2374.896044
1309.082674,-9696.697840,-2664.741391,2221.676944
1309.082995,-9474.636058,-3552.988522,1378.971896
1309.083317,-9474.636058,-1554.432478,995.924147
1309.083638,-9918.759623,592.164754,1915.238745
1309.083959,-9770.718434,370.102971,2681.334243
1309.084280,-8808.450710,-888.247130,2451.505594
1309.084601,-9992.780217,-2738.761985,1455.581446
1309.084922,-10066.800811,-2738.761985,842.705048
1309.085243,-8438.347739,-1702.473667,229.828649
1309.085564,-9252.574275,-1110.308913,1685.410096
1309.085886,-9178.553681,-962.267725,1991.848295
1309.086207,-7624.121203,-1332.370696,153.219100
1309.086528,-9104.533087,-1184.329507,919.314598
1309.086849,-9400.615463,-1850.514855,536.266849
1309.087170,-9548.656652,-2146.597232,306.438199
1309.087491,-9474.636058,0.000000,1378.971896
1309.087812,-9548.656652,2220.617826,1149.143247
1309.088133,-10288.862594,1998.556043,3524.039291
1309.088454,-9178.553681,1184.329507,1838.629195
1309.088776,-9474.636058,-666.185348,612.876398
1309.089097,-10584.944971,-1036.288319,612.876398
1309.089418,-10214.842000,-1110.308913,689.485948
1309.089739,-9548.656652,0.000000,766.095498
1309.090060,-10881.027347,592.164754,1685.410096
1309.090381,-10140.821405,148.041188,1455.581446
1309.090702,-8808.450710,-444.123565,919.314598
1309.091023,-10140.821405,-1702.473667,689.485948
1309.091345,-10362.883188,-2220.617826,612.876398
1309.091666,-8956.491898,-2220.617826,-612.876398
1309.091987,-9326.594869,-814.226536,-306.438199
1309.092308,-10066.800811,1406.391290,459.657299
1309.092629,-10584.944971,1998.556043,459.657299
1309.092950,-9474.636058,2146.597232,1378.971896
1309.093271,-10436.903782,0.000000,919.314598
1309.093592,-10362.883188,-1036.288319,76.609550
1309.093914,-9992.780217,-296.082377,1072.533697
1309.094235,-9918.759623,-74.020594,1608.800546
1309.094556,-9622.677246,444.123565,1072.533697
1309.094877,-9474.636058,-222.061783,766.095498
1309.095198,-8364.327145,888.247130,919.314598
1309.095519,-10362.883188,0.000000,1225.752797
1309.095840,-9622.677246,222.061783,919.314598
1309.096161,-8290.306550,-222.061783,0.000000
1309.096483,-9030.512492,518.144159,0.000000
1309.096804,-10214.842000,1702.473667,1378.971896
1309.097125,-9252.574275,2294.638420,2221.676944
1309.097446,-9622.677246,222.061783,2298.286494
1309.097767,-9992.780217,-1110.308913,995.924147
1309.098088,-8808.450710,-518.144159,0.000000
1309.098409,-8956.491898,1480.411884,689.485948
1309.098730,-10510.924376,1258.350101,2451.505594
1309.099051,-9400.615463,1110.308913,2145.067394
1309.099373,-8734.430116,0.000000,1149.143247
1309.099694,-9400.615463,-1110.308913,459.657299
1309.100015,-10881.027347,-1184.329507,459.657299
1309.100336,-10066.800811,-962.267725,1072.533697
1309.100657,-8734.430116,666.185348,-229.828649
1309.100978,-10140.821405,2072.576638,459.657299
1309.101299,-9474.636058,1406.391290,2451.505594
1309.101620,-9622.677246,888.247130,2298.286494
1309.101942,-10362.883188,-1184.329507,1915.238745
1309.102263,-10436.903782,-2664.741391,1072.533697
1309.102584,-8364.327145,-2368.659014,1532.190996
1309.102905,-8808.450710,-2294.638420,-229.828649
1309.103226,-9030.512492,444.123565,0.000000
1309.103547,-9104.533087,0.000000,459.657299
1309.103868,-8290.306550,0.000000,0.000000
1309.104189,-10362.883188,-888.247130,2221.676944
1309.104511,-11473.192101,-2812.782580,1225.752797
1309.104832,-9918.759623,-962.267725,2145.067394
1309.105153,-11547.212695,-814.226536,1762.019645
1309.105474,-10584.944971,814.226536,1838.629195
1309.105795,-9252.574275,1036.288319,536.266849
1309.106116,-8956.491898,1036.288319,1149.143247
1309.106437,-10066.800811,0.000000,766.095498
1309.106758,-9474.636058,-2294.638420,2374.896044
1309.107079,-7994.224174,-2294.638420,536.266849
1309.107401,-10066.800811,-1332.370696,1532.190996
1309.107722,-9918.759623,-1924.535449,2374.896044
1309.108043,-8586.388927,-1776.494261,2911.162892
1309.108364,-8956.491898,-2664.741391,1378.971896
1309.108685,-10214.842000,-2738.761985,766.095498
1309.109006,-9400.615463,-1702.473667,842.705048
1309.109327,-9474.636058,518.144159,1302.362347
1309.109648,-10584.944971,3108.864956,1762.019645
1309.109970,-11103.089130,2072.576638,2834.553343
1309.110291,-9252.574275,222.061783,2298.286494
1309.110612,-10066.800811,-1480.411884,1378.971896
1309.110933,-10881.027347,-2294.638420,1991.848295
1309.111254,-8734.430116,-1184.329507,459.657299
1309.111575,-9326.594869,-296.082377,842.705048
1309.111896,-8290.306550,740.205942,459.657299
1309.112217,-8956.491898,-518.144159,1455.581446
1309.112539,-8882.471304,-1480.411884,1378.971896
1309.112860,-9474.636058,-2294.638420,1149.143247
1309.113181,-10288.862594,-2886.803174,842.705048
1309.113502,-8808.450710,-1702.473667,612.876398
1309.113823,-9104.533087,444.123565,612.876398
1309.114144,-10510.924376,2442.679609,1149.143247
1309.114465,-9326.594869,2072.576638,1532.190996
1309.114786,-9696.697840,518.144159,1685.410096
1309.115107,-10510.924376,-2146.597232,-919.314598
1309.115429,-9918.759623,-2072.576638,-306.438199
1309.115750,-8438.347739,-1036.288319,-229.828649
1309.116071,-9548.656652,-296.082377,842.705048
1309.116392,-9918.759623,0.000000,1455.581446
1309.116713,-8586.388927,370.102971,1072.533697
1309.117034,-9548.656652,-296.082377,1149.143247
1309.117355,-10658.965565,-1258.350101,1072.533697
1309.117676,-10584.944971,-1110.308913,1149.143247
1309.117998,-9844.739029,0.000000,0.000000
1309.118319,-10658.965565,2442.679609,919.314598
1309.118640,-9770.718434,3404.947333,766.095498
1309.118961,-8734.430116,1776.494261,612.876398
1309.119282,-9326.594869,148.041188,2068.457845
1309.119603,-9474.636058,-1480.411884,-1072.533697
1309.119924,-8808.450710,-814.226536,-1225.752797
1309.120245,-8956.491898,1258.350101,76.609550
1309.120567,-9918.759623,1110.308913,689.485948
1309.120888,-9548.656652,1702.473667,1455.581446
1309.121209,-9844.739029,518.144159,2451.505594
1309.121530,-10510.924376,-1258.350101,1685.410096
1309.121851,-10881.027347,-1702.473667,1762.019645
1309.122172,-10214.842000,-1480.411884,842.705048
1309.122493,-8956.491898,1850.514855,1149.143247
1309.122814,-10214.842000,2368.659014,1608.800546
1309.123136,-8586.388927,2220.617826,1915.238745
1309.123457,-8512.368333,222.061783,2298.286494
1309.123778,-9696.697840,-1924.535449,689.485948
1309.124099,-10066.800811,-2368.659014,1378.971896
1309.124420,-9696.697840,-1924.535449,2068.457845
1309.124741,-9474.636058,-740.205942,2528.115143
1309.125062,-9622.677246,-888.247130,2298.286494
1309.125383,-8956.491898,-740.205942,2298.286494
1309.125704,-9178.553681,-1850.514855,1838.629195
1309.126026,-10362.883188,-2590.720797,1608.800546
1309.126347,-10140.821405,-2368.659014,842.705048
1309.126668,-8364.327145,-888.247130,-612.876398
1309.126989,-9622.677246,1110.308913,459.657299
1309.127310,-10066.800811,2072.576638,1532.190996
1309.127631,-9548.656652,888.247130,2987.772442
1309.127952,-9622.677246,-1258.350101,1455.581446
1309.128273,-10288.862594,-2738.761985,306.438199
1309.128595,-10214.842000,-2368.659014,306.438199
1309.128916,-9326.594869,-1702.473667,1915.238745
1309.129237,-9326.594869,-740.205942,1608.800546
1309.129558,-9622.677246,-814.226536,1608.800546
1309.129879,-7994.224174,-962.267725,76.609550
1309.130200,-9474.636058,-1480.411884,689.485948
1309.130521,-9622.677246,-814.226536,1072.533697
1309.130842,-9770.718434,-222.061783,383.047749
1309.131164,-9770.718434,1036.288319,1225.752797
1309.131485,-10510.924376,2220.617826,1455.581446
1309.131806,-10584.944971,2220.617826,1915.238745
1309.132127,-10584.944971,592.164754,3217.601092
1309.132448,-10807.006753,-1924.535449,1455.581446
1309.132769,-10584.944971,-2442.679609,76.609550
1309.133090,-7846.182985,-1110.308913,-612.876398
1309.133411,-8956.491898,-1036.288319,536.266849
1309.133732,-8882.471304,-296.082377,1302.362347
1309.134054,-9178.553681,-1480.411884,383.047749
1309.134375,-8956.491898,-1406.391290,1072.533697
1309.134696,-9696.697840,-1776.494261,536.266849
1309.135017,-10955.047942,-1850.514855,1762.019645
1309.135338,-10214.842000,-370.102971,2298.286494
1309.135659,-8956.491898,444.123565,842.705048
1309.135980,-10288.862594,1850.514855,842.705048
1309.136301,-8808.450710,1332.370696,842.705048
1309.136623,-9252.574275,296.082377,459.657299
1309.136944,-10066.800811,-296.082377,76.609550
1309.137265,-8956.491898,-962.267725,0.000000
1309.137586,-8660.409521,0.000000,76.609550
1309.137907,-9474.636058,222.061783,1072.533697
1309.138228,-9326.594869,370.102971,2451.505594
1309.138549,-9770.718434,-962.267725,2451.505594
1309.138870,-9326.594869,-1776.494261,2834.553343
1309.139192,-9992.780217,-2220.617826,1378.971896
1309.139513,-9326.594869,-1184.329507,536.266849
1309.139834,-8882.471304,1406.391290,383.047749
1309.140155,-8290.306550,4589.276840,1685.410096
1309.140476,-10214.842000,2442.679609,229.828649
1309.140797,-7105.977043,2516.700203,459.657299
1309.141118,-9696.697840,-666.185348,76.609550
1309.141439,-10214.842000,-740.205942,229.828649
1309.141761,-10140.821405,-814.226536,1378.971896
1309.142082,-9474.636058,962.267725,1991.848295
1309.142403,-10066.800811,1110.308913,2451.505594
1309.142724,-9622.677246,-592.164754,1455.581446
1309.143045,-9030.512492,-148.041188,1762.019645
1309.143366,-10584.944971,-1628.453072,1532.190996
1309.143687,-9770.718434,-2220.617826,612.876398
1309.144008,-9252.574275,-518.144159,459.657299
1309.144329,-8734.430116,222.061783,-306.438199
1309.144651,-9844.739029,2072.576638,766.095498
1309.144972,-9844.739029,1628.453072,1685.410096
1309.145293,-9252.574275,222.061783,1302.362347
1309.145614,-9548.656652,-1628.453072,-383.047749
1309.145935,-11177.109724,-2368.659014,0.000000
1309.146256,-8956.491898,-592.164754,459.657299
1309.146577,-9696.697840,592.164754,1455.581446
1309.146898,-9474.636058,1110.308913,2221.676944
1309.147220,-8882.471304,0.000000,1991.848295
1309.147541,-9252.574275,-1554.432478,1915.238745
1309.147862,-10584.944971,-2368.659014,1455.581446
1309.148183,-9696.697840,-2368.659014,842.705048
1309.148504,-8660.409521,-962.267725,0.000000
1309.148825,-9474.636058,888.247130,153.219100
1309.149146,-8882.471304,2516.700203,1072.533697
1309.149467,-9178.553681,1776.494261,1455.581446
1309.149789,-9030.512492,74.020594,766.095498
1309.150110,-10288.862594,-2368.659014,0.000000
1309.150431,-9844.739029,-2516.700203,153.219100
1309.150752,-9030.512492,-1776.494261,1072.533697
1309.151073,-9770.718434,0.000000,1991.848295
1309.151394,-9252.574275,296.082377,1608.800546
1309.151715,-7994.224174,-74.020594,612.876398
1309.152036,-9400.615463,-814.226536,995.924147
1309.152357,-10214.842000,-2886.803174,1838.629195
1309.152679,-10288.862594,-2368.659014,1072.533697
1309.153000,-9622.677246,-740.205942,2145.067394
1309.153321,-10955.047942,-1110.308913,1608.800546
1309.153642,-9696.697840,888.247130,2374.896044
1309.153963,-9696.697840,-148.041188,3370.820191
1309.154284,-10066.800811,-1332.370696,919.314598
1309.154605,-9474.636058,-962.267725,842.705048
1309.154926,-9252.574275,-1628.453072,-306.438199
1309.155248,-9844.739029,148.041188,1532.190996
1309.155569,-9844.739029,0.000000,995.924147
1309.155890,-9474.636058,222.061783,2298.286494
1309.156211,-9474.636058,-370.102971,2451.505594
1309.156532,-10658.965565,-1776.494261,1915.238745
1309.156853,-10881.027347,-3034.844362,1685.410096
1309.157174,-9178.553681,-1850.514855,383.047749
1309.157495,-9474.636058,370.102971,0.000000
1309.157817,-9918.759623,2220.617826,1072.533697
1309.158138,-9252.574275,2220.617826,306.438199
1309.158459,-8956.491898,1036.288319,1072.533697
1309.158780,-10140.821405,-666.185348,536.266849
1309.159101,-9474.636058,-1702.473667,76.609550
1309.159422,-9400.615463,-1332.370696,1302.362347
1309.159743,-10362.883188,-740.205942,1991.848295
1309.160064,-9844.739029,-666.185348,1838.629195
1309.160385,-8512.368333,-666.185348,1302.362347
1309.160707,-9326.594869,-1258.350101,1455.581446
1309.161028,-10436.903782,-1924.535449,919.314598
1309.161349,-9474.636058,-1480.411884,0.000000
1309.161670,-8734.430116,592.164754,-459.657299
1309.161991,-9770.718434,2664.741391,-306.438199
1309.162312,-9622.677246,3256.906145,153.219100
1309.162633,-8438.347739,2146.597232,1072.533697
1309.162954,-9918.759623,-592.164754,-306.438199
1309.163276,-9992.780217,-1184.329507,0.000000
1309.163597,-10362.883188,-1628.453072,306.438199
1309.163918,-9548.656652,-296.082377,1455.581446
1309.164239,-10140.821405,0.000000,766.095498
1309.164560,-9992.780217,666.185348,1838.629195
1309.164881,-8586.388927,0.000000,919.314598
1309.165202,-9548.656652,-666.185348,689.485948
1309.165523,-9622.677246,-1924.535449,995.924147
1309.165845,-9030.512492,-888.247130,459.657299
1309.166166,-10066.800811,0.000000,1149.143247
1309.166487,-11251.130318,2220.617826,1225.752797
1309.166808,-9548.656652,1406.391290,2298.286494
1309.167129,-9400.615463,-148.041188,2145.067394
1309.167450,-10658.965565,-1258.350101,536.266849
1309.167771,-8808.450710,-814.226536,-383.047749
1309.168092,-8438.347739,-222.061783,-229.828649
1309.168414,-8438.347739,814.226536,536.266849
1309.168735,-9474.636058,444.123565,1302.362347
1309.169056,-8956.491898,0.000000,1608.800546
1309.169377,-9474.636058,-370.102971,2451.505594
1309.169698,-10807.006753,-2294.638420,2068.457845
1309.170019,-10066.800811,-2368.659014,1149.143247
1309.170340,-9474.636058,-1110.308913,1225.752797
1309.170661,-9474.636058,962.267725,1378.971896
1309.170982,-9918.759623,1998.556043,1991.848295
1309.171304,-9030.512492,962.267725,1685.410096
1309.171625,-9844.739029,-592.164754,1685.410096
1309.171946,-9918.759623,-1628.453072,536.266849
1309.172267,-9474.636058,-1554.432478,766.095498
1309.172588,-9770.718434,-962.267725,1455.581446
1309.172909,-9844.739029,-296.082377,1838.629195
1309.173230,-9326.594869,0.000000,1455.581446
1309.173551,-8956.491898,0.000000,1685.410096
1309.173873,-10214.842000,-296.082377,1455.581446
1309.174194,-10288.862594,-1480.411884,1149.143247
1309.174515,-9326.594869,-1184.329507,0.000000
1309.174836,-8956.491898,-222.061783,76.609550
1309.175157,-9844.739029,1406.391290,229.828649
1309.175478,-9474.636058,1776.494261,1072.533697
1309.175799,-8808.450710,0.000000,1455.581446
1309.176120,-9770.718434,-1998.556043,766.095498
1309.176441,-10436.903782,-2368.659014,306.438199
1309.176762,-9844.739029,-444.123565,536.266849
1309.177083,-10436.903782,518.144159,1915.238745
1309.177404,-10658.965565,666.185348,2451.505594
1309.177725,-9474.636058,-370.102971,2068.457845
1309.178045,-9548.656652,-2294.638420,1378.971896
1309.178366,-9400.615463,-2590.720797,383.047749
1309.178687,-9030.512492,-2368.659014,-306.438199
1309.179008,-7179.997637,0.000000,-842.705048
1309.179329,-8734.430116,2516.700203,0.000000
1309.179650,-9548.656652,3108.864956,1225.752797
1309.179970,-9030.512492,1332.370696,1762.019645
1309.180291,-10066.800811,-962.267725,766.095498
1309.180612,-11769.274478,-1998.556043,1685.410096
1309.180933,-11177.109724,-2368.659014,1072.533697
1309.181254,-9326.594869,666.185348,2528.115143
1309.181575,-9992.780217,666.185348,2451.505594
1309.181895,-8586.388927,0.000000,1838.629195
1309.182216,-7698.141797,-518.144159,919.314598
1309.182537,-9400.615463,-1702.473667,0.000000
1309.182858,-9474.636058,-2072.576638,-306.438199
1309.183179,-8290.306550,-2072.576638,-1302.362347
1309.183500,-8512.368333,1406.391290,1072.533697
1309.183820,-10658.965565,1332.370696,1532.190996
1309.184141,-9770.718434,2072.576638,2221.676944
1309.184462,-9992.780217,-962.267725,4749.792088
1309.184783,-9622.677246,-1850.514855,536.266849
1309.185104,-10436.903782,-1480.411884,306.438199
1309.185425,-9474.636058,-518.144159,612.876398
1309.185745,-7698.141797,1924.535449,229.828649
1309.186066,-9992.780217,1998.556043,459.657299
1309.186387,-8216.285956,1184.329507,842.705048
1309.186708,-8512.368333,74.020594,1072.533697
1309.187029,-10955.047942,-1924.535449,1532.190996
1309.187350,-10288.862594,-2368.659014,1302.362347
1309.187670,-9992.780217,-1332.370696,1991.848295
1309.187991,-10362.883188,-222.061783,2068.457845
1309.188312,-10881.027347,444.123565,2068.457845
1309.188633,-8586.388927,1036.288319,995.924147
1309.188954,-9474.636058,0.000000,995.924147
1309.189275,-9474.636058,148.041188,459.657299
1309.189595,-9696.697840,-1332.370696,0.000000
1309.189916,-8882.471304,222.061783,383.047749
1309.190237,-9326.594869,666.185348,1225.752797
1309.190558,-9992.780217,0.000000,1608.800546
1309.190879,-9178.553681,-592.164754,2145.067394
1309.191200,-10214.842000,-1924.535449,1915.238745
1309.191520,-11029.068536,-2812.782580,995.924147
1309.191841,-9918.759623,-1776.494261,1149.143247
1309.192162,-8956.491898,222.061783,1532.190996
1309.192483,-9770.718434,1406.391290,995.924147
1309.192804,-9844.739029,2072.576638,459.657299
1309.193125,-7994.224174,888.247130,1685.410096
1309.193445,-9548.656652,-1332.370696,1225.752797
1309.193766,-10140.821405,-2590.720797,995.924147
1309.194087,-8956.491898,-2812.782580,919.314598
1309.194408,-8956.491898,-1998.556043,995.924147
1309.194729,-9548.656652,296.082377,1149.143247
1309.195050,-9178.553681,592.164754,1685.410096
1309.195370,-9104.533087,740.205942,2221.676944
1309.195691,-11103.089130,-1406.391290,1685.410096
1309.196012,-9622.677246,-2220.617826,612.876398
1309.196333,-8882.471304,-1554.432478,536.266849
1309.196654,-9326.594869,222.061783,995.924147
1309.196975,-10436.903782,1554.432478,2221.676944
1309.197295,-9474.636058,0.000000,2068.457845
1309.197616,-8142.265362,-666.185348,1072.533697
1309.197937,-10140.821405,-2072.576638,536.266849
1309.198258,-10140.821405,-1776.494261,612.876398
1309.198579,-9474.636058,-814.226536,1072.533697
1309.198900,-9992.780217,74.020594,1302.362347
1309.199220,-9326.594869,444.123565,1455.581446
1309.199541,-9178.553681,0.000000,1608.800546
1309.199862,-9252.574275,-888.247130,1072.533697
1309.200183,-10140.821405,-1850.514855,76.609550
1309.200504,-9104.533087,-370.102971,0.000000
1309.200825,-9104.533087,1110.308913,383.047749
1309.201145,-11251.130318,2886.803174,1072.533697
1309.201466,-10881.027347,2368.659014,2681.334243
1309.201787,-10436.903782,666.185348,2528.115143
1309.202108,-10658.965565,-1850.514855,1762.019645
1309.202429,-10955.047942,-2886.803174,459.657299
1309.202750,-9326.594869,-2220.617826,0.000000
1309.203070,-8660.409521,0.000000,-306.438199
1309.203391,-9326.594869,1554.432478,612.876398
1309.203712,-9030.512492,888.247130,383.047749
1309.204033,-8734.430116,-592.164754,383.047749
1309.204354,-10140.821405,-1406.391290,459.657299
1309.204675,-11251.130318,-2072.576638,995.924147
1309.204995,-9622.677246,-592.164754,689.485948
1309.205316,-9104.533087,1924.535449,-536.266849
1309.205637,-10140.821405,1924.535449,919.314598
1309.205958,-9030.512492,1702.473667,1149.143247
1309.206279,-9104.533087,-370.102971,689.485948
1309.206600,-9474.636058,-1702.473667,153.219100
1309.206920,-9548.656652,-2072.576638,0.000000
1309.207241,-9030.512492,-888.247130,689.485948
1309.207562,-9326.594869,888.247130,1532.190996
1309.207883,-9252.574275,888.247130,1915.238745
1309.208204,-8882.471304,0.000000,1455.581446
1309.208525,-9474.636058,-444.123565,2145.067394
1309.208845,-10955.047942,-2146.597232,1225.752797
1309.209166,-9918.759623,-1110.308913,1915.238745
1309.209487,-9178.553681,-814.226536,2681.334243
1309.209808,-8512.368333,1110.308913,766.095498
1309.210129,-10214.842000,1924.535449,919.314598
1309.210450,-8808.450710,1406.391290,1991.848295
1309.210770,-9326.594869,-518.144159,1149.143247
1309.211091,-10436.903782,-2442.679609,306.438199
1309.211412,-9030.512492,-962.267725,842.705048
1309.211733,-10510.924376,-962.267725,1608.800546
1309.212054,-9992.780217,296.082377,3294.210641
1309.212375,-9548.656652,-370.102971,1685.410096
1309.212695,-9178.553681,-1850.514855,1608.800546
1309.213016,-8956.491898,-2220.617826,383.047749
1309.213337,-10732.986159,-2368.659014,919.314598
1309.213658,-10140.821405,-1036.288319,919.314598
1309.213979,-8068.244768,518.144159,-306.438199
1309.214300,-10214.842000,2590.720797,1302.362347
1309.214620,-10658.965565,2294.638420,2604.724693
1309.214941,-10510.924376,296.082377,3447.429741
1309.215262,-11473.192101,-2442.679609,3064.381992
1309.215583,-10288.862594,-4219.173869,1225.752797
1309.215904,-9400.615463,-2516.700203,612.876398
1309.216225,-9548.656652,-1406.391290,1149.143247
1309.216545,-8586.388927,1110.308913,1149.143247
1309.216866,-7254.018232,1406.391290,-612.876398
1309.217187,-8364.327145,1184.329507,-459.657299
1309.217508,-10066.800811,296.082377,229.828649
1309.217829,-9696.697840,-814.226536,612.876398
1309.218150,-9844.739029,0.000000,1455.581446
1309.218470,-10732.986159,444.123565,1455.581446
1309.218791,-9696.697840,888.247130,1762.019645
1309.219112,-10288.862594,888.247130,3064.381992
1309.219433,-9548.656652,-814.226536,2451.505594
1309.219754,-9696.697840,-2368.659014,1072.533697
1309.220075,-9770.718434,-1924.535449,306.438199
1309.220395,-8216.285956,-592.164754,0.000000
1309.220716,-8660.409521,740.205942,153.219100
1309.221037,-9622.677246,1628.453072,1838.629195
1309.221358,-7994.224174,0.000000,1455.581446
1309.221679,-9696.697840,-1480.411884,689.485948
1309.222000,-9104.533087,-2368.659014,1072.533697
1309.222320,-9992.780217,-1110.308913,229.828649
1309.222641,-10140.821405,962.267725,1455.581446
1309.222962,-10732.986159,2590.720797,1608.800546
1309.223283,-9400.615463,2368.659014,1532.190996
1309.223604,-8882.471304,370.102971,0.000000
1309.223925,-9474.636058,-740.205942,0.000000
1309.224245,-10214.842000,-1924.535449,306.438199
1309.224566,-9400.615463,-1332.370696,1072.533697
1309.224887,-10881.027347,-740.205942,1608.800546
1309.225208,-9548.656652,-666.185348,1149.143247
1309.225529,-9548.656652,-518.144159,1762.019645
1309.225850,-9252.574275,0.000000,2068.457845
1309.226170,-9252.574275,148.041188,1532.190996
1309.226491,-9326.594869,-1924.535449,0.000000
1309.226812,-7698.141797,-1554.432478,-1838.629195
1309.227133,-7254.018232,1776.494261,-2145.067394
1309.227454,-10214.842000,2146.597232,1072.533697
1309.227775,-9104.533087,3182.885551,1608.800546
1309.228096,-9622.677246,1332.370696,1762.019645
1309.228416,-11547.212695,-814.226536,1685.410096
1309.228737,-11177.109724,-592.164754,2757.943793
1309.229058,-11769.274478,-1628.453072,4519.963438
1309.229379,-11769.274478,-1184.329507,3447.429741
1309.229700,-9844.739029,-888.247130,2374.896044
1309.230021,-6957.935855,0.000000,76.609550
1309.230341,-7920.203579,74.020594,459.657299
1309.230662,-9326.594869,-888.247130,306.438199
1309.230983,-7402.059420,-1332.370696,-153.219100
1309.231304,-9326.594869,0.000000,-536.266849
1309.231625,-9548.656652,1850.514855,919.314598
1309.231946,-10584.944971,2146.597232,2145.067394
1309.232266,-11473.192101,962.267725,4290.134789
1309.232587,-9548.656652,-1702.473667,1455.581446
1309.232908,-11177.109724,-3256.906145,536.266849
1309.233229,-9030.512492,-2590.720797,-306.438199
1309.233550,-9474.636058,-1036.288319,1302.362347
1309.233871,-10214.842000,-518.144159,1072.533697
1309.234191,-7920.203579,0.000000,612.876398
1309.234512,-6143.709319,-444.123565,-612.876398
1309.234833,-10140.821405,-1702.473667,995.924147
1309.235154,-9770.718434,-2886.803174,1838.629195
1309.235475,-9770.718434,-3404.947333,689.485948
1309.235796,-9400.615463,-1554.432478,-612.876398
1309.236116,-10214.842000,1480.411884,919.314598
1309.236437,-10140.821405,2072.576638,1915.238745
1309.236758,-9326.594869,1554.432478,1838.629195
1309.237079,-9918.759623,-296.082377,612.876398
1309.237400,-9474.636058,-1184.329507,-306.438199
1309.237721,-9030.512492,-1332.370696,76.609550
1309.238041,-10066.800811,0.000000,1072.533697
1309.238362,-10214.842000,74.020594,1838.629195
1309.238683,-8438.347739,740.205942,2681.334243
1309.239004,-8956.491898,-370.102971,1455.581446
1309.239325,-10066.800811,-1998.556043,842.705048
1309.239646,-9548.656652,-2146.597232,-76.609550
1309.239966,-8734.430116,296.082377,-689.485948
1309.240287,-9622.677246,1332.370696,536.266849
1309.240608,-10066.800811,1850.514855,1072.533697
1309.240929,-9178.553681,1036.288319,1915.238745
1309.241250,-9696.697840,-666.185348,1072.533697
1309.241571,-10807.006753,-666.185348,1378.971896
1309.241891,-10362.883188,-370.102971,1762.019645
1309.242212,-10066.800811,740.205942,2068.457845
1309.242533,-10214.842000,1110.308913,1838.629195
1309.242854,-9474.636058,740.205942,919.314598
1309.243175,-8512.368333,-370.102971,1378.971896
1309.243496,-9400.615463,-1924.535449,1455.581446
1309.243816,-9474.636058,-3034.844362,689.485948
1309.244137,-8808.450710,-2590.720797,-76.609550
1309.244458,-9252.574275,-296.082377,306.438199
1309.244779,-9844.739029,2442.679609,1915.238745
1309.245100,-10510.924376,3108.864956,2834.553343
1309.245421,-9326.594869,1258.350101,2451.505594
1309.245741,-9844.739029,-1110.308913,1378.971896
1309.246062,-10584.944971,-2368.659014,536.266849
1309.246383,-9104.533087,-1184.329507,919.314598
1309.246704,-9622.677246,-592.164754,1072.533697
1309.247025,-9548.656652,148.041188,1072.533697
1309.247346,-8364.327145,-222.061783,306.438199
1309.247666,-8512.368333,-962.267725,689.485948
1309.247987,-9474.636058,-1628.453072,459.657299
1309.248308,-9622.677246,-1702.473667,0.000000
1309.248629,-8586.388927,-1110.308913,-1608.800546
1309.248950,-8660.409521,1036.288319,-919.314598
1309.249271,-9696.697840,2368.659014,842.705048
1309.249591,-10436.903782,1924.535449,2528.115143
1309.249912,-11177.109724,-296.082377,3447.429741
1309.250233,-11325.150913,-2738.761985,2068.457845
1309.250554,-10584.944971,-3701.029710,1378.971896
1309.250875,-9770.718434,-2220.617826,1532.190996
1309.251196,-10214.842000,-148.041188,1608.800546
1309.251516,-8068.244768,592.164754,919.314598
1309.251837,-7105.977043,74.020594,0.000000
1309.252158,-8216.285956,-962.267725,0.000000
1309.252479,-10658.965565,-2294.638420,0.000000
1309.252800,-9474.636058,-2072.576638,-76.609550
1309.253121,-9474.636058,-740.205942,153.219100
1309.253441,-9770.718434,1628.453072,1685.410096
1309.253762,-10955.047942,888.247130,3217.601092
1309.254083,-9622.677246,-518.144159,2911.162892
1309.254404,-10807.006753,-2812.782580,1608.800546
1309.254725,-9918.759623,-2812.782580,842.705048
1309.255046,-9474.636058,-1702.473667,612.876398
1309.255366,-9474.636058,0.000000,1072.533697
1309.255687,-9696.697840,1184.329507,1915.238745
1309.256008,-8882.471304,0.000000,1225.752797
1309.256329,-8512.368333,-888.247130,1072.533697
1309.256650,-9770.718434,-2960.823768,1915.238745
1309.256971,-10881.027347,-2812.782580,1072.533697
1309.257291,-9770.718434,-1258.350101,919.314598
1309.257612,-10066.800811,1702.473667,1072.533697
1309.257933,-10288.862594,3478.967927,1455.581446
1309.258254,-9622.677246,3108.864956,2068.457845
1309.258575,-10436.903782,592.164754,2221.676944
1309.258896,-9992.780217,-1998.556043,536.266849
1309.259216,-10214.842000,-3108.864956,-153.219100
1309.259537,-8660.409521,0.000000,1378.971896
1309.259858,-10140.821405,-1036.288319,1915.238745
1309.260179,-8808.450710,74.020594,1915.238745
1309.260500,-8364.327145,-814.226536,1149.143247
1309.260821,-9696.697840,-444.123565,1838.629195
1309.261141,-10140.821405,-2072.576638,1149.143247
1309.261462,-10214.842000,-2072.576638,1072.533697
1309.261783,-9252.574275,-222.061783,1072.533697
1309.262104,-9030.512492,2072.576638,-459.657299
1309.262425,-9548.656652,3849.070898,1915.238745
1309.262746,-9252.574275,1776.494261,2374.896044
1309.263066,-9844.739029,74.020594,2374.896044
1309.263387,-11103.089130,-1554.432478,1608.800546
1309.263708,-9844.739029,-1554.432478,1149.143247
1309.264029,-9844.739029,-888.247130,1685.410096
1309.264350,-9622.677246,0.000000,1149.143247
1309.264671,-7476.080014,962.267725,229.828649
1309.264991,-7254.018232,888.247130,612.876398
1309.265312,-8882.471304,-148.041188,76.609550
1309.265633,-9770.718434,-1924.535449,-306.438199
1309.265954,-9474.636058,-1332.370696,0.000000
1309.266275,-9696.697840,518.144159,842.705048
1309.266596,-11769.274478,2960.823768,2374.896044
1309.266916,-10584.944971,2960.823768,2374.896044
1309.267237,-9918.759623,2072.576638,1685.410096
1309.267558,-10214.842000,296.082377,306.438199
1309.267879,-10066.800811,-1258.350101,-306.438199
1309.268200,-9770.718434,-1258.350101,-689.485948
1309.268521,-9770.718434,-518.144159,-153.219100
1309.268841,-9326.594869,370.102971,0.000000
1309.269162,-8438.347739,444.123565,1302.362347
1309.269483,-9474.636058,-222.061783,1608.800546
1309.269804,-11029.068536,-1628.453072,1455.581446
1309.270125,-10214.842000,-2146.597232,612.876398
1309.270446,-9474.636058,-296.082377,0.000000
1309.270766,-9770.718434,592.164754,1149.143247
1309.271087,-10066.800811,1406.391290,1838.629195
1309.271408,-9030.512492,1628.453072,1685.410096
1309.271729,-9326.594869,-444.123565,766.095498
1309.272050,-9474.636058,-1776.494261,-612.876398
1309.272371,-7920.203579,0.000000,0.000000
1309.272691,-10362.883188,-1258.350101,842.705048
1309.273012,-9474.636058,740.205942,2221.676944
1309.273333,-9178.553681,-370.102971,612.876398
1309.273654,-8882.471304,-1110.308913,1149.143247
1309.273975,-10066.800811,-444.123565,2298.286494
1309.274296,-11473.192101,-2072.576638,1991.848295
1309.274616,-8438.347739,-1184.329507,0.000000
1309.274937,-8586.388927,-888.247130,-536.266849
1309.275258,-7698.141797,1036.288319,-536.266849
1309.275579,-8438.347739,1702.473667,766.095498
1309.275900,-9474.636058,740.205942,2145.067394
1309.276220,-8956.491898,-962.267725,1455.581446
1309.276541,-9844.739029,-2812.782580,1302.362347
1309.276862,-9770.718434,-1776.494261,1838.629195
1309.277183,-11843.295072,-962.267725,4673.182538
1309.277503,-12879.583391,-962.267725,4673.182538
1309.277824,-8956.491898,-814.226536,3447.429741
1309.278145,-8586.388927,-2442.679609,612.876398
1309.278466,-9474.636058,-1702.473667,459.657299
1309.278786,-9474.636058,-2072.576638,-306.438199
1309.279107,-8438.347739,-518.144159,0.000000
1309.279428,-9400.615463,740.205942,-612.876398
1309.279749,-9548.656652,1628.453072,383.047749
1309.280069,-10066.800811,814.226536,1991.848295
1309.280390,-10732.986159,-962.267725,2298.286494
1309.280711,-11103.089130,-1776.494261,1915.238745
1309.281032,-9474.636058,-2294.638420,459.657299
1309.281352,-9326.594869,-1480.411884,919.314598
1309.281673,-10584.944971,-296.082377,842.705048
1309.281994,-9548.656652,666.185348,2221.676944
1309.282315,-7994.224174,592.164754,1225.752797
1309.282635,-9252.574275,0.000000,612.876398
1309.282956,-9844.739029,-1036.288319,612.876398
1309.283277,-9548.656652,-1480.411884,995.924147
1309.283598,-9474.636058,-296.082377,919.314598
1309.283918,-9770.718434,1258.350101,1915.238745
1309.284239,-9696.697840,444.123565,1378.971896
1309.284560,-8956.491898,296.082377,1608.800546
1309.284881,-10436.903782,-1332.370696,1072.533697
1309.285201,-9770.718434,-296.082377,612.876398
1309.285522,-9326.594869,-814.226536,459.657299
1309.285843,-8586.388927,222.061783,1455.581446
1309.286164,-9918.759623,-370.102971,1532.190996
1309.286484,-8808.450710,-444.123565,1149.143247
1309.286805,-9400.615463,-1702.473667,1685.410096
1309.287126,-9178.553681,-2294.638420,229.828649
1309.287447,-9696.697840,-1850.514855,459.657299
1309.287767,-9548.656652,-148.041188,229.828649
1309.288088,-9622.677246,1110.308913,1455.581446
1309.288409,-10658.965565,888.247130,1149.143247
1309.288730,-9030.512492,1554.432478,1532.190996
1309.289050,-10140.821405,-962.267725,612.876398
1309.289371,-9992.780217,-814.226536,383.047749
1309.289692,-10658.965565,-1628.453072,383.047749
1309.290013,-9252.574275,814.226536,1302.362347
1309.290333,-9696.697840,444.123565,306.438199
1309.290654,-9992.780217,296.082377,-1302.362347
1309.290975,-7994.224174,2664.741391,1991.848295
1309.291296,-12657.521608,-74.020594,1455.581446
1309.291616,-9474.636058,-222.061783,2221.676944
1309.291937,-10066.800811,-2664.741391,-1302.362347
1309.292258,-9326.594869,-518.144159,612.876398
1309.292579,-8956.491898,-740.205942,-229.828649
1309.292899,-10584.944971,888.247130,2911.162892
1309.293220,-8586.388927,0.000000,1608.800546
1309.293541,-9326.594869,-814.226536,-536.266849
1309.293862,-9992.780217,-518.144159,459.657299
1309.294182,-9770.718434,-148.041188,1302.362347
1309.294503,-9918.759623,1406.391290,2221.676944
1309.294824,-11325.150913,740.205942,2604.724693
1309.295145,-7476.080014,148.041188,1149.143247
1309.295465,-8808.450710,-1480.411884,1378.971896
1309.295786,-9770.718434,-1776.494261,1072.533697
1309.296107,-9474.636058,-740.205942,1762.019645
1309.296428,-9252.574275,0.000000,766.095498
1309.296748,-8512.368333,1036.288319,306.438199
1309.297069,-9178.553681,1332.370696,612.876398
1309.297390,-8586.388927,1406.391290,1685.410096
1309.297711,-9844.739029,-222.061783,2451.505594
1309.298031,-9918.759623,-1554.432478,1225.752797
1309.298352,-9104.533087,-2886.803174,76.609550
1309.298673,-9252.574275,-1184.329507,1532.190996
1309.298994,-9770.718434,-444.123565,2298.286494
1309.299314,-10436.903782,518.144159,3217.601092
1309.299635,-9030.512492,-518.144159,2604.724693
1309.299956,-8586.388927,-1406.391290,459.657299
1309.300277,-10140.821405,-2220.617826,612.876398
1309.300597,-9252.574275,-2442.679609,0.000000
1309.300918,-8956.491898,-444.123565,0.000000
1309.301239,-9918.759623,518.144159,766.095498
1309.301560,-8734.430116,1406.391290,459.657299
1309.301880,-9918.759623,1110.308913,1608.800546
1309.302201,-10584.944971,-518.144159,2145.067394
1309.302522,-11843.295072,-2294.638420,1455.581446
1309.302843,-10362.883188,-2146.597232,995.924147
1309.303163,-9844.739029,-1184.329507,842.705048
1309.303484,-9992.780217,222.061783,995.924147
1309.303805,-10140.821405,1628.453072,2681.334243
1309.304126,-9252.574275,518.144159,1608.800546
1309.304446,-9622.677246,-962.267725,1225.752797
1309.304767,-10140.821405,-2886.803174,0.000000
1309.305088,-9474.636058,-2072.576638,-842.705048
1309.305409,-9252.574275,740.205942,-842.705048
1309.305729,-10510.924376,2886.803174,995.924147
1309.306050,-9178.553681,2812.782580,2374.896044
1309.306371,-9326.594869,370.102971,1455.581446
1309.306692,-9918.759623,-2146.597232,919.314598
1309.307012,-10362.883188,-2590.720797,536.266849
1309.307333,-9992.780217,-1628.453072,1532.190996
1309.307654,-10066.800811,-666.185348,1302.362347
1309.307975,-7550.100608,518.144159,383.047749
1309.308295,-8142.265362,-1332.370696,-306.438199
1309.308616,-7179.997637,-370.102971,0.000000
1309.308937,-9770.718434,-2294.638420,-229.828649
1309.309257,-10214.842000,-1850.514855,766.095498
1309.309578,-10140.821405,-370.102971,1838.629195
1309.309899,-11029.068536,1406.391290,3294.210641
1309.310220,-11547.212695,1110.308913,3677.258390
1309.310540,-10362.883188,814.226536,3524.039291
1309.310861,-9918.759623,518.144159,2834.553343
1309.311182,-10436.903782,0.000000,919.314598
1309.311503,-9548.656652,518.144159,1149.143247
1309.311823,-9770.718434,-222.061783,1455.581446
1309.312144,-8808.450710,-222.061783,1532.190996
1309.312465,-8586.388927,-1258.350101,-306.438199
1309.312786,-8290.306550,-888.247130,-612.876398
1309.313106,-9252.574275,-296.082377,689.485948
1309.313427,-10584.944971,-814.226536,0.000000
1309.313748,-8808.450710,-444.123565,612.876398
1309.314069,-9252.574275,222.061783,0.000000
1309.314389,-10584.944971,1258.350101,919.314598
1309.314710,-11325.150913,592.164754,2221.676944
1309.315031,-8734.430116,1110.308913,2757.943793
1309.315352,-10732.986159,-1924.535449,766.095498
1309.315672,-8808.450710,0.000000,-229.828649
1309.315993,-9992.780217,-296.082377,612.876398
1309.316314,-8364.327145,-666.185348,842.705048
1309.316635,-9104.533087,-222.061783,1302.362347
1309.316955,-8808.450710,-370.102971,0.000000
1309.317276,-8142.265362,592.164754,229.828649
1309.317597,-10510.924376,148.041188,1991.848295
1309.317918,-9696.697840,-296.082377,1149.143247
1309.318238,-9252.574275,-888.247130,76.609550
1309.318559,-8882.471304,962.267725,0.000000
1309.318880,-9474.636058,2146.597232,1302.362347
1309.319201,-10066.800811,814.226536,1991.848295
1309.319521,-9474.636058,296.082377,2757.943793
1309.319842,-9844.739029,-1110.308913,1991.848295
1309.320163,-9622.677246,-2368.659014,1225.752797
1309.320484,-9030.512492,-1036.288319,2451.505594
1309.320804,-10510.924376,-1406.391290,2298.286494
1309.321125,-8068.244768,-666.185348,1225.752797
1309.321446,-8660.409521,-592.164754,1455.581446
1309.321767,-9104.533087,-1850.514855,306.438199
1309.322087,-10288.862594,-2368.659014,1072.533697
1309.322408,-9696.697840,-2738.761985,536.266849
1309.322729,-9030.512492,-296.082377,-229.828649
1309.323050,-10288.862594,1628.453072,536.266849
1309.323370,-11029.068536,2294.638420,1991.848295
1309.323691,-9622.677246,1184.329507,1685.410096
1309.324012,-10658.965565,-814.226536,1608.800546
1309.324333,-10658.965565,-2664.741391,612.876398
1309.324653,-10510.924376,-2812.782580,766.095498
1309.324974,-9548.656652,-2368.659014,1149.143247
1309.325295,-8882.471304,-296.082377,459.657299
1309.325616,-8586.388927,296.082377,842.705048
1309.325936,-8142.265362,888.247130,-306.438199
1309.326257,-9252.574275,-888.247130,306.438199
1309.326578,-9992.780217,-1850.514855,229.828649
1309.326899,-9178.553681,-518.144159,0.000000
1309.327219,-10288.862594,1184.329507,1302.362347
1309.327540,-10658.965565,2368.659014,2451.505594
1309.327861,-9992.780217,2886.803174,2834.553343
1309.328182,-9844.739029,1110.308913,2451.505594
1309.328502,-10140.821405,-1110.308913,1455.581446
1309.328823,-9178.553681,-2886.803174,919.314598
1309.329144,-7846.182985,-2516.700203,76.609550
1309.329465,-8808.450710,-1480.411884,842.705048
1309.329785,-9326.594869,0.000000,1532.190996
1309.330106,-8882.471304,1110.308913,2451.505594
1309.330427,-9770.718434,-740.205942,2528.115143
1309.330748,-10214.842000,-2220.617826,2451.505594
1309.331068,-10288.862594,-3108.864956,842.705048
1309.331389,-9474.636058,-962.267725,1225.752797
1309.331710,-10066.800811,666.185348,1149.143247
1309.332031,-9474.636058,2368.659014,1991.848295
1309.332351,-9252.574275,666.185348,1225.752797
1309.332672,-8956.491898,-592.164754,0.000000
1309.332993,-10584.944971,-592.164754,-766.095498
1309.333314,-10510.924376,-1184.329507,306.438199
1309.333634,-9548.656652,518.144159,995.924147
1309.333955,-10881.027347,740.205942,1225.752797
1309.334276,-8882.471304,0.000000,2757.943793
1309.334597,-8660.409521,-740.205942,689.485948
1309.334917,-9474.636058,-2146.597232,842.705048
1309.335238,-9622.677246,-2812.782580,-306.438199
1309.335559,-8734.430116,-1702.473667,-995.924147
1309.335880,-9400.615463,962.267725,-459.657299
1309.336200,-10214.842000,3478.967927,689.485948
1309.336521,-10140.821405,3330.926739,1991.848295
1309.336842,-10658.965565,962.267725,2604.724693
1309.337163,-11325.150913,-1998.556043,1302.362347
1309.337483,-10362.883188,-1850.514855,689.485948
1309.337804,-10066.800811,-1036.288319,1685.410096
1309.338125,-9326.594869,0.000000,1378.971896
1309.338446,-8734.430116,444.123565,-229.828649
1309.338766,-7698.141797,0.000000,-383.047749
1309.339087,-7846.182985,0.000000,-459.657299
1309.339408,-9770.718434,-962.267725,0.000000
1309.339729,-9474.636058,-518.144159,459.657299
1309.340049,-9030.512492,518.144159,229.828649
1309.340370,-10362.883188,1110.308913,1149.143247
1309.340691,-10066.800811,1406.391290,2528.115143
1309.341012,-9178.553681,0.000000,1762.019645
1309.341332,-10066.800811,-370.102971,2374.896044
1309.341653,-10288.862594,-1258.350101,1378.971896
1309.341974,-9178.553681,-1406.391290,995.924147
1309.342295,-9030.512492,-222.061783,995.924147
1309.342615,-9474.636058,518.144159,1991.848295
1309.342936,-9400.615463,-222.061783,1991.848295
1309.343257,-8216.285956,-1184.329507,1685.410096
1309.343578,-9622.677246,-2812.782580,1302.362347
1309.343898,-9770.718434,-2294.638420,919.314598
1309.344219,-10362.883188,-2146.597232,1685.410096
1309.344540,-9326.594869,740.205942,306.438199
1309.344861,-9844.739029,3108.864956,459.657299
1309.345181,-10362.883188,3404.947333,1532.190996
1309.345502,-9622.677246,1332.370696,2068.457845
1309.345823,-10658.965565,-1258.350101,0.000000
1309.346144,-10362.883188,-3256.906145,306.438199
1309.346464,-9326.594869,-2886.803174,383.047749
1309.346785,-10066.800811,-666.185348,1455.581446
1309.347106,-10584.944971,666.185348,2757.943793
1309.347427,-9178.553681,666.185348,2068.457845
1309.347747,-9326.594869,-296.082377,1608.800546
1309.348068,-10658.965565,-1850.514855,1149.143247
1309.348389,-9622.677246,-1776.494261,153.219100
1309.348710,-10066.800811,-1110.308913,0.000000
1309.349030,-9030.512492,1406.391290,995.924147
1309.349351,-9770.718434,2220.617826,1991.848295
1309.349672,-9474.636058,1110.308913,1838.629195
1309.349993,-9252.574275,518.144159,3600.648841
1309.350313,-10807.006753,-1406.391290,1378.971896
1309.350634,-9992.780217,-1850.514855,995.924147
1309.350955,-9030.512492,-592.164754,1838.629195
1309.351276,-9770.718434,-444.123565,1991.848295
1309.351596,-8808.450710,-296.082377,1915.238745
1309.351917,-7994.224174,-666.185348,1838.629195
1309.352238,-9030.512492,-2146.597232,1991.848295
1309.352559,-10362.883188,-2960.823768,1302.362347
1309.352879,-9992.780217,-1924.535449,-306.438199
1309.353200,-9252.574275,-370.102971,306.438199
1309.353521,-9548.656652,3034.844362,612.876398
1309.353842,-10584.944971,3478.967927,1378.971896
1309.354162,-9400.615463,1702.473667,1378.971896
1309.354483,-9622.677246,370.102971,306.438199
1309.354804,-10436.903782,-2368.659014,-612.876398
1309.355124,-9622.677246,-1924.535449,-229.828649
1309.355445,-9548.656652,-740.205942,306.438199
1309.355766,-9252.574275,-666.185348,153.219100
1309.356087,-8068.244768,370.102971,-842.705048
1309.356407,-8586.388927,-888.247130,-612.876398
1309.356728,-9104.533087,-148.041188,-919.314598
1309.357049,-11473.192101,-1628.453072,153.219100
1309.357370,-9252.574275,-1406.391290,612.876398
1309.357690,-10288.862594,-1036.288319,919.314598
1309.358011,-11473.192101,1036.288319,2298.286494
1309.358332,-10955.047942,74.020594,3140.991542
1309.358653,-9548.656652,1258.350101,2451.505594
1309.358973,-11399.171507,-1258.350101,842.705048
1309.359294,-8882.471304,-518.144159,-459.657299
1309.359615,-8660.409521,592.164754,766.095498
1309.359936,-9474.636058,-370.102971,1072.533697
1309.360256,-8882.471304,1258.350101,1915.238745
1309.360577,-9918.759623,-1480.411884,2834.553343
1309.360898,-9178.553681,-1998.556043,2451.505594
1309.361219,-10362.883188,-1628.453072,2298.286494
1309.361539,-10658.965565,-2146.597232,1762.019645
1309.361860,-8438.347739,518.144159,842.705048
1309.362181,-9252.574275,3404.947333,153.219100
1309.362502,-7920.203579,2886.803174,1762.019645
1309.362822,-7624.121203,2294.638420,306.438199
1309.363143,-9992.780217,222.061783,1455.581446
1309.363464,-9992.780217,-1628.453072,842.705048
1309.363785,-10288.862594,-1998.556043,1915.238745
1309.364105,-10214.842000,-2146.597232,3370.820191
1309.364426,-10066.800811,-2072.576638,3064.381992
1309.364747,-9844.739029,-1554.432478,2681.334243
1309.365068,-8956.491898,-370.102971,2451.505594
1309.365388,-9326.594869,-222.061783,1149.143247
1309.365709,-10658.965565,-1480.411884,995.924147
1309.366030,-8290.306550,-1776.494261,-1378.971896
1309.366351,-8586.388927,666.185348,-842.705048
1309.366671,-10288.862594,1776.494261,842.705048
1309.366992,-9400.615463,1554.432478,1455.581446
1309.367313,-9918.759623,296.082377,2145.067394
1309.367634,-10881.027347,-1332.370696,1762.019645
1309.367954,-10881.027347,-1776.494261,1072.533697
1309.368275,-10436.903782,-518.144159,1685.410096
1309.368596,-10066.800811,74.020594,1302.362347
1309.368917,-9918.759623,1110.308913,1225.752797
1309.369237,-9104.533087,592.164754,306.438199
1309.369558,-9326.594869,-814.226536,459.657299
1309.369879,-9474.636058,-1480.411884,0.000000
1309.370200,-9400.615463,-2368.659014,0.000000
1309.370520,-9622.677246,-814.226536,306.438199
1309.370841,-9992.780217,2812.782580,2528.115143
1309.371162,-10881.027347,2886.803174,1302.362347
1309.371483,-9918.759623,2960.823768,1838.629195
1309.371803,-9844.739029,296.082377,1608.800546
1309.372124,-10362.883188,-2516.700203,-153.219100
1309.372445,-8808.450710,-2738.761985,0.000000
1309.372766,-8808.450710,-2146.597232,-153.219100
1309.373086,-8734.430116,-1258.350101,383.047749
1309.373407,-7994.224174,592.164754,153.219100
1309.373728,-7402.059420,814.226536,1685.410096
1309.374049,-8734.430116,-444.123565,1072.533697
1309.374369,-10214.842000,-2146.597232,1838.629195
1309.374690,-10140.821405,-2590.720797,1455.581446
1309.375011,-9992.780217,-1998.556043,842.705048
1309.375332,-9992.780217,-296.082377,1608.800546
1309.375652,-9770.718434,1406.391290,2528.115143
1309.375973,-9252.574275,1406.391290,2221.676944
1309.376294,-9474.636058,-222.061783,689.485948
1309.376615,-9030.512492,-592.164754,76.609550
1309.376935,-9400.615463,-592.164754,0.000000
1309.377256,-10066.800811,370.102971,1149.143247
1309.377577,-10288.862594,1258.350101,2068.457845
1309.377898,-9770.718434,444.123565,2757.943793
1309.378218,-9178.553681,-666.185348,1685.410096
1309.378539,-10436.903782,-2072.576638,1685.410096
1309.378860,-9770.718434,-2738.761985,1072.533697
1309.379180,-9474.636058,-2294.638420,459.657299
1309.379501,-9622.677246,370.102971,766.095498
1309.379822,-9474.636058,1628.453072,459.657299
1309.380143,-9252.574275,2664.741391,1225.752797
1309.380463,-9844.739029,1776.494261,1455.581446
1309.380784,-10732.986159,518.144159,1149.143247
1309.381105,-9918.759623,-1036.288319,842.705048
1309.381425,-9770.718434,-1554.432478,842.705048
1309.381746,-9918.759623,-740.205942,1378.971896
1309.382067,-9844.739029,-814.226536,1838.629195
1309.382388,-8438.347739,-370.102971,1685.410096
1309.382708,-8956.491898,-1332.370696,919.314598
1309.383029,-9400.615463,-1850.514855,612.876398
1309.383350,-8808.450710,-1628.453072,153.219100
1309.383670,-8068.244768,-1850.514855,1532.190996
1309.383991,-9474.636058,1776.494261,766.095498
1309.384312,-10436.903782,1628.453072,2451.505594
1309.384632,-9326.594869,518.144159,2068.457845
1309.384953,-10658.965565,-814.226536,2221.676944
1309.385274,-10732.986159,-3256.906145,612.876398
1309.385595,-8734.430116,-518.144159,1762.019645
1309.385915,-11103.089130,-370.102971,1685.410096
1309.386236,-9030.512492,888.247130,1991.848295
1309.386557,-9474.636058,-592.164754,536.266849
1309.386877,-8142.265362,-444.123565,1302.362347
1309.387198,-9178.553681,-2664.741391,0.000000
1309.387519,-9474.636058,-2368.659014,383.047749
1309.387840,-9104.533087,-1258.350101,842.705048
1309.388160,-9178.553681,222.061783,612.876398
1309.388481,-9844.739029,1628.453072,1762.019645
1309.388802,-9548.656652,888.247130,1378.971896
1309.389122,-9622.677246,0.000000,459.657299
1309.389443,-10807.006753,-1776.494261,0.000000
1309.389764,-10732.986159,-222.061783,-383.047749
1309.390084,-9548.656652,74.020594,1149.143247
1309.390405,-10510.924376,1184.329507,1608.800546
1309.390726,-10288.862594,1036.288319,2068.457845
1309.391047,-8586.388927,74.020594,1225.752797
1309.391367,-10510.924376,-888.247130,2221.676944
1309.391688,-10510.924376,-2368.659014,1838.629195
1309.392009,-9696.697840,-2590.720797,536.266849
1309.392329,-9104.533087,-148.041188,0.000000
1309.392650,-8882.471304,2886.803174,0.000000
1309.392971,-9474.636058,2368.659014,1302.362347
1309.393292,-9252.574275,1184.329507,1762.019645
1309.393612,-9696.697840,-296.082377,1072.533697
1309.393933,-10436.903782,-962.267725,383.047749
1309.394254,-9104.533087,148.041188,1072.533697
1309.394574,-9770.718434,148.041188,2145.067394
1309.394895,-10066.800811,370.102971,2298.286494
1309.395216,-8512.368333,0.000000,1608.800546
1309.395536,-8438.347739,-296.082377,1838.629195
1309.395857,-10436.903782,-2220.617826,919.314598
1309.396178,-9844.739029,-2738.761985,1378.971896
1309.396499,-9178.553681,-2294.638420,1378.971896
1309.396819,-9548.656652,-370.102971,1072.533697
1309.397140,-9770.718434,1332.370696,919.314598
1309.397461,-9474.636058,1036.288319,2451.505594
1309.397781,-9474.636058,1184.329507,2681.334243
1309.398102,-10510.924376,-444.123565,1378.971896
1309.398423,-9844.739029,-740.205942,306.438199
1309.398744,-9178.553681,-370.102971,2068.457845
1309.399064,-9400.615463,296.082377,0.000000
1309.399385,-8808.450710,888.247130,0.000000
1309.399706,-8734.430116,740.205942,459.657299
1309.400026,-9770.718434,0.000000,536.266849
1309.400347,-10510.924376,-1332.370696,689.485948
1309.400668,-10584.944971,-2294.638420,459.657299
1309.400988,-9326.594869,-1258.350101,229.828649
1309.401309,-10288.862594,370.102971,766.095498
1309.401630,-9770.718434,1110.308913,2834.553343
1309.401951,-8882.471304,222.061783,1302.362347
1309.402271,-9252.574275,-1332.370696,766.095498
1309.402592,-9770.718434,-2886.803174,-612.876398
1309.402913,-9548.656652,-1480.411884,459.657299
1309.403233,-8882.471304,1258.350101,689.485948
1309.403554,-10362.883188,888.247130,1149.143247
1309.403875,-7772.162391,2368.659014,919.314598
1309.404196,-8882.471304,0.000000,229.828649
1309.404516,-9622.677246,-1184.329507,-766.095498
1309.404837,-9474.636058,-592.164754,-689.485948
1309.405158,-9770.718434,-888.247130,-383.047749
1309.405478,-8290.306550,1776.494261,612.876398
1309.405799,-11325.150913,1332.370696,1762.019645
1309.406120,-9992.780217,814.226536,3524.039291
1309.406440,-10510.924376,-962.267725,3294.210641
1309.406761,-11029.068536,-2738.761985,2451.505594
1309.407082,-9474.636058,-2368.659014,2068.457845
1309.407403,-9696.697840,-296.082377,2221.676944
1309.407723,-9326.594869,740.205942,2068.457845
1309.408044,-8290.306550,888.247130,995.924147
1309.408365,-7328.038826,0.000000,1072.533697
1309.408685,-8586.388927,222.061783,919.314598
1309.409006,-11695.253884,-1702.473667,2757.943793
1309.409327,-11473.192101,-2442.679609,2298.286494
1309.409648,-9326.594869,-1850.514855,1455.581446
1309.409968,-9474.636058,296.082377,1532.190996
1309.410289,-10214.842000,814.226536,2221.676944
1309.410610,-9400.615463,74.020594,2068.457845
1309.410930,-8956.491898,-1110.308913,842.705048
1309.411251,-8734.430116,-1332.370696,153.219100
1309.411572,-9474.636058,-1184.329507,-689.485948
1309.411892,-9474.636058,-296.082377,1225.752797
1309.412213,-10658.965565,592.164754,2451.505594
1309.412534,-9918.759623,0.000000,2528.115143
1309.412855,-8956.491898,-296.082377,1225.752797
1309.413175,-10436.903782,-1110.308913,1915.238745
1309.413496,-11325.150913,-1554.432478,1378.971896
1309.413817,-9474.636058,-370.102971,1072.533697
1309.414137,-9770.718434,1036.288319,-306.438199
1309.414458,-8956.491898,2146.597232,-766.095498
1309.414779,-9104.533087,2516.700203,536.266849
1309.415100,-9104.533087,888.247130,1378.971896
1309.415420,-9844.739029,-518.144159,459.657299
1309.415741,-10066.800811,-1998.556043,459.657299
1309.416062,-8956.491898,-2368.659014,383.047749
1309.416382,-9474.636058,-1110.308913,995.924147
1309.416703,-10732.986159,-74.020594,2604.724693
1309.417024,-8956.491898,0.000000,2145.067394
1309.417344,-9104.533087,-296.082377,1225.752797
1309.417665,-9178.553681,-1332.370696,383.047749
1309.417986,-9474.636058,-2294.638420,-689.485948
1309.418307,-9400.615463,-666.185348,-919.314598
1309.418627,-9326.594869,888.247130,0.000000
1309.418948,-9696.697840,2072.576638,995.924147
1309.419269,-9548.656652,888.247130,1838.629195
1309.419589,-10140.821405,-296.082377,2068.457845
1309.419910,-11103.089130,-1776.494261,1685.410096
1309.420231,-10214.842000,-2516.700203,766.095498
1309.420552,-9252.574275,-1702.473667,536.266849
1309.420872,-9474.636058,-962.267725,766.095498
1309.421193,-8512.368333,-592.164754,-229.828649
1309.421514,-7550.100608,518.144159,0.000000
1309.421834,-9178.553681,740.205942,1072.533697
1309.422155,-10436.903782,-296.082377,1149.143247
1309.422476,-10584.944971,-888.247130,383.047749
1309.422796,-10140.821405,-444.123565,1149.143247
1309.423117,-10436.903782,444.123565,1685.410096
1309.423438,-10140.821405,592.164754,2604.724693
1309.423759,-9992.780217,148.041188,3294.210641
1309.424079,-10140.821405,-1332.370696,1991.848295
1309.424400,-9770.718434,-1850.514855,919.314598
1309.424721,-9548.656652,-1110.308913,919.314598
1309.425041,-8660.409521,74.020594,1302.362347
1309.425362,-9696.697840,-222.061783,1685.410096
1309.425683,-8438.347739,74.020594,1685.410096
1309.426004,-8290.306550,0.000000,1532.190996
1309.426324,-9992.780217,-666.185348,1838.629195
1309.426645,-9474.636058,-1184.329507,2221.676944
1309.426966,-9474.636058,-592.164754,995.924147
1309.427286,-9474.636058,518.144159,919.314598
1309.427607,-9770.718434,1480.411884,1455.581446
1309.427928,-9770.718434,1554.432478,2604.724693
1309.428248,-8882.471304,0.000000,1838.629195
1309.428569,-9474.636058,-1406.391290,459.657299
1309.428890,-9474.636058,-1628.453072,766.095498
1309.429211,-9104.533087,-1258.350101,1302.362347
1309.429531,-9696.697840,-1184.329507,1838.629195
1309.429852,-9400.615463,-1110.308913,1455.581446
1309.430173,-8734.430116,-666.185348,1149.143247
1309.430493,-9178.553681,-444.123565,1225.752797
1309.430814,-10584.944971,-1184.329507,0.000000
1309.431135,-9474.636058,-888.247130,0.000000
1309.431456,-8882.471304,148.041188,-459.657299
1309.431776,-9696.697840,1332.370696,-536.266849
1309.432097,-9770.718434,1036.288319,2451.505594
1309.432418,-9548.656652,962.267725,919.314598
1309.432738,-10066.800811,444.123565,1608.800546
1309.433059,-11621.233289,-1702.473667,612.876398
1309.433380,-10362.883188,-1702.473667,0.000000
1309.433700,-9030.512492,-444.123565,1762.019645
1309.434021,-11473.192101,-962.267725,766.095498
1309.434342,-8290.306550,740.205942,1762.019645
1309.434663,-9770.718434,-1554.432478,-153.219100
1309.434983,-9326.594869,-444.123565,0.000000
1309.435304,-9400.615463,-1406.391290,-1762.019645
1309.435625,-9474.636058,222.061783,306.438199
1309.435945,-9696.697840,1850.514855,383.047749
1309.436266,-10214.842000,2294.638420,1991.848295
1309.436587,-9844.739029,2294.638420,1991.848295
1309.436908,-9400.615463,0.000000,919.314598
1309.437228,-10584.944971,-888.247130,536.266849
1309.437549,-10510.924376,-1480.411884,2374.896044
1309.437870,-8142.265362,-1110.308913,536.266849
1309.438190,-9030.512492,-518.144159,766.095498
1309.438511,-9474.636058,0.000000,1225.752797
1309.438832,-8290.306550,370.102971,1991.848295
1309.439152,-8808.450710,-1332.370696,2221.676944
1309.439473,-9918.759623,-2072.576638,2451.505594
1309.439794,-9326.594869,-3108.864956,1455.581446
1309.440115,-9252.574275,-2146.597232,995.924147
1309.440435,-9770.718434,740.205942,1762.019645
1309.440756,-9696.697840,1776.494261,2068.457845
1309.441077,-8512.368333,2072.576638,2145.067394
1309.441397,-9622.677246,148.041188,1455.581446
1309.441718,-10066.800811,-1628.453072,536.266849
1309.442039,-9918.759623,-1554.432478,459.657299
1309.442360,-9474.636058,-296.082377,919.314598
1309.442680,-9548.656652,1406.391290,1378.971896
1309.443001,-9622.677246,888.247130,1991.848295
1309.443322,-8734.430116,-148.041188,1378.971896
1309.443642,-9770.718434,-1998.556043,1072.533697
1309.443963,-10288.862594,-3034.844362,459.657299
1309.444284,-9326.594869,-2368.659014,153.219100
1309.444604,-9326.594869,444.123565,153.219100
1309.444925,-10214.842000,1850.514855,1149.143247
1309.445246,-9474.636058,1480.411884,1378.971896
1309.445567,-8882.471304,518.144159,1455.581446
1309.445887,-10732.986159,-1850.514855,153.219100
1309.446208,-10510.924376,-2442.679609,0.000000
1309.446529,-9474.636058,-1184.329507,689.485948
1309.446849,-9992.780217,888.247130,1762.019645
1309.447170,-10214.842000,1480.411884,1685.410096
1309.447491,-7994.224174,1110.308913,1072.533697
1309.447812,-9548.656652,-1258.350101,306.438199
1309.448132,-8956.491898,-518.144159,1149.143247
1309.448453,-10955.047942,-3034.844362,842.705048
1309.448774,-9622.677246,-1332.370696,1455.581446
1309.449094,-9474.636058,1406.391290,1072.533697
1309.449415,-10362.883188,2072.576638,1302.362347
1309.449736,-8660.409521,2516.700203,1991.848295
1309.450056,-9548.656652,444.123565,3600.648841
1309.450377,-10140.821405,-2146.597232,1532.190996
1309.450698,-9992.780217,-2590.720797,1149.143247
1309.451019,-9400.615463,-1850.514855,1225.752797
1309.451339,-9770.718434,-1628.453072,1532.190996
1309.451660,-8586.388927,0.000000,1608.800546
1309.451981,-8734.430116,-1554.432478,1302.362347
1309.452301,-8438.347739,-1258.350101,612.876398
1309.452622,-9622.677246,-2960.823768,-612.876398
1309.452943,-8956.491898,-1184.329507,-1762.019645
1309.453264,-9548.656652,444.123565,-536.266849
1309.453584,-9918.759623,2516.700203,1072.533697
1309.453905,-10807.006753,2294.638420,2374.896044
1309.454226,-9844.739029,1924.535449,3217.601092
1309.454546,-11917.315666,-2812.782580,2145.067394
1309.454867,-10807.006753,-4293.194464,2145.067394
1309.455188,-10658.965565,-3849.070898,2068.457845
1309.455508,-8734.430116,-740.205942,1762.019645
1309.455829,-9178.553681,1184.329507,1072.533697
1309.456150,-8290.306550,2072.576638,229.828649
1309.456471,-7772.162391,1332.370696,76.609550
1309.456791,-9696.697840,-222.061783,0.000000
1309.457112,-9474.636058,-962.267725,-153.219100
1309.457433,-10288.862594,444.123565,842.705048
1309.457753,-11325.150913,1850.514855,2834.553343
1309.458074,-11991.336260,2072.576638,3830.477490
1309.458395,-11251.130318,1554.432478,2451.505594
1309.458716,-9992.780217,-1110.308913,1762.019645
1309.459036,-9548.656652,-1184.329507,0.000000
1309.459357,-9252.574275,-740.205942,0.000000
1309.459678,-7994.224174,370.102971,-153.219100
1309.459998,-8660.409521,1036.288319,689.485948
1309.460319,-8512.368333,-444.123565,459.657299
1309.460640,-8512.368333,-1776.494261,1072.533697
1309.460960,-9400.615463,-2664.741391,1915.238745
1309.461281,-11325.150913,-3701.029710,2528.115143
1309.461602,-10362.883188,-2442.679609,1991.848295
1309.461923,-9844.739029,0.000000,1149.143247
1309.462243,-9548.656652,2146.597232,612.876398
1309.462564,-10140.821405,3330.926739,-612.876398
1309.462885,-8586.388927,1628.453072,229.828649
1309.463205,-9326.594869,814.226536,229.828649
1309.463526,-10066.800811,-1110.308913,0.000000
1309.463847,-8956.491898,-1998.556043,229.828649
1309.464168,-9474.636058,-1924.535449,383.047749
1309.464488,-9770.718434,-962.267725,1455.581446
1309.464809,-9178.553681,-370.102971,1532.190996
1309.465130,-10214.842000,-962.267725,2911.162892
1309.465450,-9770.718434,-1480.411884,1608.800546
1309.465771,-10066.800811,-1554.432478,229.828649
1309.466092,-9770.718434,0.000000,-229.828649
1309.466412,-9104.533087,1998.556043,-153.219100
1309.466733,-10288.862594,3552.988522,-536.266849
1309.467054,-9178.553681,1036.288319,0.000000
1309.467375,-9030.512492,-148.041188,-536.266849
1309.467695,-11103.089130,-1850.514855,0.000000
1309.468016,-11103.089130,-1702.473667,229.828649
1309.468337,-10732.986159,1258.350101,1838.629195
1309.468657,-10658.965565,1036.288319,2374.896044
1309.468978,-10214.842000,518.144159,1455.581446
1309.469299,-8882.471304,-444.123565,536.266849
1309.469620,-8586.388927,-2072.576638,-536.266849
1309.469940,-8660.409521,-1776.494261,-383.047749
1309.470261,-9326.594869,-1480.411884,459.657299
1309.470582,-7846.182985,-444.123565,0.000000
1309.470902,-8512.368333,2516.700203,306.438199
1309.471223,-10362.883188,1998.556043,2451.505594
1309.471544,-9918.759623,2072.576638,3217.601092
1309.471864,-11177.109724,-296.082377,4213.525239
1309.472185,-10584.944971,-1850.514855,2374.896044
1309.472506,-10288.862594,-1702.473667,3064.381992
1309.472827,-8734.430116,-1998.556043,2451.505594
1309.473147,-9030.512492,-1110.308913,2681.334243
1309.473468,-9104.533087,-888.247130,2374.896044
1309.473789,-8586.388927,-592.164754,2451.505594
1309.474109,-9474.636058,-1110.308913,1915.238745
1309.474430,-9770.718434,-1184.329507,1455.581446
1309.474751,-10066.800811,-1110.308913,1302.362347
1309.475072,-9400.615463,74.020594,766.095498
1309.475392,-10140.821405,1480.411884,1838.629195
1309.475713,-9770.718434,0.000000,2068.457845
1309.476034,-8956.491898,-1480.411884,1378.971896
1309.476354,-10214.842000,-3034.844362,459.657299
1309.476675,-9622.677246,-2738.761985,0.000000
1309.476996,-8882.471304,-1406.391290,229.828649
1309.477316,-9030.512492,592.164754,1072.533697
1309.477637,-9844.739029,814.226536,919.314598
1309.477958,-9844.739029,0.000000,689.485948
1309.478279,-9474.636058,-1258.350101,1685.410096
1309.478599,-10436.903782,-3775.050304,919.314598
1309.478920,-9474.636058,-3256.906145,995.924147
1309.479241,-9770.718434,-2072.576638,-995.924147
1309.479562,-8882.471304,1406.391290,-383.047749
1309.479882,-9918.759623,3404.947333,-383.047749
1309.480203,-8808.450710,3552.988522,459.657299
1309.480524,-9696.697840,2072.576638,306.438199
1309.480845,-10584.944971,370.102971,153.219100
1309.481165,-11399.171507,-962.267725,459.657299
1309.481486,-10140.821405,0.000000,1378.971896
1309.481807,-11325.150913,888.247130,2451.505594
1309.482128,-9400.615463,1036.288319,2298.286494
1309.482448,-9178.553681,0.000000,1608.800546
1309.482769,-9474.636058,-1628.453072,1455.581446
1309.483090,-9326.594869,-1850.514855,306.438199
1309.483411,-9622.677246,-2516.700203,229.828649
1309.483731,-9178.553681,-666.185348,766.095498
1309.484052,-8438.347739,888.247130,1302.362347
1309.484373,-9844.739029,1850.514855,1685.410096
1309.484694,-9770.718434,444.123565,2374.896044
1309.485014,-9326.594869,-1776.494261,919.314598
1309.485335,-10955.047942,-2368.659014,536.266849
1309.485656,-9030.512492,-888.247130,-306.438199
1309.485977,-9696.697840,1406.391290,1225.752797
1309.486297,-10584.944971,1628.453072,2145.067394
1309.486618,-8512.368333,1702.473667,995.924147
1309.486939,-9992.780217,444.123565,1838.629195
1309.487260,-10436.903782,-1998.556043,1991.848295
1309.487580,-8734.430116,-3256.906145,1915.238745
1309.487901,-9992.780217,-3849.070898,1685.410096
1309.488222,-9178.553681,-888.247130,1455.581446
1309.488542,-9030.512492,444.123565,1838.629195
1309.488863,-9400.615463,296.082377,2068.457845
1309.489184,-8808.450710,0.000000,919.314598
1309.489505,-9844.739029,-1628.453072,0.000000
1309.489825,-9474.636058,-1480.411884,-383.047749
1309.490146,-8882.471304,444.123565,0.000000
1309.490467,-10436.903782,740.205942,1072.533697
1309.490788,-9178.553681,1332.370696,1762.019645
1309.491108,-9178.553681,592.164754,1455.581446
1309.491429,-9548.656652,-148.041188,1455.581446
1309.491750,-10584.944971,-592.164754,1149.143247
1309.492071,-8882.471304,-296.082377,919.314598
1309.492391,-9548.656652,-222.061783,-306.438199
1309.492712,-9400.615463,2664.741391,1225.752797
1309.493033,-9104.533087,1776.494261,1072.533697
1309.493354,-9474.636058,-148.041188,1455.581446
1309.493674,-9844.739029,-1480.411884,1915.238745
1309.493995,-10140.821405,-2368.659014,689.485948
1309.494316,-9844.739029,-1850.514855,1302.362347
1309.494637,-8734.430116,0.000000,1991.848295
1309.494957,-9696.697840,1110.308913,1685.410096
1309.495278,-9696.697840,1184.329507,1762.019645
1309.495599,-9178.553681,888.247130,919.314598
1309.495920,-9474.636058,-962.267725,536.266849
1309.496240,-10140.821405,-3182.885551,306.438199
1309.496561,-8956.491898,-2664.741391,-383.047749
1309.496882,-9474.636058,-148.041188,229.828649
1309.497203,-10584.944971,1332.370696,919.314598
1309.497523,-9252.574275,1924.535449,1838.629195
1309.497844,-9992.780217,-222.061783,1608.800546
1309.498165,-9992.780217,-1924.535449,383.047749
1309.498486,-10436.903782,-2146.597232,306.438199
1309.498806,-9474.636058,-1776.494261,1149.143247
1309.499127,-9548.656652,-1258.350101,1608.800546
1309.499448,-9770.718434,-370.102971,1608.800546
1309.499769,-8956.491898,-888.247130,1455.581446
1309.500089,-8142.265362,-1628.453072,229.828649
1309.500410,-10066.800811,-1924.535449,1455.581446
1309.500731,-9474.636058,-2072.576638,229.828649
1309.501051,-9104.533087,740.205942,0.000000
1309.501372,-9030.512492,3552.988522,383.047749
1309.501693,-9992.780217,3478.967927,306.438199
1309.502014,-8438.347739,1998.556043,842.705048
1309.502334,-9622.677246,-1110.308913,536.266849
1309.502655,-10066.800811,-1554.432478,1608.800546
1309.502976,-11991.336260,-2886.803174,3064.381992
1309.503297,-10510.924376,-2072.576638,4060.306139
1309.503617,-10362.883188,-1628.453072,3370.820191
1309.503938,-9400.615463,-444.123565,2528.115143
1309.504259,-8364.327145,74.020594,153.219100
1309.504580,-9474.636058,-1776.494261,1302.362347
1309.504900,-8216.285956,-2146.597232,-306.438199
1309.505221,-7179.997637,-1554.432478,-2451.505594
1309.505542,-9104.533087,1776.494261,-153.219100
1309.505863,-10436.903782,2368.659014,2145.067394
1309.506183,-11251.130318,1332.370696,4060.306139
1309.506504,-10955.047942,-1184.329507,3677.258390
1309.506825,-10584.944971,-3034.844362,1378.971896
1309.507146,-10807.006753,-2812.782580,1072.533697
1309.507466,-9844.739029,-1036.288319,76.609550
1309.507787,-8290.306550,1924.535449,0.000000
1309.508108,-8364.327145,1702.473667,-1225.752797
1309.508429,-7328.038826,962.267725,-2451.505594
1309.508749,-8956.491898,-370.102971,-995.924147
1309.509070,-10658.965565,-2146.597232,766.095498
1309.509391,-10584.944971,-3330.926739,459.657299
1309.509712,-10288.862594,-1332.370696,1378.971896
1309.510032,-10807.006753,518.144159,1302.362347
1309.510353,-11251.130318,2368.659014,2145.067394
1309.510674,-10510.924376,2294.638420,2451.505594
1309.510995,-10214.842000,666.185348,306.438199
1309.511315,-9770.718434,-518.144159,-1072.533697
1309.511636,-9326.594869,-888.247130,-766.095498
1309.511957,-9474.636058,-1184.329507,306.438199
1309.512278,-9622.677246,-1258.350101,459.657299
1309.512598,-9104.533087,-222.061783,229.828649
1309.512919,-8808.450710,-296.082377,1378.971896
1309.513240,-9918.759623,-1110.308913,1302.362347
1309.513560,-10510.924376,-814.226536,1915.238745
1309.513881,-9696.697840,-148.041188,76.609550
1309.514202,-9178.553681,2220.617826,153.219100
1309.514523,-10658.965565,2146.597232,2604.724693
1309.514843,-9178.553681,296.082377,2528.115143
1309.515164,-8142.265362,-2220.617826,1532.190996
1309.515485,-9474.636058,-3330.926739,0.000000
1309.515806,-9400.615463,-2146.597232,689.485948
1309.516126,-10214.842000,-148.041188,1762.019645
1309.516447,-10658.965565,1332.370696,3217.601092
1309.516768,-10436.903782,296.082377,3217.601092
1309.517089,-8956.491898,370.102971,1991.848295
1309.517409,-9400.615463,-1924.535449,1302.362347
1309.517730,-9400.615463,-3256.906145,153.219100
1309.518051,-8734.430116,-2146.597232,-306.438199
1309.518372,-7550.100608,-444.123565,-842.705048
1309.518692,-8068.244768,2072.576638,-306.438199
1309.519013,-9548.656652,2516.700203,1685.410096
1309.519334,-10510.924376,296.082377,2451.505594
1309.519655,-9918.759623,296.082377,2298.286494
1309.519975,-11695.253884,-1998.556043,2528.115143
1309.520296,-10732.986159,-2146.597232,1991.848295
1309.520617,-9548.656652,-1184.329507,2374.896044
1309.520938,-9104.533087,-518.144159,1072.533697
1309.521258,-8216.285956,592.164754,766.095498
1309.521579,-8956.491898,0.000000,919.314598
1309.521900,-10140.821405,-1184.329507,1608.800546
1309.522221,-10881.027347,-1036.288319,1915.238745
1309.522541,-9696.697840,-444.123565,612.876398
1309.522862,-9844.739029,1332.370696,1072.533697
1309.523183,-10214.842000,3108.864956,1991.848295
1309.523504,-10732.986159,1036.288319,2068.457845
1309.523824,-9178.553681,444.123565,2068.457845
1309.524145,-10066.800811,-2294.638420,766.095498
1309.524466,-9696.697840,-2886.803174,0.000000
1309.524787,-9844.739029,-1258.350101,689.485948
1309.525107,-9622.677246,1406.391290,1149.143247
1309.525428,-10140.821405,1850.514855,1685.410096
1309.525749,-9252.574275,1036.288319,1685.410096
1309.526069,-8142.265362,-666.185348,459.657299
1309.526390,-9844.739029,-2146.597232,689.485948
1309.526711,-10584.944971,-2738.761985,1149.143247
1309.527032,-9104.533087,-1998.556043,842.705048
1309.527352,-8808.450710,74.020594,383.047749
1309.527673,-9696.697840,1332.370696,1149.143247
1309.527994,-9252.574275,888.247130,1302.362347
1309.528315,-9104.533087,-518.144159,1302.362347
1309.528635,-9474.636058,-2738.761985,0.000000
1309.528956,-8808.450710,-2516.700203,-842.705048
1309.529277,-9252.574275,-1702.473667,919.314598
1309.529598,-10066.800811,74.020594,2068.457845
1309.529918,-11621.233289,-296.082377,2528.115143
1309.530239,-9622.677246,0.000000,2374.896044
1309.530560,-10066.800811,740.205942,1302.362347
1309.530881,-10881.027347,-592.164754,689.485948
1309.531201,-9474.636058,-888.247130,-383.047749
1309.531522,-9400.615463,0.000000,-229.828649
1309.531843,-8734.430116,814.226536,-766.095498
1309.532164,-8956.491898,888.247130,-229.828649
1309.532484,-9252.574275,296.082377,536.266849
1309.532805,-10066.800811,-222.061783,842.705048
1309.533126,-11547.212695,-1258.350101,919.314598
1309.533447,-9696.697840,-222.061783,459.657299
1309.533767,-9252.574275,-1480.411884,1225.752797
1309.534088,-10362.883188,-1184.329507,1532.190996
1309.534409,-9252.574275,-444.123565,689.485948
1309.534730,-8660.409521,222.061783,995.924147
1309.535050,-9548.656652,-370.102971,306.438199
1309.535371,-8660.409521,222.061783,-76.609550
1309.535692,-9918.759623,-592.164754,229.828649
1309.536013,-9622.677246,1184.329507,383.047749
1309.536333,-10807.006753,2294.638420,2145.067394
1309.536654,-10732.986159,-666.185348,2451.505594
1309.536975,-8512.368333,740.205942,2451.505594
1309.537296,-11621.233289,-1702.473667,2451.505594
1309.537616,-9030.512492,-666.185348,1608.800546
1309.537937,-9326.594869,-740.205942,2068.457845
1309.538258,-8956.491898,-888.247130,1762.019645
1309.538578,-8216.285956,-444.123565,689.485948
1309.538899,-8734.430116,518.144159,2451.505594
1309.539220,-8586.388927,222.061783,1225.752797
1309.539541,-10066.800811,-296.082377,1225.752797
1309.539861,-9770.718434,-962.267725,995.924147
1309.540182,-9178.553681,0.000000,459.657299
1309.540503,-10881.027347,1184.329507,919.314598
1309.540824,-10140.821405,1702.473667,1532.190996
1309.541144,-9918.759623,444.123565,1991.848295
1309.541465,-9622.677246,-518.144159,1608.800546
1309.541786,-10955.047942,-1924.535449,1225.752797
1309.542107,-9548.656652,-1332.370696,2068.457845
1309.542427,-9474.636058,-1554.432478,1991.848295
1309.542748,-9918.759623,-1554.432478,1608.800546
1309.543069,-9178.553681,-1184.329507,919.314598
1309.543390,-8512.368333,-962.267725,153.219100
1309.543710,-9474.636058,0.000000,995.924147
1309.544031,-10214.842000,222.061783,153.219100
1309.544352,-9548.656652,592.164754,459.657299
1309.544673,-9548.656652,1406.391290,383.047749
1309.544993,-10288.862594,1554.432478,459.657299
1309.545314,-9918.759623,518.144159,1149.143247
1309.545635,-9622.677246,518.144159,1455.581446
1309.545956,-10066.800811,-592.164754,1072.533697
1309.546276,-10362.883188,-962.267725,995.924147
1309.546597,-9178.553681,-740.205942,842.705048
1309.546918,-9474.636058,-370.102971,1149.143247
1309.547239,-9918.759623,-296.082377,689.485948
1309.547559,-8438.347739,-370.102971,1149.143247
1309.547880,-8586.388927,-1110.308913,919.314598
1309.548201,-9252.574275,-1184.329507,766.095498
1309.548522,-9918.759623,-2220.617826,536.266849
1309.548842,-8290.306550,-1554.432478,306.438199
1309.549163,-9326.594869,0.000000,0.000000
1309.549484,-9252.574275,1332.370696,383.047749
1309.549805,-8660.409521,1258.350101,689.485948
1309.550125,-8808.450710,222.061783,689.485948
1309.550446,-9844.739029,-962.267725,306.438199
1309.550767,-9622.677246,-1406.391290,536.266849
1309.551087,-9992.780217,-1702.473667,1915.238745
1309.551408,-10510.924376,-1184.329507,2451.505594
1309.551729,-10362.883188,-1332.370696,2911.162892
1309.552050,-9400.615463,-1184.329507,2528.115143
1309.552370,-9178.553681,-1554.432478,1149.143247
1309.552691,-10066.800811,-2442.679609,-612.876398
1309.553012,-8216.285956,-666.185348,-995.924147
1309.553333,-8438.347739,444.123565,-1072.533697
1309.553653,-9992.780217,1776.494261,612.876398
1309.553974,-9770.718434,1332.370696,612.876398
1309.554295,-9474.636058,814.226536,2374.896044
1309.554616,-11177.109724,74.020594,2374.896044
1309.554936,-11843.295072,-666.185348,2528.115143
1309.555257,-10881.027347,-444.123565,3830.477490
1309.555578,-10807.006753,-1554.432478,2604.724693
1309.555899,-9770.718434,-1110.308913,1991.848295
1309.556219,-9104.533087,-1554.432478,1149.143247
1309.556540,-8216.285956,-962.267725,76.609550
1309.556861,-8216.285956,370.102971,0.000000
1309.557182,-8660.409521,-666.185348,-536.266849
1309.557502,-7624.121203,1110.308913,-995.924147
1309.557823,-9474.636058,888.247130,0.000000
1309.558144,-10510.924376,1702.473667,2068.457845
1309.558465,-10214.842000,962.267725,2987.772442
1309.558785,-10362.883188,-1406.391290,2834.553343
1309.559106,-10362.883188,-2590.720797,1225.752797
1309.559427,-9548.656652,-1628.453072,842.705048
1309.559748,-9252.574275,-444.123565,2145.067394
1309.560068,-9326.594869,0.000000,2374.896044
1309.560389,-9252.574275,-962.267725,1225.752797
1309.560710,-7846.182985,-1406.391290,-536.266849
1309.561031,-8364.327145,-1036.288319,229.828649
1309.561351,-9326.594869,-1554.432478,842.705048
1309.561672,-9030.512492,-1258.350101,842.705048
1309.561993,-8660.409521,-740.205942,229.828649
1309.562314,-9474.636058,1406.391290,383.047749
1309.562634,-11103.089130,814.226536,1991.848295
1309.562955,-9770.718434,1924.535449,2451.505594
1309.563276,-11695.253884,296.082377,1915.238745
1309.563596,-9548.656652,-518.144159,153.219100
1309.563917,-9252.574275,0.000000,1072.533697
1309.564238,-9770.718434,-1258.350101,1149.143247
1309.564559,-10140.821405,-1258.350101,1762.019645
1309.564879,-9992.780217,-1258.350101,383.047749
1309.565200,-9104.533087,-666.185348,919.314598
1309.565521,-9918.759623,-592.164754,-153.219100
1309.565842,-10362.883188,-888.247130,0.000000
1309.566162,-9918.759623,74.020594,-229.828649
1309.566483,-9030.512492,2368.659014,-842.705048
1309.566804,-9622.677246,2220.617826,153.219100
1309.567125,-9326.594869,2294.638420,76.609550
1309.567445,-9622.677246,0.000000,919.314598
1309.567766,-10807.006753,-962.267725,1072.533697
1309.568087,-10436.903782,-1036.288319,1991.848295
1309.568408,-9474.636058,-740.205942,1838.629195
1309.568728,-10658.965565,74.020594,2834.553343
1309.569049,-9992.780217,296.082377,2681.334243
1309.569370,-8364.327145,0.000000,1608.800546
1309.569691,-8512.368333,-74.020594,2451.505594
1309.570011,-8734.430116,-2738.761985,1072.533697
1309.570332,-8512.368333,-3034.844362,766.095498
1309.570653,-8808.450710,-1406.391290,842.705048
1309.570974,-9252.574275,370.102971,842.705048
1309.571294,-9622.677246,2738.761985,2528.115143
1309.571615,-9918.759623,1332.370696,3294.210641
1309.571936,-9178.553681,-518.144159,1225.752797
1309.572257,-10732.986159,-1480.411884,995.924147
1309.572577,-9696.697840,-2072.576638,1072.533697
1309.572898,-8512.368333,-1406.391290,995.924147
1309.573219,-9622.677246,-1184.329507,1455.581446
1309.573540,-8512.368333,-370.102971,536.266849
1309.573860,-8734.430116,444.123565,612.876398
1309.574181,-10510.924376,-370.102971,995.924147
1309.574502,-9548.656652,-1110.308913,76.609550
1309.574823,-9474.636058,-740.205942,-229.828649
1309.575143,-10140.821405,444.123565,-919.314598
1309.575464,-10362.883188,1998.556043,1685.410096
1309.575785,-10214.842000,444.123565,1762.019645
1309.576105,-9326.594869,-1036.288319,1149.143247
1309.576426,-10214.842000,-1998.556043,0.000000
1309.576747,-10436.903782,-1924.535449,-536.266849
1309.577068,-8956.491898,-444.123565,76.609550
1309.577389,-9548.656652,518.144159,995.924147
1309.577709,-9548.656652,666.185348,919.314598
1309.578030,-9474.636058,-296.082377,459.657299
1309.578351,-9548.656652,-2368.659014,306.438199
1309.578672,-9030.512492,-592.164754,612.876398
1309.578993,-11399.171507,-2368.659014,995.924147
1309.579314,-7624.121203,-1406.391290,689.485948
1309.579634,-8882.471304,1406.391290,536.266849
1309.579955,-10807.006753,1480.411884,612.876398
1309.580276,-9030.512492,1998.556043,1608.800546
1309.580597,-9844.739029,148.041188,2451.505594
1309.580918,-11325.150913,-1628.453072,2604.724693
1309.581239,-7920.203579,-1776.494261,612.876398
1309.581559,-10288.862594,-962.267725,2221.676944
1309.581880,-8586.388927,-814.226536,1915.238745
1309.582201,-9252.574275,0.000000,612.876398
1309.582522,-8882.471304,148.041188,2374.896044
1309.582843,-9030.512492,-666.185348,1532.190996
1309.583163,-9474.636058,-2294.638420,766.095498
1309.583484,-8216.285956,-592.164754,1991.848295
1309.583805,-9030.512492,-518.144159,536.266849
1309.584126,-9992.780217,1776.494261,1685.410096
1309.584447,-11029.068536,1036.288319,2681.334243
1309.584768,-8808.450710,0.000000,1302.362347
1309.585088,-9548.656652,-1628.453072,1225.752797
1309.585409,-10140.821405,-1924.535449,306.438199
1309.585730,-9474.636058,0.000000,1608.800546
1309.586051,-10214.842000,0.000000,2145.067394
1309.586372,-9844.739029,0.000000,2221.676944
1309.586693,-9178.553681,-1332.370696,1072.533697
1309.587013,-9400.615463,-2516.700203,995.924147
1309.587334,-9770.718434,-1406.391290,1685.410096
1309.587655,-10881.027347,-1406.391290,1685.410096
1309.587976,-9770.718434,1258.350101,1149.143247
1309.588297,-10214.842000,3256.906145,919.314598
1309.588618,-9844.739029,3404.947333,766.095498
1309.588938,-9770.718434,1776.494261,995.924147
1309.589259,-9474.636058,666.185348,766.095498
1309.589580,-10436.903782,-222.061783,153.219100
1309.589901,-10140.821405,0.000000,76.609550
1309.590222,-9252.574275,1036.288319,1149.143247
1309.590543,-9474.636058,1110.308913,3217.601092
1309.590863,-9696.697840,-148.041188,2298.286494
1309.591184,-8586.388927,-1554.432478,1915.238745
1309.591505,-9326.594869,-3478.967927,1149.143247
1309.591826,-9770.718434,-3849.070898,1225.752797
1309.592147,-8882.471304,-2368.659014,-229.828649
1309.592468,-8956.491898,148.041188,919.314598
1309.592788,-9104.533087,1258.350101,1302.362347
1309.593109,-9326.594869,740.205942,1532.190996
1309.593430,-9474.636058,-740.205942,1072.533697
1309.593751,-9548.656652,-1924.535449,612.876398
1309.594072,-10288.862594,-2368.659014,459.657299
1309.594393,-9104.533087,-1480.411884,536.266849
1309.594713,-9326.594869,-370.102971,919.314598
1309.595034,-9252.574275,0.000000,1915.238745
1309.595355,-9474.636058,-296.082377,536.266849
1309.595676,-8660.409521,-370.102971,766.095498
1309.595997,-10214.842000,-1776.494261,919.314598
1309.596317,-10436.903782,-2368.659014,689.485948
1309.596638,-9474.636058,-1110.308913,459.657299
1309.596959,-9622.677246,0.000000,383.047749
1309.597280,-10510.924376,1554.432478,1838.629195
1309.597601,-9770.718434,814.226536,1762.019645
1309.597922,-9992.780217,740.205942,995.924147
1309.598242,-10436.903782,0.000000,383.047749
1309.598563,-9844.739029,0.000000,76.609550
1309.598884,-9252.574275,1184.329507,459.657299
1309.599205,-9770.718434,1554.432478,1225.752797
1309.599526,-9696.697840,888.247130,1225.752797
1309.599847,-9548.656652,-222.061783,1302.362347
1309.600167,-9622.677246,-1406.391290,1225.752797
1309.600488,-9844.739029,-1554.432478,1302.362347
1309.600809,-10955.047942,-2146.597232,919.314598
1309.601130,-8734.430116,-518.144159,842.705048
1309.601451,-9622.677246,1554.432478,459.657299
1309.601772,-10140.821405,2220.617826,1762.019645
1309.602092,-8734.430116,1850.514855,1762.019645
1309.602413,-10066.800811,-888.247130,1608.800546
1309.602734,-9252.574275,-2146.597232,229.828649
1309.603055,-8882.471304,-1480.411884,689.485948
1309.603376,-8142.265362,-814.226536,3907.087040
1309.603697,-9918.759623,518.144159,3524.039291
1309.604017,-10510.924376,-1036.288319,3830.477490
1309.604338,-8808.450710,-1702.473667,3064.381992
1309.604659,-9474.636058,-2664.741391,2068.457845
1309.604980,-9548.656652,-2886.803174,842.705048
1309.605301,-8290.306550,-1702.473667,-153.219100
1309.605622,-7846.182985,962.267725,383.047749
1309.605942,-8290.306550,962.267725,153.219100
1309.606263,-7698.141797,74.020594,153.219100
1309.606584,-9474.636058,-1554.432478,995.924147
1309.606905,-10066.800811,-2368.659014,612.876398
1309.607226,-10732.986159,-1850.514855,689.485948
1309.607547,-9992.780217,-296.082377,3064.381992
1309.607867,-10140.821405,74.020594,1991.848295
1309.608188,-10510.924376,-666.185348,2298.286494
1309.608509,-9474.636058,-962.267725,1608.800546
1309.608830,-9474.636058,-222.061783,919.314598
1309.609151,-10732.986159,-1702.473667,536.266849
1309.609472,-9474.636058,-962.267725,-612.876398
1309.609792,-9474.636058,1406.391290,0.000000
1309.610113,-9770.718434,1998.556043,-689.485948
1309.610434,-9548.656652,2812.782580,0.000000
1309.610755,-10510.924376,1702.473667,1532.190996
1309.611076,-10214.842000,0.000000,1225.752797
1309.611396,-11399.171507,-1110.308913,689.485948
1309.611717,-9252.574275,370.102971,766.095498
1309.612038,-10214.842000,962.267725,1455.581446
1309.612359,-10732.986159,1184.329507,1608.800546
1309.612680,-9326.594869,962.267725,995.924147
1309.613001,-8586.388927,370.102971,536.266849
1309.613321,-10140.821405,-518.144159,1608.800546
1309.613642,-10584.944971,-666.185348,1455.581446
1309.613963,-10436.903782,-1554.432478,1915.238745
1309.614284,-8956.491898,0.000000,1225.752797
1309.614605,-9474.636058,1110.308913,1072.533697
1309.614926,-9696.697840,0.000000,1608.800546
1309.615246,-8216.285956,-296.082377,689.485948
1309.615567,-9622.677246,-1776.494261,459.657299
1309.615888,-9400.615463,-1628.453072,-306.438199
1309.616209,-8438.347739,-1110.308913,689.485948
1309.616530,-9474.636058,-1628.453072,1302.362347
1309.616851,-9622.677246,-370.102971,1991.848295
1309.617171,-9918.759623,-666.185348,2221.676944
1309.617492,-8660.409521,-962.267725,1532.190996
1309.617813,-10140.821405,-1480.411884,1455.581446
1309.618134,-10510.924376,-1184.329507,1455.581446
1309.618455,-8660.409521,0.000000,612.876398
1309.618776,-9918.759623,1406.391290,919.314598
1309.619096,-8882.471304,1332.370696,1378.971896
1309.619417,-9326.594869,-814.226536,919.314598
1309.619738,-8586.388927,-1998.556043,536.266849
1309.620059,-10214.842000,-2516.700203,612.876398
1309.620380,-9622.677246,-666.185348,459.657299
1309.620701,-9474.636058,1036.288319,1378.971896
1309.621021,-11103.089130,1776.494261,1838.629195
1309.621342,-10436.903782,962.267725,1302.362347
1309.621663,-8808.450710,0.000000,0.000000
1309.621984,-9326.594869,-962.267725,306.438199
1309.622305,-9992.780217,-2368.659014,-383.047749
1309.622626,-9770.718434,-1332.370696,153.219100
1309.622946,-8216.285956,222.061783,995.924147
1309.623267,-9548.656652,1184.329507,0.000000
1309.623588,-9474.636058,2664.741391,1762.019645
1309.623909,-10140.821405,296.082377,1838.629195
1309.624230,-9696.697840,-222.061783,1608.800546
1309.624551,-10955.047942,-1110.308913,1302.362347
1309.624871,-9030.512492,-1850.514855,1225.752797
1309.625192,-9326.594869,-518.144159,1915.238745
1309.625513,-10881.027347,-1036.288319,2374.896044
1309.625834,-8734.430116,-296.082377,1762.019645
1309.626155,-9548.656652,-666.185348,2068.457845
1309.626475,-9178.553681,-888.247130,1225.752797
1309.626796,-9474.636058,-666.185348,612.876398
1309.627117,-9474.636058,0.000000,612.876398
1309.627438,-8660.409521,1110.308913,919.314598
1309.627759,-9992.780217,1036.288319,1302.362347
1309.628080,-8956.491898,-148.041188,1455.581446
1309.628400,-9178.553681,-814.226536,689.485948
1309.628721,-10140.821405,-1702.473667,1225.752797
1309.629042,-9992.780217,-2368.659014,919.314598
1309.629363,-9474.636058,-814.226536,1455.581446
1309.629684,-9770.718434,-888.247130,1608.800546
1309.630005,-9622.677246,-962.267725,1072.533697
1309.630325,-8956.491898,0.000000,1149.143247
1309.630646,-9252.574275,-296.082377,1302.362347
1309.630967,-10362.883188,-1036.288319,1378.971896
1309.631288,-9918.759623,-740.205942,1149.143247
1309.631609,-9400.615463,-666.185348,229.828649
1309.631930,-9548.656652,666.185348,612.876398
1309.632250,-10140.821405,1258.350101,1685.410096
1309.632571,-10066.800811,0.000000,2145.067394
1309.632892,-10140.821405,-1258.350101,1225.752797
1309.633213,-10140.821405,-370.102971,153.219100
1309.633534,-9844.739029,74.020594,1149.143247
1309.633855,-9696.697840,592.164754,1608.800546
1309.634175,-9474.636058,1036.288319,1608.800546
1309.634496,-9696.697840,-370.102971,459.657299
1309.634817,-8734.430116,0.000000,536.266849
1309.635138,-9918.759623,-1110.308913,919.314598
1309.635459,-10584.944971,-1850.514855,1149.143247
1309.635780,-8808.450710,-370.102971,153.219100
1309.636100,-9548.656652,1480.411884,0.000000
1309.636421,-9696.697840,1406.391290,536.266849
1309.636742,-9252.574275,888.247130,919.314598
1309.637063,-9548.656652,-1258.350101,1302.362347
1309.637384,-9770.718434,-2368.659014,229.828649
1309.637705,-9548.656652,-2442.679609,0.000000
1309.638025,-8882.471304,-1036.288319,-229.828649
1309.638346,-9474.636058,222.061783,1072.533697
1309.638667,-9844.739029,1406.391290,1915.238745
1309.638988,-9918.759623,592.164754,1455.581446
1309.639309,-9178.553681,-370.102971,459.657299
1309.639629,-9622.677246,-740.205942,-153.219100
1309.639950,-9474.636058,-1628.453072,-153.219100
1309.640271,-9104.533087,0.000000,153.219100
1309.640592,-9474.636058,1998.556043,689.485948
1309.640913,-10955.047942,1776.494261,1378.971896
1309.641234,-9030.512492,740.205942,1685.410096
1309.641554,-9770.718434,-1998.556043,383.047749
1309.641875,-9992.780217,-2368.659014,-689.485948
1309.642196,-8216.285956,0.000000,-842.705048
1309.642517,-9104.533087,1554.432478,612.876398
1309.642838,-9770.718434,1110.308913,1838.629195
1309.643159,-9548.656652,0.000000,2451.505594
1309.643479,-10881.027347,-2294.638420,3677.258390
1309.643800,-11473.192101,-3182.885551,3983.696590
1309.644121,-11621.233289,-4293.194464,3370.820191
1309.644442,-9992.780217,-2960.823768,1685.410096
1309.644763,-8364.327145,1480.411884,229.828649
1309.645084,-9844.739029,4737.318029,1302.362347
1309.645404,-8808.450710,3775.050304,1532.190996
1309.645725,-8290.306550,1184.329507,689.485948
1309.646046,-9622.677246,-1702.473667,76.609550
1309.646367,-9992.780217,-2442.679609,766.095498
1309.646688,-9548.656652,-1628.453072,2068.457845
1309.647009,-9770.718434,-1184.329507,2987.772442
1309.647329,-9992.780217,222.061783,3217.601092
1309.647650,-9622.677246,-592.164754,2681.334243
1309.647971,-8956.491898,-1480.411884,2374.896044
1309.648292,-10140.821405,-2738.761985,766.095498
1309.648613,-8808.450710,-1110.308913,0.000000
1309.648934,-9474.636058,-518.144159,0.000000
1309.649254,-8290.306550,1480.411884,689.485948
1309.649575,-9400.615463,1406.391290,995.924147
1309.649896,-9918.759623,518.144159,1225.752797
1309.650217,-9696.697840,-1406.391290,1455.581446
1309.650538,-10807.006753,-3108.864956,689.485948
1309.650859,-10881.027347,-1258.350101,1838.629195
1309.651179,-8586.388927,-222.061783,306.438199
1309.651500,-10584.944971,1110.308913,1149.143247
1309.651821,-8882.471304,1554.432478,1532.190996
1309.652142,-9252.574275,-740.205942,1149.143247
1309.652463,-9548.656652,-2886.803174,1608.800546
1309.652784,-10362.883188,-3478.967927,766.095498
1309.653104,-9992.780217,-2368.659014,0.000000
1309.653425,-10807.006753,1850.514855,229.828649
1309.653746,-9548.656652,3478.967927,919.314598
1309.654067,-8734.430116,3775.050304,536.266849
1309.654388,-8808.450710,888.247130,153.219100
1309.654708,-9178.553681,-148.041188,-919.314598
1309.655029,-7624.121203,-3330.926739,612.876398
1309.655350,-11177.109724,-1110.308913,1072.533697
1309.655671,-11547.212695,-666.185348,689.485948
1309.655992,-8216.285956,1036.288319,1455.581446
1309.656313,-10066.800811,1480.411884,1915.238745
1309.656633,-9918.759623,1258.350101,2374.896044
1309.656954,-9770.718434,-1184.329507,1455.581446
1309.657275,-9548.656652,-962.267725,-306.438199
1309.657596,-9400.615463,592.164754,-229.828649
1309.657917,-9696.697840,2590.720797,919.314598
1309.658238,-9548.656652,2072.576638,1532.190996
1309.658558,-8438.347739,444.123565,766.095498
1309.658879,-8586.388927,-740.205942,-383.047749
1309.659200,-10955.047942,-1702.473667,1072.533697
1309.659521,-10362.883188,-1554.432478,1991.848295
1309.659842,-10436.903782,-1258.350101,1838.629195
1309.660163,-10140.821405,0.000000,1991.848295
1309.660483,-9770.718434,-370.102971,1149.143247
1309.660804,-9178.553681,-962.267725,1149.143247
1309.661125,-9548.656652,-1406.391290,1072.533697
1309.661446,-9622.677246,-2442.679609,-229.828649
1309.661767,-10214.842000,-518.144159,-919.314598
1309.662088,-9622.677246,1924.535449,153.219100
1309.662408,-11029.068536,2886.803174,1915.238745
1309.662729,-11103.089130,2220.617826,3064.381992
1309.663050,-9622.677246,592.164754,2451.505594
1309.663371,-9992.780217,-2072.576638,536.266849
1309.663692,-9696.697840,-2738.761985,0.000000
1309.664013,-8660.409521,-2294.638420,-153.219100
1309.664333,-7772.162391,-740.205942,229.828649
1309.664654,-9030.512492,-296.082377,-229.828649
1309.664975,-7846.182985,0.000000,76.609550
1309.665296,-8734.430116,0.000000,1455.581446
1309.665617,-10510.924376,-888.247130,2528.115143
1309.665938,-10510.924376,-1776.494261,2757.943793
1309.666258,-10584.944971,-1924.535449,1915.238745
1309.666579,-9252.574275,0.000000,1149.143247
1309.666900,-9770.718434,1776.494261,1532.190996
1309.667221,-9770.718434,1776.494261,1072.533697
1309.667542,-6809.894666,666.185348,842.705048
1309.667863,-9548.656652,-1110.308913,0.000000
1309.668183,-7550.100608,-148.041188,-842.705048
1309.668504,-10362.883188,-1850.514855,1685.410096
1309.668825,-8586.388927,-296.082377,2987.772442
1309.669146,-10140.821405,-666.185348,2987.772442
1309.669467,-9030.512492,-296.082377,2145.067394
1309.669787,-9696.697840,-1480.411884,2451.505594
1309.670108,-11103.089130,-2368.659014,1685.410096
1309.670429,-9030.512492,-1850.514855,153.219100
1309.670750,-8660.409521,0.000000,0.000000
1309.671071,-9844.739029,2220.617826,0.000000
1309.671392,-9400.615463,2960.823768,689.485948
1309.671712,-9696.697840,666.185348,1149.143247
1309.672033,-9400.615463,-814.226536,1685.410096
1309.672354,-10584.944971,-2368.659014,689.485948
1309.672675,-10807.006753,-2664.741391,1455.581446
1309.672996,-9548.656652,-1110.308913,1915.238745
1309.673317,-10584.944971,-1036.288319,2757.943793
1309.673637,-10214.842000,-592.164754,3370.820191
1309.673958,-9548.656652,-592.164754,2374.896044
1309.674279,-8512.368333,-1776.494261,1838.629195
1309.674600,-10066.800811,-1036.288319,689.485948
1309.674921,-9474.636058,-666.185348,229.828649
1309.675242,-9326.594869,222.061783,0.000000
1309.675562,-8956.491898,2146.597232,1455.581446
1309.675883,-9178.553681,740.205942,0.000000
1309.676204,-9400.615463,0.000000,459.657299
1309.676525,-10362.883188,444.123565,1225.752797
1309.676846,-10436.903782,740.205942,1532.190996
1309.677167,-10584.944971,296.082377,2298.286494
1309.677487,-10066.800811,0.000000,1685.410096
1309.677808,-9104.533087,-444.123565,612.876398
1309.678129,-9400.615463,-148.041188,995.924147
1309.678450,-8438.347739,-296.082377,2221.676944
1309.678771,-9770.718434,-1406.391290,1072.533697
1309.679092,-9104.533087,-1332.370696,-536.266849
1309.679412,-8068.244768,-740.205942,-1608.800546
1309.679733,-8956.491898,888.247130,0.000000
1309.680054,-9918.759623,1184.329507,1149.143247
1309.680375,-9400.615463,370.102971,1149.143247
1309.680695,-9844.739029,-1258.350101,1608.800546
1309.681016,-10362.883188,-3108.864956,1225.752797
1309.681337,-10140.821405,-3034.844362,1072.533697
1309.681658,-9992.780217,-1850.514855,1838.629195
1309.681979,-9770.718434,-518.144159,1532.190996
1309.682299,-9622.677246,-222.061783,919.314598
1309.682620,-7179.997637,-148.041188,612.876398
1309.682941,-9474.636058,-1110.308913,536.266849
1309.683262,-9844.739029,-1184.329507,153.219100
1309.683582,-9622.677246,-814.226536,0.000000
1309.683903,-9326.594869,1036.288319,-459.657299
1309.684224,-9992.780217,1406.391290,153.219100
1309.684545,-8956.491898,2368.659014,1302.362347
1309.684866,-10214.842000,814.226536,1149.143247
1309.685186,-10214.842000,666.185348,2145.067394
1309.685507,-11029.068536,-2664.741391,1302.362347
1309.685828,-8882.471304,-296.082377,1685.410096
1309.686149,-10658.965565,-148.041188,1455.581446
1309.686469,-9622.677246,1776.494261,1915.238745
1309.686790,-9696.697840,2590.720797,919.314598
1309.687111,-9548.656652,666.185348,1608.800546
1309.687432,-9992.780217,-1184.329507,689.485948
1309.687753,-10066.800811,-3108.864956,229.828649
1309.688073,-8734.430116,-1406.391290,0.000000
1309.688394,-9474.636058,1258.350101,612.876398
1309.688715,-10436.903782,1850.514855,2068.457845
1309.689036,-8734.430116,1332.370696,1838.629195
1309.689356,-9622.677246,-518.144159,1072.533697
1309.689677,-10214.842000,0.000000,1149.143247
1309.689998,-9770.718434,-2072.576638,919.314598
1309.690319,-8882.471304,-1036.288319,1762.019645
1309.690640,-8660.409521,-370.102971,1149.143247
1309.690960,-9252.574275,-1036.288319,306.438199
1309.691281,-6735.874072,-148.041188,-76.609550
1309.691602,-8438.347739,-1406.391290,-229.828649
1309.691923,-8808.450710,-1850.514855,459.657299
1309.692243,-10362.883188,-2368.659014,1455.581446
1309.692564,-10436.903782,-666.185348,2987.772442
1309.692885,-11177.109724,0.000000,3294.210641
1309.693206,-10807.006753,74.020594,4213.525239
1309.693527,-9696.697840,-1184.329507,3294.210641
1309.693847,-9030.512492,-1776.494261,1302.362347
1309.694168,-8882.471304,-962.267725,0.000000
1309.694489,-7624.121203,0.000000,-153.219100
1309.694810,-8142.265362,0.000000,229.828649
1309.695130,-9400.615463,148.041188,1072.533697
1309.695451,-9030.512492,518.144159,1378.971896
1309.695772,-9622.677246,-740.205942,1762.019645
1309.696093,-10955.047942,-1924.535449,2528.115143
1309.696414,-11251.130318,-1924.535449,2757.943793
1309.696734,-10066.800811,-1480.411884,1072.533697
1309.697055,-10510.924376,370.102971,995.924147
1309.697376,-10066.800811,2368.659014,919.314598
1309.697697,-10214.842000,2146.597232,153.219100
1309.698017,-10807.006753,2812.782580,-459.657299
1309.698338,-10140.821405,740.205942,76.609550
1309.698659,-10955.047942,-222.061783,612.876398
1309.698980,-9696.697840,222.061783,842.705048
1309.699301,-11177.109724,-1258.350101,1991.848295
1309.699621,-10066.800811,-148.041188,1455.581446
1309.699942,-9474.636058,-296.082377,1838.629195
1309.700263,-10362.883188,-592.164754,1991.848295
1309.700584,-9992.780217,-444.123565,1915.238745
1309.700904,-9770.718434,-1332.370696,842.705048
1309.701225,-9178.553681,0.000000,536.266849
1309.701546,-9252.574275,222.061783,0.000000
1309.701867,-9326.594869,0.000000,229.828649
1309.702188,-7031.956449,0.000000,1149.143247
1309.702508,-9030.512492,-1258.350101,-459.657299
1309.702829,-9030.512492,-888.247130,-459.657299
1309.703150,-9178.553681,-666.185348,-383.047749
1309.703471,-9400.615463,740.205942,1762.019645
1309.703791,-9622.677246,148.041188,1072.533697
1309.704112,-9844.739029,-518.144159,1455.581446
1309.704433,-9252.574275,-2072.576638,1685.410096
1309.704754,-9400.615463,-2960.823768,1302.362347
1309.705075,-9474.636058,-4071.132681,459.657299
1309.705395,-7550.100608,-2072.576638,-612.876398
1309.705716,-9252.574275,296.082377,0.000000
1309.706037,-9622.677246,2072.576638,76.609550
1309.706358,-8512.368333,1184.329507,-383.047749
1309.706678,-9548.656652,444.123565,689.485948
1309.706999,-10066.800811,-148.041188,612.876398
1309.707320,-10807.006753,-518.144159,229.828649
1309.707641,-10362.883188,222.061783,536.266849
1309.707962,-9992.780217,962.267725,1838.629195
1309.708282,-10214.842000,592.164754,2145.067394
1309.708603,-9622.677246,0.000000,1378.971896
1309.708924,-9474.636058,0.000000,1532.190996
1309.709245,-10658.965565,-592.164754,1378.971896
1309.709566,-10140.821405,-666.185348,1225.752797
1309.709886,-9030.512492,296.082377,842.705048
1309.710207,-10362.883188,444.123565,1225.752797
1309.710528,-10807.006753,666.185348,1991.848295
1309.710849,-9474.636058,370.102971,2681.334243
1309.711169,-10658.965565,-1850.514855,2451.505594
1309.711490,-10288.862594,-1924.535449,1302.362347
1309.711811,-9252.574275,-1184.329507,1455.581446
1309.712132,-9104.533087,-592.164754,1072.533697
1309.712453,-8956.491898,1258.350101,1455.581446
1309.712773,-9548.656652,1036.288319,1838.629195
1309.713094,-8216.285956,0.000000,1149.143247
1309.713415,-9474.636058,-1184.329507,1149.143247
1309.713736,-10214.842000,-2960.823768,919.314598
1309.714056,-8734.430116,-1332.370696,766.095498
1309.714377,-10066.800811,222.061783,1685.410096
1309.714698,-10288.862594,1850.514855,2451.505594
1309.715019,-9696.697840,0.000000,2451.505594
1309.715340,-8734.430116,-1554.432478,1532.190996
1309.715660,-9474.636058,-2664.741391,153.219100
1309.715981,-9252.574275,-2146.597232,0.000000
1309.716302,-8068.244768,-592.164754,612.876398
1309.716623,-8956.491898,148.041188,842.705048
1309.716943,-9474.636058,518.144159,1378.971896
1309.717264,-8808.450710,-592.164754,689.485948
1309.717585,-9474.636058,-666.185348,995.924147
1309.717906,-10436.903782,-1702.473667,612.876398
1309.718227,-10066.800811,-1480.411884,383.047749
1309.718547,-9178.553681,370.102971,383.047749
1309.718868,-9030.512492,1036.288319,-459.657299
1309.719189,-9548.656652,1850.514855,766.095498
1309.719510,-9474.636058,1110.308913,1378.971896
1309.719830,-9918.759623,0.000000,1149.143247
1309.720151,-10510.924376,-518.144159,766.095498
1309.720472,-10214.842000,-888.247130,536.266849
1309.720793,-9474.636058,0.000000,306.438199
1309.721114,-10140.821405,1924.535449,1838.629195
1309.721434,-10214.842000,-518.144159,2068.457845
1309.721755,-8216.285956,666.185348,1685.410096
1309.722076,-11473.192101,-2146.597232,1991.848295
1309.722397,-9696.697840,-962.267725,766.095498
1309.722717,-10732.986159,222.061783,919.314598
1309.723038,-9326.594869,1332.370696,2145.067394
1309.723359,-10066.800811,2294.638420,1225.752797
1309.723680,-9918.759623,1332.370696,995.924147
1309.724001,-9474.636058,74.020594,1685.410096
1309.724321,-9474.636058,-1998.556043,0.000000
1309.724642,-10066.800811,-1628.453072,153.219100
1309.724963,-9030.512492,-740.205942,229.828649
1309.725284,-9030.512492,444.123565,1225.752797
1309.725604,-9474.636058,518.144159,1532.190996
1309.725925,-9178.553681,-1332.370696,689.485948
1309.726246,-8808.450710,-2368.659014,842.705048
1309.726567,-9548.656652,-3478.967927,0.000000
1309.726888,-10066.800811,-2738.761985,919.314598
1309.727208,-8956.491898,-1776.494261,76.609550
1309.727529,-9622.677246,666.185348,536.266849
1309.727850,-9770.718434,1332.370696,1455.581446
1309.728171,-9104.533087,74.020594,459.657299
1309.728491,-9104.533087,-814.226536,1915.238745
1309.728812,-9696.697840,-2368.659014,153.219100
1309.729133,-9252.574275,-1332.370696,0.000000
1309.729454,-9252.574275,-222.061783,1532.190996
1309.729775,-9400.615463,370.102971,1685.410096
1309.730095,-10066.800811,-222.061783,1608.800546
1309.730416,-9400.615463,-444.123565,1685.410096
1309.730737,-9622.677246,-1332.370696,2145.067394
1309.731058,-11399.171507,-1554.432478,2221.676944
1309.731378,-9918.759623,-2072.576638,1608.800546
1309.731699,-9104.533087,-888.247130,306.438199
1309.732020,-9474.636058,888.247130,536.266849
1309.732341,-9844.739029,814.226536,689.485948
1309.732662,-8660.409521,2368.659014,1302.362347
1309.732982,-9770.718434,370.102971,1225.752797
1309.733303,-11103.089130,-1332.370696,919.314598
1309.733624,-8882.471304,-1110.308913,1838.629195
1309.733945,-10510.924376,-814.226536,1302.362347
1309.734265,-10066.800811,1110.308913,3140.991542
1309.734586,-9178.553681,-592.164754,1838.629195
1309.734907,-9622.677246,-740.205942,1915.238745
1309.735228,-9030.512492,-1480.411884,229.828649
1309.735549,-8142.265362,-2072.576638,-919.314598
1309.735869,-9030.512492,666.185348,612.876398
1309.736190,-9104.533087,1332.370696,612.876398
1309.736511,-10140.821405,1258.350101,1225.752797
1309.736832,-9844.739029,0.000000,2528.115143
1309.737152,-9252.574275,-296.082377,2374.896044
1309.737473,-11325.150913,-2294.638420,2145.067394
1309.737794,-10584.944971,-2220.617826,1915.238745
1309.738115,-9326.594869,-962.267725,1838.629195
1309.738436,-9696.697840,-296.082377,995.924147
1309.738756,-8808.450710,0.000000,842.705048
1309.739077,-7846.182985,0.000000,766.095498
1309.739398,-8956.491898,-1110.308913,766.095498
1309.739719,-9992.780217,-1184.329507,536.266849
1309.740039,-9918.759623,-1184.329507,153.219100
1309.740360,-9178.553681,148.041188,459.657299
1309.740681,-10066.800811,2146.597232,1608.800546
1309.741002,-11029.068536,2368.659014,919.314598
1309.741323,-9474.636058,296.082377,2221.676944
1309.741643,-9252.574275,-962.267725,1302.362347
1309.741964,-10436.903782,-1628.453072,689.485948
1309.742285,-9474.636058,-666.185348,689.485948
1309.742606,-8660.409521,1036.288319,919.314598
1309.742926,-9474.636058,1850.514855,1149.143247
1309.743247,-9030.512492,888.247130,1685.410096
1309.743568,-8882.471304,-962.267725,1455.581446
1309.743889,-9844.739029,-1406.391290,1225.752797
1309.744210,-10510.924376,-2072.576638,459.657299
1309.744530,-9770.718434,0.000000,1302.362347
1309.744851,-9992.780217,888.247130,919.314598
1309.745172,-9104.533087,4441.235652,1378.971896
1309.745493,-10436.903782,1258.350101,919.314598
1309.745813,-8956.491898,592.164754,1685.410096
1309.746134,-10510.924376,-2146.597232,306.438199
1309.746455,-9844.739029,-2516.700203,76.609550
1309.746776,-9326.594869,-1998.556043,383.047749
1309.747097,-9622.677246,-888.247130,1225.752797
1309.747417,-9474.636058,222.061783,1991.848295
1309.747738,-8660.409521,0.000000,0.000000
1309.748059,-9992.780217,0.000000,383.047749
1309.748380,-11325.150913,-666.185348,1225.752797
1309.748700,-10066.800811,-962.267725,689.485948
1309.749021,-10436.903782,-962.267725,1685.410096
1309.749342,-10140.821405,1258.350101,1685.410096
1309.749663,-10066.800811,1406.391290,842.705048
1309.749984,-8882.471304,0.000000,0.000000
1309.750304,-7550.100608,592.164754,-1685.410096
1309.750625,-9474.636058,0.000000,-2451.505594
1309.750946,-8808.450710,296.082377,-1762.019645
1309.751267,-9400.615463,740.205942,842.705048
1309.751587,-10510.924376,148.041188,2528.115143
1309.751908,-11251.130318,-1998.556043,3677.258390
1309.752229,-9918.759623,-2368.659014,4749.792088
1309.752550,-10584.944971,-2442.679609,3217.601092
1309.752871,-10362.883188,-2516.700203,1915.238745
1309.753191,-8808.450710,-518.144159,612.876398
1309.753512,-7698.141797,296.082377,-689.485948
1309.753833,-8438.347739,2072.576638,-459.657299
1309.754154,-8216.285956,1628.453072,153.219100
1309.754475,-8882.471304,-148.041188,1455.581446
1309.754795,-10066.800811,-2146.597232,1378.971896
1309.755116,-10066.800811,-2664.741391,995.924147
1309.755437,-9844.739029,-1554.432478,2911.162892
1309.755758,-9918.759623,-1258.350101,3677.258390
1309.756078,-9622.677246,-1406.391290,3370.820191
1309.756399,-9548.656652,-1998.556043,2145.067394
1309.756720,-8734.430116,-518.144159,1378.971896
1309.757041,-9770.718434,0.000000,1225.752797
1309.757362,-9696.697840,0.000000,1608.800546
1309.757682,-9030.512492,0.000000,229.828649
1309.758003,-10362.883188,222.061783,383.047749
1309.758324,-10732.986159,666.185348,1302.362347
1309.758645,-10066.800811,148.041188,2298.286494
1309.758965,-10140.821405,-518.144159,2451.505594
1309.759286,-10658.965565,-1480.411884,2145.067394
1309.759607,-10214.842000,-814.226536,1302.362347
1309.759928,-9030.512492,-740.205942,1072.533697
1309.760249,-8438.347739,0.000000,459.657299
1309.760569,-8808.450710,-1554.432478,0.000000
1309.760890,-8216.285956,-1924.535449,-612.876398
1309.761211,-9030.512492,-1184.329507,-229.828649
1309.761532,-9992.780217,-1554.432478,536.266849
1309.761852,-10955.047942,-222.061783,1072.533697
1309.762173,-10362.883188,1036.288319,2221.676944
1309.762494,-11473.192101,1184.329507,2145.067394
1309.762815,-10214.842000,1036.288319,1532.190996
1309.763136,-9770.718434,370.102971,766.095498
1309.763456,-8808.450710,-814.226536,153.219100
1309.763777,-9400.615463,-2146.597232,0.000000
1309.764098,-8364.327145,-1628.453072,153.219100
1309.764419,-8216.285956,-814.226536,153.219100
1309.764739,-7920.203579,518.144159,459.657299
1309.765060,-8882.471304,888.247130,1225.752797
1309.765381,-10140.821405,962.267725,1991.848295
1309.765702,-9622.677246,444.123565,1991.848295
1309.766023,-10214.842000,-962.267725,1532.190996
1309.766343,-9252.574275,-1628.453072,153.219100
1309.766664,-8734.430116,0.000000,76.609550
1309.766985,-10214.842000,1554.432478,919.314598
1309.767306,-8734.430116,2220.617826,1225.752797
1309.767626,-8734.430116,1702.473667,919.314598
1309.767947,-9992.780217,0.000000,919.314598
1309.768268,-9918.759623,-1184.329507,-306.438199
1309.768589,-9400.615463,-148.041188,459.657299
1309.768910,-10066.800811,-222.061783,1762.019645
1309.769230,-10140.821405,0.000000,1532.190996
1309.769551,-9622.677246,-1184.329507,1608.800546
1309.769872,-9252.574275,-2812.782580,842.705048
1309.770193,-9474.636058,-2516.700203,-76.609550
1309.770513,-10288.862594,-1924.535449,229.828649
1309.770834,-9770.718434,1036.288319,383.047749
1309.771155,-10288.862594,2516.700203,1685.410096
1309.771476,-10510.924376,1776.494261,1838.629195
1309.771797,-9326.594869,0.000000,766.095498
1309.772117,-10140.821405,-1628.453072,153.219100
1309.772438,-10436.903782,-1776.494261,229.828649
1309.772759,-9770.718434,74.020594,842.705048
1309.773080,-9474.636058,-222.061783,2757.943793
1309.773400,-8586.388927,814.226536,995.924147
1309.773721,-10140.821405,1184.329507,766.095498
1309.774042,-8364.327145,0.000000,689.485948
1309.774363,-10732.986159,-370.102971,2068.457845
1309.774684,-10510.924376,-148.041188,1991.848295
1309.775004,-9696.697840,-740.205942,689.485948
1309.775325,-9252.574275,888.247130,1225.752797
1309.775646,-9770.718434,1258.350101,1762.019645
1309.775967,-9252.574275,1258.350101,1838.629195
1309.776287,-9474.636058,222.061783,1762.019645
1309.776608,-8660.409521,-962.267725,0.000000
1309.776929,-9104.533087,-1406.391290,0.000000
1309.777250,-9474.636058,-1036.288319,153.219100
1309.777571,-8660.409521,-666.185348,1685.410096
1309.777891,-9918.759623,-1406.391290,2451.505594
1309.778212,-8660.409521,-1702.473667,2221.676944
1309.778533,-9474.636058,-2368.659014,2374.896044
1309.778854,-10436.903782,-2442.679609,2068.457845
1309.779174,-10214.842000,-1924.535449,1991.848295
1309.779495,-9474.636058,-1184.329507,1378.971896
1309.779816,-9474.636058,1332.370696,1455.581446
1309.780137,-10658.965565,222.061783,2298.286494
1309.780457,-9844.739029,-1184.329507,1838.629195
1309.780778,-8364.327145,-1554.432478,689.485948
1309.781099,-10066.800811,-3108.864956,459.657299
1309.781419,-7698.141797,-962.267725,766.095498
1309.781740,-9400.615463,148.041188,2145.067394
1309.782061,-10362.883188,74.020594,1991.848295
1309.782382,-9474.636058,518.144159,1685.410096
1309.782702,-9548.656652,-1406.391290,995.924147
1309.783023,-9770.718434,-518.144159,1302.362347
1309.783344,-10955.047942,-1184.329507,153.219100
1309.783664,-10436.903782,-148.041188,995.924147
1309.783985,-9326.594869,962.267725,459.657299
1309.784306,-9696.697840,1776.494261,536.266849
1309.784627,-10066.800811,1406.391290,919.314598
1309.784947,-9252.574275,0.000000,1149.143247
1309.785268,-9622.677246,-1332.370696,766.095498
1309.785589,-10807.006753,-1924.535449,-153.219100
1309.785910,-9474.636058,-370.102971,995.924147
1309.786230,-9178.553681,-222.061783,1378.971896
1309.786551,-9918.759623,0.000000,1302.362347
1309.786872,-8956.491898,-296.082377,1225.752797
1309.787192,-9400.615463,-1406.391290,1225.752797
1309.787513,-9770.718434,-1184.329507,919.314598
1309.787834,-9770.718434,-1332.370696,612.876398
1309.788155,-9474.636058,-444.123565,459.657299
1309.788475,-8808.450710,888.247130,766.095498
1309.788796,-9992.780217,1924.535449,1532.190996
1309.789117,-9252.574275,814.226536,1378.971896
1309.789437,-9326.594869,0.000000,1378.971896
1309.789758,-10066.800811,-1776.494261,766.095498
1309.790079,-9548.656652,-1776.494261,-459.657299
1309.790400,-9030.512492,-740.205942,1149.143247
1309.790720,-9104.533087,-740.205942,1378.971896
1309.791041,-9178.553681,-740.205942,1225.752797
1309.791362,-8438.347739,-518.144159,2068.457845
1309.791682,-9326.594869,-962.267725,1378.971896
1309.792003,-10288.862594,-1036.288319,536.266849
1309.792324,-9548.656652,0.000000,689.485948
1309.792645,-8660.409521,740.205942,306.438199
1309.792965,-9992.780217,2294.638420,153.219100
1309.793286,-10362.883188,1924.535449,842.705048
1309.793607,-9474.636058,444.123565,689.485948
1309.793927,-9474.636058,-148.041188,0.000000
1309.794248,-10510.924376,-296.082377,-612.876398
1309.794569,-9770.718434,1332.370696,306.438199
1309.794890,-9918.759623,2294.638420,383.047749
1309.795210,-10510.924376,1924.535449,842.705048
1309.795531,-9326.594869,1036.288319,0.000000
1309.795852,-9622.677246,814.226536,0.000000
1309.796172,-10881.027347,0.000000,536.266849
1309.796493,-10658.965565,-370.102971,842.705048
1309.796814,-9622.677246,-1184.329507,-612.876398
1309.797135,-8364.327145,0.000000,-1991.848295
1309.797455,-9696.697840,2590.720797,-1608.800546
1309.797776,-10140.821405,4145.153275,766.095498
1309.798097,-9252.574275,3034.844362,919.314598
1309.798417,-9252.574275,1554.432478,-536.266849
1309.798738,-9474.636058,592.164754,-1302.362347
1309.799059,-9474.636058,0.000000,-306.438199
1309.799380,-9696.697840,-592.164754,1072.533697
1309.799700,-9770.718434,-370.102971,1915.238745
1309.800021,-9548.656652,-296.082377,1149.143247
1309.800342,-9326.594869,-296.082377,995.924147
1309.800662,-10140.821405,-888.247130,1378.971896
1309.800983,-10658.965565,0.000000,76.609550
1309.801304,-9030.512492,666.185348,-1455.581446
1309.801625,-8290.306550,2368.659014,-2451.505594
1309.801945,-7846.182985,3552.988522,-3294.210641
1309.802266,-8808.450710,4885.359217,-1762.019645
1309.802587,-9770.718434,3701.029710,-766.095498
1309.802907,-9400.615463,2442.679609,-766.095498
1309.803228,-11251.130318,1776.494261,-1149.143247
1309.803549,-10732.986159,1776.494261,0.000000
1309.803870,-10436.903782,1258.350101,459.657299
1309.804190,-9770.718434,1036.288319,-459.657299
1309.804511,-7846.182985,1702.473667,-1991.848295
1309.804832,-9622.677246,1554.432478,-1378.971896
1309.805152,-9474.636058,1258.350101,-766.095498
1309.805473,-9326.594869,814.226536,-1378.971896
1309.805794,-9992.780217,2146.597232,-229.828649
1309.806115,-10362.883188,2886.803174,-306.438199
1309.806435,-11399.171507,2146.597232,1915.238745
1309.806756,-10066.800811,1110.308913,-306.438199
1309.807077,-9844.739029,1332.370696,-2145.067394
1309.807398,-11103.089130,2812.782580,0.000000
1309.807718,-10732.986159,2960.823768,76.609550
1309.808039,-9992.780217,2812.782580,0.000000
1309.808360,-10066.800811,2516.700203,-1302.362347
1309.808680,-9178.553681,2146.597232,-2145.067394
1309.809001,-8956.491898,1110.308913,-1225.752797
1309.809322,-9178.553681,-888.247130,-1302.362347
1309.809643,-8216.285956,-370.102971,-3217.601092
1309.809963,-9474.636058,1850.514855,-2374.896044
