#time,accel_x,accel_y,accel_z
1387.633184,-9474.636058,-370.102971,1149.143247
1387.633504,-9548.656652,-444.123565,1378.971896
1387.633825,-9622.677246,-370.102971,1072.533697
1387.634146,-9696.697840,-222.061783,995.924147
1387.634467,-9770.718434,0.000000,1072.533697
1387.634788,-9474.636058,-740.205942,1149.143247
1387.635109,-9474.636058,-444.123565,1149.143247
1387.635430,-9622.677246,-444.123565,1225.752797
1387.635750,-9474.636058,-444.123565,1072.533697
1387.636071,-9326.594869,-592.164754,689.485948
1387.636392,-9548.656652,-444.123565,1225.752797
1387.636713,-9548.656652,-370.102971,1455.581446
1387.637034,-9622.677246,-592.164754,995.924147
1387.637355,-9548.656652,-370.102971,919.314598
1387.637675,-9918.759623,-740.205942,1302.362347
1387.637996,-9844.739029,-962.267725,1455.581446
1387.638317,-9474.636058,-1184.329507,919.314598
1387.638638,-9400.615463,-1184.329507,689.485948
1387.638959,-9474.636058,-666.185348,1532.190996
1387.639280,-9548.656652,-592.164754,1149.143247
1387.639601,-9622.677246,-296.082377,1072.533697
1387.639921,-9548.656652,-666.185348,766.095498
1387.640242,-9252.574275,-296.082377,1072.533697
1387.640563,-9696.697840,-592.164754,766.095498
1387.640884,-9622.677246,-370.102971,1302.362347
1387.641205,-9992.780217,-888.247130,1378.971896
1387.641526,-9548.656652,-1110.308913,1915.238745
1387.641846,-9622.677246,-1332.370696,1378.971896
1387.642167,-9770.718434,-1332.370696,2068.457845
1387.642488,-9622.677246,-1406.391290,2221.676944
1387.642809,-9400.615463,-1036.288319,2145.067394
1387.643130,-9252.574275,-1110.308913,1991.848295
1387.643451,-9474.636058,-888.247130,1991.848295
1387.643772,-9474.636058,-888.247130,1915.238745
1387.644092,-9474.636058,-1184.329507,2221.676944
1387.644413,-9844.739029,222.061783,1838.629195
1387.644734,-9400.615463,-1184.329507,2604.724693
1387.645055,-9622.677246,-1036.288319,2911.162892
1387.645376,-9770.718434,-1036.288319,3140.991542
1387.645697,-9918.759623,-1036.288319,3600.648841
1387.646017,-9918.759623,-1184.329507,4519.963438
1387.646338,-9844.739029,-1480.411884,4596.572988
1387.646659,-9992.780217,-2072.576638,4903.011187
1387.646980,-9622.677246,-1924.535449,5362.668486
1387.647301,-9622.677246,-1924.535449,5132.839837
1387.647622,-9474.636058,-2368.659014,5515.887586
1387.647942,-9178.553681,-2220.617826,5362.668486
1387.648263,-9104.533087,-2294.638420,5056.230287
1387.648584,-9400.615463,-1480.411884,4060.306139
1387.648905,-9178.553681,-2220.617826,5132.839837
1387.649226,-9178.553681,-2146.597232,5439.278036
1387.649547,-9474.636058,-2442.679609,5286.058936
1387.649868,-9918.759623,-3404.947333,5286.058936
1387.650188,-9548.656652,-3997.112087,4903.011187
1387.650509,-9548.656652,-4293.194464,4979.620737
1387.650830,-9622.677246,-4367.215058,4903.011187
1387.651151,-9474.636058,-3701.029710,4596.572988
1387.651472,-9770.718434,-3775.050304,4213.525239
1387.651793,-9104.533087,-3997.112087,3753.867940
1387.652113,-9178.553681,-4293.194464,3677.258390
1387.652434,-9252.574275,-4885.359217,3753.867940
1387.652755,-8956.491898,-5921.647536,3064.381992
1387.653076,-8808.450710,-6513.812290,3524.039291
1387.653397,-9030.512492,-6957.935855,3217.601092
1387.653718,-9252.574275,-7105.977043,3064.381992
1387.654039,-9104.533087,-6883.915261,1762.019645
1387.654359,-9178.553681,-5625.565159,1149.143247
1387.654680,-8956.491898,-4293.194464,842.705048
1387.655001,-9252.574275,-3108.864956,842.705048
1387.655322,-9474.636058,-2146.597232,689.485948
1387.655643,-9474.636058,-1850.514855,1225.752797
1387.655964,-10214.842000,-1702.473667,1532.190996
1387.656284,-10436.903782,-2442.679609,2374.896044
1387.656605,-10140.821405,-3701.029710,2834.553343
1387.656926,-10807.006753,-4663.297435,3983.696590
1387.657247,-9918.759623,-5847.626942,3294.210641
1387.657568,-9178.553681,-5921.647536,2987.772442
1387.657889,-9104.533087,-5699.585753,3217.601092
1387.658210,-9326.594869,-4737.318029,3983.696590
1387.658530,-9326.594869,-4071.132681,3447.429741
1387.658851,-9474.636058,-3849.070898,2987.772442
1387.659172,-9474.636058,-3997.112087,2068.457845
1387.659493,-9400.615463,-3627.009116,1225.752797
1387.659814,-9252.574275,-2072.576638,919.314598
1387.660135,-10140.821405,296.082377,766.095498
1387.660455,-10436.903782,2294.638420,1378.971896
1387.660776,-10732.986159,2738.761985,2068.457845
1387.661097,-10658.965565,2220.617826,4060.306139
1387.661418,-11399.171507,222.061783,3370.820191
1387.661739,-11103.089130,-2146.597232,3907.087040
1387.662060,-9992.780217,-4219.173869,4366.744339
1387.662380,-9252.574275,-5107.421000,3677.258390
1387.662701,-8956.491898,-5477.523971,5822.325785
1387.663022,-8438.347739,-5403.503377,6741.640382
1387.663343,-8364.327145,-5995.668130,6511.811733
1387.663664,-7846.182985,-6217.729913,5056.230287
1387.663985,-7550.100608,-5255.462188,2834.553343
1387.664306,-7624.121203,-2738.761985,2604.724693
1387.664626,-8586.388927,444.123565,2987.772442
1387.664947,-9400.615463,2590.720797,3294.210641
1387.665268,-9400.615463,2516.700203,3600.648841
1387.665589,-10066.800811,2442.679609,3217.601092
1387.665910,-10584.944971,1332.370696,3677.258390
1387.666231,-10362.883188,296.082377,4443.353888
1387.666551,-10140.821405,-1036.288319,4979.620737
1387.666872,-9326.594869,-2220.617826,5439.278036
1387.667193,-8512.368333,-4071.132681,5132.839837
1387.667514,-8290.306550,-6439.791695,3753.867940
1387.667835,-7402.059420,-5921.647536,2987.772442
1387.668156,-8438.347739,-4441.235652,2834.553343
1387.668477,-8438.347739,-1554.432478,3983.696590
1387.668797,-9104.533087,-1258.350101,3447.429741
1387.669118,-8438.347739,-518.144159,2604.724693
1387.669439,-9918.759623,1110.308913,1838.629195
1387.669760,-11029.068536,1036.288319,2911.162892
1387.670081,-11251.130318,1036.288319,3370.820191
1387.670402,-11325.150913,-296.082377,2604.724693
1387.670722,-10510.924376,-1258.350101,153.219100
1387.671043,-9622.677246,-962.267725,-612.876398
1387.671364,-9770.718434,148.041188,-229.828649
1387.671685,-10362.883188,370.102971,1302.362347
1387.672006,-10658.965565,-1258.350101,2451.505594
1387.672327,-9918.759623,-2738.761985,2451.505594
1387.672647,-9992.780217,-4219.173869,1991.848295
1387.672968,-10436.903782,-3256.906145,4136.915689
1387.673289,-11103.089130,-4219.173869,5515.887586
1387.673610,-9474.636058,-5255.462188,4903.011187
1387.673931,-8142.265362,-5033.400406,1685.410096
1387.674252,-8438.347739,-3182.885551,1378.971896
1387.674573,-9696.697840,-1628.453072,2987.772442
1387.674893,-9992.780217,-2294.638420,3370.820191
1387.675214,-9474.636058,-2368.659014,2374.896044
1387.675535,-9548.656652,-2220.617826,1532.190996
1387.675856,-10214.842000,-2072.576638,2911.162892
1387.676177,-11103.089130,-3552.988522,4673.182538
1387.676498,-10066.800811,-4737.318029,4136.915689
1387.676818,-8734.430116,-5255.462188,2145.067394
1387.677139,-8216.285956,-3997.112087,2451.505594
1387.677460,-8290.306550,-3923.091493,3447.429741
1387.677781,-8290.306550,-3923.091493,6128.763984
1387.678102,-7254.018232,-4811.338623,2834.553343
1387.678423,-6735.874072,-4737.318029,2298.286494
1387.678744,-8512.368333,-5625.565159,2681.334243
1387.679064,-8586.388927,-5551.544565,4136.915689
1387.679385,-9918.759623,-4367.215058,5592.497135
1387.679706,-10732.986159,-2960.823768,6741.640382
1387.680027,-10362.883188,-2664.741391,5975.544884
1387.680348,-10066.800811,-2368.659014,5362.668486
1387.680669,-9844.739029,-1850.514855,4060.306139
1387.680989,-10214.842000,-2516.700203,3447.429741
1387.681310,-7550.100608,-962.267725,1838.629195
1387.681631,-8808.450710,-2368.659014,842.705048
1387.681952,-8808.450710,0.000000,2374.896044
1387.682273,-10140.821405,-1628.453072,4903.011187
1387.682594,-10881.027347,-3256.906145,6281.983084
1387.682915,-9474.636058,-4441.235652,5056.230287
1387.683235,-10214.842000,-5329.482782,4213.525239
1387.683556,-10288.862594,-3997.112087,4903.011187
1387.683877,-8660.409521,-3330.926739,4290.134789
1387.684198,-10584.944971,-2960.823768,4213.525239
1387.684519,-8512.368333,-3182.885551,2451.505594
1387.684840,-8882.471304,-1110.308913,536.266849
1387.685160,-10955.047942,-148.041188,2145.067394
1387.685481,-11695.253884,-370.102971,2374.896044
1387.685802,-9770.718434,-592.164754,1378.971896
1387.686123,-9770.718434,444.123565,919.314598
1387.686444,-10955.047942,1258.350101,2374.896044
1387.686765,-10288.862594,-740.205942,3064.381992
1387.687085,-10288.862594,-2442.679609,4136.915689
1387.687406,-9992.780217,-4589.276840,1991.848295
1387.687727,-8364.327145,-3997.112087,919.314598
1387.688048,-8660.409521,-2664.741391,2757.943793
1387.688369,-9252.574275,-2516.700203,3064.381992
1387.688690,-7994.224174,-2812.782580,2604.724693
1387.689011,-7550.100608,-3404.947333,2374.896044
1387.689332,-7846.182985,-4071.132681,1378.971896
1387.689653,-8808.450710,-3552.988522,306.438199
1387.689974,-9992.780217,-518.144159,2298.286494
1387.690295,-9622.677246,1258.350101,2451.505594
1387.690616,-9400.615463,1702.473667,2068.457845
1387.690937,-10288.862594,518.144159,2987.772442
1387.691258,-9696.697840,-1924.535449,1455.581446
1387.691579,-9622.677246,-2738.761985,1685.410096
1387.691900,-10140.821405,-3108.864956,3447.429741
1387.692221,-9252.574275,-2220.617826,4519.963438
1387.692542,-9400.615463,-3404.947333,3370.820191
1387.692863,-9548.656652,-2590.720797,4903.011187
1387.693184,-8142.265362,-4737.318029,1838.629195
1387.693505,-7402.059420,-3775.050304,2374.896044
1387.693826,-10510.924376,-2294.638420,4596.572988
1387.694147,-9770.718434,-1332.370696,4903.011187
1387.694468,-9474.636058,-2146.597232,5132.839837
1387.694789,-10140.821405,-3775.050304,4443.353888
1387.695110,-8290.306550,-3256.906145,1838.629195
1387.695431,-9696.697840,-1702.473667,2298.286494
1387.695752,-11843.295072,814.226536,5286.058936
1387.696073,-10510.924376,1406.391290,4213.525239
1387.696394,-11177.109724,-1998.556043,2681.334243
1387.696715,-10066.800811,-2220.617826,1685.410096
1387.697036,-9252.574275,-888.247130,1455.581446
1387.697357,-11843.295072,-814.226536,1455.581446
1387.697678,-10362.883188,-444.123565,4366.744339
1387.697999,-8438.347739,-2516.700203,2911.162892
1387.698320,-10288.862594,-5625.565159,1302.362347
1387.698641,-7994.224174,-2960.823768,2757.943793
1387.698962,-11325.150913,-4441.235652,3447.429741
1387.699283,-9918.759623,-296.082377,5286.058936
1387.699604,-9622.677246,-2072.576638,4366.744339
1387.699925,-8808.450710,-3849.070898,1455.581446
1387.700245,-7179.997637,-2442.679609,76.609550
1387.700566,-9178.553681,0.000000,1378.971896
1387.700887,-9844.739029,2146.597232,4366.744339
1387.701208,-11103.089130,0.000000,4749.792088
1387.701529,-11103.089130,-1998.556043,4673.182538
1387.701850,-8882.471304,-4441.235652,-153.219100
1387.702171,-10140.821405,-2220.617826,536.266849
1387.702492,-9252.574275,-1110.308913,1532.190996
1387.702813,-7624.121203,-740.205942,-536.266849
1387.703134,-8068.244768,222.061783,-1608.800546
1387.703455,-6513.812290,-296.082377,-2374.896044
1387.703776,-8142.265362,-888.247130,-689.485948
1387.704097,-10881.027347,-1184.329507,2451.505594
1387.704418,-8956.491898,-4145.153275,1532.190996
1387.704739,-9030.512492,-4071.132681,0.000000
1387.705060,-7476.080014,-518.144159,-383.047749
1387.705381,-10584.944971,296.082377,689.485948
1387.705702,-11103.089130,2072.576638,3370.820191
1387.706023,-10436.903782,-666.185348,1915.238745
1387.706344,-10436.903782,-2590.720797,-1455.581446
1387.706665,-8216.285956,-370.102971,-4443.353888
1387.706986,-10288.862594,4515.256246,0.000000
1387.707307,-12657.521608,5699.585753,3370.820191
1387.707628,-9918.759623,2146.597232,2068.457845
1387.707949,-8956.491898,-1924.535449,-76.609550
1387.708270,-8216.285956,-3923.091493,-1991.848295
1387.708591,-9770.718434,-2442.679609,1149.143247
1387.708912,-11843.295072,-592.164754,5975.544884
1387.709233,-10214.842000,-1850.514855,4903.011187
1387.709554,-7994.224174,-1406.391290,-229.828649
1387.709875,-8364.327145,666.185348,919.314598
1387.710196,-9770.718434,518.144159,1838.629195
1387.710517,-9992.780217,1036.288319,2528.115143
1387.710838,-11399.171507,0.000000,2681.334243
1387.711159,-9030.512492,666.185348,0.000000
1387.711480,-8512.368333,1554.432478,-536.266849
1387.711801,-12805.562797,3256.906145,3064.381992
1387.712122,-10288.862594,3627.009116,3677.258390
1387.712443,-9622.677246,-888.247130,306.438199
1387.712764,-9178.553681,-1702.473667,-2298.286494
1387.713085,-6809.894666,592.164754,-2604.724693
1387.713406,-11177.109724,1332.370696,1915.238745
1387.713727,-10436.903782,1258.350101,4903.011187
1387.714048,-8438.347739,-444.123565,842.705048
1387.714369,-8808.450710,-1258.350101,-229.828649
1387.714690,-9104.533087,-962.267725,1608.800546
1387.715011,-11251.130318,222.061783,3600.648841
1387.715332,-10955.047942,0.000000,4903.011187
1387.715653,-8512.368333,-1702.473667,766.095498
1387.715974,-5847.626942,0.000000,-2681.334243
1387.716295,-8956.491898,444.123565,-995.924147
1387.716616,-9770.718434,2368.659014,2145.067394
1387.716937,-9030.512492,444.123565,2681.334243
1387.717258,-9548.656652,-2220.617826,0.000000
1387.717579,-8660.409521,-1110.308913,-1532.190996
1387.717900,-9474.636058,-148.041188,0.000000
1387.718221,-12287.418637,148.041188,5286.058936
1387.718542,-9474.636058,-1184.329507,3524.039291
1387.718863,-8956.491898,-4219.173869,-1072.533697
1387.719184,-7994.224174,-3404.947333,-3524.039291
1387.719505,-7105.977043,0.000000,-3294.210641
1387.719826,-10510.924376,148.041188,612.876398
1387.720147,-8586.388927,1850.514855,842.705048
1387.720468,-9178.553681,0.000000,-459.657299
1387.720789,-9770.718434,-740.205942,-229.828649
1387.721110,-11843.295072,-888.247130,3140.991542
1387.721431,-12805.562797,-2072.576638,5209.449386
1387.721752,-11769.274478,-3034.844362,3447.429741
1387.722073,-9696.697840,-1554.432478,0.000000
1387.722394,-8216.285956,1332.370696,-2451.505594
1387.722715,-8882.471304,3256.906145,0.000000
1387.723036,-10066.800811,2812.782580,1838.629195
1387.723357,-8142.265362,518.144159,536.266849
1387.723677,-10510.924376,-1924.535449,-919.314598
1387.723998,-8512.368333,-814.226536,-153.219100
1387.724319,-11325.150913,-1258.350101,3447.429741
1387.724640,-11917.315666,-1258.350101,6511.811733
1387.724961,-9622.677246,-2590.720797,4443.353888
1387.725282,-9400.615463,-2664.741391,689.485948
1387.725603,-8290.306550,-740.205942,-459.657299
1387.725924,-9622.677246,888.247130,2451.505594
1387.726245,-10955.047942,962.267725,3677.258390
1387.726566,-8734.430116,-740.205942,2681.334243
1387.726887,-8438.347739,-2072.576638,-1455.581446
1387.727208,-7402.059420,-518.144159,-766.095498
1387.727529,-11547.212695,-518.144159,3447.429741
1387.727850,-11399.171507,-148.041188,5515.887586
1387.728171,-9474.636058,-2294.638420,3064.381992
1387.728492,-10436.903782,-3478.967927,-1225.752797
1387.728813,-7328.038826,1110.308913,76.609550
1387.729134,-11177.109724,592.164754,2145.067394
1387.729455,-10214.842000,1924.535449,2681.334243
1387.729776,-9104.533087,-1036.288319,76.609550
1387.730097,-7624.121203,-1184.329507,-2451.505594
1387.730418,-8364.327145,-444.123565,-689.485948
1387.730739,-11473.192101,222.061783,4136.915689
1387.731060,-10436.903782,592.164754,4903.011187
1387.731381,-9548.656652,-1480.411884,1072.533697
1387.731702,-7698.141797,0.000000,-1608.800546
1387.732023,-8882.471304,740.205942,-766.095498
1387.732344,-11251.130318,1776.494261,1378.971896
1387.732665,-9992.780217,1184.329507,2757.943793
1387.732986,-9696.697840,-592.164754,0.000000
1387.733307,-8882.471304,-962.267725,-1378.971896
1387.733628,-9696.697840,0.000000,-1225.752797
1387.733949,-11991.336260,74.020594,2757.943793
1387.734270,-10140.821405,888.247130,2528.115143
1387.734591,-9992.780217,-148.041188,0.000000
1387.734912,-8364.327145,296.082377,-2298.286494
1387.735233,-8882.471304,1702.473667,-1149.143247
1387.735554,-11177.109724,2072.576638,1149.143247
1387.735875,-10288.862594,1258.350101,2221.676944
1387.736196,-9326.594869,-1184.329507,-612.876398
1387.736517,-8216.285956,-1850.514855,-1838.629195
1387.736838,-9400.615463,-1184.329507,0.000000
1387.737159,-11917.315666,-666.185348,2451.505594
1387.737480,-10288.862594,-814.226536,2911.162892
1387.737801,-8364.327145,-740.205942,76.609550
1387.738122,-7698.141797,370.102971,-1838.629195
1387.738443,-10436.903782,962.267725,612.876398
1387.738764,-11177.109724,888.247130,3064.381992
1387.739085,-9474.636058,-1184.329507,1915.238745
1387.739406,-8586.388927,-3849.070898,-1378.971896
1387.739727,-7105.977043,-1036.288319,-2834.553343
1387.740048,-9918.759623,2146.597232,1838.629195
1387.740369,-11917.315666,3034.844362,7048.078582
1387.740690,-9548.656652,-1702.473667,4903.011187
1387.741011,-9326.594869,-4885.359217,1455.581446
1387.741332,-9622.677246,-3108.864956,-842.705048
1387.741653,-9474.636058,222.061783,1455.581446
1387.741974,-10214.842000,2812.782580,6205.373534
1387.742295,-7254.018232,2812.782580,2221.676944
1387.742616,-7402.059420,370.102971,-1991.848295
1387.742937,-7402.059420,-148.041188,-766.095498
1387.743258,-9474.636058,-1554.432478,3294.210641
1387.743579,-12509.480420,-3256.906145,4903.011187
1387.743900,-10510.924376,-3108.864956,3677.258390
1387.744221,-8956.491898,-1332.370696,689.485948
1387.744542,-9474.636058,1332.370696,2068.457845
1387.744863,-11029.068536,1406.391290,3830.477490
1387.745184,-10732.986159,370.102971,4443.353888
1387.745505,-9104.533087,-2072.576638,536.266849
1387.745826,-8068.244768,-2146.597232,-2068.457845
1387.746147,-8660.409521,-1036.288319,-766.095498
1387.746468,-10955.047942,-666.185348,2757.943793
1387.746789,-10140.821405,222.061783,4979.620737
1387.747110,-9474.636058,-2590.720797,2451.505594
1387.747430,-9178.553681,-2664.741391,0.000000
1387.747751,-9326.594869,-888.247130,153.219100
1387.748072,-11769.274478,370.102971,2987.772442
1387.748393,-11325.150913,0.000000,4060.306139
1387.748714,-7328.038826,-444.123565,-1991.848295
1387.749035,-7328.038826,1480.411884,-2221.676944
1387.749356,-11177.109724,-222.061783,-1072.533697
1387.749677,-8660.409521,74.020594,2681.334243
1387.749998,-12657.521608,-2220.617826,2987.772442
1387.750319,-11177.109724,-1924.535449,1072.533697
1387.750640,-7402.059420,-3034.844362,-3830.477490
1387.750961,-11621.233289,888.247130,2221.676944
1387.751282,-9326.594869,0.000000,536.266849
1387.751603,-8290.306550,444.123565,1685.410096
1387.751924,-8882.471304,-1776.494261,-1762.019645
1387.752245,-5477.523971,370.102971,-4060.306139
1387.752566,-9696.697840,-1480.411884,-1991.848295
1387.752887,-11029.068536,222.061783,3217.601092
1387.753208,-7476.080014,-592.164754,1838.629195
1387.753529,-11843.295072,-2146.597232,0.000000
1387.753850,-9104.533087,814.226536,1072.533697
1387.754171,-9030.512492,666.185348,536.266849
1387.754492,-11695.253884,1702.473667,2451.505594
1387.754813,-7624.121203,1110.308913,-153.219100
1387.755134,-7402.059420,518.144159,-2451.505594
1387.755455,-8216.285956,814.226536,-1685.410096
1387.755776,-9548.656652,740.205942,1378.971896
1387.756097,-11399.171507,296.082377,5286.058936
1387.756418,-10362.883188,-2220.617826,3217.601092
1387.756739,-10066.800811,-1184.329507,1685.410096
1387.757060,-9400.615463,666.185348,1762.019645
1387.757381,-10658.965565,1110.308913,2681.334243
1387.757702,-10436.903782,1702.473667,4519.963438
1387.758023,-7698.141797,-518.144159,766.095498
1387.758344,-8364.327145,-1850.514855,-2068.457845
1387.758665,-7402.059420,1480.411884,0.000000
1387.758986,-11251.130318,962.267725,2374.896044
1387.759307,-11621.233289,444.123565,4596.572988
1387.759628,-8438.347739,740.205942,2528.115143
1387.759949,-10658.965565,-2294.638420,-536.266849
1387.760270,-8142.265362,592.164754,1608.800546
1387.760591,-12139.377449,518.144159,3907.087040
1387.760912,-10436.903782,740.205942,4749.792088
1387.761233,-9400.615463,-1554.432478,689.485948
1387.761554,-6661.853478,-148.041188,0.000000
1387.761875,-7846.182985,296.082377,76.609550
1387.762196,-11251.130318,148.041188,2834.553343
1387.762517,-9918.759623,444.123565,4903.011187
1387.762838,-9104.533087,-2812.782580,1532.190996
1387.763159,-8290.306550,-592.164754,-1302.362347
1387.763480,-10732.986159,962.267725,536.266849
1387.763801,-11547.212695,1924.535449,3447.429741
1387.764122,-10288.862594,592.164754,2451.505594
1387.764443,-8142.265362,0.000000,-229.828649
1387.764764,-8438.347739,0.000000,-2757.943793
1387.765085,-8734.430116,962.267725,-229.828649
1387.765406,-11695.253884,-222.061783,2068.457845
1387.765727,-8438.347739,-962.267725,612.876398
1387.766048,-9400.615463,-1850.514855,-1072.533697
1387.766369,-8512.368333,-518.144159,-1608.800546
1387.766690,-9770.718434,222.061783,766.095498
1387.767011,-11769.274478,-74.020594,3140.991542
1387.767332,-9178.553681,-1628.453072,1225.752797
1387.767653,-8660.409521,-2960.823768,-2604.724693
1387.767974,-7698.141797,-444.123565,-1838.629195
1387.768295,-9548.656652,0.000000,306.438199
1387.768616,-11177.109724,0.000000,2604.724693
1387.768937,-8808.450710,-666.185348,842.705048
1387.769258,-8882.471304,-2146.597232,-2145.067394
1387.769579,-8586.388927,0.000000,-1149.143247
1387.769900,-10955.047942,0.000000,2221.676944
1387.770221,-11251.130318,0.000000,3753.867940
1387.770542,-9474.636058,-2368.659014,2145.067394
1387.770862,-8882.471304,-3849.070898,-1302.362347
1387.771183,-7994.224174,-1924.535449,-536.266849
1387.771504,-10362.883188,-1554.432478,1532.190996
1387.771825,-10214.842000,962.267725,4136.915689
1387.772146,-8512.368333,-444.123565,2145.067394
1387.772467,-9178.553681,-962.267725,0.000000
1387.772788,-9030.512492,592.164754,76.609550
1387.773109,-11473.192101,-518.144159,2757.943793
1387.773430,-10288.862594,148.041188,4213.525239
1387.773751,-9770.718434,-1628.453072,2221.676944
1387.774072,-9030.512492,-814.226536,842.705048
1387.774393,-9548.656652,-444.123565,383.047749
1387.774714,-10140.821405,2220.617826,3064.381992
1387.775035,-11621.233289,2368.659014,4979.620737
1387.775356,-9770.718434,1406.391290,3677.258390
1387.775677,-11103.089130,-1258.350101,2987.772442
1387.775998,-8586.388927,-2146.597232,1915.238745
1387.776319,-10214.842000,-2368.659014,1838.629195
1387.776640,-9548.656652,-814.226536,3294.210641
1387.776961,-7624.121203,-444.123565,153.219100
1387.777282,-7402.059420,444.123565,-1302.362347
1387.777603,-7328.038826,888.247130,-612.876398
1387.777924,-9252.574275,74.020594,919.314598
1387.778245,-9770.718434,-888.247130,2298.286494
1387.778566,-10362.883188,-1924.535449,1072.533697
1387.778887,-10362.883188,-740.205942,1149.143247
1387.779208,-9474.636058,-74.020594,1149.143247
1387.779529,-10732.986159,1258.350101,3983.696590
1387.779850,-9992.780217,-592.164754,2374.896044
1387.780171,-8068.244768,-1776.494261,-919.314598
1387.780492,-8956.491898,-1480.411884,-2911.162892
1387.780813,-7179.997637,888.247130,-2757.943793
1387.781134,-9474.636058,1332.370696,-153.219100
1387.781455,-10288.862594,1110.308913,1532.190996
1387.781776,-9030.512492,-888.247130,-995.924147
1387.782097,-9474.636058,-1036.288319,-1378.971896
1387.782418,-10214.842000,-740.205942,1685.410096
1387.782739,-12657.521608,-814.226536,3140.991542
1387.783060,-10881.027347,592.164754,3370.820191
1387.783381,-10214.842000,-666.185348,-306.438199
1387.783702,-7328.038826,1110.308913,-1762.019645
1387.784023,-9474.636058,1554.432478,-1149.143247
1387.784344,-10436.903782,1406.391290,1302.362347
1387.784665,-9400.615463,-370.102971,229.828649
1387.784986,-10214.842000,-2442.679609,-1762.019645
1387.785307,-10066.800811,-370.102971,-459.657299
1387.785628,-11325.150913,-1036.288319,1838.629195
1387.785949,-11917.315666,370.102971,4366.744339
1387.786270,-10436.903782,518.144159,3140.991542
1387.786591,-10140.821405,370.102971,-1149.143247
1387.786912,-7179.997637,1702.473667,-842.705048
1387.787233,-9178.553681,1480.411884,919.314598
1387.787554,-10214.842000,0.000000,1455.581446
1387.787875,-8586.388927,-962.267725,919.314598
1387.788196,-9104.533087,-2072.576638,-153.219100
1387.788517,-7846.182985,-592.164754,153.219100
1387.788838,-11843.295072,-222.061783,3600.648841
1387.789159,-13323.706956,74.020594,6205.373534
1387.789480,-9696.697840,-370.102971,4213.525239
1387.789801,-8956.491898,-1776.494261,459.657299
1387.790122,-7846.182985,0.000000,766.095498
1387.790443,-9992.780217,-518.144159,2374.896044
1387.790764,-9548.656652,-1110.308913,3677.258390
1387.791082,-8290.306550,-1628.453072,1608.800546
1387.791403,-7772.162391,-1406.391290,-536.266849
1387.791724,-9252.574275,-888.247130,459.657299
1387.792045,-9474.636058,2368.659014,4443.353888
1387.792366,-10732.986159,296.082377,5132.839837
1387.792687,-9474.636058,-592.164754,2374.896044
1387.793008,-9474.636058,-1924.535449,919.314598
1387.793329,-7402.059420,-2516.700203,-1378.971896
1387.793650,-10140.821405,666.185348,2451.505594
1387.793971,-8586.388927,518.144159,3447.429741
1387.794292,-8586.388927,-222.061783,842.705048
1387.794612,-8142.265362,-592.164754,-2911.162892
1387.794933,-6883.915261,-296.082377,-2451.505594
1387.795254,-11029.068536,1184.329507,0.000000
1387.795575,-11843.295072,74.020594,3600.648841
1387.795896,-10955.047942,-1924.535449,1838.629195
1387.796217,-10510.924376,-2442.679609,995.924147
1387.796538,-10288.862594,-2590.720797,995.924147
1387.796859,-12731.542202,-2738.761985,3370.820191
1387.797180,-10214.842000,-1258.350101,3217.601092
1387.797501,-9178.553681,-1702.473667,-1991.848295
1387.797822,-6883.915261,1480.411884,-3907.087040
1387.798143,-8142.265362,2294.638420,-2834.553343
1387.798464,-10362.883188,888.247130,-306.438199
1387.798785,-8956.491898,962.267725,1072.533697
1387.799106,-11621.233289,-1480.411884,-1455.581446
1387.799427,-9252.574275,-814.226536,842.705048
1387.799748,-10955.047942,-2368.659014,306.438199
1387.800069,-11917.315666,-888.247130,3753.867940
1387.800390,-9474.636058,-1332.370696,1838.629195
1387.800711,-9918.759623,-370.102971,-766.095498
1387.801032,-7846.182985,888.247130,-1072.533697
1387.801353,-8142.265362,296.082377,-612.876398
1387.801674,-10658.965565,296.082377,2451.505594
1387.801995,-9622.677246,-592.164754,2374.896044
1387.802316,-8364.327145,-2146.597232,1149.143247
1387.802637,-8512.368333,-1628.453072,1072.533697
1387.802958,-9844.739029,-1258.350101,2528.115143
1387.803279,-11547.212695,-1332.370696,4519.963438
1387.803600,-9474.636058,-666.185348,3447.429741
1387.803921,-9030.512492,-962.267725,-229.828649
1387.804242,-7402.059420,518.144159,-459.657299
1387.804563,-9696.697840,518.144159,995.924147
1387.804884,-10436.903782,1554.432478,3524.039291
1387.805205,-8808.450710,592.164754,2221.676944
1387.805526,-9474.636058,-888.247130,766.095498
1387.805846,-8290.306550,-444.123565,1532.190996
1387.806167,-11177.109724,-2368.659014,3064.381992
1387.806488,-11399.171507,-1110.308913,4749.792088
1387.806809,-9844.739029,-1258.350101,2298.286494
1387.807130,-8512.368333,74.020594,-383.047749
1387.807451,-8586.388927,1702.473667,-383.047749
1387.807772,-9622.677246,1776.494261,2528.115143
1387.808093,-10584.944971,666.185348,3907.087040
1387.808414,-9474.636058,-1184.329507,1608.800546
1387.808735,-8586.388927,-2294.638420,-229.828649
1387.809056,-9252.574275,-1628.453072,76.609550
1387.809377,-11843.295072,-148.041188,3064.381992
1387.809698,-9622.677246,592.164754,2604.724693
1387.810019,-9696.697840,1184.329507,1225.752797
1387.810340,-9326.594869,888.247130,0.000000
1387.810661,-9770.718434,296.082377,153.219100
1387.810982,-11917.315666,-222.061783,3370.820191
1387.811303,-10807.006753,-1702.473667,1149.143247
1387.811624,-8586.388927,-1184.329507,-1608.800546
1387.811945,-7698.141797,-592.164754,-2987.772442
1387.812266,-7179.997637,2072.576638,-919.314598
1387.812587,-10955.047942,1332.370696,1378.971896
1387.812908,-8734.430116,888.247130,1685.410096
1387.813229,-10214.842000,-1776.494261,-1532.190996
1387.813550,-9104.533087,-888.247130,-2221.676944
1387.813871,-9844.739029,444.123565,153.219100
1387.814192,-12213.398043,888.247130,2757.943793
1387.814513,-9474.636058,888.247130,2451.505594
1387.814834,-9030.512492,-1480.411884,-2681.334243
1387.815155,-7624.121203,-1184.329507,-2145.067394
1387.815476,-9474.636058,444.123565,-995.924147
1387.815797,-10658.965565,1110.308913,2604.724693
1387.816118,-8586.388927,296.082377,459.657299
1387.816439,-7846.182985,148.041188,-1991.848295
1387.816760,-8660.409521,-370.102971,-1378.971896
1387.817081,-10436.903782,-1036.288319,1991.848295
1387.817401,-11769.274478,-2220.617826,5132.839837
1387.817722,-10807.006753,-4219.173869,2451.505594
1387.818043,-9696.697840,-3256.906145,0.000000
1387.818364,-8438.347739,-740.205942,919.314598
1387.818685,-11621.233289,1036.288319,2681.334243
1387.819006,-9548.656652,1258.350101,6052.154434
1387.819327,-8586.388927,0.000000,76.609550
1387.819648,-9992.780217,-222.061783,-459.657299
1387.819969,-8290.306550,-1110.308913,-1378.971896
1387.820290,-11695.253884,-592.164754,2757.943793
1387.820611,-11473.192101,-148.041188,4136.915689
1387.820932,-9030.512492,-962.267725,2374.896044
1387.821253,-9622.677246,-2072.576638,229.828649
1387.821574,-7772.162391,-444.123565,-383.047749
1387.821895,-9474.636058,74.020594,1762.019645
1387.822216,-10066.800811,592.164754,3447.429741
1387.822537,-7846.182985,-296.082377,1225.752797
1387.822858,-8882.471304,-1110.308913,-612.876398
1387.823179,-8734.430116,1702.473667,1302.362347
1387.823500,-13175.665768,370.102971,4749.792088
1387.823821,-11843.295072,0.000000,5745.716235
1387.824142,-10658.965565,-962.267725,3600.648841
1387.824463,-9400.615463,-2368.659014,1149.143247
1387.824784,-7179.997637,-518.144159,766.095498
1387.825105,-11325.150913,-592.164754,3677.258390
1387.825426,-8068.244768,-296.082377,1685.410096
1387.825747,-7550.100608,444.123565,153.219100
1387.826068,-9622.677246,-1110.308913,229.828649
1387.826389,-6957.935855,444.123565,-306.438199
1387.826710,-12583.501014,444.123565,3524.039291
1387.827031,-10214.842000,-962.267725,4290.134789
1387.827352,-9030.512492,-2294.638420,229.828649
1387.827673,-9326.594869,-2442.679609,-612.876398
1387.827994,-8808.450710,-1110.308913,-766.095498
1387.828315,-10288.862594,0.000000,1838.629195
1387.828636,-9474.636058,-1776.494261,1455.581446
1387.828956,-8512.368333,-1702.473667,-1455.581446
1387.829277,-8734.430116,-444.123565,-2834.553343
1387.829598,-8956.491898,592.164754,-1378.971896
1387.829919,-10807.006753,2294.638420,1762.019645
1387.830240,-9844.739029,888.247130,2221.676944
1387.830561,-9918.759623,-740.205942,-1455.581446
1387.830882,-8068.244768,962.267725,-689.485948
1387.831203,-11547.212695,-1110.308913,459.657299
1387.831524,-11177.109724,-370.102971,3753.867940
1387.831845,-9104.533087,-962.267725,2604.724693
1387.832166,-9844.739029,-1406.391290,-1838.629195
1387.832487,-8438.347739,1850.514855,-2451.505594
1387.832808,-9030.512492,2664.741391,0.000000
1387.833129,-9030.512492,1628.453072,2298.286494
1387.833450,-8734.430116,74.020594,995.924147
1387.833771,-9918.759623,-1184.329507,-1072.533697
1387.834092,-8882.471304,0.000000,-459.657299
1387.834413,-10658.965565,296.082377,2911.162892
1387.834734,-11325.150913,-962.267725,5132.839837
1387.835055,-10140.821405,-1998.556043,2604.724693
1387.835376,-9030.512492,-2294.638420,0.000000
1387.835697,-7846.182985,0.000000,76.609550
1387.836018,-10584.944971,-592.164754,2604.724693
1387.836339,-9992.780217,592.164754,3600.648841
1387.836660,-9252.574275,444.123565,1149.143247
1387.836981,-9400.615463,592.164754,-229.828649
1387.837302,-8364.327145,2146.597232,459.657299
1387.837623,-11547.212695,-1850.514855,3140.991542
1387.837944,-9918.759623,-1924.535449,3600.648841
1387.838265,-9474.636058,-2220.617826,1455.581446
1387.838586,-9844.739029,-814.226536,459.657299
1387.838907,-8290.306550,1184.329507,1378.971896
1387.839228,-11177.109724,1554.432478,3600.648841
1387.839549,-10436.903782,1258.350101,4903.011187
1387.839870,-8956.491898,-592.164754,1072.533697
1387.840190,-8438.347739,-2146.597232,1072.533697
1387.840511,-7476.080014,-1998.556043,842.705048
1387.840832,-10955.047942,-1628.453072,3753.867940
1387.841153,-10140.821405,-1702.473667,3370.820191
1387.841474,-9918.759623,-1110.308913,76.609550
1387.841795,-8512.368333,-296.082377,-459.657299
1387.842116,-8512.368333,814.226536,766.095498
1387.842437,-12361.439231,-740.205942,3064.381992
1387.842758,-9030.512492,0.000000,1302.362347
1387.843079,-9770.718434,-2220.617826,-766.095498
1387.843400,-9030.512492,-148.041188,-1072.533697
1387.843721,-8586.388927,444.123565,-306.438199
1387.844042,-11325.150913,-222.061783,2528.115143
1387.844363,-8956.491898,-148.041188,766.095498
1387.844684,-9548.656652,-1480.411884,-1149.143247
1387.845005,-9178.553681,0.000000,-842.705048
1387.845326,-10658.965565,-444.123565,995.924147
1387.845647,-12583.501014,-2072.576638,3983.696590
1387.845968,-10214.842000,-2960.823768,2298.286494
1387.846289,-8438.347739,-3404.947333,-2451.505594
1387.846610,-7402.059420,-1110.308913,-3140.991542
1387.846931,-7846.182985,2146.597232,-1149.143247
1387.847252,-10362.883188,3034.844362,2298.286494
1387.847573,-8882.471304,1258.350101,459.657299
1387.847894,-8660.409521,-962.267725,-3140.991542
1387.848215,-8068.244768,-1702.473667,-3064.381992
1387.848536,-11325.150913,740.205942,153.219100
1387.848857,-12953.603985,1924.535449,5362.668486
1387.849178,-11103.089130,370.102971,3830.477490
1387.849499,-8734.430116,-1110.308913,229.828649
1387.849820,-8660.409521,-2368.659014,-1991.848295
1387.850141,-9918.759623,-1924.535449,842.705048
1387.850462,-10807.006753,-1036.288319,2604.724693
1387.850783,-8734.430116,0.000000,383.047749
1387.851104,-6883.915261,1702.473667,-2834.553343
1387.851425,-7994.224174,3404.947333,-1378.971896
1387.851745,-10881.027347,1998.556043,2145.067394
1387.852066,-12361.439231,518.144159,5362.668486
1387.852387,-11177.109724,-3404.947333,3370.820191
1387.852708,-10066.800811,-3997.112087,1455.581446
1387.853029,-10362.883188,-740.205942,2068.457845
1387.853350,-11843.295072,666.185348,4213.525239
1387.853671,-9474.636058,2960.823768,3830.477490
1387.853992,-7328.038826,1036.288319,-306.438199
1387.854313,-6587.832884,814.226536,-2911.162892
1387.854634,-7179.997637,2886.803174,-689.485948
1387.854955,-12509.480420,-370.102971,2757.943793
1387.855276,-9474.636058,962.267725,6358.592633
1387.855597,-9474.636058,-2072.576638,2451.505594
1387.855918,-8586.388927,-1850.514855,536.266849
1387.856239,-9326.594869,888.247130,2374.896044
1387.856560,-11917.315666,0.000000,4903.011187
1387.856881,-7624.121203,814.226536,2528.115143
1387.857202,-8512.368333,0.000000,-459.657299
1387.857523,-7698.141797,0.000000,-2145.067394
1387.857844,-7846.182985,1480.411884,76.609550
1387.858165,-12435.459826,296.082377,2451.505594
1387.858486,-9326.594869,-518.144159,3370.820191
1387.858807,-9474.636058,-2146.597232,0.000000
1387.859128,-9400.615463,-2886.803174,-383.047749
1387.859449,-9548.656652,-962.267725,536.266849
1387.859770,-12065.356855,-370.102971,3370.820191
1387.860091,-9252.574275,-296.082377,1991.848295
1387.860412,-9844.739029,-1036.288319,-1455.581446
1387.860733,-7402.059420,-962.267725,-3370.820191
1387.861054,-8734.430116,666.185348,-1378.971896
1387.861375,-11547.212695,1110.308913,2528.115143
1387.861696,-10436.903782,-962.267725,1685.410096
1387.862017,-8956.491898,-1850.514855,-459.657299
1387.862338,-7846.182985,-3108.864956,-1532.190996
1387.862659,-9252.574275,-1332.370696,-229.828649
1387.862980,-11325.150913,-666.185348,2681.334243
1387.863300,-9400.615463,-1036.288319,1685.410096
1387.863621,-9252.574275,-962.267725,-2834.553343
1387.863942,-7846.182985,1702.473667,-1762.019645
1387.864263,-10066.800811,222.061783,229.828649
1387.864584,-9770.718434,592.164754,2068.457845
1387.864905,-9844.739029,-1850.514855,1378.971896
1387.865226,-7031.956449,-814.226536,-2987.772442
1387.865547,-8808.450710,-222.061783,-536.266849
1387.865868,-11843.295072,1998.556043,4596.572988
1387.866189,-12509.480420,-2146.597232,5209.449386
1387.866510,-9622.677246,-2960.823768,3140.991542
1387.866831,-9474.636058,-3627.009116,153.219100
1387.867152,-8364.327145,-2072.576638,76.609550
1387.867473,-10362.883188,0.000000,3140.991542
1387.867794,-9474.636058,1184.329507,4596.572988
1387.868115,-9178.553681,888.247130,1608.800546
1387.868436,-7031.956449,-1110.308913,-536.266849
1387.868757,-9400.615463,-370.102971,306.438199
1387.869078,-10807.006753,-1850.514855,3370.820191
1387.869399,-10214.842000,-2812.782580,3524.039291
1387.869720,-9326.594869,-1924.535449,2374.896044
1387.870041,-9622.677246,-1110.308913,-919.314598
1387.870362,-9474.636058,666.185348,842.705048
1387.870683,-11103.089130,2886.803174,4290.134789
1387.871004,-10214.842000,1184.329507,4596.572988
1387.871325,-9918.759623,-740.205942,1072.533697
1387.871646,-8660.409521,-962.267725,459.657299
1387.871967,-8068.244768,-1554.432478,-1762.019645
1387.872288,-11251.130318,-740.205942,3217.601092
1387.872609,-10066.800811,-444.123565,3830.477490
1387.872930,-9326.594869,-1258.350101,1072.533697
1387.873251,-8438.347739,-814.226536,-153.219100
1387.873572,-8956.491898,518.144159,995.924147
1387.873893,-11621.233289,888.247130,3064.381992
1387.874214,-9622.677246,2516.700203,2757.943793
1387.874534,-10584.944971,-296.082377,153.219100
1387.874855,-6957.935855,-592.164754,-2834.553343
1387.875176,-9178.553681,0.000000,-153.219100
1387.875497,-10658.965565,-1036.288319,919.314598
1387.875818,-9474.636058,222.061783,919.314598
1387.876139,-10140.821405,592.164754,-1532.190996
1387.876460,-8364.327145,1258.350101,-1762.019645
1387.876781,-9844.739029,1628.453072,-995.924147
1387.877102,-11695.253884,0.000000,2374.896044
1387.877423,-9548.656652,-740.205942,229.828649
1387.877744,-9474.636058,-2368.659014,-1915.238745
1387.878065,-8142.265362,-1332.370696,-1149.143247
1387.878386,-10214.842000,-296.082377,76.609550
1387.878707,-9918.759623,962.267725,1991.848295
1387.879028,-9548.656652,74.020594,-919.314598
1387.879349,-8660.409521,222.061783,-2221.676944
1387.879670,-8216.285956,0.000000,-2911.162892
1387.879991,-10362.883188,2294.638420,766.095498
1387.880312,-12065.356855,1850.514855,3907.087040
1387.880633,-11177.109724,-814.226536,3907.087040
1387.880954,-10584.944971,-3256.906145,1991.848295
1387.881275,-8512.368333,-3627.009116,306.438199
1387.881596,-10658.965565,-2886.803174,1302.362347
1387.881917,-10288.862594,148.041188,3217.601092
1387.882238,-7550.100608,1850.514855,153.219100
1387.882559,-7994.224174,2664.741391,-1915.238745
1387.882880,-6883.915261,3108.864956,-1149.143247
1387.883201,-9474.636058,2072.576638,1378.971896
1387.883522,-12361.439231,74.020594,3677.258390
1387.883843,-10881.027347,-1924.535449,2757.943793
1387.884164,-10066.800811,-3034.844362,1532.190996
1387.884485,-10436.903782,-1998.556043,3983.696590
1387.884806,-11769.274478,-1184.329507,4979.620737
1387.885127,-9844.739029,370.102971,4596.572988
1387.885448,-9252.574275,-592.164754,1378.971896
1387.885769,-7846.182985,-518.144159,-1149.143247
1387.886089,-7254.018232,0.000000,-842.705048
1387.886410,-9696.697840,1332.370696,2757.943793
1387.886731,-11251.130318,-1332.370696,4366.744339
1387.887052,-8586.388927,-2368.659014,2145.067394
1387.887373,-9474.636058,-3997.112087,536.266849
1387.887694,-8660.409521,0.000000,612.876398
1387.888015,-12139.377449,888.247130,5286.058936
1387.888336,-10214.842000,1110.308913,5822.325785
1387.888657,-8586.388927,-1184.329507,-76.609550
1387.888978,-7105.977043,-1554.432478,-2221.676944
1387.889299,-8882.471304,222.061783,-766.095498
1387.889620,-10881.027347,148.041188,2451.505594
1387.889941,-9474.636058,-1258.350101,2681.334243
1387.890262,-8808.450710,-1702.473667,459.657299
1387.890583,-8586.388927,-1406.391290,-536.266849
1387.890904,-9622.677246,-1258.350101,76.609550
1387.891224,-11029.068536,-1184.329507,2298.286494
1387.891545,-8586.388927,-1480.411884,766.095498
1387.891866,-8956.491898,-1702.473667,-2528.115143
1387.892187,-7476.080014,370.102971,-1991.848295
1387.892508,-9326.594869,1110.308913,-1072.533697
1387.892828,-12657.521608,1184.329507,2298.286494
1387.893149,-10214.842000,1406.391290,1838.629195
1387.893470,-10510.924376,-148.041188,-536.266849
1387.893791,-9548.656652,-296.082377,-995.924147
1387.894112,-9548.656652,0.000000,229.828649
1387.894432,-10807.006753,-1554.432478,2068.457845
1387.894753,-8512.368333,-1480.411884,-306.438199
1387.895074,-8364.327145,-592.164754,-2451.505594
1387.895395,-8882.471304,370.102971,-1608.800546
1387.895715,-9474.636058,1036.288319,1455.581446
1387.896036,-11177.109724,814.226536,3983.696590
1387.896357,-9770.718434,-1628.453072,2374.896044
1387.896678,-9030.512492,-2146.597232,0.000000
1387.896999,-9030.512492,-814.226536,536.266849
1387.897319,-10584.944971,222.061783,3140.991542
1387.897640,-10140.821405,-370.102971,4443.353888
1387.897961,-9992.780217,-1628.453072,2298.286494
1387.898282,-7698.141797,-1554.432478,-689.485948
1387.898603,-8586.388927,1036.288319,1072.533697
1387.898923,-11695.253884,1258.350101,3447.429741
1387.899244,-9770.718434,1110.308913,4903.011187
1387.899565,-9474.636058,-1184.329507,1685.410096
1387.899886,-9252.574275,-888.247130,1685.410096
1387.900207,-8068.244768,-148.041188,306.438199
1387.900527,-10066.800811,-518.144159,3370.820191
1387.900848,-9104.533087,-1406.391290,3983.696590
1387.901169,-8808.450710,-1998.556043,1762.019645
1387.901490,-9992.780217,-1332.370696,689.485948
1387.901810,-8512.368333,0.000000,459.657299
1387.902131,-10658.965565,1776.494261,2681.334243
1387.902452,-11103.089130,1258.350101,4519.963438
1387.902773,-9844.739029,0.000000,2757.943793
1387.903094,-8438.347739,0.000000,-766.095498
1387.903414,-9030.512492,-814.226536,459.657299
1387.903735,-9548.656652,-592.164754,1532.190996
1387.904056,-10362.883188,-1110.308913,2528.115143
1387.904377,-8438.347739,-1406.391290,-1072.533697
1387.904698,-8068.244768,-148.041188,-2374.896044
1387.905018,-8364.327145,444.123565,-306.438199
1387.905339,-11325.150913,-444.123565,2451.505594
1387.905660,-9696.697840,0.000000,2911.162892
1387.905981,-10732.986159,-2516.700203,76.609550
1387.906301,-9992.780217,-2368.659014,-229.828649
1387.906622,-9030.512492,-370.102971,459.657299
1387.906943,-11991.336260,-74.020594,1455.581446
1387.907264,-9178.553681,1184.329507,1455.581446
1387.907585,-10288.862594,222.061783,-1149.143247
1387.907905,-7105.977043,370.102971,-3140.991542
1387.908226,-8808.450710,1924.535449,-1378.971896
1387.908547,-11695.253884,592.164754,1378.971896
1387.908868,-9918.759623,-74.020594,1915.238745
1387.909189,-10658.965565,-1110.308913,0.000000
1387.909509,-8512.368333,-1184.329507,-612.876398
1387.909830,-10214.842000,-222.061783,1149.143247
1387.910151,-11547.212695,-222.061783,4366.744339
1387.910472,-9474.636058,0.000000,2221.676944
1387.910792,-9474.636058,-814.226536,-536.266849
1387.911113,-5921.647536,740.205942,-766.095498
1387.911434,-9918.759623,444.123565,-459.657299
1387.911755,-9844.739029,296.082377,1532.190996
1387.912076,-8364.327145,-148.041188,153.219100
1387.912396,-9252.574275,-1110.308913,-383.047749
1387.912717,-8882.471304,-814.226536,612.876398
1387.913038,-11251.130318,-1998.556043,4519.963438
1387.913359,-12509.480420,-2294.638420,5975.544884
1387.913680,-10362.883188,-3034.844362,3294.210641
1387.914000,-10066.800811,-1406.391290,1225.752797
1387.914321,-8290.306550,2294.638420,612.876398
1387.914642,-9474.636058,2368.659014,1302.362347
1387.914963,-10584.944971,2220.617826,4596.572988
1387.915283,-7105.977043,-814.226536,842.705048
1387.915604,-8956.491898,-4145.153275,0.000000
1387.915925,-8956.491898,-3034.844362,1532.190996
1387.916246,-11991.336260,-2294.638420,3983.696590
1387.916567,-10288.862594,0.000000,4136.915689
1387.916887,-8512.368333,1480.411884,2068.457845
1387.917208,-6957.935855,1406.391290,-1378.971896
1387.917529,-6587.832884,4441.235652,-995.924147
1387.917850,-8808.450710,518.144159,1608.800546
1387.918171,-10584.944971,1554.432478,3140.991542
1387.918491,-8512.368333,-740.205942,-306.438199
1387.918812,-10436.903782,-2146.597232,229.828649
1387.919133,-8512.368333,814.226536,1685.410096
1387.919454,-13841.851115,1480.411884,5515.887586
1387.919774,-10807.006753,370.102971,4826.401637
1387.920095,-9474.636058,-222.061783,689.485948
1387.920416,-9770.718434,-1850.514855,-1608.800546
1387.920737,-7476.080014,740.205942,-842.705048
1387.921058,-10658.965565,888.247130,2068.457845
1387.921378,-9104.533087,-1258.350101,1608.800546
1387.921699,-7846.182985,-1332.370696,-689.485948
1387.922020,-9178.553681,-3478.967927,-1991.848295
1387.922341,-9474.636058,-1924.535449,-612.876398
1387.922662,-11843.295072,-666.185348,2987.772442
1387.922982,-10881.027347,-444.123565,2604.724693
1387.923303,-10362.883188,-814.226536,-842.705048
1387.923624,-7698.141797,370.102971,-1838.629195
1387.923945,-9770.718434,1406.391290,-1225.752797
1387.924265,-11917.315666,1184.329507,1302.362347
1387.924586,-10436.903782,1036.288319,1225.752797
1387.924907,-9622.677246,-2294.638420,-1608.800546
1387.925228,-7846.182985,-1332.370696,-2298.286494
1387.925549,-9252.574275,-666.185348,-536.266849
1387.925869,-11103.089130,-222.061783,2834.553343
1387.926190,-8512.368333,740.205942,1762.019645
1387.926511,-8956.491898,-1702.473667,-2221.676944
1387.926832,-6587.832884,1924.535449,-2374.896044
1387.927153,-9918.759623,1332.370696,306.438199
1387.927473,-9696.697840,666.185348,3677.258390
1387.927794,-10658.965565,0.000000,3830.477490
1387.928115,-9696.697840,-2368.659014,842.705048
1387.928436,-7698.141797,-1554.432478,459.657299
1387.928756,-11473.192101,-370.102971,2451.505594
1387.929077,-9548.656652,814.226536,5209.449386
1387.929398,-9178.553681,-1110.308913,1762.019645
1387.929719,-8290.306550,-888.247130,-612.876398
1387.930040,-7179.997637,0.000000,-1149.143247
1387.930360,-10955.047942,-222.061783,2528.115143
1387.930681,-10658.965565,666.185348,5056.230287
1387.931002,-9992.780217,-888.247130,3294.210641
1387.931323,-9622.677246,-1776.494261,1762.019645
1387.931644,-7698.141797,-222.061783,1149.143247
1387.931964,-10140.821405,-1406.391290,3140.991542
1387.932285,-9844.739029,-888.247130,4596.572988
1387.932606,-9992.780217,-1850.514855,2145.067394
1387.932927,-9104.533087,-1480.411884,459.657299
1387.933248,-8734.430116,518.144159,842.705048
1387.933568,-11769.274478,888.247130,2987.772442
1387.933889,-10362.883188,2368.659014,4519.963438
1387.934210,-10658.965565,-1628.453072,1608.800546
1387.934531,-8586.388927,-592.164754,0.000000
1387.934851,-8808.450710,-1332.370696,0.000000
1387.935172,-11251.130318,-1258.350101,2145.067394
1387.935493,-9400.615463,-1184.329507,3370.820191
1387.935814,-9918.759623,-1776.494261,-153.219100
1387.936135,-7254.018232,1036.288319,0.000000
1387.936455,-8956.491898,296.082377,0.000000
1387.936776,-11029.068536,-1036.288319,1991.848295
1387.937097,-9252.574275,518.144159,459.657299
1387.937418,-9400.615463,-296.082377,-383.047749
1387.937739,-8808.450710,-2368.659014,-1991.848295
1387.938059,-7846.182985,1406.391290,153.219100
1387.938380,-11843.295072,-1332.370696,1455.581446
1387.938701,-9474.636058,518.144159,919.314598
1387.939022,-9770.718434,-962.267725,-995.924147
1387.939342,-8512.368333,370.102971,-1762.019645
1387.939663,-8142.265362,666.185348,-2145.067394
1387.939984,-12065.356855,0.000000,1532.190996
1387.940305,-8364.327145,-296.082377,2221.676944
1387.940626,-9770.718434,-2294.638420,-1149.143247
1387.940946,-9252.574275,-1110.308913,-1225.752797
1387.941267,-9844.739029,-666.185348,1072.533697
1387.941588,-10510.924376,-1258.350101,2451.505594
1387.941909,-9548.656652,0.000000,1455.581446
1387.942230,-9104.533087,-1554.432478,-1915.238745
1387.942550,-7179.997637,1110.308913,-2145.067394
1387.942871,-9992.780217,888.247130,306.438199
1387.943192,-10732.986159,740.205942,4060.306139
1387.943513,-9622.677246,-666.185348,2757.943793
1387.943833,-10362.883188,-2294.638420,612.876398
1387.944154,-8512.368333,-592.164754,383.047749
1387.944475,-11621.233289,-592.164754,1762.019645
1387.944796,-10066.800811,0.000000,4673.182538
1387.945117,-9548.656652,-1036.288319,1838.629195
1387.945437,-9474.636058,-1332.370696,-612.876398
1387.945758,-7550.100608,1554.432478,306.438199
1387.946079,-9844.739029,1776.494261,1915.238745
1387.946400,-9918.759623,888.247130,2451.505594
1387.946721,-9104.533087,518.144159,689.485948
1387.947041,-9326.594869,-592.164754,-689.485948
1387.947362,-8290.306550,666.185348,1302.362347
1387.947683,-13101.645173,-666.185348,5822.325785
1387.948004,-11029.068536,-888.247130,6205.373534
1387.948324,-10510.924376,-2590.720797,1225.752797
1387.948645,-7698.141797,0.000000,153.219100
1387.948966,-8364.327145,2516.700203,76.609550
1387.949287,-10066.800811,2220.617826,3064.381992
1387.949608,-9104.533087,1332.370696,2911.162892
1387.949928,-8142.265362,-518.144159,0.000000
1387.950249,-8882.471304,-2812.782580,-1455.581446
1387.950570,-9474.636058,-444.123565,1072.533697
1387.950891,-11991.336260,740.205942,5362.668486
1387.951212,-11695.253884,-888.247130,5439.278036
1387.951532,-9326.594869,-370.102971,2604.724693
1387.951853,-9474.636058,-2146.597232,-689.485948
1387.952174,-6957.935855,0.000000,-1838.629195
1387.952495,-11177.109724,1850.514855,919.314598
1387.952815,-7328.038826,2294.638420,1072.533697
1387.953136,-7698.141797,-296.082377,-2604.724693
1387.953457,-7031.956449,-518.144159,-3294.210641
1387.953778,-8142.265362,-592.164754,-1532.190996
1387.954099,-12879.583391,-1406.391290,3370.820191
1387.954419,-11843.295072,-1850.514855,3677.258390
1387.954740,-10584.944971,-2664.741391,229.828649
1387.955061,-9474.636058,-962.267725,-1149.143247
1387.955382,-9696.697840,1036.288319,-153.219100
1387.955703,-11843.295072,1554.432478,2068.457845
1387.956023,-9252.574275,1110.308913,536.266849
1387.956344,-8364.327145,-1776.494261,-3370.820191
1387.956665,-6883.915261,0.000000,-3677.258390
1387.956986,-10436.903782,-888.247130,-2068.457845
1387.957306,-11399.171507,0.000000,2451.505594
1387.957627,-9474.636058,444.123565,2451.505594
1387.957948,-10214.842000,-2072.576638,-383.047749
1387.958269,-7476.080014,962.267725,0.000000
1387.958590,-11843.295072,-370.102971,2068.457845
1387.958910,-11473.192101,74.020594,3677.258390
1387.959231,-10140.821405,-444.123565,2681.334243
1387.959552,-9474.636058,-2146.597232,76.609550
1387.959873,-7624.121203,-370.102971,766.095498
1387.960194,-10732.986159,-518.144159,2604.724693
1387.960514,-9474.636058,-1258.350101,3064.381992
1387.960835,-8734.430116,-296.082377,1302.362347
1387.961156,-9030.512492,-814.226536,459.657299
1387.961477,-7254.018232,888.247130,76.609550
1387.961798,-11695.253884,-148.041188,2834.553343
1387.962118,-9844.739029,-370.102971,4519.963438
1387.962439,-9622.677246,-1480.411884,2604.724693
1387.962760,-10066.800811,-2442.679609,1532.190996
1387.963081,-7698.141797,296.082377,1838.629195
1387.963401,-12435.459826,0.000000,3753.867940
1387.963722,-9696.697840,1258.350101,5132.839837
1387.964043,-8512.368333,-1554.432478,3140.991542
1387.964364,-8290.306550,-2146.597232,-306.438199
1387.964685,-7105.977043,-666.185348,-689.485948
1387.965005,-11769.274478,-962.267725,2604.724693
1387.965326,-9992.780217,-148.041188,4213.525239
1387.965647,-9252.574275,-1332.370696,1685.410096
1387.965968,-9474.636058,-518.144159,919.314598
1387.966289,-8512.368333,592.164754,612.876398
1387.966609,-11843.295072,-444.123565,3983.696590
1387.966930,-10436.903782,-592.164754,3217.601092
1387.967251,-8660.409521,-962.267725,-612.876398
1387.967572,-8734.430116,-1998.556043,-1991.848295
1387.967892,-7772.162391,2368.659014,-1608.800546
1387.968213,-12435.459826,1406.391290,3140.991542
1387.968534,-8586.388927,0.000000,1608.800546
1387.968855,-9622.677246,-666.185348,-919.314598
1387.969176,-7994.224174,-740.205942,-1762.019645
1387.969496,-9400.615463,-444.123565,-995.924147
1387.969817,-11917.315666,222.061783,3753.867940
1387.970138,-9474.636058,-296.082377,3064.381992
1387.970459,-9844.739029,-1776.494261,-766.095498
1387.970780,-8734.430116,-74.020594,-1915.238745
1387.971100,-9474.636058,1184.329507,-1532.190996
1387.971421,-11843.295072,1924.535449,1915.238745
1387.971742,-9400.615463,1850.514855,1532.190996
1387.972063,-8956.491898,-444.123565,-2374.896044
1387.972383,-8808.450710,-148.041188,-1991.848295
1387.972704,-10214.842000,-1110.308913,-1149.143247
1387.973025,-10881.027347,-148.041188,2911.162892
1387.973346,-9844.739029,-888.247130,2451.505594
1387.973667,-9326.594869,-2368.659014,-689.485948
1387.973987,-7179.997637,-222.061783,-1225.752797
1387.974308,-10140.821405,74.020594,612.876398
1387.974629,-10732.986159,962.267725,3294.210641
1387.974950,-9252.574275,296.082377,1838.629195
1387.975271,-9178.553681,-1998.556043,76.609550
1387.975591,-7476.080014,444.123565,0.000000
1387.975912,-12139.377449,-1776.494261,3140.991542
1387.976233,-9844.739029,-2220.617826,5132.839837
1387.976554,-9474.636058,-3997.112087,1991.848295
1387.976874,-8808.450710,-2960.823768,-1149.143247
1387.977195,-9030.512492,0.000000,-536.266849
1387.977516,-10436.903782,2886.803174,3524.039291
1387.977837,-11103.089130,3034.844362,5132.839837
1387.978158,-9474.636058,1110.308913,2528.115143
1387.978478,-9326.594869,-1850.514855,76.609550
1387.978799,-7550.100608,-1480.411884,229.828649
1387.979120,-11473.192101,-1850.514855,2528.115143
1387.979441,-9400.615463,-1258.350101,2298.286494
1387.979762,-9770.718434,-814.226536,1838.629195
1387.980082,-7772.162391,74.020594,-689.485948
1387.980403,-7698.141797,2146.597232,306.438199
1387.980724,-11769.274478,888.247130,2451.505594
1387.981045,-10732.986159,1036.288319,3677.258390
1387.981365,-8956.491898,296.082377,1225.752797
1387.981686,-9844.739029,-1850.514855,0.000000
1387.982007,-6143.709319,592.164754,842.705048
1387.982328,-11251.130318,-1924.535449,3064.381992
1387.982649,-8290.306550,-444.123565,1455.581446
1387.982969,-8586.388927,-518.144159,76.609550
1387.983290,-9474.636058,-666.185348,-306.438199
1387.983611,-8808.450710,1998.556043,459.657299
1387.983932,-13175.665768,-592.164754,3907.087040
1387.984253,-10436.903782,-518.144159,4366.744339
1387.984573,-9252.574275,-2738.761985,306.438199
1387.984894,-8660.409521,-1702.473667,-306.438199
1387.985215,-8660.409521,-740.205942,76.609550
1387.985536,-9844.739029,370.102971,1302.362347
1387.985856,-8882.471304,1702.473667,383.047749
1387.986177,-8956.491898,0.000000,-1532.190996
1387.986498,-8660.409521,222.061783,-1915.238745
1387.986819,-9992.780217,-518.144159,383.047749
1387.987140,-12435.459826,-740.205942,1532.190996
1387.987460,-10066.800811,148.041188,1532.190996
1387.987781,-10214.842000,0.000000,766.095498
1387.988102,-7105.977043,1554.432478,-842.705048
1387.988423,-10584.944971,-296.082377,0.000000
1387.988744,-9474.636058,-1258.350101,1302.362347
1387.989064,-7698.141797,-888.247130,-1532.190996
1387.989385,-9844.739029,-1628.453072,-2834.553343
1387.989706,-8290.306550,2146.597232,-1072.533697
1387.990027,-11325.150913,1554.432478,1455.581446
1387.990347,-11103.089130,1184.329507,2834.553343
1387.990668,-10288.862594,222.061783,1838.629195
1387.990989,-9992.780217,-1850.514855,459.657299
1387.991310,-9474.636058,-1406.391290,919.314598
1387.991630,-10732.986159,-1258.350101,2374.896044
1387.991951,-10881.027347,-1406.391290,2528.115143
1387.992272,-8364.327145,222.061783,1225.752797
1387.992592,-8142.265362,-296.082377,-153.219100
1387.992913,-8512.368333,444.123565,383.047749
1387.993234,-11177.109724,-1554.432478,2221.676944
1387.993555,-10140.821405,-592.164754,3983.696590
1387.993875,-11325.150913,-2664.741391,2528.115143
1387.994196,-9622.677246,-370.102971,1608.800546
1387.994517,-10807.006753,888.247130,3294.210641
1387.994838,-10510.924376,0.000000,4060.306139
1387.995158,-8660.409521,444.123565,3524.039291
1387.995479,-8808.450710,-2812.782580,-153.219100
1387.995800,-6883.915261,-2516.700203,-2451.505594
1387.996120,-6587.832884,-370.102971,-1762.019645
1387.996441,-10436.903782,0.000000,1532.190996
1387.996762,-8364.327145,2072.576638,3140.991542
1387.997083,-11843.295072,-518.144159,3524.039291
1387.997403,-11325.150913,-1850.514855,3447.429741
1387.997724,-9992.780217,-1628.453072,2604.724693
1387.998045,-12287.418637,-3182.885551,4903.011187
1387.998366,-9474.636058,-1776.494261,3217.601092
1387.998686,-8734.430116,-1702.473667,306.438199
1387.999007,-6143.709319,-1480.411884,0.000000
1387.999328,-7031.956449,444.123565,-1225.752797
1387.999649,-9252.574275,-222.061783,306.438199
1387.999969,-9992.780217,0.000000,1762.019645
1388.000290,-10807.006753,-148.041188,842.705048
1388.000611,-9252.574275,1406.391290,1149.143247
1388.000931,-11769.274478,0.000000,1838.629195
1388.001252,-10955.047942,814.226536,3294.210641
1388.001573,-9696.697840,-1628.453072,919.314598
1388.001894,-9918.759623,-2368.659014,-1685.410096
1388.002214,-7698.141797,-518.144159,-2068.457845
1388.002535,-8364.327145,74.020594,-2911.162892
1388.002856,-10584.944971,2812.782580,536.266849
1388.003177,-9400.615463,2812.782580,842.705048
1388.003497,-11177.109724,-592.164754,-459.657299
1388.003818,-7920.203579,-666.185348,-1532.190996
1388.004139,-10658.965565,-1850.514855,-536.266849
1388.004459,-10807.006753,74.020594,3064.381992
1388.004780,-10807.006753,-518.144159,2757.943793
1388.005101,-9992.780217,-592.164754,76.609550
1388.005422,-8438.347739,518.144159,-1225.752797
1388.005742,-9696.697840,2812.782580,0.000000
1388.006063,-11621.233289,740.205942,1915.238745
1388.006384,-8216.285956,888.247130,1302.362347
1388.006705,-10955.047942,-1850.514855,-76.609550
1388.007025,-7328.038826,222.061783,459.657299
1388.007346,-11547.212695,-1480.411884,689.485948
1388.007667,-9844.739029,-962.267725,3830.477490
1388.007987,-9252.574275,-2220.617826,229.828649
1388.008308,-9252.574275,-814.226536,-383.047749
1388.008629,-8586.388927,1406.391290,919.314598
1388.008950,-9770.718434,1110.308913,2221.676944
1388.009270,-10214.842000,2368.659014,4060.306139
1388.009591,-9844.739029,-518.144159,1225.752797
1388.009912,-8068.244768,-1332.370696,-306.438199
1388.010233,-8068.244768,-1184.329507,0.000000
1388.010553,-10955.047942,-962.267725,2834.553343
1388.010874,-9918.759623,0.000000,3447.429741
1388.011195,-10436.903782,-814.226536,1608.800546
1388.011515,-8364.327145,296.082377,-536.266849
1388.011836,-8882.471304,2146.597232,1225.752797
1388.012157,-11769.274478,222.061783,4213.525239
1388.012478,-9622.677246,-444.123565,4290.134789
1388.012798,-9326.594869,-2072.576638,2834.553343
1388.013119,-8808.450710,-2294.638420,153.219100
1388.013440,-9548.656652,-370.102971,1532.190996
1388.013761,-11473.192101,-518.144159,4443.353888
1388.014081,-9178.553681,-1554.432478,3140.991542
1388.014402,-8808.450710,-962.267725,459.657299
1388.014723,-8216.285956,-1406.391290,0.000000
1388.015043,-8290.306550,-296.082377,-229.828649
1388.015364,-11325.150913,1924.535449,3907.087040
1388.015685,-9918.759623,0.000000,2604.724693
1388.016006,-9178.553681,-1480.411884,1225.752797
1388.016326,-8438.347739,-2590.720797,-842.705048
1388.016647,-9548.656652,-1480.411884,842.705048
1388.016968,-10807.006753,-888.247130,3447.429741
1388.017289,-10214.842000,666.185348,2451.505594
1388.017609,-9548.656652,-296.082377,-229.828649
1388.017930,-7772.162391,148.041188,-2145.067394
1388.018251,-9178.553681,0.000000,-766.095498
1388.018572,-10732.986159,-1110.308913,0.000000
1388.018892,-8586.388927,-1184.329507,-1378.971896
1388.019213,-9474.636058,-888.247130,-2911.162892
1388.019534,-8734.430116,2442.679609,-2221.676944
1388.019854,-9474.636058,1776.494261,1532.190996
1388.020175,-11843.295072,888.247130,3907.087040
1388.020496,-11177.109724,-1332.370696,2451.505594
1388.020817,-9918.759623,-3478.967927,-2298.286494
1388.021137,-8142.265362,222.061783,-1915.238745
1388.021458,-11991.336260,1554.432478,3064.381992
1388.021779,-10140.821405,1554.432478,4826.401637
1388.022100,-9918.759623,-2368.659014,1685.410096
1388.022420,-7328.038826,-4071.132681,-2221.676944
1388.022741,-6809.894666,-2664.741391,-3907.087040
1388.023062,-11399.171507,-1036.288319,1608.800546
1388.023382,-8438.347739,814.226536,2987.772442
1388.023703,-9252.574275,444.123565,459.657299
1388.024024,-8142.265362,-222.061783,0.000000
1388.024345,-7031.956449,-222.061783,-689.485948
1388.024665,-13175.665768,-888.247130,3907.087040
1388.024986,-11473.192101,-592.164754,4903.011187
1388.025307,-8660.409521,-814.226536,1915.238745
1388.025628,-9400.615463,-666.185348,153.219100
1388.025948,-7179.997637,1036.288319,0.000000
1388.026269,-10955.047942,1184.329507,3064.381992
1388.026590,-9622.677246,666.185348,3370.820191
1388.026910,-9696.697840,-1776.494261,689.485948
1388.027231,-8290.306550,-1776.494261,-766.095498
1388.027552,-8734.430116,-592.164754,612.876398
1388.027873,-11621.233289,740.205942,4979.620737
1388.028193,-9992.780217,888.247130,6281.983084
1388.028514,-10362.883188,-592.164754,1762.019645
1388.028835,-8216.285956,-666.185348,153.219100
1388.029156,-9770.718434,-518.144159,459.657299
1388.029476,-11547.212695,666.185348,3370.820191
1388.029797,-9474.636058,1036.288319,3370.820191
1388.030118,-9548.656652,-1036.288319,229.828649
1388.030438,-6291.750507,-1036.288319,-1991.848295
1388.030759,-8216.285956,-444.123565,-1149.143247
1388.031080,-11251.130318,0.000000,2068.457845
1388.031401,-9844.739029,370.102971,2145.067394
1388.031721,-10362.883188,-1332.370696,842.705048
1388.032042,-8586.388927,-814.226536,0.000000
1388.032363,-9548.656652,74.020594,536.266849
1388.032684,-13175.665768,74.020594,4673.182538
1388.033004,-9326.594869,-592.164754,2298.286494
1388.033325,-9622.677246,-2072.576638,-1072.533697
1388.033646,-7105.977043,-1480.411884,-2757.943793
1388.033966,-8660.409521,222.061783,-1378.971896
1388.034287,-10732.986159,814.226536,1915.238745
1388.034608,-8660.409521,1110.308913,383.047749
1388.034929,-9030.512492,-814.226536,-1991.848295
1388.035249,-7624.121203,518.144159,-2068.457845
1388.035570,-11547.212695,-666.185348,842.705048
1388.035891,-11473.192101,-1110.308913,2681.334243
1388.036212,-9474.636058,-1258.350101,1149.143247
1388.036532,-9400.615463,-2072.576638,-1762.019645
1388.036853,-7254.018232,1406.391290,-2068.457845
1388.037174,-11399.171507,592.164754,536.266849
1388.037495,-10214.842000,2664.741391,3294.210641
1388.037815,-9400.615463,148.041188,0.000000
1388.038136,-9400.615463,0.000000,995.924147
1388.038457,-9474.636058,-1776.494261,0.000000
1388.038777,-11029.068536,-1776.494261,1838.629195
1388.039098,-9696.697840,-2516.700203,2681.334243
1388.039419,-7254.018232,0.000000,1762.019645
1388.039740,-9918.759623,-2368.659014,1072.533697
1388.040060,-8438.347739,-1406.391290,306.438199
1388.040381,-13323.706956,2442.679609,4443.353888
1388.040702,-10140.821405,1332.370696,4749.792088
1388.041023,-11177.109724,1258.350101,2451.505594
1388.041343,-9844.739029,370.102971,1608.800546
1388.041664,-8808.450710,-518.144159,459.657299
1388.041985,-9400.615463,-222.061783,2298.286494
1388.042305,-8956.491898,-814.226536,2604.724693
1388.042626,-9474.636058,-2664.741391,-229.828649
1388.042947,-8438.347739,-444.123565,-766.095498
1388.043268,-8438.347739,1036.288319,536.266849
1388.043588,-11251.130318,444.123565,4443.353888
1388.043909,-8882.471304,148.041188,4596.572988
1388.044230,-10881.027347,-1998.556043,1072.533697
1388.044551,-7772.162391,1258.350101,459.657299
1388.044871,-9992.780217,-518.144159,1225.752797
1388.045192,-11769.274478,-148.041188,4060.306139
1388.045513,-8142.265362,592.164754,2068.457845
1388.045833,-8882.471304,-4293.194464,-1532.190996
1388.046154,-6661.853478,-296.082377,-1685.410096
1388.046475,-9474.636058,-888.247130,-383.047749
1388.046796,-9770.718434,1036.288319,2528.115143
1388.047116,-10584.944971,2294.638420,3447.429741
1388.047437,-10807.006753,-814.226536,1072.533697
1388.047758,-7920.203579,-1036.288319,306.438199
1388.048079,-8956.491898,-3404.947333,919.314598
1388.048399,-8660.409521,-1036.288319,1762.019645
1388.048720,-10881.027347,-888.247130,1072.533697
1388.049041,-9548.656652,0.000000,-1225.752797
1388.049361,-7105.977043,1702.473667,-2987.772442
1388.049682,-9770.718434,1924.535449,-459.657299
1388.050003,-10362.883188,1628.453072,1455.581446
1388.050324,-11029.068536,0.000000,995.924147
1388.050644,-11177.109724,-740.205942,-306.438199
1388.050965,-7624.121203,1110.308913,-1915.238745
1388.051286,-11695.253884,1258.350101,1149.143247
1388.051607,-11103.089130,1036.288319,2987.772442
1388.051927,-9326.594869,148.041188,1072.533697
1388.052248,-9474.636058,-740.205942,-229.828649
1388.052569,-7994.224174,0.000000,-1532.190996
1388.052889,-10510.924376,-1036.288319,0.000000
1388.053210,-8290.306550,3256.906145,2298.286494
1388.053531,-12509.480420,-444.123565,1762.019645
1388.053852,-7698.141797,-740.205942,1225.752797
1388.054172,-7624.121203,-3108.864956,-536.266849
1388.054493,-10732.986159,-1702.473667,2145.067394
1388.054814,-10288.862594,-296.082377,3753.867940
1388.055135,-10436.903782,-1110.308913,2987.772442
1388.055455,-10140.821405,-1332.370696,2451.505594
1388.055776,-6291.750507,-1406.391290,-1072.533697
1388.056097,-12213.398043,-1998.556043,1762.019645
1388.056418,-8660.409521,1110.308913,3064.381992
1388.056738,-11399.171507,-296.082377,3064.381992
1388.057059,-8808.450710,-814.226536,3524.039291
1388.057380,-8882.471304,-1258.350101,1608.800546
1388.057700,-10288.862594,-2960.823768,3600.648841
1388.058021,-10584.944971,-1998.556043,3064.381992
1388.058342,-9252.574275,-1110.308913,1685.410096
1388.058663,-5699.585753,-1258.350101,-383.047749
1388.058983,-6883.915261,296.082377,-919.314598
1388.059304,-10066.800811,1184.329507,1302.362347
1388.059625,-8438.347739,444.123565,2221.676944
1388.059946,-10658.965565,-370.102971,1991.848295
1388.060266,-10362.883188,-1554.432478,1685.410096
1388.060587,-8882.471304,74.020594,76.609550
1388.060908,-11991.336260,-296.082377,4136.915689
1388.061228,-10066.800811,1036.288319,4826.401637
1388.061549,-10955.047942,-1332.370696,1685.410096
1388.061870,-7772.162391,-1480.411884,0.000000
1388.062191,-8512.368333,-296.082377,-1302.362347
1388.062511,-10510.924376,-370.102971,995.924147
1388.062832,-10436.903782,370.102971,2604.724693
1388.063153,-10214.842000,-1554.432478,612.876398
1388.063474,-8586.388927,-962.267725,-919.314598
1388.063794,-11251.130318,-1776.494261,766.095498
1388.064115,-10881.027347,888.247130,2451.505594
1388.064436,-11695.253884,-444.123565,1762.019645
1388.064756,-11621.233289,-1924.535449,-306.438199
1388.065077,-6217.729913,1628.453072,-3064.381992
1388.065398,-10288.862594,0.000000,-2221.676944
1388.065719,-9474.636058,1406.391290,-612.876398
1388.066039,-8956.491898,0.000000,-1455.581446
1388.066360,-9474.636058,-962.267725,-2604.724693
1388.066681,-8142.265362,296.082377,-1915.238745
1388.067002,-11473.192101,-444.123565,1685.410096
1388.067322,-11917.315666,-1332.370696,4213.525239
1388.067643,-9474.636058,-1332.370696,1915.238745
1388.067964,-9548.656652,-666.185348,0.000000
1388.068284,-7772.162391,1702.473667,-689.485948
1388.068605,-10584.944971,1628.453072,2374.896044
1388.068926,-8882.471304,296.082377,1762.019645
1388.069247,-8438.347739,-1110.308913,-153.219100
1388.069567,-7772.162391,-1406.391290,-1608.800546
1388.069888,-7624.121203,592.164754,0.000000
1388.070209,-12435.459826,-592.164754,3677.258390
1388.070530,-8586.388927,296.082377,4903.011187
1388.070850,-9844.739029,-1924.535449,2757.943793
1388.071171,-8956.491898,-2886.803174,306.438199
1388.071492,-7402.059420,-222.061783,76.609550
1388.071812,-11473.192101,666.185348,4366.744339
1388.072133,-11399.171507,2294.638420,3907.087040
1388.072454,-9548.656652,0.000000,1838.629195
1388.072775,-8956.491898,-666.185348,612.876398
1388.073095,-10436.903782,-370.102971,-153.219100
1388.073416,-11399.171507,518.144159,3753.867940
1388.073737,-11621.233289,518.144159,5132.839837
1388.074058,-10881.027347,-1184.329507,1762.019645
1388.074378,-9030.512492,-370.102971,1455.581446
1388.074699,-9400.615463,-1924.535449,229.828649
1388.075020,-9844.739029,0.000000,2298.286494
1388.075341,-10658.965565,-592.164754,2451.505594
1388.075661,-9252.574275,-518.144159,766.095498
1388.075982,-8586.388927,-1036.288319,-229.828649
1388.076303,-8586.388927,-148.041188,919.314598
1388.076623,-12213.398043,-1184.329507,3907.087040
1388.076944,-10214.842000,-888.247130,3217.601092
1388.077265,-10955.047942,-1998.556043,1302.362347
1388.077586,-7846.182985,-3034.844362,-1072.533697
1388.077906,-8068.244768,0.000000,229.828649
1388.078227,-11991.336260,-1702.473667,2604.724693
1388.078548,-8734.430116,296.082377,1991.848295
1388.078869,-9104.533087,-296.082377,-689.485948
1388.079189,-7994.224174,148.041188,-1838.629195
1388.079510,-8512.368333,592.164754,-383.047749
1388.079831,-11029.068536,-666.185348,1685.410096
1388.080151,-8216.285956,-444.123565,1991.848295
1388.080472,-9770.718434,-1480.411884,-1225.752797
1388.080793,-8660.409521,740.205942,-1225.752797
1388.081114,-9844.739029,814.226536,153.219100
1388.081434,-10881.027347,-518.144159,1072.533697
1388.081755,-9252.574275,-592.164754,229.828649
1388.082076,-9474.636058,-1554.432478,-2451.505594
1388.082397,-7550.100608,740.205942,-2451.505594
1388.082717,-11843.295072,148.041188,0.000000
1388.083038,-9178.553681,888.247130,2068.457845
1388.083359,-9770.718434,-888.247130,229.828649
1388.083679,-9770.718434,-740.205942,-1225.752797
1388.084000,-8216.285956,518.144159,-919.314598
1388.084321,-11177.109724,-666.185348,1302.362347
1388.084642,-9770.718434,0.000000,2298.286494
1388.084962,-8586.388927,-1480.411884,-536.266849
1388.085283,-8734.430116,-1332.370696,-842.705048
1388.085604,-7550.100608,-74.020594,0.000000
1388.085925,-10955.047942,-1110.308913,3217.601092
1388.086245,-10140.821405,-1332.370696,3983.696590
1388.086566,-11251.130318,0.000000,3217.601092
1388.086887,-10658.965565,-1480.411884,1915.238745
1388.087207,-9474.636058,1110.308913,2298.286494
1388.087528,-11251.130318,0.000000,4519.963438
1388.087849,-8808.450710,0.000000,3677.258390
1388.088170,-9326.594869,-1258.350101,459.657299
1388.088490,-7772.162391,-1332.370696,-1532.190996
1388.088811,-7254.018232,1184.329507,-229.828649
1388.089132,-10584.944971,74.020594,2451.505594
1388.089453,-8512.368333,2146.597232,3294.210641
1388.089773,-11177.109724,-222.061783,1991.848295
1388.090094,-8808.450710,-1036.288319,2145.067394
1388.090415,-8142.265362,0.000000,2757.943793
1388.090736,-12879.583391,-2146.597232,5286.058936
1388.091056,-9326.594869,-1258.350101,3294.210641
1388.091377,-9474.636058,-592.164754,536.266849
1388.091698,-7920.203579,1184.329507,1225.752797
1388.092019,-7698.141797,962.267725,995.924147
1388.092339,-13027.624579,0.000000,5132.839837
1388.092660,-9474.636058,-2738.761985,3140.991542
1388.092981,-10584.944971,-4515.256246,-1378.971896
1388.093302,-6587.832884,-148.041188,-1455.581446
1388.093622,-9696.697840,370.102971,-459.657299
1388.093943,-9178.553681,2072.576638,1455.581446
1388.094264,-8586.388927,888.247130,-153.219100
1388.094585,-8956.491898,-1332.370696,-2298.286494
1388.094905,-7328.038826,-2072.576638,-3983.696590
1388.095226,-11769.274478,-2220.617826,-383.047749
1388.095547,-12509.480420,-148.041188,4136.915689
1388.095868,-9178.553681,962.267725,1608.800546
1388.096188,-11843.295072,-666.185348,459.657299
1388.096509,-7550.100608,-962.267725,-1608.800546
1388.096830,-9548.656652,-666.185348,-2068.457845
1388.097151,-12139.377449,0.000000,1302.362347
1388.097472,-8290.306550,1184.329507,-842.705048
1388.097792,-9622.677246,-592.164754,-1608.800546
1388.098113,-7624.121203,962.267725,-2145.067394
1388.098434,-10955.047942,592.164754,689.485948
1388.098755,-11621.233289,-1184.329507,2911.162892
1388.099075,-10140.821405,-2368.659014,1225.752797
1388.099396,-9548.656652,-1258.350101,-1608.800546
1388.099717,-9030.512492,2294.638420,-842.705048
1388.100038,-9622.677246,1776.494261,229.828649
1388.100358,-8438.347739,3256.906145,1991.848295
1388.100679,-9104.533087,296.082377,-919.314598
1388.101000,-8438.347739,-444.123565,-766.095498
1388.101321,-8216.285956,-962.267725,1378.971896
1388.101641,-12287.418637,-2516.700203,4213.525239
1388.101962,-11103.089130,-1776.494261,7354.516781
1388.102283,-10584.944971,-4071.132681,3677.258390
1388.102604,-9844.739029,-2220.617826,1915.238745
1388.102924,-9326.594869,-740.205942,-536.266849
1388.103245,-9696.697840,1258.350101,4060.306139
1388.103566,-10955.047942,1036.288319,4213.525239
1388.103887,-9252.574275,148.041188,2068.457845
1388.104207,-8882.471304,-2516.700203,-1225.752797
1388.104528,-8364.327145,0.000000,306.438199
1388.104849,-11621.233289,-592.164754,1991.848295
1388.105170,-11399.171507,888.247130,6818.249932
1388.105490,-9252.574275,-222.061783,3370.820191
1388.105811,-8290.306550,-1332.370696,612.876398
1388.106132,-8586.388927,296.082377,612.876398
1388.106453,-11843.295072,0.000000,3524.039291
1388.106773,-9400.615463,0.000000,3294.210641
1388.107094,-9696.697840,-962.267725,1378.971896
1388.107415,-6883.915261,-370.102971,0.000000
1388.107736,-9252.574275,-1184.329507,1149.143247
1388.108057,-9992.780217,-592.164754,3064.381992
1388.108377,-10955.047942,-1332.370696,4596.572988
1388.108698,-12953.603985,-3404.947333,1838.629195
1388.109019,-7994.224174,-296.082377,-153.219100
1388.109340,-10584.944971,-1036.288319,76.609550
1388.109660,-9252.574275,1776.494261,2068.457845
1388.109981,-9252.574275,740.205942,842.705048
1388.110302,-9844.739029,-962.267725,-995.924147
1388.110623,-6217.729913,0.000000,-3447.429741
1388.110943,-9474.636058,-666.185348,-2374.896044
1388.111264,-9548.656652,740.205942,766.095498
1388.111585,-9844.739029,1480.411884,383.047749
1388.111906,-10658.965565,888.247130,-383.047749
1388.112226,-8660.409521,1998.556043,-1455.581446
1388.112547,-11029.068536,592.164754,0.000000
1388.112868,-12065.356855,-740.205942,1455.581446
1388.113189,-10362.883188,-1110.308913,536.266849
1388.113509,-9844.739029,-2442.679609,-766.095498
1388.113830,-7031.956449,0.000000,-2451.505594
1388.114151,-10362.883188,0.000000,-383.047749
1388.114472,-9178.553681,1184.329507,1225.752797
1388.114792,-9400.615463,1406.391290,-306.438199
1388.115113,-9474.636058,74.020594,-1225.752797
1388.115434,-7846.182985,888.247130,-1302.362347
1388.115755,-11769.274478,-888.247130,1762.019645
1388.116075,-9918.759623,-1480.411884,2145.067394
1388.116396,-10140.821405,-2368.659014,1072.533697
1388.116717,-9178.553681,-888.247130,842.705048
1388.117038,-8586.388927,-888.247130,383.047749
1388.117358,-10955.047942,-1184.329507,2604.724693
1388.117679,-8512.368333,-1258.350101,4136.915689
1388.118000,-8512.368333,-1776.494261,766.095498
1388.118321,-10658.965565,-1850.514855,1532.190996
1388.118641,-7254.018232,0.000000,766.095498
1388.118962,-10955.047942,444.123565,3294.210641
1388.119283,-8660.409521,444.123565,3830.477490
1388.119604,-9770.718434,-2146.597232,2145.067394
1388.119925,-8882.471304,-2220.617826,1302.362347
1388.120245,-8216.285956,-518.144159,919.314598
1388.120566,-11399.171507,666.185348,5669.106685
1388.120887,-9252.574275,2146.597232,4673.182538
1388.121208,-10510.924376,74.020594,2681.334243
1388.121528,-8586.388927,0.000000,1072.533697
1388.121849,-7920.203579,592.164754,1915.238745
1388.122170,-11547.212695,-1406.391290,3600.648841
1388.122491,-9622.677246,-740.205942,4290.134789
1388.122811,-9992.780217,-2294.638420,2068.457845
1388.123132,-8734.430116,-1480.411884,2145.067394
1388.123453,-8808.450710,-1036.288319,1149.143247
1388.123774,-11103.089130,-962.267725,2987.772442
1388.124094,-9770.718434,814.226536,2834.553343
1388.124415,-10955.047942,-518.144159,1149.143247
1388.124736,-8882.471304,444.123565,-306.438199
1388.125057,-8882.471304,-296.082377,153.219100
1388.125377,-11325.150913,-1036.288319,1915.238745
1388.125698,-9918.759623,-74.020594,2221.676944
1388.126019,-9992.780217,-1850.514855,0.000000
1388.126340,-8068.244768,-740.205942,-1455.581446
1388.126660,-9696.697840,-2220.617826,-766.095498
1388.126981,-10214.842000,-1332.370696,766.095498
1388.127302,-9548.656652,-370.102971,0.000000
1388.127623,-9622.677246,-1110.308913,-1915.238745
1388.127943,-7624.121203,0.000000,-2451.505594
1388.128264,-10955.047942,370.102971,-306.438199
1388.128585,-10584.944971,1776.494261,2604.724693
1388.128906,-10214.842000,-1776.494261,1225.752797
1388.129226,-9992.780217,-2960.823768,-306.438199
1388.129547,-8290.306550,-1702.473667,-1149.143247
1388.129868,-9474.636058,-888.247130,-2451.505594
1388.130189,-9696.697840,1776.494261,1072.533697
1388.130509,-7179.997637,2664.741391,-76.609550
1388.130830,-9326.594869,962.267725,-2757.943793
1388.131151,-6735.874072,1184.329507,-3370.820191
1388.131472,-9696.697840,222.061783,-306.438199
1388.131793,-11177.109724,962.267725,4213.525239
1388.132113,-10881.027347,-1850.514855,2145.067394
1388.132434,-9622.677246,-962.267725,1149.143247
1388.132755,-9326.594869,814.226536,1685.410096
1388.133076,-11695.253884,444.123565,3140.991542
1388.133396,-10955.047942,0.000000,4213.525239
1388.133717,-9622.677246,-1776.494261,1532.190996
1388.134038,-7550.100608,-2960.823768,-2374.896044
1388.134359,-6069.688724,888.247130,-842.705048
1388.134679,-11029.068536,1110.308913,1532.190996
1388.135000,-9770.718434,2072.576638,3907.087040
1388.135321,-11029.068536,0.000000,3600.648841
1388.135642,-9622.677246,-962.267725,1225.752797
1388.135962,-11473.192101,1184.329507,3294.210641
1388.136283,-14878.139434,74.020594,6741.640382
1388.136604,-11843.295072,2072.576638,6588.421283
1388.136925,-11843.295072,1406.391290,3524.039291
1388.137245,-7994.224174,-888.247130,0.000000
1388.137566,-6291.750507,0.000000,-2298.286494
1388.137887,-9252.574275,-1036.288319,0.000000
1388.138208,-6957.935855,-444.123565,612.876398
1388.138528,-7402.059420,-74.020594,0.000000
1388.138849,-8142.265362,296.082377,0.000000
1388.139170,-9474.636058,-148.041188,919.314598
1388.139491,-11251.130318,-444.123565,4290.134789
1388.139811,-11843.295072,-740.205942,5439.278036
1388.140132,-11177.109724,-1554.432478,2604.724693
1388.140453,-7624.121203,-1406.391290,0.000000
1388.140774,-8068.244768,1110.308913,1149.143247
1388.141094,-11177.109724,1184.329507,1608.800546
1388.141415,-7105.977043,-1036.288319,153.219100
1388.141736,-7994.224174,-2368.659014,-1915.238745
1388.142057,-6291.750507,-962.267725,-2757.943793
1388.142377,-7698.141797,-1554.432478,-2068.457845
1388.142698,-12583.501014,444.123565,2451.505594
1388.143019,-9252.574275,222.061783,1225.752797
1388.143340,-10732.986159,-1776.494261,-842.705048
1388.143661,-8216.285956,370.102971,-383.047749
1388.143981,-10362.883188,148.041188,612.876398
1388.144302,-11843.295072,148.041188,2757.943793
1388.144623,-10214.842000,0.000000,919.314598
1388.144944,-8734.430116,-666.185348,-2145.067394
1388.145264,-8586.388927,0.000000,-2604.724693
1388.145585,-10362.883188,222.061783,0.000000
1388.145906,-10140.821405,740.205942,2604.724693
1388.146227,-10658.965565,-1036.288319,689.485948
1388.146547,-9548.656652,-2516.700203,-1225.752797
1388.146868,-7179.997637,-814.226536,-1378.971896
1388.147189,-12139.377449,-666.185348,1532.190996
1388.147510,-10510.924376,888.247130,3830.477490
1388.147830,-10732.986159,-296.082377,2987.772442
1388.148151,-9252.574275,-1776.494261,995.924147
1388.148472,-8216.285956,-1110.308913,536.266849
1388.148793,-11325.150913,-2738.761985,1762.019645
1388.149113,-9844.739029,296.082377,3064.381992
1388.149434,-9474.636058,592.164754,2068.457845
1388.149755,-9252.574275,296.082377,0.000000
1388.150076,-7846.182985,1776.494261,842.705048
1388.150396,-11177.109724,-1184.329507,2528.115143
1388.150717,-9696.697840,-1036.288319,2987.772442
1388.151038,-9770.718434,-814.226536,3983.696590
1388.151359,-9696.697840,-1628.453072,2221.676944
1388.151679,-7698.141797,148.041188,1149.143247
1388.152000,-11103.089130,370.102971,3830.477490
1388.152321,-6513.812290,-666.185348,1838.629195
1388.152642,-9030.512492,-1628.453072,-1225.752797
1388.152962,-7179.997637,1406.391290,-1072.533697
1388.153283,-9178.553681,814.226536,919.314598
1388.153604,-11769.274478,592.164754,5362.668486
1388.153925,-9992.780217,-1184.329507,6052.154434
1388.154246,-11177.109724,-4737.318029,2604.724693
1388.154566,-8956.491898,-3034.844362,1072.533697
1388.154887,-9548.656652,-888.247130,1378.971896
1388.155208,-10066.800811,2368.659014,1685.410096
1388.155529,-8068.244768,2738.761985,1915.238745
1388.155849,-8290.306550,1628.453072,-1149.143247
1388.156170,-7031.956449,444.123565,-2145.067394
1388.156491,-9030.512492,-666.185348,-919.314598
1388.156812,-11695.253884,-1036.288319,1838.629195
1388.157132,-10362.883188,-444.123565,1225.752797
1388.157453,-11843.295072,-740.205942,689.485948
1388.157774,-8956.491898,962.267725,689.485948
1388.158095,-10658.965565,148.041188,1915.238745
1388.158415,-10881.027347,0.000000,2451.505594
1388.158736,-9548.656652,-370.102971,-153.219100
1388.159057,-9474.636058,-1110.308913,-2068.457845
1388.159378,-7105.977043,74.020594,-2604.724693
1388.159698,-9400.615463,1850.514855,-459.657299
1388.160019,-10510.924376,888.247130,1532.190996
1388.160340,-9548.656652,-814.226536,0.000000
1388.160661,-9548.656652,-1776.494261,-1149.143247
1388.160981,-9252.574275,-1258.350101,-1149.143247
1388.161302,-11325.150913,1332.370696,1608.800546
1388.161623,-12287.418637,1036.288319,4366.744339
1388.161944,-10658.965565,-296.082377,1378.971896
1388.162264,-8586.388927,-962.267725,-1608.800546
1388.162585,-7031.956449,-1480.411884,-2681.334243
1388.162906,-9474.636058,444.123565,-229.828649
1388.163227,-9696.697840,1850.514855,2757.943793
1388.163547,-9992.780217,1850.514855,2145.067394
1388.163868,-8808.450710,666.185348,1072.533697
1388.164189,-8364.327145,-1184.329507,-229.828649
1388.164510,-9992.780217,-1184.329507,2528.115143
1388.164830,-11547.212695,-962.267725,3370.820191
1388.165151,-8586.388927,-962.267725,2834.553343
1388.165472,-8734.430116,-2812.782580,1072.533697
1388.165793,-8216.285956,-1110.308913,536.266849
1388.166114,-10436.903782,-592.164754,2987.772442
1388.166434,-9770.718434,1554.432478,4979.620737
1388.166755,-9992.780217,814.226536,3907.087040
1388.167076,-9548.656652,-962.267725,2604.724693
1388.167397,-9474.636058,-962.267725,2298.286494
1388.167717,-11547.212695,-1850.514855,3370.820191
1388.168038,-8882.471304,-962.267725,2145.067394
1388.168359,-9400.615463,-1702.473667,229.828649
1388.168680,-6291.750507,-296.082377,-1608.800546
1388.169000,-7476.080014,1332.370696,-1532.190996
1388.169321,-10881.027347,1406.391290,2298.286494
1388.169642,-9030.512492,-740.205942,2834.553343
1388.169963,-11103.089130,-1776.494261,2298.286494
1388.170283,-10510.924376,-2146.597232,1685.410096
1388.170604,-10140.821405,-1480.411884,2604.724693
1388.170925,-12731.542202,-296.082377,4596.572988
1388.171246,-9844.739029,0.000000,3677.258390
1388.171566,-9992.780217,-518.144159,-229.828649
1388.171887,-7328.038826,666.185348,-1225.752797
1388.172208,-8438.347739,222.061783,-2068.457845
1388.172529,-10214.842000,222.061783,0.000000
1388.172849,-9104.533087,148.041188,0.000000
1388.173170,-8882.471304,-148.041188,-919.314598
1388.173491,-8808.450710,-1480.411884,766.095498
1388.173812,-13397.727550,-1332.370696,2451.505594
1388.174132,-13027.624579,-1628.453072,4443.353888
1388.174453,-12435.459826,-2516.700203,1915.238745
1388.174774,-8956.491898,-1776.494261,229.828649
1388.175095,-9030.512492,74.020594,-1072.533697
1388.175415,-9474.636058,296.082377,-1149.143247
1388.175736,-8364.327145,0.000000,-2068.457845
1388.176057,-7920.203579,-1850.514855,-3753.867940
1388.176378,-6587.832884,-2368.659014,-4903.011187
1388.176698,-7698.141797,-740.205942,-2451.505594
1388.177019,-11695.253884,-148.041188,1302.362347
1388.177340,-10214.842000,-222.061783,3370.820191
1388.177661,-11621.233289,-962.267725,3370.820191
1388.177982,-10140.821405,-2146.597232,459.657299
1388.178302,-8882.471304,-592.164754,76.609550
1388.178623,-11695.253884,518.144159,2834.553343
1388.178944,-8882.471304,1184.329507,3140.991542
1388.179265,-8660.409521,-740.205942,153.219100
1388.179585,-7698.141797,-1110.308913,-1072.533697
1388.179906,-6661.853478,296.082377,-153.219100
1388.180227,-11103.089130,-814.226536,2834.553343
1388.180548,-10807.006753,370.102971,4826.401637
1388.180868,-9474.636058,-962.267725,2221.676944
1388.181189,-8808.450710,-518.144159,919.314598
1388.181510,-9252.574275,1480.411884,2374.896044
1388.181831,-12731.542202,1998.556043,4519.963438
1388.182151,-9992.780217,1036.288319,4749.792088
1388.182472,-9548.656652,-2146.597232,1455.581446
1388.182793,-6883.915261,-2072.576638,306.438199
1388.183114,-8142.265362,-1480.411884,383.047749
1388.183434,-10584.944971,740.205942,3677.258390
1388.183755,-9474.636058,1702.473667,4136.915689
1388.184076,-10881.027347,0.000000,1838.629195
1388.184397,-7994.224174,740.205942,0.000000
1388.184717,-10955.047942,518.144159,995.924147
1388.185038,-12731.542202,222.061783,4443.353888
1388.185359,-9696.697840,518.144159,3983.696590
1388.185680,-10807.006753,-2368.659014,1838.629195
1388.186000,-7624.121203,-148.041188,612.876398
1388.186321,-10214.842000,-1554.432478,1149.143247
1388.186642,-10955.047942,518.144159,2528.115143
1388.186963,-9326.594869,1554.432478,995.924147
1388.187283,-9252.574275,-2516.700203,-2221.676944
1388.187604,-5773.606348,2664.741391,-3064.381992
1388.187925,-12361.439231,962.267725,536.266849
1388.188246,-11251.130318,1184.329507,3907.087040
1388.188566,-11843.295072,0.000000,4213.525239
1388.188887,-11843.295072,-4219.173869,2221.676944
1388.189208,-9104.533087,-3923.091493,-919.314598
1388.189529,-10807.006753,-2220.617826,306.438199
1388.189850,-9326.594869,888.247130,1302.362347
1388.190170,-7476.080014,3997.112087,0.000000
1388.190491,-8586.388927,2220.617826,-3064.381992
1388.190812,-6439.791695,1554.432478,-5362.668486
1388.191133,-9548.656652,1406.391290,-2145.067394
1388.191453,-10658.965565,-1332.370696,306.438199
1388.191774,-9474.636058,0.000000,-612.876398
1388.192095,-11325.150913,-1184.329507,229.828649
1388.192416,-7994.224174,518.144159,-1608.800546
1388.192737,-10807.006753,1628.453072,1302.362347
1388.193057,-10510.924376,1406.391290,1225.752797
1388.193378,-8364.327145,222.061783,-1225.752797
1388.193699,-9326.594869,-444.123565,-2528.115143
1388.194020,-6661.853478,814.226536,-3217.601092
1388.194341,-10510.924376,1998.556043,-383.047749
1388.194662,-9252.574275,2220.617826,1532.190996
1388.194983,-9696.697840,-222.061783,229.828649
1388.195303,-10066.800811,-2146.597232,-766.095498
1388.195624,-8438.347739,-444.123565,-842.705048
1388.195945,-12213.398043,148.041188,2987.772442
1388.196266,-10436.903782,3108.864956,4979.620737
1388.196587,-9992.780217,1776.494261,2757.943793
1388.196908,-9992.780217,370.102971,1532.190996
1388.197229,-7254.018232,-148.041188,-536.266849
1388.197549,-10362.883188,-370.102971,842.705048
1388.197870,-9918.759623,1924.535449,3140.991542
1388.198191,-9844.739029,814.226536,1302.362347
1388.198512,-9548.656652,888.247130,1532.190996
1388.198833,-7698.141797,-296.082377,-1149.143247
1388.199154,-10066.800811,888.247130,0.000000
1388.199475,-11769.274478,1924.535449,2298.286494
1388.199795,-10510.924376,2590.720797,919.314598
1388.200116,-10362.883188,2368.659014,229.828649
1388.200437,-8512.368333,1258.350101,-2451.505594
1388.200758,-9844.739029,3775.050304,-689.485948
1388.201079,-11769.274478,3552.988522,1225.752797
1388.201400,-8438.347739,5033.400406,-306.438199
1388.201721,-9696.697840,2516.700203,-383.047749
1388.202041,-8808.450710,-518.144159,-3370.820191
1388.202362,-8068.244768,1776.494261,-2298.286494
1388.202683,-11251.130318,888.247130,229.828649
1388.203004,-7698.141797,1850.514855,0.000000
1388.203325,-8808.450710,1258.350101,-383.047749
1388.203646,-10140.821405,-2146.597232,-995.924147
1388.203967,-8808.450710,-2294.638420,-2987.772442
1388.204287,-9178.553681,1110.308913,-1685.410096
1388.204608,-9992.780217,4589.276840,-459.657299
1388.204929,-10066.800811,6957.935855,153.219100
1388.205250,-12065.356855,3775.050304,306.438199
1388.205571,-10510.924376,1184.329507,-1532.190996
1388.205892,-8956.491898,-740.205942,-4979.620737
1388.206213,-9474.636058,296.082377,-5209.449386
1388.206533,-9326.594869,3404.947333,-4213.525239
1388.206854,-8586.388927,4737.318029,-4136.915689
1388.207175,-9178.553681,4145.153275,-3753.867940
1388.207496,-9252.574275,2294.638420,-3677.258390
1388.207817,-8364.327145,370.102971,-4596.572988
1388.208138,-10510.924376,-222.061783,-2834.553343
1388.208459,-11473.192101,3034.844362,0.000000
1388.208779,-11103.089130,3404.947333,1762.019645
1388.209100,-10584.944971,2146.597232,1072.533697
1388.209421,-9030.512492,1110.308913,-1685.410096
1388.209742,-8068.244768,1406.391290,-2221.676944
1388.210063,-10140.821405,2220.617826,-995.924147
1388.210384,-10066.800811,2812.782580,229.828649
1388.210705,-9844.739029,2516.700203,-153.219100
1388.211025,-9326.594869,2516.700203,-1225.752797
1388.211346,-9326.594869,1850.514855,-842.705048
1388.211667,-10807.006753,666.185348,-153.219100
1388.211988,-10362.883188,962.267725,-306.438199
1388.212309,-9030.512492,3034.844362,-919.314598
1388.212630,-9844.739029,4589.276840,-536.266849
1388.212951,-9770.718434,3627.009116,919.314598
1388.213271,-10214.842000,1850.514855,1532.190996
1388.213592,-10362.883188,518.144159,1302.362347
1388.213913,-9918.759623,0.000000,-612.876398
1388.214234,-9696.697840,-666.185348,229.828649
1388.214555,-9770.718434,1110.308913,689.485948
1388.214876,-9992.780217,1332.370696,689.485948
1388.215197,-8586.388927,1924.535449,229.828649
1388.215517,-8660.409521,2146.597232,-229.828649
1388.215838,-8882.471304,1110.308913,-1762.019645
1388.216159,-9622.677246,296.082377,-2145.067394
1388.216480,-9326.594869,888.247130,-2298.286494
1388.216801,-8364.327145,1776.494261,-2221.676944
1388.217122,-9918.759623,3478.967927,-1838.629195
1388.217443,-10140.821405,3775.050304,1225.752797
1388.217763,-10066.800811,1332.370696,766.095498
1388.218084,-10955.047942,888.247130,1378.971896
1388.218405,-10288.862594,1110.308913,76.609550
1388.218726,-10140.821405,296.082377,229.828649
1388.219047,-8438.347739,74.020594,-1915.238745
1388.219368,-7624.121203,2664.741391,-2068.457845
1388.219689,-10658.965565,1850.514855,-2068.457845
1388.220009,-7328.038826,1702.473667,-1838.629195
1388.220330,-9178.553681,296.082377,-3447.429741
1388.220651,-10658.965565,1850.514855,-2145.067394
1388.220972,-10288.862594,2516.700203,-2145.067394
1388.221293,-11991.336260,2664.741391,383.047749
1388.221614,-9622.677246,2220.617826,-2374.896044
1388.221935,-10140.821405,2590.720797,-3983.696590
1388.222255,-10584.944971,4441.235652,-1838.629195
1388.222576,-10584.944971,3330.926739,-1302.362347
1388.222897,-10214.842000,1924.535449,-1225.752797
1388.223218,-9104.533087,1554.432478,-1838.629195
1388.223539,-8734.430116,1480.411884,-1915.238745
1388.223860,-10066.800811,296.082377,153.219100
1388.224181,-9326.594869,-1184.329507,229.828649
1388.224501,-8290.306550,-1554.432478,-1072.533697
1388.224822,-8808.450710,888.247130,-1532.190996
1388.225143,-9474.636058,3330.926739,0.000000
1388.225464,-10510.924376,3552.988522,1762.019645
1388.225785,-10214.842000,2442.679609,229.828649
1388.226106,-9992.780217,3478.967927,-1302.362347
1388.226427,-10288.862594,4811.338623,-1225.752797
1388.226747,-9844.739029,3034.844362,-612.876398
1388.227068,-10362.883188,2368.659014,-229.828649
1388.227389,-9770.718434,962.267725,-2221.676944
1388.227710,-8882.471304,1924.535449,-3140.991542
1388.228031,-9400.615463,3256.906145,-2834.553343
1388.228352,-9992.780217,4515.256246,-1532.190996
1388.228673,-10436.903782,4811.338623,536.266849
1388.228993,-10214.842000,2960.823768,536.266849
1388.229314,-10066.800811,888.247130,306.438199
1388.229635,-10066.800811,-1406.391290,0.000000
1388.229956,-9548.656652,-1036.288319,689.485948
1388.230277,-9992.780217,-296.082377,1532.190996
1388.230598,-9252.574275,222.061783,1838.629195
1388.230919,-8364.327145,444.123565,-1225.752797
1388.231239,-7994.224174,1776.494261,-2604.724693
1388.231560,-8882.471304,3182.885551,-2298.286494
1388.231881,-9992.780217,5033.400406,-1532.190996
1388.232202,-10362.883188,3627.009116,-919.314598
1388.232523,-9992.780217,2516.700203,-1455.581446
1388.232844,-9770.718434,1184.329507,-1608.800546
1388.233165,-10214.842000,740.205942,-1225.752797
1388.233485,-9770.718434,888.247130,76.609550
1388.233806,-9918.759623,2368.659014,-383.047749
1388.234127,-9770.718434,2738.761985,-689.485948
1388.234448,-9030.512492,1924.535449,-842.705048
1388.234769,-9400.615463,592.164754,-1378.971896
1388.235090,-9178.553681,-740.205942,-2298.286494
1388.235411,-8586.388927,0.000000,-3217.601092
1388.235731,-8586.388927,1406.391290,-3677.258390
1388.236052,-9030.512492,3182.885551,-3447.429741
1388.236373,-9770.718434,5181.441594,-2451.505594
1388.236694,-10658.965565,5625.565159,-1532.190996
1388.237015,-10881.027347,5107.421000,-995.924147
1388.237336,-11399.171507,2886.803174,-842.705048
1388.237657,-11547.212695,1184.329507,-306.438199
1388.237977,-10584.944971,-222.061783,0.000000
1388.238298,-10140.821405,-814.226536,76.609550
1388.238619,-8956.491898,-148.041188,-153.219100
1388.238940,-8660.409521,-1184.329507,1378.971896
1388.239261,-8660.409521,148.041188,-306.438199
1388.239582,-9104.533087,222.061783,-459.657299
1388.239903,-9030.512492,740.205942,-689.485948
1388.240223,-9252.574275,1628.453072,-766.095498
1388.240544,-9474.636058,1998.556043,-1532.190996
1388.240865,-9474.636058,2960.823768,-1455.581446
1388.241186,-10288.862594,3034.844362,-995.924147
1388.241507,-10807.006753,3627.009116,-1072.533697
1388.241828,-11547.212695,4145.153275,-919.314598
1388.242149,-11325.150913,3552.988522,0.000000
1388.242469,-10658.965565,2590.720797,383.047749
1388.242790,-10362.883188,1480.411884,919.314598
1388.243111,-8734.430116,0.000000,1838.629195
1388.243432,-8734.430116,-888.247130,1302.362347
1388.243753,-8512.368333,-2368.659014,919.314598
1388.244074,-8142.265362,-2590.720797,76.609550
1388.244395,-7920.203579,-1258.350101,0.000000
1388.244715,-8290.306550,888.247130,-459.657299
1388.245036,-8734.430116,2664.741391,-536.266849
1388.245357,-9104.533087,3404.947333,-995.924147
1388.245678,-9696.697840,3627.009116,-1378.971896
1388.245999,-10140.821405,3701.029710,-1532.190996
1388.246320,-10584.944971,3404.947333,-1532.190996
1388.246641,-10658.965565,2812.782580,-1378.971896
1388.246961,-10584.944971,2368.659014,-1378.971896
1388.247282,-10066.800811,1924.535449,-1838.629195
1388.247603,-10214.842000,1776.494261,-995.924147
1388.247924,-9844.739029,962.267725,-995.924147
1388.248245,-9474.636058,0.000000,-1149.143247
1388.248566,-9326.594869,0.000000,-1378.971896
1388.248887,-9400.615463,-222.061783,-1762.019645
1388.249207,-9326.594869,222.061783,-1762.019645
1388.249528,-9252.574275,1184.329507,-2604.724693
1388.249849,-9474.636058,2664.741391,-3064.381992
1388.250170,-9622.677246,3997.112087,-3294.210641
1388.250491,-10066.800811,4811.338623,-3064.381992
1388.250812,-10214.842000,5181.441594,-2911.162892
1388.251133,-10510.924376,4811.338623,-2681.334243
1388.251453,-10658.965565,3775.050304,-2145.067394
1388.251774,-10658.965565,2590.720797,-1225.752797
1388.252095,-10584.944971,1406.391290,-689.485948
1388.252416,-10510.924376,740.205942,-306.438199
1388.252737,-9622.677246,222.061783,612.876398
1388.253058,-9326.594869,74.020594,306.438199
1388.253379,-9104.533087,370.102971,306.438199
1388.253699,-8734.430116,444.123565,229.828649
1388.254020,-8586.388927,1258.350101,0.000000
1388.254341,-8882.471304,1776.494261,0.000000
1388.254662,-8586.388927,1924.535449,0.000000
1388.254983,-9326.594869,2664.741391,842.705048
1388.255304,-10288.862594,2368.659014,1838.629195
1388.255625,-9918.759623,1998.556043,2145.067394
1388.255945,-10214.842000,740.205942,2221.676944
1388.256266,-9770.718434,222.061783,1838.629195
1388.256587,-9474.636058,-148.041188,1838.629195
1388.256908,-9474.636058,-296.082377,2221.676944
1388.257229,-8660.409521,-370.102971,995.924147
1388.257550,-8734.430116,-888.247130,995.924147
1388.257871,-9104.533087,-814.226536,919.314598
1388.258191,-9178.553681,-518.144159,1072.533697
1388.258512,-9918.759623,74.020594,1762.019645
1388.258833,-9918.759623,1036.288319,1991.848295
1388.259154,-9918.759623,1406.391290,1225.752797
1388.259475,-10066.800811,1776.494261,919.314598
1388.259796,-10140.821405,2590.720797,-459.657299
1388.260117,-9770.718434,2368.659014,0.000000
1388.260437,-9992.780217,2812.782580,-383.047749
1388.260758,-9844.739029,2590.720797,-766.095498
1388.261079,-10066.800811,2368.659014,-536.266849
1388.261400,-10362.883188,1776.494261,-459.657299
1388.261721,-10214.842000,1184.329507,-229.828649
1388.262042,-10436.903782,1110.308913,-459.657299
1388.262363,-10436.903782,888.247130,-612.876398
1388.262683,-10362.883188,1036.288319,-919.314598
1388.263004,-10066.800811,1036.288319,-1762.019645
1388.263325,-9622.677246,1332.370696,-2834.553343
1388.263646,-9548.656652,2220.617826,-3600.648841
1388.263967,-9474.636058,2220.617826,-4519.963438
1388.264288,-9622.677246,2886.803174,-4749.792088
1388.264609,-9326.594869,2960.823768,-5669.106685
1388.264929,-9770.718434,2886.803174,-5439.278036
1388.265250,-10140.821405,2960.823768,-5056.230287
1388.265571,-9992.780217,2738.761985,-5209.449386
1388.265892,-10510.924376,2590.720797,-4826.401637
1388.266213,-10510.924376,2516.700203,-4596.572988
1388.266534,-10436.903782,2368.659014,-4213.525239
1388.266855,-9918.759623,2368.659014,-4213.525239
1388.267175,-9696.697840,2368.659014,-4213.525239
1388.267496,-9326.594869,2368.659014,-4136.915689
1388.267817,-8882.471304,2442.679609,-3753.867940
1388.268138,-8882.471304,1776.494261,-3753.867940
1388.268459,-8734.430116,2738.761985,-2911.162892
1388.268780,-8956.491898,2812.782580,-2757.943793
1388.269101,-9178.553681,3182.885551,-2145.067394
1388.269421,-8956.491898,3182.885551,-2068.457845
1388.269742,-9104.533087,3478.967927,-1149.143247
1388.270063,-9474.636058,3997.112087,-766.095498
1388.270384,-9770.718434,4071.132681,-76.609550
1388.270705,-10362.883188,3997.112087,1072.533697
1388.271026,-10658.965565,3701.029710,1532.190996
1388.271347,-10362.883188,2590.720797,2298.286494
1388.271667,-10066.800811,1480.411884,2757.943793
1388.271988,-9844.739029,592.164754,2987.772442
1388.272309,-9030.512492,740.205942,2374.896044
1388.272630,-9252.574275,444.123565,1455.581446
1388.272951,-8882.471304,1184.329507,919.314598
1388.273272,-8882.471304,2220.617826,383.047749
1388.273593,-9030.512492,3627.009116,0.000000
1388.273913,-9696.697840,4145.153275,229.828649
1388.274234,-10436.903782,4145.153275,229.828649
1388.274555,-10436.903782,3701.029710,689.485948
1388.274876,-10955.047942,3330.926739,229.828649
1388.275197,-10881.027347,3404.947333,383.047749
1388.275518,-10584.944971,2960.823768,689.485948
1388.275839,-9844.739029,2738.761985,919.314598
1388.276159,-9622.677246,1850.514855,1149.143247
1388.276480,-8956.491898,74.020594,766.095498
1388.276801,-9252.574275,-1184.329507,1532.190996
1388.277122,-9104.533087,-1924.535449,1225.752797
1388.277443,-9326.594869,-2368.659014,995.924147
1388.277764,-8882.471304,-2146.597232,-383.047749
1388.278085,-8808.450710,-592.164754,-1225.752797
1388.278405,-8364.327145,444.123565,-2298.286494
1388.278726,-9104.533087,2146.597232,-3600.648841
1388.279047,-9400.615463,3256.906145,-4443.353888
1388.279368,-9622.677246,3849.070898,-4903.011187
1388.279689,-9992.780217,4515.256246,-5515.887586
1388.280010,-10436.903782,5107.421000,-4366.744339
1388.280331,-10732.986159,4515.256246,-2221.676944
1388.280651,-11399.171507,1998.556043,-995.924147
1388.280972,-11399.171507,-2516.700203,-1302.362347
1388.281293,-8586.388927,-3627.009116,-1838.629195
1388.281614,-9474.636058,-4145.153275,-2604.724693
1388.281935,-7772.162391,-1998.556043,-3217.601092
1388.282256,-8142.265362,-222.061783,-1915.238745
1388.282577,-8364.327145,962.267725,-1685.410096
1388.282897,-7402.059420,592.164754,-4213.525239
1388.283218,-9474.636058,962.267725,-4519.963438
1388.283539,-10066.800811,2294.638420,-4060.306139
1388.283860,-10510.924376,4515.256246,-3753.867940
1388.284181,-11473.192101,6661.853478,-1608.800546
1388.284502,-10881.027347,5699.585753,-1762.019645
1388.284823,-10881.027347,3775.050304,-2681.334243
1388.285143,-11325.150913,2072.576638,-2145.067394
1388.285464,-10510.924376,1998.556043,-1685.410096
1388.285785,-11103.089130,1480.411884,76.609550
1388.286106,-9918.759623,370.102971,1455.581446
1388.286427,-8956.491898,0.000000,-229.828649
1388.286748,-8660.409521,740.205942,842.705048
1388.287069,-9474.636058,888.247130,2604.724693
1388.287389,-9918.759623,0.000000,4290.134789
1388.287710,-9474.636058,-962.267725,2911.162892
1388.288031,-9474.636058,-1480.411884,995.924147
1388.288352,-8660.409521,1924.535449,612.876398
1388.288673,-9918.759623,3182.885551,1378.971896
1388.288994,-9252.574275,3849.070898,1762.019645
1388.289315,-9474.636058,3701.029710,-229.828649
1388.289635,-9474.636058,3552.988522,-1838.629195
1388.289956,-10140.821405,4663.297435,-383.047749
1388.290277,-11029.068536,4589.276840,1455.581446
1388.290598,-11547.212695,2738.761985,1915.238745
1388.290919,-9474.636058,962.267725,229.828649
1388.291240,-9030.512492,0.000000,-1378.971896
1388.291561,-9252.574275,592.164754,-229.828649
1388.291881,-9400.615463,1110.308913,306.438199
1388.292202,-8882.471304,1480.411884,0.000000
1388.292523,-8438.347739,2368.659014,-1072.533697
1388.292844,-8734.430116,2368.659014,-1072.533697
1388.293165,-9696.697840,740.205942,-842.705048
1388.293486,-8660.409521,0.000000,-1685.410096
1388.293807,-9696.697840,1480.411884,-2221.676944
1388.294128,-9770.718434,2516.700203,-2298.286494
1388.294448,-9622.677246,3182.885551,-2451.505594
1388.294769,-9770.718434,3997.112087,-2681.334243
1388.295090,-9622.677246,4219.173869,-4673.182538
1388.295411,-9696.697840,4589.276840,-4060.306139
1388.295732,-9548.656652,3627.009116,-3294.210641
1388.296053,-9030.512492,1776.494261,-3600.648841
1388.296374,-9844.739029,518.144159,-2911.162892
1388.296694,-10214.842000,296.082377,-2451.505594
1388.297015,-9400.615463,1850.514855,-1685.410096
1388.297336,-10362.883188,2146.597232,-459.657299
1388.297657,-10807.006753,2590.720797,-536.266849
1388.297978,-9992.780217,1998.556043,-1838.629195
1388.298299,-9474.636058,2590.720797,-2068.457845
1388.298620,-9326.594869,3108.864956,-3524.039291
1388.298940,-10214.842000,2886.803174,-2604.724693
1388.299261,-9326.594869,3108.864956,-2604.724693
1388.299582,-10214.842000,3552.988522,-1838.629195
1388.299903,-11769.274478,2368.659014,-153.219100
1388.300224,-10214.842000,2738.761985,995.924147
1388.300545,-12065.356855,0.000000,2221.676944
1388.300866,-10066.800811,-296.082377,459.657299
1388.301187,-9770.718434,814.226536,0.000000
1388.301507,-9474.636058,2368.659014,1532.190996
1388.301828,-8290.306550,1332.370696,1532.190996
1388.302149,-8290.306550,1924.535449,1225.752797
1388.302470,-8956.491898,-1406.391290,-536.266849
1388.302791,-7328.038826,-1110.308913,-2145.067394
1388.303112,-9844.739029,666.185348,-612.876398
1388.303433,-9178.553681,2368.659014,-76.609550
1388.303753,-9104.533087,4145.153275,383.047749
1388.304074,-10732.986159,3923.091493,689.485948
1388.304395,-9252.574275,2664.741391,-229.828649
1388.304716,-9474.636058,814.226536,612.876398
1388.305037,-10584.944971,592.164754,383.047749
1388.305358,-9918.759623,1258.350101,612.876398
1388.305679,-11399.171507,2738.761985,2451.505594
1388.306000,-9770.718434,1184.329507,2145.067394
1388.306320,-9474.636058,-518.144159,1149.143247
1388.306641,-9548.656652,-1184.329507,-153.219100
1388.306962,-9252.574275,592.164754,-612.876398
1388.307283,-8216.285956,1776.494261,-995.924147
1388.307604,-9104.533087,1554.432478,-919.314598
1388.307925,-8364.327145,1554.432478,-2298.286494
1388.308246,-8068.244768,592.164754,-3447.429741
1388.308566,-9622.677246,666.185348,-3907.087040
1388.308887,-10584.944971,4219.173869,-1762.019645
1388.309208,-10732.986159,3552.988522,-1455.581446
1388.309529,-11917.315666,3552.988522,-383.047749
1388.309850,-11103.089130,2812.782580,-1072.533697
1388.310171,-10288.862594,1554.432478,-2528.115143
1388.310492,-11325.150913,1332.370696,-2757.943793
1388.310812,-10436.903782,2738.761985,-1532.190996
1388.311133,-11399.171507,1480.411884,-153.219100
1388.311454,-9178.553681,-1036.288319,-1762.019645
1388.311775,-7994.224174,-1036.288319,-3524.039291
1388.312096,-9844.739029,-2294.638420,-2374.896044
1388.312417,-8216.285956,518.144159,-1608.800546
1388.312738,-9474.636058,1628.453072,842.705048
1388.313059,-10584.944971,814.226536,-306.438199
1388.313379,-7846.182985,1184.329507,-1455.581446
1388.313700,-9770.718434,0.000000,-995.924147
1388.314021,-9696.697840,1036.288319,-842.705048
1388.314342,-9622.677246,3182.885551,-229.828649
1388.314663,-11251.130318,3478.967927,536.266849
1388.314984,-8660.409521,3256.906145,-1072.533697
1388.315305,-9696.697840,2442.679609,-1149.143247
1388.315625,-10658.965565,370.102971,229.828649
1388.315946,-8808.450710,2220.617826,1149.143247
1388.316267,-10214.842000,1110.308913,1685.410096
1388.316588,-8882.471304,-740.205942,842.705048
1388.316909,-8364.327145,444.123565,842.705048
1388.317230,-9030.512492,296.082377,229.828649
1388.317551,-8068.244768,962.267725,1915.238745
1388.317872,-10584.944971,1036.288319,4213.525239
1388.318192,-9474.636058,-888.247130,3064.381992
1388.318513,-9474.636058,-1702.473667,2451.505594
1388.318834,-9548.656652,-370.102971,1838.629195
1388.319155,-7994.224174,1702.473667,1532.190996
1388.319476,-11473.192101,1628.453072,3294.210641
1388.319797,-9548.656652,666.185348,2145.067394
1388.320118,-9030.512492,0.000000,-536.266849
1388.320438,-9992.780217,74.020594,536.266849
1388.320759,-9474.636058,1332.370696,1378.971896
1388.321080,-11843.295072,1480.411884,3753.867940
1388.321401,-10807.006753,-1332.370696,2298.286494
1388.321722,-8586.388927,-2442.679609,0.000000
1388.322043,-10732.986159,-3701.029710,995.924147
1388.322364,-9326.594869,-2072.576638,2757.943793
1388.322684,-12287.418637,-1554.432478,4443.353888
1388.323005,-10140.821405,-962.267725,4136.915689
1388.323326,-8068.244768,-1332.370696,0.000000
1388.323647,-8882.471304,-666.185348,-995.924147
1388.323968,-7846.182985,148.041188,-2298.286494
1388.324289,-8956.491898,-740.205942,-1991.848295
1388.324610,-7328.038826,-888.247130,-2757.943793
1388.324931,-7105.977043,-1258.350101,-4366.744339
1388.325251,-9474.636058,0.000000,-2221.676944
1388.325572,-11251.130318,3034.844362,1302.362347
1388.325893,-14063.912898,74.020594,4136.915689
1388.326214,-11029.068536,-1110.308913,3140.991542
1388.326535,-10955.047942,-2368.659014,766.095498
1388.326856,-9844.739029,-2072.576638,2298.286494
1388.327177,-10066.800811,-2368.659014,2451.505594
1388.327497,-9104.533087,-3256.906145,1838.629195
1388.327818,-6069.688724,-2146.597232,-1072.533697
1388.328139,-6957.935855,-1036.288319,-2911.162892
1388.328460,-8142.265362,1110.308913,-612.876398
1388.328781,-10288.862594,1110.308913,1915.238745
1388.329102,-11177.109724,-222.061783,2068.457845
1388.329423,-9178.553681,-814.226536,-612.876398
1388.329744,-12731.542202,1480.411884,-842.705048
1388.330064,-11843.295072,1184.329507,2451.505594
1388.330385,-11695.253884,2442.679609,5056.230287
1388.330706,-11695.253884,-1110.308913,3983.696590
1388.331027,-8364.327145,-2220.617826,-229.828649
1388.331348,-9474.636058,-1332.370696,-995.924147
1388.331669,-8216.285956,1184.329507,919.314598
1388.331990,-9252.574275,1110.308913,2757.943793
1388.332310,-9770.718434,-1480.411884,3217.601092
1388.332631,-6809.894666,-2590.720797,-536.266849
1388.332952,-9622.677246,-2738.761985,229.828649
1388.333273,-9400.615463,-814.226536,2987.772442
1388.333594,-11029.068536,-148.041188,4826.401637
1388.333915,-11251.130318,-296.082377,5515.887586
1388.334236,-8438.347739,222.061783,306.438199
1388.334556,-9474.636058,1110.308913,-306.438199
1388.334877,-7846.182985,1332.370696,536.266849
1388.335198,-11177.109724,518.144159,1149.143247
1388.335519,-8956.491898,1332.370696,1455.581446
1388.335840,-8882.471304,74.020594,-1455.581446
1388.336161,-10658.965565,370.102971,1302.362347
1388.336482,-9474.636058,-888.247130,2987.772442
1388.336803,-11843.295072,-2886.803174,4443.353888
1388.337123,-10436.903782,-2442.679609,3907.087040
1388.337444,-9252.574275,-1850.514855,1072.533697
1388.337765,-9770.718434,-296.082377,2298.286494
1388.338086,-9696.697840,2368.659014,2757.943793
1388.338407,-9622.677246,888.247130,2451.505594
1388.338728,-9178.553681,-666.185348,229.828649
1388.339049,-7105.977043,-1258.350101,-4366.744339
1388.339369,-7402.059420,-370.102971,-3370.820191
1388.339690,-9030.512492,2590.720797,-1378.971896
1388.340011,-11251.130318,2812.782580,2068.457845
1388.340332,-9696.697840,1332.370696,919.314598
1388.340653,-9918.759623,0.000000,-1072.533697
1388.340974,-10288.862594,-888.247130,-1072.533697
1388.341295,-11103.089130,148.041188,1532.190996
1388.341616,-11991.336260,-370.102971,3524.039291
1388.341936,-8512.368333,74.020594,1302.362347
1388.342257,-8586.388927,-296.082377,-2068.457845
1388.342578,-8586.388927,-518.144159,-1072.533697
1388.342899,-8068.244768,1184.329507,229.828649
1388.343220,-12731.542202,-592.164754,2911.162892
1388.343541,-9622.677246,-222.061783,1608.800546
1388.343862,-10807.006753,-370.102971,766.095498
1388.344182,-11991.336260,-1554.432478,1608.800546
1388.344503,-10510.924376,0.000000,1838.629195
1388.344824,-11769.274478,-148.041188,3447.429741
1388.345145,-8142.265362,148.041188,383.047749
1388.345466,-8586.388927,-1406.391290,-1915.238745
1388.345787,-8586.388927,-740.205942,-689.485948
1388.346108,-8364.327145,-666.185348,1149.143247
1388.346428,-10807.006753,-2368.659014,1072.533697
1388.346749,-8216.285956,-1332.370696,536.266849
1388.347070,-9844.739029,-1110.308913,612.876398
1388.347391,-9400.615463,888.247130,2604.724693
1388.347712,-9622.677246,0.000000,4213.525239
1388.348033,-11251.130318,-2664.741391,4519.963438
1388.348354,-6957.935855,-2072.576638,229.828649
1388.348675,-8882.471304,-1924.535449,-383.047749
1388.348995,-9178.553681,740.205942,1915.238745
1388.349316,-9252.574275,1924.535449,3294.210641
1388.349637,-11029.068536,-518.144159,3600.648841
1388.349958,-7105.977043,-666.185348,0.000000
1388.350279,-9104.533087,-592.164754,-459.657299
1388.350600,-9400.615463,1702.473667,3524.039291
1388.350921,-11251.130318,-666.185348,3907.087040
1388.351241,-10584.944971,-1554.432478,3753.867940
1388.351562,-7846.182985,-1998.556043,612.876398
1388.351883,-9178.553681,-2294.638420,0.000000
1388.352204,-9178.553681,0.000000,2298.286494
1388.352525,-10807.006753,-444.123565,3294.210641
1388.352846,-9474.636058,-666.185348,1608.800546
1388.353167,-7772.162391,-222.061783,-1685.410096
1388.353488,-10732.986159,1110.308913,-612.876398
1388.353808,-9844.739029,1776.494261,1378.971896
1388.354129,-11769.274478,-222.061783,2681.334243
1388.354450,-9992.780217,-1332.370696,995.924147
1388.354771,-9104.533087,-962.267725,-2987.772442
1388.355092,-9696.697840,-1776.494261,-1455.581446
1388.355413,-9992.780217,-962.267725,919.314598
1388.355734,-10807.006753,-1110.308913,1838.629195
1388.356054,-8956.491898,-148.041188,459.657299
1388.356375,-10584.944971,-888.247130,-689.485948
1388.356696,-10066.800811,-1850.514855,536.266849
1388.357017,-10584.944971,-1702.473667,1072.533697
1388.357338,-12435.459826,-2146.597232,2451.505594
1388.357659,-10066.800811,-518.144159,1685.410096
1388.357980,-9770.718434,222.061783,612.876398
1388.358300,-10510.924376,-814.226536,-766.095498
1388.358621,-7105.977043,1702.473667,-1225.752797
1388.358942,-10140.821405,0.000000,-459.657299
1388.359263,-8660.409521,3034.844362,-919.314598
1388.359584,-8438.347739,-148.041188,-2834.553343
1388.359905,-9622.677246,0.000000,-306.438199
1388.360226,-8882.471304,518.144159,459.657299
1388.360547,-12731.542202,-666.185348,3600.648841
1388.360867,-10288.862594,0.000000,4443.353888
1388.361188,-9918.759623,-814.226536,919.314598
1388.361509,-10066.800811,1628.453072,1762.019645
1388.361830,-9696.697840,2072.576638,2528.115143
1388.362151,-10658.965565,-592.164754,2834.553343
1388.362472,-8438.347739,-1628.453072,229.828649
1388.362793,-7624.121203,-1924.535449,-2068.457845
1388.363113,-7624.121203,814.226536,-1225.752797
1388.363434,-10881.027347,2072.576638,2911.162892
1388.363755,-11769.274478,1406.391290,4443.353888
1388.364076,-9252.574275,2220.617826,2145.067394
1388.364397,-11103.089130,-222.061783,689.485948
1388.364718,-8660.409521,1702.473667,1225.752797
1388.365039,-11843.295072,0.000000,3830.477490
1388.365360,-11029.068536,-1702.473667,3753.867940
1388.365680,-7402.059420,-740.205942,459.657299
1388.366001,-8882.471304,-888.247130,-229.828649
1388.366322,-8216.285956,962.267725,1532.190996
1388.366643,-11103.089130,740.205942,3447.429741
1388.366964,-10584.944971,0.000000,4213.525239
1388.367285,-8586.388927,-1628.453072,919.314598
1388.367606,-9400.615463,-1554.432478,229.828649
1388.367926,-8734.430116,-1036.288319,2068.457845
1388.368247,-10288.862594,-1184.329507,2528.115143
1388.368568,-9622.677246,518.144159,2145.067394
1388.368889,-8512.368333,-1480.411884,-1302.362347
1388.369210,-6957.935855,444.123565,-2374.896044
1388.369531,-8660.409521,2812.782580,689.485948
1388.369852,-12213.398043,-370.102971,2451.505594
1388.370172,-9696.697840,0.000000,1532.190996
1388.370493,-9400.615463,-1702.473667,-766.095498
1388.370814,-9030.512492,-1554.432478,-689.485948
1388.371135,-9178.553681,148.041188,1149.143247
1388.371456,-11843.295072,-222.061783,2145.067394
1388.371777,-8882.471304,-1628.453072,919.314598
1388.372098,-7624.121203,-1406.391290,-2451.505594
1388.372419,-9696.697840,-962.267725,-536.266849
1388.372739,-10362.883188,222.061783,2298.286494
1388.373060,-12879.583391,-444.123565,4136.915689
1388.373381,-8216.285956,-1998.556043,0.000000
1388.373702,-7254.018232,-1924.535449,-4290.134789
1388.374023,-8216.285956,148.041188,-3294.210641
1388.374344,-9474.636058,1776.494261,-1302.362347
1388.374665,-11621.233289,296.082377,2145.067394
1388.374985,-9844.739029,-2146.597232,536.266849
1388.375306,-8882.471304,-3478.967927,-2068.457845
1388.375627,-9770.718434,-4293.194464,1685.410096
1388.375948,-11177.109724,-1110.308913,3830.477490
1388.376269,-11769.274478,-1332.370696,4290.134789
1388.376590,-7402.059420,-666.185348,1149.143247
1388.376911,-6883.915261,0.000000,-919.314598
1388.377232,-11251.130318,-4663.297435,-459.657299
1388.377552,-7402.059420,3552.988522,2068.457845
1388.377873,-14656.077652,-1850.514855,1915.238745
1388.378194,-8660.409521,1554.432478,1225.752797
1388.378515,-7772.162391,592.164754,-459.657299
1388.378836,-12879.583391,2368.659014,3983.696590
1388.379157,-10807.006753,1110.308913,5975.544884
1388.379478,-11621.233289,-2738.761985,2911.162892
1388.379798,-11621.233289,370.102971,2221.676944
1388.380119,-6291.750507,-518.144159,-2298.286494
1388.380440,-11325.150913,4145.153275,2068.457845
1388.380761,-10955.047942,3330.926739,5362.668486
1388.381082,-8216.285956,-296.082377,1991.848295
1388.381403,-7550.100608,-1184.329507,-2068.457845
1388.381724,-9474.636058,-2146.597232,-919.314598
1388.382044,-8290.306550,-814.226536,1685.410096
1388.382365,-13175.665768,-1110.308913,5209.449386
1388.382686,-11325.150913,-1258.350101,5132.839837
1388.383007,-7550.100608,74.020594,842.705048
1388.383328,-10955.047942,-2072.576638,76.609550
1388.383649,-8882.471304,1702.473667,1532.190996
1388.383970,-11177.109724,-814.226536,1149.143247
1388.384291,-8734.430116,-518.144159,689.485948
1388.384611,-7550.100608,-444.123565,-1991.848295
1388.384932,-8216.285956,-1480.411884,-2757.943793
1388.385253,-8882.471304,740.205942,0.000000
1388.385574,-11029.068536,740.205942,2987.772442
1388.385895,-9548.656652,-222.061783,1072.533697
1388.386216,-9252.574275,-1406.391290,-689.485948
1388.386537,-9030.512492,-1332.370696,0.000000
1388.386857,-9696.697840,-1036.288319,1302.362347
1388.387178,-11769.274478,-888.247130,3217.601092
1388.387499,-8364.327145,-814.226536,1455.581446
1388.387820,-7772.162391,-2220.617826,-3294.210641
1388.388141,-8882.471304,296.082377,-383.047749
1388.388462,-9178.553681,1036.288319,766.095498
1388.388783,-11399.171507,-888.247130,1991.848295
1388.389104,-8956.491898,-814.226536,306.438199
1388.389424,-9104.533087,-1110.308913,-2068.457845
1388.389745,-10288.862594,74.020594,-689.485948
1388.390066,-9474.636058,1850.514855,1915.238745
1388.390387,-11399.171507,-296.082377,3753.867940
1388.390708,-9104.533087,-1850.514855,612.876398
1388.391029,-9474.636058,-2146.597232,-153.219100
1388.391350,-9030.512492,-1480.411884,-383.047749
1388.391671,-9474.636058,222.061783,2145.067394
1388.391991,-11843.295072,-370.102971,4136.915689
1388.392312,-7994.224174,0.000000,153.219100
1388.392633,-9400.615463,-148.041188,-1532.190996
1388.392954,-10362.883188,296.082377,1225.752797
1388.393275,-10288.862594,592.164754,3064.381992
1388.393596,-12435.459826,-2664.741391,3524.039291
1388.393917,-7402.059420,-444.123565,76.609550
1388.394238,-9474.636058,-296.082377,0.000000
1388.394559,-9548.656652,1406.391290,2298.286494
1388.394880,-11177.109724,1554.432478,4060.306139
1388.395201,-10881.027347,-518.144159,4060.306139
1388.395521,-7402.059420,-370.102971,383.047749
1388.395842,-8882.471304,-962.267725,0.000000
1388.396163,-8438.347739,-148.041188,2528.115143
1388.396484,-10140.821405,-1258.350101,4136.915689
1388.396805,-11251.130318,-2294.638420,3753.867940
1388.397126,-7550.100608,-1850.514855,842.705048
1388.397447,-9326.594869,-2590.720797,229.828649
1388.397768,-8956.491898,0.000000,2987.772442
1388.398089,-11177.109724,-592.164754,4136.915689
1388.398410,-10140.821405,-222.061783,3524.039291
1388.398730,-7105.977043,-740.205942,0.000000
1388.399051,-9252.574275,-2072.576638,-1149.143247
1388.399372,-8290.306550,1258.350101,1838.629195
1388.399693,-11843.295072,-814.226536,3064.381992
1388.400014,-9178.553681,-962.267725,2145.067394
1388.400335,-6957.935855,-1258.350101,-1915.238745
1388.400656,-9104.533087,-592.164754,-1685.410096
1388.400977,-8956.491898,1998.556043,536.266849
1388.401298,-11917.315666,1776.494261,3294.210641
1388.401619,-9770.718434,-370.102971,1378.971896
1388.401940,-7105.977043,-888.247130,-2834.553343
1388.402260,-9548.656652,-1406.391290,-1762.019645
1388.402581,-9252.574275,222.061783,612.876398
1388.402902,-13101.645173,148.041188,1532.190996
1388.403223,-9104.533087,1850.514855,919.314598
1388.403544,-8660.409521,444.123565,-2451.505594
1388.403865,-9696.697840,666.185348,-1685.410096
1388.404186,-10140.821405,1110.308913,612.876398
1388.404507,-12583.501014,0.000000,2298.286494
1388.404828,-8586.388927,-444.123565,-689.485948
1388.405149,-9178.553681,-2368.659014,-2451.505594
1388.405470,-10140.821405,-1110.308913,-459.657299
1388.405790,-8882.471304,-370.102971,842.705048
1388.406111,-11325.150913,-1554.432478,2145.067394
1388.406432,-7920.203579,-814.226536,1532.190996
1388.406753,-8882.471304,-2516.700203,-2221.676944
1388.407074,-9918.759623,0.000000,76.609550
1388.407395,-9770.718434,2072.576638,1685.410096
1388.407716,-11621.233289,1702.473667,2604.724693
1388.408037,-8660.409521,74.020594,2221.676944
1388.408358,-9326.594869,-1776.494261,-1225.752797
1388.408679,-8956.491898,592.164754,1149.143247
1388.408999,-11399.171507,962.267725,3064.381992
1388.409320,-11029.068536,-370.102971,3524.039291
1388.409641,-8956.491898,-1036.288319,1149.143247
1388.409962,-7846.182985,0.000000,-2757.943793
1388.410283,-8438.347739,3330.926739,1455.581446
1388.410604,-11251.130318,3775.050304,4443.353888
1388.410925,-10436.903782,-296.082377,4136.915689
1388.411246,-7179.997637,-814.226536,-689.485948
1388.411567,-8438.347739,-814.226536,-1915.238745
1388.411888,-7994.224174,962.267725,2374.896044
1388.412209,-10436.903782,592.164754,4443.353888
1388.412529,-10362.883188,-592.164754,4749.792088
1388.412850,-7179.997637,-740.205942,-612.876398
1388.413171,-9474.636058,-740.205942,1149.143247
1388.413492,-10214.842000,2294.638420,4060.306139
1388.413813,-11843.295072,74.020594,4519.963438
1388.414134,-10214.842000,0.000000,4213.525239
1388.414455,-7402.059420,-962.267725,0.000000
1388.414776,-9030.512492,-2146.597232,-536.266849
1388.415097,-8438.347739,-1332.370696,1455.581446
