#time,accel_x,accel_y,accel_z
1073.604609,-9622.677246,-1628.453072,2145.067394
1073.604930,-9696.697840,-1998.556043,2451.505594
1073.605250,-9474.636058,-2220.617826,1991.848295
1073.605571,-9252.574275,-2146.597232,2451.505594
1073.605892,-9326.594869,-1998.556043,2221.676944
1073.606212,-9326.594869,-1554.432478,2145.067394
1073.606533,-9474.636058,-814.226536,1991.848295
1073.606854,-9400.615463,-296.082377,1532.190996
1073.607175,-9844.739029,74.020594,1149.143247
1073.607495,-9770.718434,370.102971,1225.752797
1073.607816,-9918.759623,518.144159,919.314598
1073.608137,-10288.862594,296.082377,842.705048
1073.608458,-10066.800811,0.000000,153.219100
1073.608778,-10066.800811,296.082377,1378.971896
1073.609099,-9918.759623,0.000000,995.924147
1073.609420,-9548.656652,-370.102971,842.705048
1073.609741,-9770.718434,-740.205942,383.047749
1073.610061,-9326.594869,-962.267725,1072.533697
1073.610382,-9326.594869,-1184.329507,919.314598
1073.610703,-9178.553681,-1036.288319,919.314598
1073.611024,-9474.636058,-296.082377,842.705048
1073.611344,-9548.656652,-148.041188,919.314598
1073.611665,-9326.594869,222.061783,1072.533697
1073.611986,-9474.636058,370.102971,1225.752797
1073.612307,-9622.677246,222.061783,1378.971896
1073.612627,-10066.800811,148.041188,919.314598
1073.612948,-9770.718434,0.000000,1532.190996
1073.613269,-9474.636058,-740.205942,1455.581446
1073.613590,-9474.636058,-666.185348,1762.019645
1073.613910,-9696.697840,-1110.308913,2451.505594
1073.614231,-9030.512492,-1480.411884,1762.019645
1073.614552,-9474.636058,-1850.514855,1838.629195
1073.614873,-8734.430116,-1998.556043,1149.143247
1073.615193,-9030.512492,-1406.391290,1072.533697
1073.615514,-9548.656652,-1036.288319,919.314598
1073.615835,-9474.636058,-740.205942,995.924147
1073.616156,-9474.636058,-148.041188,459.657299
1073.616476,-9918.759623,74.020594,612.876398
1073.616797,-9844.739029,1184.329507,2068.457845
1073.617118,-10436.903782,814.226536,842.705048
1073.617438,-9844.739029,444.123565,689.485948
1073.617759,-9992.780217,0.000000,536.266849
1073.618080,-10362.883188,74.020594,383.047749
1073.618401,-10214.842000,-888.247130,1072.533697
1073.618721,-10066.800811,-962.267725,1149.143247
1073.619042,-9992.780217,-1480.411884,1225.752797
1073.619363,-9474.636058,-1332.370696,1302.362347
1073.619684,-9918.759623,-1184.329507,995.924147
1073.620004,-9548.656652,-962.267725,1378.971896
1073.620325,-9548.656652,-740.205942,919.314598
1073.620646,-9178.553681,-592.164754,612.876398
1073.620967,-9474.636058,-296.082377,0.000000
1073.621287,-9918.759623,0.000000,612.876398
1073.621608,-9548.656652,74.020594,612.876398
1073.621929,-9696.697840,296.082377,612.876398
1073.622250,-9844.739029,222.061783,459.657299
1073.622570,-9992.780217,0.000000,995.924147
1073.622891,-9770.718434,-370.102971,1302.362347
1073.623212,-9696.697840,-518.144159,1225.752797
1073.623533,-9474.636058,-740.205942,1685.410096
1073.623853,-9622.677246,-740.205942,1225.752797
1073.624174,-9326.594869,-1036.288319,1532.190996
1073.624495,-8956.491898,-1258.350101,1762.019645
1073.624816,-8808.450710,-1036.288319,1149.143247
1073.625136,-9252.574275,0.000000,1072.533697
1073.625457,-9178.553681,-740.205942,1608.800546
1073.625778,-9400.615463,-296.082377,1532.190996
1073.626099,-9400.615463,-296.082377,1302.362347
1073.626419,-9474.636058,0.000000,1838.629195
1073.626740,-9474.636058,0.000000,1149.143247
1073.627061,-9770.718434,0.000000,1762.019645
1073.627382,-9548.656652,0.000000,1532.190996
1073.627702,-9844.739029,0.000000,1532.190996
1073.628023,-9622.677246,-666.185348,612.876398
1073.628344,-9770.718434,-444.123565,1685.410096
1073.628664,-9474.636058,-518.144159,1455.581446
1073.628985,-9474.636058,-888.247130,1455.581446
1073.629306,-9400.615463,-666.185348,1225.752797
1073.629627,-9474.636058,-740.205942,1532.190996
1073.629947,-9548.656652,-518.144159,1302.362347
1073.630268,-9844.739029,-222.061783,1455.581446
1073.630589,-9622.677246,0.000000,1225.752797
1073.630910,-9326.594869,0.000000,1762.019645
1073.631230,-9844.739029,148.041188,766.095498
1073.631551,-9918.759623,74.020594,1072.533697
1073.631872,-9770.718434,0.000000,1378.971896
1073.632193,-9030.512492,0.000000,2145.067394
1073.632513,-9622.677246,-74.020594,1225.752797
1073.632834,-9548.656652,-148.041188,995.924147
1073.633155,-9622.677246,-370.102971,766.095498
1073.633476,-9548.656652,-444.123565,1302.362347
1073.633797,-9400.615463,-518.144159,995.924147
1073.634117,-9622.677246,-444.123565,1072.533697
1073.634438,-9474.636058,-666.185348,995.924147
1073.634759,-9474.636058,-592.164754,995.924147
1073.635080,-9104.533087,-666.185348,459.657299
1073.635401,-9400.615463,0.000000,612.876398
1073.635721,-9622.677246,0.000000,766.095498
1073.636042,-9474.636058,148.041188,1072.533697
1073.636363,-9178.553681,0.000000,1378.971896
1073.636684,-9474.636058,-296.082377,1225.752797
1073.637005,-9770.718434,-370.102971,1072.533697
1073.637325,-9548.656652,-444.123565,1302.362347
1073.637646,-9548.656652,-592.164754,1225.752797
1073.637967,-9770.718434,-518.144159,1455.581446
1073.638288,-9252.574275,-740.205942,1225.752797
1073.638609,-9326.594869,-740.205942,995.924147
1073.638929,-9252.574275,-740.205942,1149.143247
1073.639250,-8808.450710,-1110.308913,919.314598
1073.639571,-9474.636058,-296.082377,1225.752797
1073.639892,-9696.697840,-296.082377,1225.752797
1073.640213,-9622.677246,-148.041188,1225.752797
1073.640533,-9474.636058,-296.082377,229.828649
1073.640854,-9844.739029,-370.102971,995.924147
1073.641175,-9696.697840,-296.082377,1302.362347
1073.641496,-9844.739029,-296.082377,1072.533697
1073.641817,-9696.697840,-222.061783,1302.362347
1073.642137,-9696.697840,-296.082377,1149.143247
1073.642458,-9770.718434,-296.082377,1149.143247
1073.642779,-9844.739029,-370.102971,1149.143247
1073.643100,-9622.677246,-592.164754,1302.362347
1073.643421,-9770.718434,-592.164754,383.047749
1073.643741,-9622.677246,-888.247130,1072.533697
1073.644062,-9548.656652,-518.144159,1072.533697
1073.644383,-9844.739029,-222.061783,842.705048
1073.644704,-9548.656652,0.000000,-842.705048
1073.645025,-9622.677246,-296.082377,766.095498
1073.645345,-9696.697840,-148.041188,1149.143247
1073.645666,-9696.697840,0.000000,689.485948
1073.645987,-9622.677246,0.000000,919.314598
1073.646308,-9992.780217,0.000000,1302.362347
1073.646629,-9770.718434,0.000000,1149.143247
1073.646949,-9548.656652,-518.144159,1072.533697
1073.647270,-9622.677246,-518.144159,919.314598
1073.647591,-9252.574275,-518.144159,766.095498
1073.647912,-9622.677246,-592.164754,1225.752797
1073.648233,-9326.594869,-666.185348,1225.752797
1073.648553,-9400.615463,-518.144159,1225.752797
1073.648874,-9548.656652,-444.123565,1455.581446
1073.649195,-9474.636058,-444.123565,919.314598
1073.649516,-9474.636058,-444.123565,1072.533697
1073.649837,-9474.636058,-370.102971,1455.581446
1073.650157,-9474.636058,-74.020594,1149.143247
1073.650478,-9770.718434,-370.102971,1378.971896
1073.650799,-9622.677246,-148.041188,1072.533697
1073.651120,-9992.780217,0.000000,1302.362347
1073.651441,-9622.677246,0.000000,1378.971896
1073.651761,-8808.450710,-592.164754,0.000000
1073.652082,-9622.677246,-296.082377,919.314598
1073.652403,-9548.656652,-518.144159,995.924147
1073.652724,-9622.677246,-296.082377,1149.143247
1073.653045,-9548.656652,-888.247130,842.705048
1073.653365,-9474.636058,-518.144159,842.705048
1073.653686,-9696.697840,-370.102971,1072.533697
1073.654007,-9474.636058,-518.144159,1149.143247
1073.654328,-9696.697840,-370.102971,1225.752797
1073.654649,-9252.574275,-148.041188,1302.362347
1073.654969,-9770.718434,-296.082377,766.095498
1073.655290,-9474.636058,-74.020594,995.924147
1073.655611,-9770.718434,0.000000,919.314598
1073.655932,-9252.574275,-296.082377,1225.752797
1073.656253,-9696.697840,-296.082377,766.095498
1073.656573,-9622.677246,-296.082377,842.705048
1073.656894,-9622.677246,-148.041188,995.924147
1073.657215,-9770.718434,-592.164754,306.438199
1073.657536,-9474.636058,-518.144159,1302.362347
1073.657857,-9474.636058,-370.102971,1302.362347
1073.658177,-9474.636058,-592.164754,919.314598
1073.658498,-9548.656652,-370.102971,995.924147
1073.658819,-9622.677246,-296.082377,1072.533697
1073.659140,-9770.718434,-518.144159,1455.581446
1073.659461,-9474.636058,-296.082377,995.924147
1073.659781,-9548.656652,-592.164754,842.705048
1073.660102,-9696.697840,-370.102971,536.266849
1073.660423,-9622.677246,-222.061783,919.314598
1073.660744,-9474.636058,0.000000,995.924147
1073.661065,-9548.656652,-296.082377,1072.533697
1073.661385,-9548.656652,888.247130,1532.190996
1073.661706,-9548.656652,-148.041188,1149.143247
1073.662027,-9548.656652,-222.061783,1225.752797
1073.662348,-9770.718434,-592.164754,1455.581446
1073.662669,-9622.677246,-666.185348,1149.143247
1073.662989,-9474.636058,-592.164754,919.314598
1073.663310,-9474.636058,-370.102971,919.314598
1073.663631,-9400.615463,-444.123565,1072.533697
1073.663952,-9474.636058,-296.082377,1225.752797
1073.664273,-8808.450710,-962.267725,612.876398
1073.664593,-9622.677246,-222.061783,995.924147
1073.664914,-9770.718434,-222.061783,1378.971896
1073.665235,-9474.636058,-518.144159,1149.143247
1073.665556,-9252.574275,-888.247130,1149.143247
1073.665877,-9918.759623,0.000000,1455.581446
1073.666197,-9622.677246,0.000000,995.924147
1073.666518,-9696.697840,-518.144159,766.095498
1073.666839,-9770.718434,-370.102971,919.314598
1073.667160,-9918.759623,-444.123565,1149.143247
1073.667481,-9548.656652,-296.082377,1149.143247
1073.667801,-9548.656652,-740.205942,995.924147
1073.668122,-9548.656652,-370.102971,1072.533697
1073.668443,-9474.636058,-518.144159,1608.800546
1073.668764,-9770.718434,-592.164754,919.314598
1073.669085,-9770.718434,-370.102971,1378.971896
1073.669405,-9548.656652,-296.082377,842.705048
1073.669726,-9844.739029,-1036.288319,1225.752797
1073.670047,-9696.697840,-222.061783,995.924147
1073.670368,-9696.697840,-444.123565,1149.143247
1073.670689,-9548.656652,-296.082377,766.095498
1073.671009,-9770.718434,-148.041188,919.314598
1073.671330,-9622.677246,-296.082377,1072.533697
1073.671651,-9622.677246,-296.082377,842.705048
1073.671972,-9548.656652,-296.082377,842.705048
1073.672293,-9696.697840,-296.082377,1149.143247
1073.672613,-9030.512492,-888.247130,689.485948
1073.672934,-9622.677246,-740.205942,1149.143247
1073.673255,-9770.718434,-296.082377,1149.143247
1073.673576,-9474.636058,-592.164754,1072.533697
1073.673897,-8586.388927,-740.205942,2451.505594
1073.674217,-9326.594869,-370.102971,1072.533697
1073.674538,-9474.636058,-222.061783,995.924147
1073.674859,-9474.636058,0.000000,1149.143247
1073.675180,-9548.656652,0.000000,1072.533697
1073.675501,-9548.656652,-296.082377,1225.752797
1073.675821,-9770.718434,-148.041188,1072.533697
1073.676142,-9622.677246,-296.082377,919.314598
1073.676463,-9474.636058,-370.102971,1455.581446
1073.676784,-10214.842000,222.061783,919.314598
1073.677105,-9770.718434,-370.102971,1225.752797
1073.677425,-9548.656652,-592.164754,1072.533697
1073.677746,-9548.656652,-444.123565,1149.143247
1073.678067,-9474.636058,0.000000,536.266849
1073.678388,-9696.697840,-444.123565,1225.752797
1073.678709,-9326.594869,-370.102971,766.095498
1073.679029,-9622.677246,-222.061783,919.314598
1073.679350,-9474.636058,0.000000,995.924147
1073.679671,-9622.677246,0.000000,1072.533697
1073.679992,-9770.718434,0.000000,919.314598
1073.680313,-9474.636058,-222.061783,919.314598
1073.680633,-9770.718434,0.000000,842.705048
1073.680954,-9474.636058,-370.102971,689.485948
1073.681275,-9548.656652,-444.123565,1225.752797
1073.681596,-9474.636058,-518.144159,1072.533697
1073.681917,-9474.636058,-370.102971,1072.533697
1073.682237,-8956.491898,148.041188,689.485948
1073.682558,-9474.636058,-370.102971,842.705048
1073.682879,-9474.636058,74.020594,842.705048
1073.683200,-9770.718434,0.000000,842.705048
1073.683521,-9474.636058,0.000000,766.095498
1073.683841,-9770.718434,0.000000,842.705048
1073.684162,-9548.656652,-296.082377,919.314598
1073.684483,-9548.656652,0.000000,919.314598
1073.684804,-9622.677246,-296.082377,1302.362347
1073.685125,-9770.718434,-592.164754,1302.362347
1073.685445,-9400.615463,-518.144159,1455.581446
1073.685766,-9548.656652,-740.205942,1455.581446
1073.686087,-9474.636058,-296.082377,1302.362347
1073.686408,-9696.697840,-148.041188,689.485948
1073.686729,-9474.636058,-296.082377,1378.971896
1073.687049,-9622.677246,-444.123565,1072.533697
1073.687370,-9548.656652,-370.102971,1225.752797
1073.687691,-9474.636058,-592.164754,1532.190996
1073.688012,-9696.697840,-222.061783,919.314598
1073.688333,-9548.656652,-222.061783,1455.581446
1073.688653,-9474.636058,-296.082377,1072.533697
1073.688974,-9474.636058,-370.102971,1149.143247
1073.689295,-9400.615463,-592.164754,995.924147
1073.689616,-9770.718434,-370.102971,1455.581446
1073.689937,-9622.677246,-222.061783,1302.362347
1073.690257,-9548.656652,-222.061783,1225.752797
1073.690578,-10214.842000,-222.061783,2068.457845
1073.690899,-9696.697840,-444.123565,1455.581446
1073.691220,-9918.759623,-592.164754,1072.533697
1073.691541,-9548.656652,-370.102971,1455.581446
1073.691861,-9400.615463,-518.144159,919.314598
1073.692182,-9474.636058,-444.123565,919.314598
1073.692503,-9474.636058,-444.123565,1072.533697
1073.692824,-9696.697840,-444.123565,995.924147
1073.693145,-9548.656652,-148.041188,919.314598
1073.693465,-9548.656652,0.000000,1838.629195
1073.693786,-9696.697840,-296.082377,1149.143247
1073.694107,-9548.656652,-222.061783,1149.143247
1073.694428,-9844.739029,-296.082377,1302.362347
1073.694749,-9622.677246,-74.020594,1072.533697
1073.695069,-9548.656652,0.000000,1455.581446
1073.695390,-9696.697840,-296.082377,1455.581446
1073.695711,-9474.636058,-592.164754,1072.533697
1073.696032,-9548.656652,-444.123565,689.485948
1073.696353,-9548.656652,-370.102971,1225.752797
1073.696673,-9548.656652,-148.041188,1225.752797
1073.696994,-9622.677246,-222.061783,1149.143247
1073.697315,-9400.615463,-296.082377,919.314598
1073.697636,-9326.594869,-148.041188,1072.533697
1073.697957,-9622.677246,-296.082377,612.876398
1073.698277,-9474.636058,-148.041188,842.705048
1073.698598,-9844.739029,0.000000,919.314598
1073.698919,-9770.718434,0.000000,1762.019645
1073.699240,-9918.759623,0.000000,1225.752797
1073.699561,-9622.677246,-222.061783,1149.143247
1073.699881,-9770.718434,-370.102971,689.485948
1073.700202,-9474.636058,-370.102971,1225.752797
1073.700523,-9696.697840,-370.102971,1455.581446
1073.700844,-9622.677246,-296.082377,995.924147
1073.701165,-9622.677246,-296.082377,306.438199
1073.701485,-9474.636058,-370.102971,995.924147
1073.701806,-9030.512492,-592.164754,1225.752797
1073.702127,-9548.656652,-222.061783,842.705048
1073.702448,-9844.739029,0.000000,995.924147
1073.702769,-9696.697840,-296.082377,1225.752797
1073.703089,-9696.697840,0.000000,1225.752797
1073.703410,-9622.677246,-74.020594,919.314598
1073.703731,-9548.656652,-148.041188,842.705048
1073.704052,-9400.615463,-148.041188,842.705048
1073.704373,-9548.656652,-444.123565,919.314598
1073.704693,-9474.636058,-518.144159,919.314598
1073.705014,-9548.656652,-370.102971,1072.533697
1073.705335,-9622.677246,-370.102971,1072.533697
1073.705656,-9622.677246,-296.082377,995.924147
1073.705977,-9474.636058,-296.082377,1685.410096
1073.706297,-9622.677246,-222.061783,1149.143247
1073.706618,-9622.677246,0.000000,995.924147
1073.706939,-9844.739029,0.000000,995.924147
1073.707260,-9770.718434,-592.164754,1072.533697
1073.707581,-9696.697840,0.000000,995.924147
1073.707901,-9696.697840,-296.082377,1225.752797
1073.708222,-9622.677246,-222.061783,1072.533697
1073.708543,-9548.656652,-370.102971,689.485948
1073.708864,-9622.677246,-296.082377,1149.143247
1073.709185,-9474.636058,-888.247130,995.924147
1073.709505,-9474.636058,-518.144159,919.314598
1073.709826,-9474.636058,-518.144159,1072.533697
1073.710147,-9474.636058,-518.144159,0.000000
1073.710468,-9400.615463,-222.061783,919.314598
1073.710789,-9622.677246,-370.102971,1072.533697
1073.711109,-9474.636058,-148.041188,1225.752797
1073.711430,-9844.739029,-296.082377,0.000000
1073.711751,-9622.677246,0.000000,612.876398
1073.712072,-9474.636058,-296.082377,919.314598
1073.712393,-9622.677246,-222.061783,1378.971896
1073.712713,-9696.697840,-370.102971,1225.752797
1073.713034,-9474.636058,-370.102971,1149.143247
1073.713355,-9474.636058,-592.164754,1302.362347
1073.713676,-9622.677246,-592.164754,1302.362347
1073.713997,-9474.636058,-592.164754,1072.533697
1073.714317,-9400.615463,-888.247130,1378.971896
1073.714638,-9548.656652,-518.144159,995.924147
1073.714959,-9770.718434,-222.061783,1072.533697
1073.715280,-9696.697840,-296.082377,1302.362347
1073.715601,-9474.636058,-592.164754,459.657299
1073.715921,-9474.636058,-296.082377,689.485948
1073.716242,-9770.718434,-222.061783,995.924147
1073.716563,-9696.697840,-148.041188,766.095498
1073.716884,-9548.656652,-74.020594,1455.581446
1073.717205,-9770.718434,-296.082377,1225.752797
1073.717525,-9474.636058,-296.082377,919.314598
1073.717846,-9770.718434,-444.123565,1149.143247
1073.718167,-9622.677246,-370.102971,1302.362347
1073.718488,-9474.636058,-444.123565,1532.190996
1073.718808,-9548.656652,-444.123565,1302.362347
1073.719129,-9474.636058,-592.164754,1149.143247
1073.719450,-9474.636058,-518.144159,1225.752797
1073.719771,-9548.656652,-740.205942,842.705048
1073.720092,-9474.636058,-444.123565,1072.533697
1073.720412,-9622.677246,-296.082377,1455.581446
1073.720733,-9474.636058,-518.144159,1149.143247
1073.721054,-9474.636058,-370.102971,1225.752797
1073.721375,-9548.656652,-296.082377,1225.752797
1073.721696,-9474.636058,-444.123565,1149.143247
1073.722016,-9696.697840,-222.061783,919.314598
1073.722337,-9696.697840,0.000000,842.705048
1073.722658,-10066.800811,-222.061783,689.485948
1073.722979,-9770.718434,-148.041188,1302.362347
1073.723300,-9548.656652,-444.123565,919.314598
1073.723620,-9474.636058,-444.123565,919.314598
1073.723941,-9844.739029,0.000000,2298.286494
1073.724262,-9622.677246,-296.082377,1302.362347
1073.724583,-9622.677246,-518.144159,919.314598
1073.724904,-9474.636058,-518.144159,1149.143247
1073.725224,-9770.718434,-444.123565,1378.971896
1073.725545,-9622.677246,-148.041188,1532.190996
1073.725866,-9548.656652,-370.102971,1225.752797
1073.726187,-9474.636058,-222.061783,1149.143247
1073.726508,-9474.636058,-592.164754,1072.533697
1073.726828,-9622.677246,-444.123565,919.314598
1073.727149,-9474.636058,-370.102971,612.876398
1073.727470,-9474.636058,0.000000,919.314598
1073.727791,-9474.636058,-296.082377,1149.143247
1073.728112,-9844.739029,-814.226536,842.705048
1073.728432,-9622.677246,-74.020594,1072.533697
1073.728753,-9474.636058,-370.102971,1225.752797
1073.729074,-9622.677246,-222.061783,919.314598
1073.729395,-9474.636058,-370.102971,995.924147
1073.729716,-9622.677246,-444.123565,1225.752797
1073.730036,-9474.636058,-444.123565,919.314598
1073.730357,-9548.656652,-296.082377,919.314598
1073.730678,-9992.780217,0.000000,1225.752797
1073.730999,-9548.656652,-444.123565,995.924147
1073.731320,-9696.697840,-296.082377,1149.143247
1073.731640,-9770.718434,-444.123565,766.095498
1073.731961,-9622.677246,0.000000,919.314598
1073.732282,-9400.615463,-296.082377,2757.943793
1073.732603,-9474.636058,-222.061783,1149.143247
1073.732924,-9548.656652,-222.061783,842.705048
1073.733245,-9622.677246,0.000000,995.924147
1073.733566,-9474.636058,0.000000,919.314598
1073.733887,-9474.636058,-518.144159,1072.533697
1073.734208,-9474.636058,-296.082377,1149.143247
1073.734529,-9474.636058,-296.082377,1149.143247
1073.734850,-9770.718434,-592.164754,1378.971896
1073.735171,-9030.512492,-1332.370696,995.924147
1073.735492,-9622.677246,-370.102971,1072.533697
1073.735813,-9770.718434,-296.082377,1149.143247
1073.736134,-9326.594869,-222.061783,842.705048
1073.736455,-8808.450710,-296.082377,919.314598
1073.736776,-9474.636058,0.000000,1149.143247
1073.737096,-9622.677246,-296.082377,1072.533697
1073.737417,-9622.677246,-148.041188,842.705048
1073.737738,-9770.718434,-518.144159,919.314598
1073.738059,-9696.697840,-74.020594,1302.362347
1073.738380,-9548.656652,0.000000,995.924147
1073.738701,-9770.718434,-222.061783,995.924147
1073.739022,-9622.677246,-296.082377,1455.581446
1073.739343,-9696.697840,-296.082377,0.000000
1073.739664,-9696.697840,-222.061783,1149.143247
1073.739985,-9252.574275,-444.123565,1072.533697
1073.740306,-9696.697840,-296.082377,1072.533697
1073.740627,-9548.656652,-296.082377,842.705048
1073.740948,-9474.636058,-444.123565,766.095498
1073.741269,-9548.656652,-296.082377,1072.533697
1073.741590,-9770.718434,0.000000,919.314598
1073.741911,-9918.759623,0.000000,1302.362347
1073.742231,-9474.636058,0.000000,919.314598
1073.742552,-9622.677246,0.000000,1149.143247
1073.742873,-9622.677246,-148.041188,1378.971896
1073.743194,-9918.759623,-666.185348,1149.143247
1073.743515,-9696.697840,148.041188,1225.752797
1073.743836,-9770.718434,-370.102971,1149.143247
1073.744157,-9474.636058,-370.102971,1149.143247
1073.744478,-9474.636058,-592.164754,1225.752797
1073.744799,-9400.615463,-518.144159,2068.457845
1073.745120,-9474.636058,-592.164754,1455.581446
1073.745441,-9548.656652,-444.123565,1378.971896
1073.745762,-9474.636058,-370.102971,1455.581446
1073.746083,-9622.677246,-296.082377,1378.971896
1073.746404,-9474.636058,-148.041188,1762.019645
1073.746725,-9548.656652,-370.102971,995.924147
1073.747046,-9770.718434,0.000000,1302.362347
1073.747367,-9696.697840,-444.123565,1225.752797
1073.747687,-9844.739029,0.000000,2451.505594
1073.748008,-9622.677246,-444.123565,1072.533697
1073.748329,-9696.697840,-444.123565,919.314598
1073.748650,-9548.656652,-444.123565,1225.752797
1073.748971,-9474.636058,-592.164754,1455.581446
1073.749292,-9474.636058,-740.205942,1302.362347
1073.749613,-9474.636058,-666.185348,1225.752797
1073.749934,-9548.656652,-518.144159,1225.752797
1073.750255,-9474.636058,-296.082377,1378.971896
1073.750576,-9548.656652,-148.041188,919.314598
1073.750897,-9696.697840,-296.082377,1072.533697
1073.751218,-9548.656652,-148.041188,995.924147
1073.751539,-9770.718434,-296.082377,1149.143247
1073.751860,-9770.718434,-740.205942,995.924147
1073.752181,-9696.697840,-444.123565,1072.533697
1073.752502,-9696.697840,-592.164754,1072.533697
1073.752822,-9696.697840,-444.123565,1149.143247
1073.753143,-9548.656652,-370.102971,1225.752797
1073.753464,-9548.656652,-666.185348,919.314598
1073.753785,-9400.615463,-444.123565,919.314598
1073.754106,-9696.697840,-444.123565,1072.533697
1073.754427,-9696.697840,-74.020594,1225.752797
1073.754748,-9548.656652,-518.144159,1149.143247
1073.755069,-9548.656652,-296.082377,995.924147
1073.755390,-9622.677246,-296.082377,1455.581446
1073.755711,-9844.739029,-370.102971,1072.533697
1073.756032,-9474.636058,-370.102971,229.828649
1073.756353,-9622.677246,-222.061783,766.095498
1073.756674,-9474.636058,-592.164754,919.314598
1073.756995,-9474.636058,-666.185348,919.314598
1073.757316,-9696.697840,74.020594,1838.629195
1073.757637,-9622.677246,-444.123565,1072.533697
1073.757958,-9548.656652,-296.082377,1149.143247
1073.758278,-9622.677246,-222.061783,1532.190996
1073.758599,-9474.636058,-370.102971,1072.533697
1073.758920,-9622.677246,-222.061783,766.095498
1073.759241,-9326.594869,-370.102971,766.095498
1073.759562,-9548.656652,0.000000,689.485948
1073.759883,-9474.636058,-296.082377,612.876398
1073.760204,-9474.636058,-592.164754,536.266849
1073.760525,-9548.656652,-222.061783,842.705048
1073.760846,-9474.636058,0.000000,995.924147
1073.761167,-9844.739029,-518.144159,842.705048
1073.761488,-9696.697840,-222.061783,1149.143247
1073.761809,-9548.656652,0.000000,1532.190996
1073.762130,-9622.677246,-74.020594,1302.362347
1073.762451,-9474.636058,-296.082377,1149.143247
1073.762772,-9548.656652,-444.123565,919.314598
1073.763093,-8660.409521,-518.144159,2221.676944
1073.763413,-9474.636058,0.000000,766.095498
1073.763734,-9548.656652,0.000000,536.266849
1073.764055,-9474.636058,-148.041188,995.924147
1073.764376,-9770.718434,-148.041188,995.924147
1073.764697,-9326.594869,-148.041188,995.924147
1073.765018,-9622.677246,0.000000,919.314598
1073.765339,-9696.697840,0.000000,1302.362347
1073.765660,-9918.759623,-296.082377,1225.752797
1073.765981,-9844.739029,-296.082377,1762.019645
1073.766302,-9474.636058,-296.082377,919.314598
1073.766623,-9696.697840,0.000000,1072.533697
1073.766944,-9548.656652,-296.082377,1149.143247
1073.767265,-9622.677246,0.000000,1608.800546
1073.767586,-9400.615463,-518.144159,689.485948
1073.767907,-9400.615463,-518.144159,459.657299
1073.768228,-9400.615463,-444.123565,612.876398
1073.768549,-9400.615463,0.000000,766.095498
1073.768869,-9622.677246,-222.061783,1072.533697
1073.769190,-9474.636058,-222.061783,842.705048
1073.769511,-9622.677246,-222.061783,689.485948
1073.769832,-9696.697840,-370.102971,919.314598
1073.770153,-9992.780217,-518.144159,689.485948
1073.770474,-9622.677246,-222.061783,766.095498
1073.770795,-9548.656652,-296.082377,919.314598
1073.771116,-9548.656652,-148.041188,689.485948
1073.771437,-10140.821405,814.226536,2068.457845
1073.771758,-9548.656652,-444.123565,1149.143247
1073.772079,-9474.636058,-222.061783,1072.533697
1073.772400,-9474.636058,-296.082377,919.314598
1073.772721,-9474.636058,-370.102971,842.705048
1073.773042,-9622.677246,-148.041188,1072.533697
1073.773363,-9770.718434,-148.041188,1378.971896
1073.773684,-9622.677246,-370.102971,1149.143247
1073.774004,-9770.718434,-222.061783,919.314598
1073.774325,-9548.656652,-740.205942,995.924147
1073.774646,-9844.739029,-296.082377,995.924147
1073.774967,-9622.677246,-222.061783,1149.143247
1073.775288,-9770.718434,-370.102971,1149.143247
1073.775609,-9400.615463,148.041188,2068.457845
1073.775930,-9622.677246,-518.144159,842.705048
1073.776251,-9548.656652,-370.102971,766.095498
1073.776572,-9696.697840,-740.205942,842.705048
1073.776893,-9474.636058,-444.123565,995.924147
1073.777214,-9548.656652,-148.041188,1455.581446
1073.777535,-9770.718434,-148.041188,919.314598
1073.777856,-9844.739029,0.000000,1378.971896
1073.778177,-9918.759623,0.000000,1225.752797
1073.778498,-10066.800811,-518.144159,612.876398
1073.778819,-9622.677246,-518.144159,995.924147
1073.779140,-9548.656652,-222.061783,842.705048
1073.779460,-9548.656652,-370.102971,1302.362347
1073.779781,-9474.636058,444.123565,2834.553343
1073.780102,-9622.677246,-296.082377,1149.143247
1073.780423,-9474.636058,-296.082377,1072.533697
1073.780744,-9770.718434,-296.082377,1225.752797
1073.781065,-9548.656652,-592.164754,1302.362347
1073.781386,-9696.697840,-370.102971,1302.362347
1073.781707,-9548.656652,-592.164754,1225.752797
1073.782028,-9548.656652,-370.102971,1302.362347
1073.782349,-9548.656652,-296.082377,1072.533697
1073.782670,-9178.553681,-592.164754,2145.067394
1073.782991,-9622.677246,0.000000,1455.581446
1073.783312,-9622.677246,-518.144159,995.924147
1073.783633,-9622.677246,-296.082377,1149.143247
1073.783954,-9474.636058,-222.061783,842.705048
1073.784275,-9622.677246,-370.102971,1225.752797
1073.784595,-9474.636058,-740.205942,1149.143247
1073.784916,-9474.636058,-666.185348,1072.533697
1073.785237,-9548.656652,-518.144159,1302.362347
1073.785558,-9622.677246,-222.061783,1225.752797
1073.785879,-9696.697840,-222.061783,1225.752797
1073.786200,-9474.636058,-370.102971,1455.581446
1073.786521,-9548.656652,-222.061783,1072.533697
1073.786842,-9844.739029,-518.144159,1838.629195
1073.787163,-9622.677246,-444.123565,995.924147
1073.787484,-9474.636058,-444.123565,919.314598
1073.787805,-9548.656652,0.000000,919.314598
1073.788126,-9400.615463,0.000000,1838.629195
1073.788447,-9622.677246,0.000000,1072.533697
1073.788768,-9400.615463,-444.123565,536.266849
1073.789089,-9400.615463,-222.061783,612.876398
1073.789410,-9770.718434,-222.061783,1149.143247
1073.789731,-9326.594869,-444.123565,1455.581446
1073.790051,-9474.636058,-740.205942,1072.533697
1073.790372,-9548.656652,-518.144159,1302.362347
1073.790693,-9548.656652,-592.164754,1072.533697
1073.791014,-9992.780217,222.061783,1149.143247
1073.791335,-9622.677246,-444.123565,1149.143247
1073.791656,-9548.656652,-296.082377,1149.143247
1073.791977,-9622.677246,-148.041188,689.485948
1073.792298,-9178.553681,-370.102971,2374.896044
1073.792619,-9474.636058,-444.123565,919.314598
1073.792940,-9548.656652,-370.102971,842.705048
1073.793261,-9474.636058,-444.123565,919.314598
1073.793582,-9548.656652,-666.185348,1072.533697
1073.793903,-9622.677246,-296.082377,1302.362347
1073.794224,-9770.718434,-296.082377,1072.533697
1073.794545,-9622.677246,-296.082377,1455.581446
1073.794866,-9622.677246,-296.082377,1072.533697
1073.795186,-9992.780217,-74.020594,1532.190996
1073.795507,-9548.656652,-370.102971,1225.752797
1073.795828,-9474.636058,-222.061783,1225.752797
1073.796149,-9400.615463,-296.082377,1072.533697
1073.796470,-9770.718434,-370.102971,1455.581446
1073.796791,-9548.656652,-296.082377,995.924147
1073.797112,-9696.697840,-370.102971,612.876398
1073.797433,-9548.656652,-666.185348,1072.533697
1073.797754,-9622.677246,-296.082377,1225.752797
1073.798075,-9622.677246,-296.082377,1685.410096
1073.798396,-9622.677246,-296.082377,1532.190996
1073.798717,-9770.718434,-592.164754,1378.971896
1073.799038,-9548.656652,-444.123565,919.314598
1073.799359,-9622.677246,74.020594,536.266849
1073.799680,-9548.656652,-592.164754,1072.533697
1073.800001,-9474.636058,-370.102971,919.314598
1073.800322,-9474.636058,-222.061783,536.266849
1073.800642,-9548.656652,-148.041188,766.095498
1073.800963,-9178.553681,-222.061783,919.314598
1073.801284,-9548.656652,-370.102971,1225.752797
1073.801605,-9622.677246,-148.041188,1149.143247
1073.801926,-9622.677246,-148.041188,1149.143247
1073.802247,-9474.636058,-592.164754,1302.362347
1073.802568,-9548.656652,-518.144159,1378.971896
1073.802889,-9548.656652,-444.123565,1072.533697
1073.803210,-9474.636058,-222.061783,1302.362347
1073.803531,-9104.533087,-888.247130,1532.190996
1073.803852,-9622.677246,-296.082377,842.705048
1073.804173,-9622.677246,-296.082377,842.705048
1073.804494,-9474.636058,-592.164754,689.485948
1073.804815,-9474.636058,-222.061783,612.876398
1073.805136,-9696.697840,-444.123565,612.876398
1073.805457,-9474.636058,0.000000,995.924147
1073.805777,-9548.656652,0.000000,1149.143247
1073.806098,-9548.656652,0.000000,1072.533697
1073.806419,-9104.533087,0.000000,1225.752797
1073.806740,-9474.636058,-148.041188,1149.143247
1073.807061,-9548.656652,-148.041188,1072.533697
1073.807382,-9622.677246,74.020594,1149.143247
1073.807703,-9622.677246,-1184.329507,76.609550
1073.808024,-9548.656652,-370.102971,919.314598
1073.808345,-9622.677246,-444.123565,1072.533697
1073.808666,-9622.677246,-296.082377,766.095498
1073.808987,-9400.615463,-370.102971,995.924147
1073.809308,-9622.677246,-148.041188,766.095498
1073.809629,-9474.636058,74.020594,919.314598
1073.809950,-9548.656652,0.000000,1225.752797
1073.810271,-9844.739029,0.000000,1225.752797
1073.810592,-9178.553681,0.000000,1838.629195
1073.810913,-9622.677246,0.000000,1302.362347
1073.811233,-9696.697840,0.000000,1378.971896
1073.811554,-9770.718434,-518.144159,1149.143247
1073.811875,-9474.636058,-666.185348,2298.286494
1073.812196,-9622.677246,-222.061783,689.485948
1073.812517,-9622.677246,-222.061783,766.095498
1073.812838,-9400.615463,0.000000,612.876398
1073.813159,-9770.718434,-370.102971,1149.143247
1073.813480,-9770.718434,0.000000,919.314598
1073.813801,-9622.677246,-296.082377,1072.533697
1073.814122,-9770.718434,-222.061783,1302.362347
1073.814443,-9474.636058,-592.164754,1455.581446
1073.814764,-9104.533087,296.082377,1149.143247
1073.815085,-9548.656652,-296.082377,1149.143247
1073.815406,-9474.636058,-518.144159,1072.533697
1073.815727,-9474.636058,-370.102971,919.314598
1073.816048,-9474.636058,0.000000,2298.286494
1073.816369,-9474.636058,-296.082377,842.705048
1073.816689,-9622.677246,-296.082377,842.705048
1073.817010,-9474.636058,-592.164754,995.924147
1073.817331,-9548.656652,-444.123565,919.314598
1073.817652,-9844.739029,-592.164754,919.314598
1073.817973,-9474.636058,-370.102971,1302.362347
1073.818294,-9770.718434,-518.144159,1762.019645
1073.818615,-9548.656652,-296.082377,1455.581446
1073.818936,-9400.615463,-740.205942,612.876398
1073.819257,-9696.697840,0.000000,689.485948
1073.819578,-9474.636058,-444.123565,1225.752797
1073.819899,-9474.636058,-222.061783,919.314598
1073.820220,-9474.636058,-444.123565,766.095498
1073.820541,-9474.636058,-666.185348,1225.752797
1073.820862,-9474.636058,-592.164754,1072.533697
1073.821183,-9770.718434,-296.082377,1225.752797
1073.821504,-9622.677246,-296.082377,1302.362347
1073.821824,-9326.594869,-444.123565,1532.190996
1073.822145,-9770.718434,-222.061783,1302.362347
1073.822466,-9770.718434,-296.082377,1302.362347
1073.822787,-9696.697840,-370.102971,1149.143247
1073.823108,-9696.697840,-1258.350101,766.095498
1073.823429,-9474.636058,-518.144159,766.095498
1073.823750,-9474.636058,-666.185348,536.266849
1073.824071,-9622.677246,-148.041188,1072.533697
1073.824392,-9696.697840,222.061783,1149.143247
1073.824713,-9474.636058,0.000000,1149.143247
1073.825034,-9548.656652,-518.144159,919.314598
1073.825355,-9622.677246,-444.123565,919.314598
1073.825676,-9474.636058,-666.185348,995.924147
1073.825997,-9474.636058,370.102971,2298.286494
1073.826318,-9548.656652,-592.164754,1149.143247
1073.826639,-9622.677246,-666.185348,1302.362347
1073.826960,-9696.697840,-518.144159,1225.752797
1073.827280,-9770.718434,-296.082377,995.924147
1073.827601,-9844.739029,0.000000,1608.800546
1073.827922,-9622.677246,-222.061783,1149.143247
1073.828243,-9474.636058,-148.041188,536.266849
1073.828564,-9474.636058,-148.041188,919.314598
1073.828885,-9548.656652,-296.082377,919.314598
1073.829206,-9992.780217,296.082377,1225.752797
1073.829527,-9548.656652,-296.082377,1072.533697
1073.829848,-9696.697840,-296.082377,1072.533697
1073.830169,-9474.636058,-148.041188,1302.362347
1073.830490,-9696.697840,-518.144159,1378.971896
1073.830811,-9770.718434,-222.061783,919.314598
1073.831132,-9770.718434,-592.164754,919.314598
1073.831453,-9622.677246,-370.102971,689.485948
1073.831774,-9474.636058,-592.164754,1149.143247
1073.832095,-9474.636058,-370.102971,229.828649
1073.832415,-9400.615463,-370.102971,919.314598
1073.832736,-9474.636058,-444.123565,1149.143247
1073.833057,-9474.636058,-518.144159,919.314598
1073.833378,-9474.636058,-370.102971,1225.752797
1073.833699,-9622.677246,-1184.329507,536.266849
1073.834020,-9548.656652,0.000000,1302.362347
1073.834341,-9844.739029,-222.061783,1225.752797
1073.834662,-9474.636058,-370.102971,1072.533697
1073.834983,-9548.656652,-370.102971,995.924147
1073.835304,-9770.718434,-74.020594,919.314598
1073.835625,-9548.656652,-222.061783,919.314598
1073.835946,-9770.718434,-222.061783,995.924147
1073.836267,-9474.636058,-296.082377,919.314598
1073.836587,-9844.739029,-518.144159,1378.971896
1073.836908,-9770.718434,-74.020594,1149.143247
1073.837229,-9696.697840,-370.102971,1072.533697
1073.837550,-9844.739029,-370.102971,919.314598
1073.837871,-9474.636058,-444.123565,919.314598
1073.838192,-9474.636058,0.000000,919.314598
1073.838513,-9622.677246,-222.061783,995.924147
1073.838834,-9548.656652,-370.102971,1072.533697
1073.839155,-9918.759623,-222.061783,919.314598
1073.839476,-9622.677246,0.000000,1532.190996
1073.839796,-9474.636058,-74.020594,1072.533697
1073.840117,-9770.718434,0.000000,1149.143247
1073.840438,-9474.636058,-222.061783,995.924147
1073.840759,-9474.636058,0.000000,689.485948
1073.841080,-9548.656652,-148.041188,766.095498
1073.841401,-9548.656652,-592.164754,766.095498
1073.841722,-9548.656652,-296.082377,1302.362347
1073.842043,-9622.677246,-296.082377,919.314598
1073.842364,-10066.800811,0.000000,1072.533697
1073.842685,-9622.677246,-222.061783,995.924147
1073.843005,-9622.677246,-222.061783,1225.752797
1073.843326,-9696.697840,-148.041188,1225.752797
1073.843647,-8956.491898,-518.144159,842.705048
1073.843968,-9622.677246,-296.082377,919.314598
1073.844289,-9548.656652,-222.061783,1149.143247
1073.844610,-9474.636058,-370.102971,995.924147
1073.844931,-9474.636058,-370.102971,919.314598
1073.845252,-9474.636058,-370.102971,1149.143247
1073.845573,-9696.697840,-222.061783,919.314598
1073.845894,-9474.636058,-592.164754,995.924147
1073.846214,-9474.636058,-518.144159,1149.143247
1073.846535,-9104.533087,-222.061783,1378.971896
1073.846856,-9548.656652,-74.020594,1149.143247
1073.847177,-9548.656652,-444.123565,995.924147
1073.847498,-9548.656652,-148.041188,689.485948
1073.847819,-9400.615463,592.164754,1455.581446
1073.848140,-9622.677246,0.000000,1302.362347
1073.848461,-9474.636058,0.000000,1072.533697
1073.848782,-9622.677246,-74.020594,995.924147
1073.849103,-9548.656652,-370.102971,689.485948
1073.849423,-9474.636058,-296.082377,919.314598
1073.849744,-9622.677246,-370.102971,1149.143247
1073.850065,-9622.677246,-740.205942,1378.971896
1073.850386,-9622.677246,-148.041188,919.314598
1073.850707,-9696.697840,-592.164754,2298.286494
1073.851028,-9622.677246,-370.102971,1302.362347
1073.851349,-9622.677246,-296.082377,1072.533697
1073.851670,-9474.636058,-222.061783,1072.533697
1073.851991,-9474.636058,0.000000,1302.362347
1073.852312,-9474.636058,-148.041188,995.924147
1073.852632,-9622.677246,-296.082377,842.705048
1073.852953,-9622.677246,-296.082377,919.314598
1073.853274,-9622.677246,-74.020594,1225.752797
1073.853595,-9474.636058,-370.102971,1225.752797
1073.853916,-9696.697840,-444.123565,919.314598
1073.854237,-9548.656652,-518.144159,1225.752797
1073.854558,-9548.656652,-740.205942,1225.752797
1073.854879,-8660.409521,-814.226536,1072.533697
1073.855200,-9400.615463,-592.164754,1225.752797
1073.855521,-9696.697840,-370.102971,1302.362347
1073.855841,-9474.636058,-444.123565,1225.752797
1073.856162,-9696.697840,-444.123565,995.924147
1073.856483,-9326.594869,-444.123565,842.705048
1073.856804,-9622.677246,-370.102971,1072.533697
1073.857125,-9622.677246,-592.164754,612.876398
1073.857446,-9548.656652,-296.082377,689.485948
1073.857767,-9622.677246,-444.123565,459.657299
1073.858088,-9622.677246,-296.082377,1072.533697
1073.858409,-9474.636058,-444.123565,1072.533697
1073.858730,-9770.718434,-518.144159,1225.752797
1073.859050,-9548.656652,-296.082377,2451.505594
1073.859371,-9622.677246,-222.061783,1072.533697
1073.859692,-9548.656652,-370.102971,1149.143247
1073.860013,-9696.697840,-444.123565,1302.362347
1073.860334,-9696.697840,-370.102971,1302.362347
1073.860655,-9770.718434,-592.164754,612.876398
1073.860976,-9474.636058,-370.102971,919.314598
1073.861297,-9548.656652,-296.082377,1378.971896
1073.861618,-9474.636058,-444.123565,1302.362347
1073.861939,-8882.471304,-444.123565,2374.896044
1073.862259,-9474.636058,-296.082377,1532.190996
1073.862580,-9696.697840,-296.082377,1302.362347
1073.862901,-9622.677246,-518.144159,1149.143247
1073.863222,-9474.636058,-518.144159,995.924147
1073.863543,-9696.697840,-518.144159,612.876398
1073.863864,-9474.636058,-370.102971,919.314598
1073.864185,-9474.636058,-222.061783,842.705048
1073.864506,-9400.615463,-370.102971,919.314598
1073.864827,-9992.780217,0.000000,689.485948
1073.865148,-9622.677246,-370.102971,1149.143247
1073.865468,-9696.697840,-222.061783,1302.362347
1073.865789,-9844.739029,-222.061783,1225.752797
1073.866110,-9474.636058,-518.144159,2298.286494
1073.866431,-9474.636058,-814.226536,919.314598
1073.866752,-9622.677246,-296.082377,1378.971896
1073.867073,-9474.636058,-666.185348,1225.752797
1073.867394,-9548.656652,-740.205942,1149.143247
1073.867715,-9770.718434,0.000000,842.705048
1073.868036,-9770.718434,-444.123565,919.314598
1073.868357,-9696.697840,-222.061783,1455.581446
1073.868677,-9696.697840,-518.144159,842.705048
1073.868998,-9622.677246,148.041188,689.485948
1073.869319,-9474.636058,-222.061783,689.485948
1073.869640,-9622.677246,0.000000,1225.752797
1073.869961,-9622.677246,-222.061783,1149.143247
1073.870282,-9548.656652,-222.061783,1149.143247
1073.870603,-9548.656652,-444.123565,842.705048
1073.870924,-9622.677246,0.000000,1302.362347
1073.871245,-9696.697840,-74.020594,1225.752797
1073.871566,-9548.656652,-222.061783,1378.971896
1073.871886,-9770.718434,-370.102971,1455.581446
1073.872207,-9696.697840,-518.144159,842.705048
1073.872528,-9474.636058,-814.226536,995.924147
1073.872849,-9474.636058,-814.226536,1072.533697
1073.873170,-9178.553681,-444.123565,1532.190996
1073.873491,-9548.656652,-444.123565,766.095498
1073.873812,-9548.656652,-296.082377,1149.143247
1073.874133,-9474.636058,-444.123565,1225.752797
1073.874454,-9548.656652,-148.041188,1225.752797
1073.874775,-9770.718434,-148.041188,1378.971896
1073.875095,-9474.636058,-444.123565,919.314598
1073.875416,-9548.656652,-222.061783,842.705048
1073.875737,-9622.677246,-148.041188,919.314598
1073.876058,-9622.677246,0.000000,1072.533697
1073.876379,-9548.656652,-296.082377,612.876398
1073.876700,-9400.615463,-518.144159,689.485948
1073.877021,-9696.697840,-370.102971,842.705048
1073.877342,-9326.594869,0.000000,0.000000
1073.877663,-9474.636058,-444.123565,1149.143247
1073.877984,-9622.677246,-444.123565,1378.971896
1073.878304,-9548.656652,-444.123565,1072.533697
1073.878625,-9548.656652,-518.144159,1149.143247
1073.878946,-9548.656652,-296.082377,995.924147
1073.879267,-9474.636058,-296.082377,842.705048
1073.879588,-9622.677246,-222.061783,1225.752797
1073.879909,-9474.636058,0.000000,1072.533697
1073.880230,-9770.718434,222.061783,689.485948
1073.880551,-9622.677246,0.000000,919.314598
1073.880872,-9622.677246,-296.082377,459.657299
1073.881193,-9474.636058,-370.102971,919.314598
1073.881513,-9696.697840,-592.164754,995.924147
1073.881834,-9622.677246,-370.102971,1532.190996
1073.882155,-9548.656652,-370.102971,1225.752797
1073.882476,-9696.697840,-370.102971,995.924147
1073.882797,-9474.636058,-370.102971,-612.876398
1073.883118,-9548.656652,-444.123565,459.657299
1073.883439,-9548.656652,0.000000,919.314598
1073.883760,-9548.656652,0.000000,995.924147
1073.884081,-9622.677246,0.000000,919.314598
1073.884402,-9474.636058,0.000000,919.314598
1073.884722,-9622.677246,-148.041188,919.314598
1073.885043,-9622.677246,-296.082377,1072.533697
1073.885364,-9696.697840,-444.123565,995.924147
1073.885685,-9696.697840,-962.267725,1608.800546
1073.886006,-9622.677246,-370.102971,1225.752797
1073.886327,-9548.656652,-296.082377,1608.800546
1073.886648,-9696.697840,-518.144159,1149.143247
1073.886969,-9622.677246,-370.102971,995.924147
1073.887290,-9622.677246,-296.082377,1455.581446
1073.887611,-9696.697840,-296.082377,1378.971896
1073.887931,-9474.636058,-592.164754,842.705048
1073.888252,-9474.636058,-518.144159,1072.533697
1073.888573,-9548.656652,-592.164754,919.314598
1073.888894,-9474.636058,-370.102971,919.314598
1073.889215,-9770.718434,-296.082377,919.314598
1073.889536,-9622.677246,0.000000,919.314598
1073.889857,-9770.718434,0.000000,1225.752797
1073.890178,-9474.636058,-370.102971,1378.971896
1073.890499,-9696.697840,-296.082377,1225.752797
1073.890820,-9770.718434,-296.082377,842.705048
1073.891140,-9622.677246,-518.144159,1455.581446
1073.891461,-9400.615463,-592.164754,1378.971896
1073.891782,-9548.656652,-592.164754,1302.362347
1073.892103,-9622.677246,-666.185348,1302.362347
1073.892424,-9474.636058,-592.164754,1302.362347
1073.892745,-9400.615463,-222.061783,1302.362347
1073.893066,-9548.656652,-518.144159,612.876398
1073.893387,-9474.636058,-296.082377,919.314598
1073.893708,-9474.636058,-222.061783,1072.533697
1073.894029,-9770.718434,-148.041188,1225.752797
1073.894350,-9770.718434,-74.020594,1455.581446
1073.894670,-9770.718434,-370.102971,1149.143247
1073.894991,-9622.677246,-518.144159,1532.190996
1073.895312,-9548.656652,-296.082377,1149.143247
1073.895633,-9992.780217,-296.082377,766.095498
1073.895954,-9326.594869,0.000000,612.876398
1073.896275,-9696.697840,-222.061783,995.924147
1073.896596,-9474.636058,-296.082377,1072.533697
1073.896917,-9252.574275,-370.102971,1072.533697
1073.897238,-9622.677246,-148.041188,919.314598
1073.897559,-9474.636058,-222.061783,1072.533697
1073.897879,-9622.677246,-222.061783,1455.581446
1073.898200,-9770.718434,-222.061783,1378.971896
1073.898521,-9548.656652,-296.082377,995.924147
1073.898842,-9770.718434,-444.123565,1072.533697
1073.899163,-9622.677246,-370.102971,842.705048
1073.899484,-9696.697840,-444.123565,1149.143247
1073.899805,-9918.759623,-370.102971,1532.190996
1073.900126,-9474.636058,-148.041188,1225.752797
1073.900447,-9622.677246,-370.102971,1149.143247
1073.900768,-9474.636058,-296.082377,919.314598
1073.901088,-9474.636058,-370.102971,766.095498
1073.901409,-9474.636058,-444.123565,842.705048
1073.901730,-9474.636058,0.000000,1072.533697
1073.902051,-9548.656652,-296.082377,995.924147
1073.902372,-9104.533087,-518.144159,995.924147
1073.902693,-8808.450710,-296.082377,1608.800546
1073.903014,-9622.677246,-148.041188,919.314598
1073.903335,-9548.656652,-296.082377,1072.533697
1073.903656,-9622.677246,-296.082377,1225.752797
1073.903977,-9030.512492,518.144159,2451.505594
1073.904297,-9548.656652,-222.061783,1455.581446
1073.904618,-9474.636058,-518.144159,919.314598
1073.904939,-9474.636058,-296.082377,1072.533697
1073.905260,-9474.636058,-222.061783,1072.533697
1073.905581,-9474.636058,-148.041188,995.924147
1073.905902,-9474.636058,-592.164754,919.314598
1073.906223,-9474.636058,-518.144159,919.314598
1073.906544,-9548.656652,-222.061783,842.705048
1073.906865,-9918.759623,444.123565,1685.410096
1073.907186,-9474.636058,-222.061783,766.095498
1073.907506,-9770.718434,-148.041188,612.876398
1073.907827,-9548.656652,0.000000,919.314598
1073.908148,-9992.780217,-74.020594,76.609550
1073.908469,-9696.697840,-370.102971,1302.362347
1073.908790,-9548.656652,-370.102971,919.314598
1073.909111,-9696.697840,-296.082377,1072.533697
1073.909432,-9474.636058,-296.082377,689.485948
1073.909753,-9474.636058,-444.123565,1149.143247
1073.910074,-9844.739029,-370.102971,1072.533697
1073.910395,-9474.636058,-444.123565,1072.533697
1073.910715,-9918.759623,0.000000,1072.533697
1073.911036,-9844.739029,-222.061783,1378.971896
1073.911357,-9770.718434,0.000000,1225.752797
1073.911678,-9548.656652,-222.061783,995.924147
1073.911999,-9474.636058,-370.102971,842.705048
1073.912320,-10436.903782,-222.061783,995.924147
1073.912641,-9474.636058,0.000000,536.266849
1073.912962,-9622.677246,0.000000,1072.533697
1073.913283,-9696.697840,0.000000,1225.752797
1073.913604,-9548.656652,-148.041188,1072.533697
1073.913924,-9622.677246,-444.123565,1225.752797
1073.914245,-9622.677246,-518.144159,1378.971896
1073.914566,-9474.636058,-370.102971,1455.581446
1073.914887,-9474.636058,-370.102971,1225.752797
1073.915208,-9844.739029,-296.082377,612.876398
1073.915529,-9474.636058,-296.082377,766.095498
1073.915850,-9548.656652,-296.082377,536.266849
1073.916171,-9696.697840,-222.061783,919.314598
1073.916492,-9400.615463,-296.082377,459.657299
1073.916813,-9622.677246,-370.102971,612.876398
1073.917133,-9770.718434,-148.041188,1225.752797
1073.917454,-9696.697840,-518.144159,1149.143247
1073.917775,-9548.656652,-296.082377,1072.533697
1073.918096,-9548.656652,-222.061783,1225.752797
1073.918417,-9770.718434,-148.041188,1072.533697
1073.918738,-9474.636058,0.000000,1225.752797
1073.919059,-9474.636058,-444.123565,919.314598
1073.919380,-9474.636058,-222.061783,612.876398
1073.919701,-9474.636058,-296.082377,919.314598
1073.920022,-9770.718434,-444.123565,919.314598
1073.920342,-9548.656652,-370.102971,1072.533697
1073.920663,-9548.656652,-222.061783,-229.828649
1073.920984,-9474.636058,-370.102971,1225.752797
1073.921305,-9400.615463,-370.102971,1072.533697
1073.921626,-9622.677246,-148.041188,1225.752797
1073.921947,-9622.677246,-148.041188,919.314598
1073.922268,-9696.697840,-296.082377,995.924147
1073.922589,-9474.636058,-296.082377,1225.752797
1073.922910,-9622.677246,-370.102971,995.924147
1073.923231,-9548.656652,-370.102971,1225.752797
1073.923551,-9474.636058,-444.123565,1302.362347
1073.923872,-9622.677246,-370.102971,1072.533697
1073.924193,-9622.677246,-592.164754,919.314598
1073.924514,-9474.636058,-370.102971,995.924147
1073.924835,-10140.821405,-592.164754,306.438199
1073.925156,-9622.677246,-370.102971,842.705048
1073.925477,-9548.656652,-518.144159,919.314598
1073.925798,-9400.615463,-518.144159,919.314598
1073.926119,-9548.656652,-444.123565,1302.362347
1073.926440,-9548.656652,-666.185348,1302.362347
1073.926760,-9770.718434,-592.164754,1072.533697
1073.927081,-9474.636058,-740.205942,1225.752797
1073.927402,-9696.697840,-370.102971,1225.752797
1073.927723,-9622.677246,-296.082377,1149.143247
1073.928044,-9474.636058,-222.061783,1149.143247
1073.928365,-9696.697840,-444.123565,995.924147
1073.928686,-9770.718434,-296.082377,612.876398
1073.929007,-9178.553681,-666.185348,842.705048
1073.929328,-9696.697840,-370.102971,1149.143247
1073.929649,-9474.636058,-370.102971,1378.971896
1073.929969,-9770.718434,-296.082377,1149.143247
1073.930290,-9696.697840,0.000000,1532.190996
1073.930611,-9548.656652,74.020594,1225.752797
1073.930932,-9770.718434,-296.082377,1532.190996
1073.931253,-9622.677246,-222.061783,1225.752797
1073.931574,-9622.677246,-444.123565,1149.143247
1073.931895,-9548.656652,-518.144159,1455.581446
1073.932216,-9474.636058,-296.082377,919.314598
1073.932537,-9770.718434,-592.164754,1225.752797
1073.932858,-9548.656652,-666.185348,1225.752797
1073.933178,-9474.636058,-666.185348,689.485948
1073.933499,-9622.677246,-666.185348,995.924147
1073.933820,-9400.615463,-296.082377,995.924147
1073.934141,-9770.718434,-444.123565,1378.971896
1073.934462,-9844.739029,74.020594,689.485948
1073.934783,-9474.636058,-296.082377,1225.752797
1073.935104,-9770.718434,-296.082377,995.924147
1073.935425,-9622.677246,-222.061783,1149.143247
1073.935745,-9622.677246,-296.082377,995.924147
1073.936066,-9474.636058,-74.020594,842.705048
1073.936387,-9474.636058,0.000000,1072.533697
1073.936708,-10214.842000,0.000000,1149.143247
1073.937029,-9622.677246,-370.102971,842.705048
1073.937350,-9252.574275,222.061783,612.876398
1073.937671,-9474.636058,-518.144159,842.705048
1073.937992,-9696.697840,-592.164754,1149.143247
1073.938312,-9548.656652,-222.061783,1378.971896
1073.938633,-9474.636058,-740.205942,1072.533697
1073.938954,-9622.677246,-370.102971,1225.752797
1073.939275,-9548.656652,-222.061783,1225.752797
1073.939596,-9622.677246,-296.082377,919.314598
1073.939917,-9696.697840,-296.082377,1072.533697
1073.940238,-9548.656652,0.000000,919.314598
1073.940559,-9474.636058,-148.041188,919.314598
1073.940879,-9770.718434,-296.082377,1149.143247
1073.941200,-9474.636058,-444.123565,842.705048
1073.941521,-9770.718434,-444.123565,842.705048
1073.941842,-9622.677246,-148.041188,1225.752797
1073.942163,-9622.677246,-74.020594,995.924147
1073.942484,-9622.677246,-296.082377,1072.533697
1073.942805,-9548.656652,-370.102971,1149.143247
1073.943125,-9548.656652,-222.061783,1072.533697
1073.943446,-9696.697840,-74.020594,1225.752797
1073.943767,-9548.656652,-222.061783,1149.143247
1073.944088,-9548.656652,-296.082377,1072.533697
1073.944409,-9178.553681,-962.267725,766.095498
1073.944730,-9474.636058,-592.164754,995.924147
1073.945051,-9548.656652,-370.102971,766.095498
1073.945372,-9548.656652,-370.102971,995.924147
1073.945692,-10140.821405,370.102971,919.314598
1073.946013,-9622.677246,-148.041188,919.314598
1073.946334,-9326.594869,0.000000,766.095498
1073.946655,-9548.656652,-296.082377,842.705048
1073.946976,-9548.656652,-148.041188,1378.971896
1073.947297,-9548.656652,-222.061783,1225.752797
1073.947618,-9474.636058,-296.082377,995.924147
1073.947939,-9548.656652,-370.102971,689.485948
1073.948259,-9622.677246,-74.020594,612.876398
1073.948580,-9252.574275,-148.041188,1532.190996
1073.948901,-9474.636058,-370.102971,919.314598
1073.949222,-9548.656652,-370.102971,1072.533697
1073.949543,-9622.677246,-148.041188,1302.362347
1073.949864,-9474.636058,-1036.288319,612.876398
1073.950185,-9548.656652,-296.082377,1225.752797
1073.950506,-9548.656652,-370.102971,919.314598
1073.950826,-9622.677246,-296.082377,919.314598
1073.951147,-9696.697840,0.000000,1225.752797
1073.951468,-9474.636058,-296.082377,689.485948
1073.951789,-9622.677246,74.020594,995.924147
1073.952110,-9474.636058,-370.102971,919.314598
1073.952431,-9696.697840,-296.082377,1378.971896
1073.952752,-9918.759623,-592.164754,1149.143247
1073.953072,-9770.718434,-592.164754,995.924147
1073.953393,-9548.656652,-370.102971,689.485948
1073.953714,-9474.636058,-222.061783,689.485948
1073.954035,-10436.903782,-148.041188,612.876398
1073.954356,-9474.636058,-222.061783,1072.533697
1073.954677,-9622.677246,0.000000,689.485948
1073.954998,-9474.636058,-148.041188,1072.533697
1073.955319,-9844.739029,0.000000,1149.143247
1073.955639,-9474.636058,-296.082377,1302.362347
1073.955960,-9474.636058,-518.144159,1302.362347
1073.956281,-9770.718434,-444.123565,1378.971896
1073.956602,-9622.677246,-518.144159,1149.143247
1073.956923,-9770.718434,-444.123565,919.314598
1073.957244,-9474.636058,-518.144159,1072.533697
1073.957565,-9474.636058,-296.082377,995.924147
1073.957886,-9696.697840,-148.041188,1302.362347
1073.958206,-9030.512492,518.144159,1915.238745
1073.958527,-9696.697840,-148.041188,1225.752797
1073.958848,-9548.656652,-444.123565,919.314598
1073.959169,-9696.697840,-444.123565,919.314598
1073.959490,-9548.656652,-148.041188,229.828649
1073.959811,-9622.677246,-296.082377,1072.533697
1073.960132,-9474.636058,-222.061783,995.924147
1073.960453,-9474.636058,0.000000,995.924147
1073.960773,-9622.677246,-222.061783,1072.533697
1073.961094,-9992.780217,0.000000,1455.581446
1073.961415,-9844.739029,-592.164754,1685.410096
1073.961736,-9474.636058,-814.226536,1378.971896
1073.962057,-9696.697840,-740.205942,1302.362347
1073.962378,-9400.615463,-1036.288319,2298.286494
1073.962699,-9622.677246,-444.123565,1225.752797
1073.963019,-9622.677246,-444.123565,919.314598
1073.963340,-9474.636058,-296.082377,995.924147
1073.963661,-9548.656652,-370.102971,919.314598
1073.963982,-9474.636058,-370.102971,919.314598
1073.964303,-9474.636058,-74.020594,766.095498
1073.964624,-9844.739029,-370.102971,689.485948
1073.964945,-9474.636058,-370.102971,919.314598
1073.965266,-10140.821405,74.020594,536.266849
1073.965586,-9622.677246,-444.123565,995.924147
1073.965907,-9770.718434,0.000000,919.314598
1073.966228,-9770.718434,-370.102971,1149.143247
1073.966549,-9400.615463,-296.082377,1532.190996
1073.966870,-9770.718434,-222.061783,1149.143247
1073.967191,-9696.697840,-444.123565,1455.581446
1073.967512,-9474.636058,-518.144159,1149.143247
1073.967833,-9548.656652,-592.164754,1149.143247
1073.968153,-9696.697840,-518.144159,1302.362347
1073.968474,-9474.636058,-592.164754,995.924147
1073.968795,-9474.636058,-518.144159,1225.752797
1073.969116,-9548.656652,-296.082377,1302.362347
1073.969437,-9696.697840,-222.061783,1532.190996
1073.969758,-9622.677246,-148.041188,995.924147
1073.970079,-9696.697840,-148.041188,1149.143247
1073.970399,-9474.636058,-370.102971,995.924147
1073.970720,-9844.739029,-592.164754,0.000000
1073.971041,-9844.739029,-518.144159,1072.533697
1073.971362,-9548.656652,-370.102971,1149.143247
1073.971683,-9474.636058,-222.061783,1149.143247
1073.972004,-9474.636058,-444.123565,1302.362347
1073.972325,-9326.594869,-592.164754,919.314598
1073.972646,-9474.636058,-444.123565,1225.752797
1073.972966,-9474.636058,-444.123565,1072.533697
1073.973287,-9474.636058,-370.102971,1225.752797
1073.973608,-9622.677246,-296.082377,1149.143247
1073.973929,-9770.718434,-222.061783,1072.533697
1073.974250,-9548.656652,-148.041188,1072.533697
1073.974571,-9696.697840,-370.102971,842.705048
1073.974892,-10066.800811,814.226536,689.485948
1073.975213,-9622.677246,0.000000,995.924147
1073.975533,-9696.697840,0.000000,995.924147
1073.975854,-9770.718434,-148.041188,1455.581446
1073.976175,-9474.636058,-370.102971,1149.143247
1073.976496,-9696.697840,-222.061783,459.657299
1073.976817,-9474.636058,-444.123565,919.314598
1073.977138,-9474.636058,-518.144159,1072.533697
1073.977459,-9474.636058,-592.164754,1225.752797
1073.977780,-9474.636058,-148.041188,1149.143247
1073.978100,-9548.656652,-222.061783,1149.143247
1073.978421,-9770.718434,-296.082377,919.314598
1073.978742,-9622.677246,0.000000,1302.362347
1073.979063,-9770.718434,0.000000,2681.334243
1073.979384,-9474.636058,-148.041188,842.705048
1073.979705,-9548.656652,0.000000,919.314598
1073.980026,-9548.656652,-222.061783,919.314598
1073.980346,-9474.636058,-148.041188,1072.533697
1073.980667,-9622.677246,-148.041188,1072.533697
1073.980988,-9548.656652,-518.144159,766.095498
1073.981309,-9548.656652,-592.164754,1072.533697
1073.981630,-9696.697840,-518.144159,1149.143247
1073.981951,-9844.739029,-518.144159,842.705048
1073.982272,-9548.656652,-74.020594,1072.533697
1073.982593,-9548.656652,-518.144159,995.924147
1073.982913,-9622.677246,-370.102971,689.485948
1073.983234,-9548.656652,-1036.288319,766.095498
1073.983555,-9696.697840,0.000000,1072.533697
1073.983876,-9548.656652,0.000000,919.314598
1073.984197,-9548.656652,0.000000,1072.533697
1073.984518,-9474.636058,0.000000,766.095498
1073.984839,-9474.636058,-222.061783,1072.533697
1073.985160,-9770.718434,-222.061783,1302.362347
1073.985480,-9622.677246,-296.082377,1302.362347
1073.985801,-9326.594869,-444.123565,1149.143247
1073.986122,-9474.636058,-888.247130,1225.752797
1073.986443,-9622.677246,-444.123565,1302.362347
1073.986764,-9400.615463,-518.144159,1225.752797
1073.987085,-9474.636058,-148.041188,919.314598
1073.987406,-9474.636058,-592.164754,1532.190996
1073.987726,-9474.636058,-296.082377,995.924147
1073.988047,-9548.656652,-222.061783,1072.533697
1073.988368,-9622.677246,-296.082377,995.924147
1073.988689,-9548.656652,0.000000,689.485948
1073.989010,-9548.656652,0.000000,766.095498
1073.989331,-9622.677246,0.000000,1072.533697
1073.989652,-9622.677246,0.000000,1225.752797
1073.989973,-9622.677246,-222.061783,995.924147
1073.990293,-9696.697840,0.000000,1072.533697
1073.990614,-9548.656652,-518.144159,1225.752797
1073.990935,-9548.656652,-592.164754,1455.581446
1073.991256,-9474.636058,-740.205942,1302.362347
1073.991577,-9548.656652,-518.144159,1991.848295
1073.991898,-9400.615463,-666.185348,1072.533697
1073.992219,-9474.636058,-444.123565,1149.143247
1073.992540,-9474.636058,-222.061783,1149.143247
1073.992860,-9770.718434,-74.020594,459.657299
1073.993181,-9474.636058,-222.061783,766.095498
1073.993502,-9548.656652,0.000000,919.314598
1073.993823,-9844.739029,-148.041188,1149.143247
1073.994144,-9622.677246,-222.061783,1225.752797
1073.994465,-9474.636058,-148.041188,1378.971896
1073.994786,-9770.718434,0.000000,1072.533697
1073.995107,-9622.677246,-370.102971,1532.190996
1073.995427,-9622.677246,-518.144159,1225.752797
1073.995748,-9548.656652,-222.061783,-306.438199
1073.996069,-9548.656652,-444.123565,1225.752797
1073.996390,-9474.636058,-740.205942,1149.143247
1073.996711,-9400.615463,-666.185348,1455.581446
1073.997032,-9474.636058,-518.144159,-229.828649
1073.997353,-9400.615463,-370.102971,1072.533697
1073.997673,-9548.656652,0.000000,1302.362347
1073.997994,-9770.718434,0.000000,1302.362347
1073.998315,-9474.636058,0.000000,919.314598
1073.998636,-9770.718434,-370.102971,1455.581446
1073.998957,-9548.656652,0.000000,1149.143247
1073.999278,-9622.677246,-370.102971,1225.752797
1073.999599,-9474.636058,-444.123565,1302.362347
1073.999920,-9770.718434,-518.144159,1378.971896
1074.000240,-9548.656652,-592.164754,1302.362347
1074.000561,-9474.636058,-518.144159,1149.143247
1074.000882,-9252.574275,-370.102971,995.924147
1074.001203,-9474.636058,0.000000,995.924147
1074.001524,-9474.636058,-370.102971,919.314598
1074.001845,-9696.697840,-222.061783,1225.752797
1074.002166,-9474.636058,-518.144159,995.924147
1074.002487,-9844.739029,-222.061783,766.095498
1074.002807,-9548.656652,-370.102971,919.314598
1074.003128,-9844.739029,0.000000,1225.752797
1074.003449,-9548.656652,-370.102971,1302.362347
1074.003770,-9696.697840,-370.102971,1072.533697
1074.004091,-9770.718434,0.000000,1149.143247
1074.004412,-9474.636058,-518.144159,1302.362347
1074.004733,-9548.656652,-666.185348,1149.143247
1074.005053,-9474.636058,-666.185348,995.924147
1074.005374,-9474.636058,-1184.329507,1072.533697
1074.005695,-9474.636058,-666.185348,1149.143247
1074.006016,-9474.636058,-296.082377,1455.581446
1074.006337,-9474.636058,-592.164754,1378.971896
1074.006658,-9548.656652,-296.082377,766.095498
1074.006979,-9770.718434,-148.041188,459.657299
1074.007300,-9770.718434,-296.082377,1378.971896
1074.007620,-9622.677246,-222.061783,1149.143247
1074.007941,-9622.677246,-296.082377,1302.362347
1074.008262,-9918.759623,148.041188,689.485948
1074.008583,-9622.677246,-222.061783,1072.533697
1074.008904,-9770.718434,-444.123565,1378.971896
1074.009225,-9622.677246,-74.020594,1225.752797
1074.009546,-9548.656652,-814.226536,2528.115143
1074.009867,-9474.636058,-444.123565,1302.362347
1074.010187,-9474.636058,-592.164754,1149.143247
1074.010508,-9474.636058,-592.164754,1149.143247
1074.010829,-9474.636058,-444.123565,1072.533697
1074.011150,-9548.656652,-370.102971,1225.752797
1074.011471,-9474.636058,-592.164754,1225.752797
1074.011792,-9696.697840,-370.102971,995.924147
1074.012113,-9474.636058,-222.061783,689.485948
1074.012434,-9474.636058,666.185348,1149.143247
1074.012754,-9622.677246,0.000000,995.924147
1074.013075,-9548.656652,-222.061783,842.705048
1074.013396,-9474.636058,-296.082377,1225.752797
1074.013717,-9770.718434,-888.247130,2834.553343
1074.014038,-9474.636058,-222.061783,995.924147
1074.014359,-9696.697840,-222.061783,1072.533697
1074.014680,-9474.636058,-370.102971,842.705048
1074.015000,-9474.636058,-222.061783,919.314598
1074.015321,-9622.677246,-444.123565,919.314598
1074.015642,-9474.636058,-444.123565,1149.143247
1074.015963,-9252.574275,-370.102971,842.705048
1074.016284,-9696.697840,-444.123565,766.095498
1074.016605,-9474.636058,-518.144159,1762.019645
1074.016926,-9770.718434,-222.061783,1225.752797
1074.017247,-9474.636058,-296.082377,995.924147
1074.017567,-9622.677246,0.000000,1149.143247
1074.017888,-10066.800811,814.226536,2987.772442
1074.018209,-9696.697840,-222.061783,1072.533697
1074.018530,-9770.718434,-222.061783,612.876398
1074.018851,-9622.677246,-296.082377,842.705048
1074.019172,-9770.718434,0.000000,1149.143247
1074.019493,-9474.636058,0.000000,1378.971896
1074.019814,-9474.636058,-370.102971,689.485948
1074.020134,-9622.677246,-296.082377,1072.533697
1074.020455,-9474.636058,-444.123565,1072.533697
1074.020776,-9622.677246,-888.247130,995.924147
1074.021097,-9548.656652,-370.102971,1225.752797
1074.021418,-9548.656652,-296.082377,1225.752797
1074.021739,-9474.636058,-370.102971,995.924147
1074.022060,-9474.636058,-74.020594,2374.896044
1074.022380,-9622.677246,-518.144159,995.924147
1074.022701,-9548.656652,-222.061783,1072.533697
1074.023022,-9770.718434,-148.041188,1149.143247
1074.023343,-9474.636058,-222.061783,1072.533697
1074.023664,-9548.656652,-296.082377,689.485948
1074.023985,-9474.636058,-148.041188,1072.533697
1074.024306,-9622.677246,-148.041188,766.095498
1074.024627,-9548.656652,-296.082377,919.314598
1074.024947,-9474.636058,-518.144159,995.924147
1074.025268,-9548.656652,0.000000,995.924147
1074.025589,-9622.677246,-222.061783,995.924147
1074.025910,-9696.697840,-222.061783,1455.581446
1074.026231,-9844.739029,0.000000,383.047749
1074.026552,-9770.718434,-370.102971,1225.752797
1074.026873,-9770.718434,-444.123565,1072.533697
1074.027194,-9622.677246,-518.144159,1149.143247
1074.027514,-9474.636058,-296.082377,995.924147
1074.027835,-9400.615463,-296.082377,919.314598
1074.028156,-9696.697840,-222.061783,1225.752797
1074.028477,-9770.718434,-296.082377,1149.143247
1074.028798,-9474.636058,-296.082377,1455.581446
1074.029119,-9548.656652,-518.144159,1225.752797
1074.029440,-9622.677246,-444.123565,1225.752797
1074.029761,-9622.677246,0.000000,1072.533697
1074.030081,-9770.718434,-296.082377,1072.533697
1074.030402,-10066.800811,-370.102971,2221.676944
1074.030723,-9474.636058,-592.164754,995.924147
1074.031044,-9474.636058,-296.082377,919.314598
1074.031365,-9548.656652,-518.144159,1378.971896
1074.031686,-9696.697840,-518.144159,1225.752797
1074.032007,-9474.636058,-666.185348,1149.143247
1074.032327,-9622.677246,-370.102971,1072.533697
1074.032648,-9548.656652,-592.164754,1149.143247
1074.032969,-9548.656652,-592.164754,1225.752797
1074.033290,-9400.615463,-814.226536,1149.143247
1074.033611,-9474.636058,-296.082377,842.705048
1074.033932,-9622.677246,-296.082377,1149.143247
1074.034253,-9474.636058,-222.061783,919.314598
1074.034574,-9622.677246,-370.102971,919.314598
1074.034894,-9622.677246,-74.020594,919.314598
1074.035215,-9474.636058,-370.102971,1225.752797
1074.035536,-9696.697840,-592.164754,1378.971896
1074.035857,-9474.636058,-592.164754,995.924147
1074.036178,-9770.718434,-370.102971,766.095498
1074.036499,-9770.718434,-148.041188,1149.143247
1074.036820,-9622.677246,-222.061783,1302.362347
1074.037140,-9474.636058,-444.123565,1225.752797
1074.037461,-9474.636058,-444.123565,689.485948
1074.037782,-9474.636058,-444.123565,1072.533697
1074.038102,-9770.718434,-296.082377,1225.752797
1074.038423,-9474.636058,-444.123565,1225.752797
1074.038744,-9622.677246,-222.061783,1302.362347
1074.039065,-9622.677246,-148.041188,1225.752797
1074.039385,-9622.677246,-148.041188,1225.752797
1074.039706,-9622.677246,-370.102971,1149.143247
1074.040027,-9622.677246,-370.102971,1378.971896
1074.040348,-9696.697840,148.041188,766.095498
1074.040668,-9474.636058,-370.102971,995.924147
1074.040989,-9770.718434,-592.164754,1072.533697
1074.041310,-9548.656652,-148.041188,1149.143247
1074.041630,-9474.636058,-370.102971,612.876398
1074.041951,-9770.718434,0.000000,1378.971896
1074.042272,-9548.656652,-296.082377,919.314598
1074.042593,-9770.718434,-222.061783,1072.533697
1074.042913,-9474.636058,-444.123565,1302.362347
1074.043234,-9474.636058,-444.123565,995.924147
1074.043555,-9548.656652,-296.082377,1149.143247
1074.043876,-9548.656652,-296.082377,1072.533697
1074.044196,-9548.656652,-222.061783,1455.581446
1074.044517,-9622.677246,-296.082377,1378.971896
1074.044838,-9474.636058,-444.123565,842.705048
1074.045159,-9548.656652,-148.041188,766.095498
1074.045479,-9696.697840,-296.082377,1225.752797
1074.045800,-9770.718434,-296.082377,1838.629195
1074.046121,-9474.636058,-592.164754,842.705048
1074.046441,-9548.656652,-370.102971,1225.752797
1074.046762,-9696.697840,0.000000,766.095498
1074.047083,-9548.656652,-296.082377,995.924147
1074.047404,-9252.574275,-592.164754,612.876398
1074.047724,-9474.636058,0.000000,766.095498
1074.048045,-9844.739029,-296.082377,919.314598
1074.048366,-9770.718434,-222.061783,919.314598
1074.048687,-8808.450710,222.061783,919.314598
1074.049007,-9696.697840,-296.082377,919.314598
1074.049328,-9548.656652,-296.082377,1302.362347
1074.049649,-9622.677246,0.000000,1225.752797
1074.049969,-9548.656652,-370.102971,1608.800546
1074.050290,-9474.636058,-222.061783,842.705048
1074.050611,-9696.697840,-222.061783,995.924147
1074.050932,-9696.697840,-296.082377,766.095498
1074.051252,-9474.636058,-296.082377,766.095498
1074.051573,-9400.615463,-296.082377,1378.971896
1074.051894,-9400.615463,74.020594,1072.533697
1074.052215,-9622.677246,148.041188,1072.533697
1074.052535,-9622.677246,0.000000,1225.752797
1074.052856,-9844.739029,74.020594,1915.238745
1074.053177,-9622.677246,-444.123565,919.314598
1074.053498,-9696.697840,-296.082377,842.705048
1074.053818,-9696.697840,-74.020594,1072.533697
1074.054139,-9622.677246,-444.123565,1608.800546
1074.054460,-9548.656652,-296.082377,1378.971896
1074.054780,-9474.636058,-592.164754,1302.362347
1074.055101,-9474.636058,-222.061783,919.314598
1074.055422,-9770.718434,-444.123565,1302.362347
1074.055743,-9474.636058,0.000000,1072.533697
1074.056063,-9474.636058,-296.082377,919.314598
1074.056384,-9622.677246,-148.041188,1149.143247
1074.056705,-9548.656652,-222.061783,1072.533697
1074.057026,-9622.677246,1110.308913,1685.410096
1074.057346,-9548.656652,0.000000,1149.143247
1074.057667,-9622.677246,0.000000,1149.143247
1074.057988,-9844.739029,0.000000,1378.971896
1074.058308,-9474.636058,-444.123565,1302.362347
1074.058629,-9622.677246,-518.144159,1302.362347
1074.058950,-9474.636058,-740.205942,842.705048
1074.059271,-9474.636058,-740.205942,995.924147
1074.059591,-9474.636058,-592.164754,842.705048
1074.059912,-9474.636058,-592.164754,612.876398
1074.060233,-9400.615463,-296.082377,1225.752797
1074.060554,-9474.636058,-148.041188,1072.533697
1074.060874,-9548.656652,-148.041188,1072.533697
1074.061195,-9548.656652,-370.102971,2068.457845
1074.061516,-9770.718434,-222.061783,1302.362347
1074.061837,-9548.656652,-222.061783,1149.143247
1074.062157,-9622.677246,-592.164754,689.485948
1074.062478,-9474.636058,-444.123565,1302.362347
1074.062799,-9622.677246,-148.041188,1225.752797
1074.063119,-9474.636058,-518.144159,1149.143247
1074.063440,-9400.615463,-592.164754,995.924147
1074.063761,-9622.677246,-296.082377,766.095498
1074.064082,-9770.718434,-222.061783,1072.533697
1074.064402,-9696.697840,-444.123565,919.314598
1074.064723,-9474.636058,-518.144159,1225.752797
1074.065044,-9474.636058,-592.164754,842.705048
1074.065365,-10732.986159,-444.123565,0.000000
1074.065685,-9696.697840,-296.082377,1149.143247
1074.066006,-9622.677246,0.000000,1149.143247
1074.066327,-9548.656652,0.000000,995.924147
1074.066647,-9770.718434,0.000000,1455.581446
1074.066968,-9770.718434,0.000000,1608.800546
1074.067289,-9548.656652,-592.164754,919.314598
1074.067610,-9474.636058,-740.205942,1149.143247
1074.067930,-9474.636058,-444.123565,1072.533697
1074.068251,-9548.656652,-592.164754,1072.533697
1074.068572,-9474.636058,-518.144159,919.314598
1074.068893,-9474.636058,-370.102971,1378.971896
1074.069213,-9696.697840,-148.041188,1149.143247
1074.069534,-10066.800811,518.144159,536.266849
1074.069855,-9770.718434,-296.082377,1685.410096
1074.070176,-9622.677246,-296.082377,1302.362347
1074.070496,-9622.677246,-222.061783,1455.581446
1074.070817,-9696.697840,-518.144159,1225.752797
1074.071138,-9252.574275,-444.123565,919.314598
1074.071458,-9474.636058,-444.123565,919.314598
1074.071779,-9548.656652,-296.082377,1149.143247
1074.072100,-9696.697840,0.000000,1149.143247
1074.072421,-9992.780217,0.000000,995.924147
1074.072741,-9400.615463,-370.102971,919.314598
1074.073062,-9548.656652,-222.061783,995.924147
1074.073383,-9622.677246,-518.144159,1149.143247
1074.073704,-9326.594869,-370.102971,229.828649
1074.074024,-9696.697840,-444.123565,1072.533697
1074.074345,-9548.656652,-518.144159,1225.752797
1074.074666,-9696.697840,-444.123565,1225.752797
1074.074986,-9474.636058,-370.102971,1608.800546
1074.075307,-9400.615463,-148.041188,1072.533697
1074.075628,-9844.739029,-444.123565,1225.752797
1074.075949,-9474.636058,-296.082377,995.924147
1074.076269,-9474.636058,-518.144159,842.705048
1074.076590,-10436.903782,444.123565,766.095498
1074.076911,-9474.636058,-222.061783,612.876398
1074.077232,-9548.656652,-296.082377,919.314598
1074.077552,-9622.677246,0.000000,766.095498
1074.077873,-9548.656652,0.000000,1072.533697
1074.078194,-9622.677246,-370.102971,1072.533697
1074.078515,-9474.636058,-444.123565,995.924147
1074.078835,-9770.718434,-370.102971,842.705048
1074.079156,-9474.636058,-444.123565,1455.581446
1074.079477,-9844.739029,-666.185348,1149.143247
1074.079797,-9474.636058,-296.082377,995.924147
1074.080118,-9548.656652,-518.144159,919.314598
1074.080439,-9548.656652,-518.144159,1149.143247
1074.080760,-9548.656652,-444.123565,1302.362347
1074.081080,-9622.677246,-370.102971,1149.143247
1074.081401,-9548.656652,-148.041188,995.924147
1074.081722,-9474.636058,-518.144159,919.314598
1074.082043,-9548.656652,-222.061783,1225.752797
1074.082363,-9548.656652,-444.123565,1149.143247
1074.082684,-9696.697840,-370.102971,919.314598
1074.083005,-9844.739029,0.000000,1225.752797
1074.083325,-9474.636058,-444.123565,995.924147
1074.083646,-9770.718434,-370.102971,919.314598
1074.083967,-9770.718434,-222.061783,1532.190996
1074.084288,-9622.677246,-444.123565,919.314598
1074.084608,-9548.656652,-592.164754,1302.362347
1074.084929,-9474.636058,-814.226536,1072.533697
1074.085250,-9252.574275,-666.185348,689.485948
1074.085571,-9474.636058,-222.061783,995.924147
1074.085891,-9622.677246,-444.123565,919.314598
1074.086212,-9474.636058,-370.102971,1072.533697
1074.086533,-9622.677246,-370.102971,1072.533697
1074.086854,-9696.697840,-222.061783,1149.143247
1074.087174,-9622.677246,-296.082377,919.314598
1074.087495,-9622.677246,-444.123565,919.314598
1074.087816,-9548.656652,-518.144159,689.485948
1074.088136,-9622.677246,-370.102971,1072.533697
1074.088457,-9548.656652,-296.082377,1149.143247
1074.088778,-9696.697840,-296.082377,995.924147
1074.089099,-9474.636058,0.000000,1072.533697
1074.089419,-9844.739029,0.000000,-153.219100
1074.089740,-9474.636058,-296.082377,612.876398
1074.090061,-9770.718434,-222.061783,842.705048
1074.090382,-9474.636058,-296.082377,1072.533697
1074.090702,-9474.636058,-296.082377,1302.362347
1074.091023,-10066.800811,0.000000,1149.143247
1074.091344,-9696.697840,-222.061783,919.314598
1074.091664,-9548.656652,-370.102971,995.924147
1074.091985,-9326.594869,-444.123565,919.314598
1074.092306,-9400.615463,-370.102971,612.876398
1074.092627,-9474.636058,0.000000,842.705048
1074.092947,-9622.677246,-222.061783,766.095498
1074.093268,-9548.656652,-370.102971,995.924147
1074.093589,-9548.656652,-74.020594,1149.143247
1074.093910,-9696.697840,-296.082377,1072.533697
1074.094230,-9622.677246,-444.123565,919.314598
1074.094551,-9474.636058,-370.102971,995.924147
1074.094872,-9622.677246,-296.082377,612.876398
1074.095193,-9474.636058,0.000000,1072.533697
1074.095513,-9622.677246,0.000000,919.314598
1074.095834,-9474.636058,0.000000,1072.533697
1074.096155,-9696.697840,0.000000,1378.971896
1074.096475,-9770.718434,148.041188,842.705048
1074.096796,-9770.718434,-296.082377,1302.362347
1074.097117,-9622.677246,-518.144159,1149.143247
1074.097438,-9622.677246,-518.144159,995.924147
1074.097758,-9474.636058,-888.247130,1072.533697
1074.098079,-9326.594869,-666.185348,1225.752797
1074.098400,-9474.636058,-444.123565,1072.533697
1074.098721,-9474.636058,-370.102971,1072.533697
1074.099041,-9474.636058,-296.082377,1149.143247
1074.099362,-9252.574275,-74.020594,1072.533697
1074.099683,-9696.697840,-74.020594,1149.143247
1074.100003,-9548.656652,-370.102971,1072.533697
1074.100324,-9622.677246,-444.123565,995.924147
1074.100645,-9770.718434,74.020594,995.924147
1074.100966,-9474.636058,-296.082377,1072.533697
1074.101286,-9770.718434,0.000000,1302.362347
1074.101607,-9474.636058,-222.061783,919.314598
1074.101928,-9474.636058,666.185348,2374.896044
1074.102249,-9696.697840,-444.123565,1302.362347
1074.102569,-9474.636058,-444.123565,766.095498
1074.102890,-9770.718434,-814.226536,1072.533697
1074.103211,-9622.677246,-444.123565,1225.752797
1074.103532,-9770.718434,-888.247130,1685.410096
1074.103852,-9474.636058,-444.123565,1149.143247
1074.104173,-9548.656652,-222.061783,919.314598
1074.104494,-9770.718434,-296.082377,1225.752797
1074.104814,-9844.739029,0.000000,2451.505594
1074.105135,-9474.636058,-296.082377,1149.143247
1074.105456,-9548.656652,-222.061783,842.705048
1074.105777,-9622.677246,-148.041188,1149.143247
1074.106097,-9622.677246,-592.164754,919.314598
1074.106418,-9622.677246,-370.102971,842.705048
1074.106739,-9622.677246,-370.102971,919.314598
1074.107060,-9474.636058,-296.082377,919.314598
1074.107380,-9622.677246,-296.082377,995.924147
1074.107701,-9696.697840,-296.082377,995.924147
1074.108022,-9474.636058,-222.061783,766.095498
1074.108342,-9622.677246,-444.123565,1149.143247
1074.108663,-9548.656652,-370.102971,919.314598
1074.108984,-9548.656652,0.000000,1072.533697
1074.109305,-9696.697840,-444.123565,919.314598
1074.109625,-9474.636058,-740.205942,842.705048
1074.109946,-9548.656652,-370.102971,1149.143247
1074.110267,-9622.677246,74.020594,536.266849
1074.110588,-9548.656652,-370.102971,766.095498
1074.110908,-9770.718434,-518.144159,1149.143247
1074.111229,-9400.615463,-444.123565,689.485948
1074.111550,-9548.656652,-148.041188,689.485948
1074.111871,-9696.697840,0.000000,842.705048
1074.112191,-9548.656652,-444.123565,766.095498
1074.112512,-9696.697840,-296.082377,766.095498
1074.112833,-9548.656652,-148.041188,1072.533697
1074.113153,-9918.759623,296.082377,1225.752797
1074.113474,-9622.677246,-370.102971,1302.362347
1074.113795,-9548.656652,-222.061783,1072.533697
1074.114116,-9548.656652,-370.102971,1072.533697
1074.114436,-9474.636058,666.185348,2528.115143
1074.114757,-9696.697840,-444.123565,842.705048
1074.115078,-9622.677246,-370.102971,1225.752797
1074.115399,-9696.697840,-370.102971,995.924147
1074.115719,-9622.677246,-370.102971,1532.190996
1074.116040,-9770.718434,0.000000,1378.971896
1074.116361,-9474.636058,-444.123565,919.314598
1074.116681,-9474.636058,-222.061783,995.924147
1074.117002,-9474.636058,-222.061783,1149.143247
1074.117323,-9844.739029,-518.144159,459.657299
1074.117644,-9622.677246,-148.041188,995.924147
1074.117964,-9622.677246,-222.061783,842.705048
1074.118285,-9770.718434,-296.082377,1149.143247
1074.118606,-9696.697840,-370.102971,1455.581446
1074.118927,-9622.677246,-370.102971,1225.752797
1074.119247,-9696.697840,-148.041188,1149.143247
1074.119568,-9770.718434,0.000000,1455.581446
1074.119889,-9474.636058,-296.082377,1378.971896
1074.120210,-9696.697840,-222.061783,1302.362347
1074.120530,-9548.656652,-296.082377,842.705048
1074.120851,-9474.636058,0.000000,689.485948
1074.121172,-9548.656652,-222.061783,995.924147
1074.121492,-9474.636058,-296.082377,1991.848295
1074.121813,-9474.636058,-370.102971,919.314598
1074.122134,-9622.677246,148.041188,842.705048
1074.122455,-9770.718434,-370.102971,1225.752797
1074.122775,-9696.697840,0.000000,766.095498
1074.123096,-9548.656652,-444.123565,995.924147
1074.123417,-9548.656652,0.000000,919.314598
1074.123738,-9770.718434,0.000000,842.705048
1074.124058,-9474.636058,-370.102971,995.924147
1074.124379,-9770.718434,-666.185348,995.924147
1074.124700,-9548.656652,-222.061783,1072.533697
1074.125020,-9622.677246,-74.020594,842.705048
1074.125341,-9548.656652,0.000000,1072.533697
1074.125662,-9548.656652,-148.041188,1149.143247
1074.125983,-9474.636058,-444.123565,1149.143247
1074.126303,-9622.677246,-222.061783,842.705048
1074.126624,-9548.656652,-370.102971,995.924147
1074.126945,-9548.656652,-296.082377,1378.971896
1074.127266,-9696.697840,-370.102971,1685.410096
1074.127586,-9696.697840,-370.102971,1072.533697
1074.127907,-9548.656652,0.000000,1072.533697
1074.128228,-9548.656652,0.000000,919.314598
1074.128549,-9622.677246,-370.102971,536.266849
1074.128869,-9622.677246,-592.164754,1225.752797
1074.129190,-9474.636058,-592.164754,1302.362347
1074.129511,-9622.677246,-296.082377,1225.752797
1074.129831,-9548.656652,-222.061783,383.047749
1074.130152,-9030.512492,-370.102971,536.266849
1074.130473,-9474.636058,-148.041188,1149.143247
1074.130794,-9474.636058,0.000000,919.314598
1074.131114,-9622.677246,-148.041188,995.924147
1074.131435,-9474.636058,-222.061783,612.876398
1074.131756,-9622.677246,-296.082377,995.924147
1074.132077,-9770.718434,-222.061783,1225.752797
1074.132397,-9696.697840,-518.144159,1455.581446
1074.132718,-9548.656652,-814.226536,766.095498
1074.133039,-9548.656652,-740.205942,1225.752797
1074.133359,-9474.636058,-666.185348,995.924147
1074.133680,-9474.636058,-370.102971,1302.362347
1074.134001,-9474.636058,0.000000,1149.143247
1074.134322,-9252.574275,-296.082377,1225.752797
1074.134642,-9548.656652,-296.082377,1072.533697
1074.134963,-9474.636058,-296.082377,1302.362347
1074.135284,-9696.697840,-444.123565,919.314598
1074.135605,-9696.697840,-222.061783,766.095498
1074.135925,-9548.656652,-296.082377,1378.971896
1074.136246,-9696.697840,-296.082377,1072.533697
1074.136567,-9548.656652,-222.061783,1149.143247
1074.136887,-9474.636058,-296.082377,536.266849
1074.137208,-9474.636058,-370.102971,919.314598
1074.137529,-9696.697840,-518.144159,1072.533697
1074.137849,-9548.656652,-592.164754,1149.143247
1074.138170,-9474.636058,-740.205942,306.438199
1074.138491,-9474.636058,-740.205942,1072.533697
1074.138811,-9622.677246,-370.102971,1072.533697
1074.139132,-9622.677246,-148.041188,1225.752797
1074.139452,-9844.739029,-296.082377,1149.143247
1074.139773,-9104.533087,-592.164754,995.924147
1074.140094,-9548.656652,-296.082377,1302.362347
1074.140414,-9400.615463,-222.061783,1149.143247
1074.140735,-9770.718434,-370.102971,1455.581446
1074.141056,-9548.656652,0.000000,536.266849
1074.141376,-9474.636058,-666.185348,842.705048
1074.141697,-9622.677246,-444.123565,842.705048
1074.142018,-9474.636058,-444.123565,995.924147
1074.142338,-9622.677246,-518.144159,1149.143247
1074.142659,-9400.615463,-296.082377,1072.533697
1074.142980,-9622.677246,-296.082377,1072.533697
1074.143300,-9474.636058,-592.164754,1302.362347
1074.143621,-9474.636058,-666.185348,1149.143247
1074.143942,-9696.697840,222.061783,1838.629195
1074.144262,-9696.697840,0.000000,1378.971896
1074.144583,-9770.718434,-148.041188,1072.533697
1074.144903,-9696.697840,-148.041188,1302.362347
1074.145224,-9622.677246,-370.102971,1072.533697
1074.145545,-9844.739029,74.020594,1608.800546
1074.145865,-9696.697840,-592.164754,1072.533697
1074.146186,-9474.636058,-592.164754,995.924147
1074.146507,-9474.636058,-518.144159,919.314598
1074.146827,-9474.636058,-888.247130,306.438199
1074.147148,-9770.718434,-592.164754,1532.190996
1074.147469,-9622.677246,-592.164754,1149.143247
1074.147789,-9622.677246,-444.123565,1072.533697
1074.148110,-9548.656652,-74.020594,1225.752797
1074.148431,-9918.759623,-518.144159,459.657299
1074.148751,-9622.677246,-222.061783,1378.971896
1074.149072,-9622.677246,-296.082377,919.314598
1074.149393,-9474.636058,-444.123565,1072.533697
1074.149713,-9252.574275,-518.144159,306.438199
1074.150034,-9622.677246,-296.082377,919.314598
1074.150354,-9548.656652,-444.123565,1072.533697
1074.150675,-9622.677246,-444.123565,919.314598
1074.150996,-9474.636058,-296.082377,766.095498
1074.151316,-9770.718434,-222.061783,919.314598
1074.151637,-9992.780217,-296.082377,1302.362347
1074.151958,-9548.656652,-444.123565,1455.581446
1074.152278,-9622.677246,-296.082377,689.485948
1074.152599,-9770.718434,0.000000,1302.362347
1074.152920,-9474.636058,0.000000,1149.143247
1074.153240,-9474.636058,-518.144159,1149.143247
1074.153561,-9474.636058,-296.082377,1072.533697
1074.153882,-9474.636058,-222.061783,689.485948
1074.154202,-9548.656652,-518.144159,995.924147
1074.154523,-9770.718434,-666.185348,842.705048
1074.154844,-9474.636058,-592.164754,1302.362347
1074.155164,-9548.656652,-444.123565,919.314598
1074.155485,-9548.656652,0.000000,919.314598
1074.155805,-9474.636058,-370.102971,1225.752797
1074.156126,-9622.677246,-296.082377,1072.533697
1074.156447,-9548.656652,-296.082377,766.095498
1074.156767,-9548.656652,-740.205942,0.000000
1074.157088,-9622.677246,0.000000,1149.143247
1074.157409,-9770.718434,0.000000,1072.533697
1074.157729,-9622.677246,-592.164754,1532.190996
1074.158050,-9400.615463,-592.164754,919.314598
1074.158371,-9474.636058,-444.123565,919.314598
1074.158691,-9474.636058,-296.082377,842.705048
1074.159012,-9696.697840,0.000000,1455.581446
1074.159333,-9622.677246,-444.123565,1302.362347
1074.159653,-9400.615463,-518.144159,2221.676944
1074.159974,-9548.656652,-222.061783,995.924147
1074.160295,-9696.697840,-370.102971,1072.533697
1074.160615,-9474.636058,-296.082377,1072.533697
1074.160936,-9104.533087,-370.102971,2757.943793
1074.161257,-9474.636058,-296.082377,1072.533697
1074.161577,-9622.677246,-370.102971,1225.752797
1074.161898,-9622.677246,-296.082377,1455.581446
1074.162218,-9474.636058,-370.102971,995.924147
1074.162539,-9548.656652,-222.061783,1072.533697
1074.162860,-9474.636058,-370.102971,842.705048
1074.163180,-9622.677246,-148.041188,919.314598
1074.163501,-9844.739029,-148.041188,1149.143247
1074.163822,-9548.656652,-148.041188,1225.752797
1074.164142,-9696.697840,-444.123565,1149.143247
1074.164463,-9622.677246,-518.144159,1149.143247
1074.164784,-9696.697840,-296.082377,919.314598
1074.165104,-9918.759623,-592.164754,306.438199
1074.165425,-9474.636058,-370.102971,919.314598
1074.165746,-9622.677246,-148.041188,995.924147
1074.166066,-9548.656652,-148.041188,842.705048
1074.166387,-9474.636058,-370.102971,689.485948
1074.166708,-9622.677246,0.000000,1149.143247
1074.167028,-9622.677246,-296.082377,919.314598
1074.167349,-9622.677246,-222.061783,995.924147
1074.167669,-9696.697840,-222.061783,1072.533697
1074.167990,-9622.677246,0.000000,842.705048
1074.168311,-9548.656652,-518.144159,1378.971896
1074.168631,-9474.636058,-666.185348,1225.752797
1074.168952,-9400.615463,-666.185348,919.314598
1074.169273,-9474.636058,-370.102971,1072.533697
1074.169593,-9622.677246,-370.102971,1225.752797
1074.169914,-9548.656652,-370.102971,1072.533697
1074.170235,-9548.656652,-370.102971,1149.143247
1074.170555,-9548.656652,-370.102971,919.314598
1074.170876,-9548.656652,-296.082377,995.924147
1074.171197,-9548.656652,-296.082377,1072.533697
1074.171517,-9770.718434,-74.020594,1072.533697
1074.171838,-9770.718434,0.000000,995.924147
1074.172159,-9622.677246,-222.061783,1685.410096
1074.172479,-9844.739029,-222.061783,1072.533697
1074.172800,-9696.697840,-592.164754,995.924147
1074.173120,-9474.636058,-444.123565,1149.143247
1074.173441,-9326.594869,-1332.370696,1991.848295
1074.173762,-9548.656652,-444.123565,1378.971896
1074.174082,-9326.594869,-370.102971,1225.752797
1074.174403,-9474.636058,-592.164754,1072.533697
1074.174724,-9400.615463,-296.082377,1225.752797
1074.175044,-9548.656652,-222.061783,1455.581446
1074.175365,-9622.677246,-148.041188,1455.581446
1074.175686,-9622.677246,-296.082377,1225.752797
1074.176006,-9918.759623,-444.123565,1072.533697
1074.176327,-9696.697840,-222.061783,919.314598
1074.176648,-9622.677246,-444.123565,919.314598
1074.176968,-9474.636058,-370.102971,1302.362347
1074.177289,-9770.718434,0.000000,1225.752797
1074.177610,-9844.739029,0.000000,2757.943793
1074.177930,-9548.656652,-370.102971,1225.752797
1074.178251,-9474.636058,-370.102971,1072.533697
1074.178572,-9844.739029,-370.102971,1149.143247
1074.178892,-9474.636058,-148.041188,689.485948
1074.179213,-9622.677246,-444.123565,689.485948
1074.179533,-9474.636058,-444.123565,919.314598
1074.179854,-9474.636058,-370.102971,919.314598
1074.180175,-9770.718434,-444.123565,995.924147
1074.180495,-9918.759623,222.061783,1072.533697
1074.180816,-9770.718434,-148.041188,919.314598
1074.181137,-9770.718434,-296.082377,1302.362347
1074.181457,-9474.636058,-370.102971,1149.143247
1074.181778,-9252.574275,-296.082377,1915.238745
1074.182099,-9474.636058,-444.123565,1302.362347
1074.182419,-9696.697840,-296.082377,1225.752797
1074.182740,-9622.677246,-296.082377,1149.143247
1074.183061,-9548.656652,-296.082377,919.314598
1074.183381,-9474.636058,-370.102971,919.314598
1074.183702,-9696.697840,-296.082377,919.314598
1074.184023,-9696.697840,-222.061783,1149.143247
1074.184343,-9622.677246,-296.082377,919.314598
1074.184664,-9770.718434,0.000000,919.314598
1074.184984,-9696.697840,-296.082377,1072.533697
1074.185305,-9548.656652,-518.144159,1225.752797
1074.185626,-9622.677246,-370.102971,995.924147
1074.185946,-9696.697840,-296.082377,1225.752797
1074.186267,-9548.656652,-296.082377,919.314598
1074.186588,-9548.656652,0.000000,612.876398
1074.186908,-9548.656652,-222.061783,689.485948
1074.187229,-9696.697840,-296.082377,919.314598
1074.187550,-9474.636058,-296.082377,1532.190996
1074.187870,-9622.677246,-370.102971,1302.362347
1074.188191,-9622.677246,-222.061783,1149.143247
1074.188512,-9622.677246,-296.082377,1455.581446
1074.188832,-9474.636058,-370.102971,2221.676944
1074.189153,-9474.636058,-148.041188,1225.752797
1074.189474,-9696.697840,0.000000,1302.362347
1074.189794,-9548.656652,-296.082377,1225.752797
1074.190115,-9548.656652,-370.102971,1225.752797
1074.190435,-9696.697840,-444.123565,1532.190996
1074.190756,-9548.656652,-296.082377,766.095498
1074.191077,-9474.636058,-296.082377,1302.362347
1074.191397,-9474.636058,-296.082377,995.924147
1074.191718,-9474.636058,-666.185348,612.876398
1074.192039,-9548.656652,-74.020594,1149.143247
1074.192359,-9548.656652,-148.041188,995.924147
1074.192680,-9548.656652,-296.082377,1302.362347
1074.193001,-9622.677246,296.082377,766.095498
1074.193321,-9622.677246,-148.041188,1149.143247
1074.193642,-9548.656652,-222.061783,1302.362347
1074.193963,-9622.677246,-222.061783,1072.533697
1074.194283,-9622.677246,-296.082377,919.314598
1074.194604,-9474.636058,-296.082377,995.924147
1074.194925,-9474.636058,-222.061783,1072.533697
1074.195245,-9548.656652,-296.082377,1302.362347
1074.195566,-9400.615463,-296.082377,766.095498
1074.195886,-9474.636058,0.000000,995.924147
1074.196207,-9696.697840,-296.082377,919.314598
1074.196528,-9474.636058,-296.082377,1149.143247
1074.196848,-9622.677246,-148.041188,1072.533697
1074.197169,-9844.739029,-592.164754,536.266849
1074.197490,-9548.656652,-518.144159,919.314598
1074.197810,-9548.656652,-444.123565,1149.143247
1074.198131,-9474.636058,-518.144159,1302.362347
1074.198452,-9474.636058,-222.061783,842.705048
1074.198772,-9548.656652,-444.123565,1072.533697
1074.199093,-9474.636058,-370.102971,612.876398
1074.199414,-9622.677246,-370.102971,689.485948
1074.199734,-9474.636058,-296.082377,1149.143247
1074.200055,-9548.656652,-222.061783,919.314598
1074.200376,-9696.697840,-370.102971,1072.533697
1074.200696,-9622.677246,-370.102971,1072.533697
1074.201017,-9548.656652,0.000000,1225.752797
1074.201338,-9622.677246,0.000000,1302.362347
1074.201658,-9770.718434,0.000000,995.924147
1074.201979,-9622.677246,-222.061783,842.705048
1074.202299,-9548.656652,-296.082377,842.705048
1074.202620,-9548.656652,-296.082377,1149.143247
1074.202941,-9696.697840,-222.061783,1455.581446
1074.203261,-9622.677246,-592.164754,1149.143247
1074.203582,-9474.636058,-592.164754,1072.533697
1074.203903,-9474.636058,-518.144159,1378.971896
1074.204223,-9622.677246,-518.144159,1302.362347
1074.204544,-9844.739029,-444.123565,1302.362347
1074.204865,-9474.636058,-370.102971,1225.752797
1074.205185,-9622.677246,-148.041188,995.924147
1074.205506,-9474.636058,-814.226536,536.266849
1074.205827,-9696.697840,-370.102971,919.314598
1074.206147,-9548.656652,-592.164754,1378.971896
1074.206468,-9548.656652,-518.144159,842.705048
1074.206789,-9770.718434,-296.082377,1149.143247
1074.207109,-9622.677246,-148.041188,995.924147
1074.207430,-9622.677246,-148.041188,1302.362347
1074.207750,-9622.677246,-370.102971,1378.971896
1074.208071,-9622.677246,-518.144159,1225.752797
1074.208392,-9548.656652,222.061783,1915.238745
1074.208712,-9548.656652,-370.102971,1072.533697
1074.209033,-9474.636058,-518.144159,1072.533697
1074.209354,-9548.656652,-814.226536,919.314598
1074.209674,-9548.656652,-592.164754,766.095498
1074.209995,-9474.636058,-370.102971,1225.752797
1074.210316,-9770.718434,-148.041188,1072.533697
1074.210636,-9696.697840,-370.102971,1225.752797
1074.210957,-9622.677246,-296.082377,1072.533697
1074.211278,-9992.780217,0.000000,1455.581446
1074.211598,-9622.677246,-222.061783,766.095498
1074.211919,-9622.677246,-296.082377,766.095498
1074.212240,-9622.677246,-370.102971,1225.752797
1074.212560,-9030.512492,-592.164754,536.266849
1074.212881,-9474.636058,-518.144159,1149.143247
1074.213201,-9474.636058,-222.061783,766.095498
1074.213522,-9622.677246,0.000000,1149.143247
1074.213843,-9474.636058,-1258.350101,0.000000
1074.214163,-9474.636058,-370.102971,766.095498
1074.214484,-9622.677246,-444.123565,1149.143247
1074.214805,-9622.677246,-370.102971,1072.533697
1074.215125,-9770.718434,-370.102971,1149.143247
1074.215446,-9770.718434,-370.102971,1685.410096
1074.215767,-9622.677246,-592.164754,1149.143247
1074.216087,-9992.780217,-444.123565,1302.362347
1074.216408,-9548.656652,-222.061783,1072.533697
1074.216729,-9548.656652,-814.226536,919.314598
1074.217049,-9770.718434,-370.102971,1149.143247
1074.217370,-9400.615463,-296.082377,1072.533697
1074.217691,-9548.656652,-444.123565,1072.533697
1074.218011,-9474.636058,-148.041188,1838.629195
1074.218332,-9548.656652,-444.123565,1149.143247
1074.218652,-9696.697840,-222.061783,1378.971896
1074.218973,-9474.636058,-148.041188,919.314598
1074.219294,-9622.677246,-222.061783,919.314598
1074.219614,-9400.615463,-296.082377,995.924147
1074.219935,-9474.636058,-370.102971,1225.752797
1074.220256,-9548.656652,-222.061783,995.924147
1074.220576,-9548.656652,-296.082377,995.924147
1074.220897,-8882.471304,-296.082377,1072.533697
1074.221218,-9400.615463,-518.144159,1455.581446
1074.221538,-9622.677246,-592.164754,1072.533697
1074.221859,-9474.636058,-592.164754,1532.190996
1074.222180,-9474.636058,-222.061783,3064.381992
1074.222500,-9474.636058,-370.102971,919.314598
1074.222821,-9474.636058,-222.061783,919.314598
1074.223142,-9548.656652,-370.102971,1149.143247
1074.223462,-9622.677246,-296.082377,995.924147
1074.223783,-9548.656652,-296.082377,919.314598
1074.224104,-9696.697840,-444.123565,766.095498
1074.224424,-9696.697840,0.000000,1149.143247
1074.224745,-9770.718434,-444.123565,1149.143247
1074.225065,-8956.491898,-370.102971,766.095498
1074.225386,-9622.677246,-222.061783,919.314598
1074.225707,-9548.656652,0.000000,1149.143247
1074.226027,-9622.677246,-518.144159,1149.143247
1074.226348,-9400.615463,-1480.411884,2911.162892
1074.226669,-9474.636058,-666.185348,1149.143247
1074.226989,-9548.656652,-296.082377,1072.533697
1074.227310,-9696.697840,-296.082377,919.314598
1074.227631,-9474.636058,-296.082377,1225.752797
1074.227951,-9400.615463,-222.061783,1072.533697
1074.228272,-9622.677246,-370.102971,842.705048
1074.228593,-9548.656652,-222.061783,612.876398
1074.228913,-9622.677246,-222.061783,1149.143247
1074.229234,-9326.594869,-296.082377,1225.752797
1074.229555,-9622.677246,-296.082377,766.095498
1074.229875,-9696.697840,-296.082377,1378.971896
1074.230196,-9548.656652,-518.144159,919.314598
1074.230516,-9622.677246,-296.082377,2834.553343
1074.230837,-9622.677246,-444.123565,1149.143247
1074.231158,-9548.656652,-74.020594,919.314598
1074.231478,-9548.656652,-222.061783,1149.143247
1074.231799,-9474.636058,-444.123565,995.924147
1074.232120,-9622.677246,-370.102971,1149.143247
1074.232440,-9474.636058,-444.123565,1072.533697
1074.232761,-9622.677246,-444.123565,689.485948
1074.233082,-9622.677246,0.000000,1072.533697
1074.233402,-9696.697840,0.000000,612.876398
1074.233723,-9548.656652,-148.041188,995.924147
1074.234044,-9696.697840,-222.061783,995.924147
1074.234364,-9474.636058,0.000000,1072.533697
1074.234685,-9548.656652,-222.061783,2145.067394
1074.235006,-9622.677246,-296.082377,995.924147
1074.235326,-9400.615463,-444.123565,995.924147
1074.235647,-9622.677246,-222.061783,1149.143247
1074.235968,-9548.656652,-518.144159,995.924147
1074.236288,-9474.636058,-518.144159,612.876398
1074.236609,-9474.636058,-296.082377,1149.143247
1074.236930,-9548.656652,-148.041188,1072.533697
1074.237251,-9474.636058,0.000000,919.314598
1074.237571,-9252.574275,-296.082377,1455.581446
1074.237892,-9770.718434,0.000000,1302.362347
1074.238213,-9696.697840,-222.061783,1302.362347
1074.238534,-9844.739029,-296.082377,1302.362347
1074.238854,-9622.677246,-518.144159,2451.505594
1074.239175,-9548.656652,-296.082377,1302.362347
1074.239496,-9474.636058,-518.144159,1302.362347
1074.239817,-9548.656652,-296.082377,1072.533697
1074.240137,-9548.656652,-370.102971,995.924147
1074.240458,-9474.636058,0.000000,919.314598
1074.240779,-9474.636058,0.000000,1149.143247
1074.241100,-9622.677246,-444.123565,1302.362347
1074.241420,-9474.636058,-296.082377,919.314598
1074.241741,-9622.677246,-962.267725,919.314598
1074.242062,-9548.656652,-518.144159,995.924147
1074.242383,-9474.636058,-296.082377,1302.362347
1074.242703,-9770.718434,-592.164754,919.314598
1074.243024,-9474.636058,-518.144159,1072.533697
1074.243345,-9548.656652,-518.144159,612.876398
1074.243666,-9548.656652,-444.123565,919.314598
1074.243986,-9252.574275,-370.102971,1149.143247
1074.244307,-9622.677246,-592.164754,1149.143247
1074.244628,-9474.636058,-814.226536,1378.971896
1074.244949,-9548.656652,-518.144159,1072.533697
1074.245269,-9548.656652,-518.144159,842.705048
1074.245590,-9548.656652,-296.082377,995.924147
1074.245911,-9696.697840,-222.061783,1149.143247
1074.246232,-9548.656652,-296.082377,1378.971896
1074.246552,-9696.697840,-592.164754,919.314598
1074.246873,-9770.718434,-444.123565,1225.752797
1074.247194,-9474.636058,-518.144159,1225.752797
1074.247515,-9030.512492,-666.185348,1762.019645
1074.247835,-9696.697840,-444.123565,1072.533697
1074.248156,-9622.677246,-592.164754,1225.752797
1074.248477,-9622.677246,-370.102971,995.924147
1074.248798,-9400.615463,-444.123565,995.924147
1074.249118,-9770.718434,-222.061783,995.924147
1074.249439,-9548.656652,-296.082377,842.705048
1074.249760,-9474.636058,-444.123565,919.314598
1074.250081,-9696.697840,-444.123565,1225.752797
1074.250401,-9548.656652,-444.123565,1149.143247
1074.250722,-9844.739029,-666.185348,1302.362347
1074.251043,-9474.636058,-666.185348,1378.971896
1074.251364,-9548.656652,-370.102971,1149.143247
1074.251684,-9474.636058,0.000000,2068.457845
1074.252005,-9474.636058,-518.144159,1378.971896
1074.252326,-9548.656652,-296.082377,1149.143247
1074.252647,-9622.677246,-444.123565,1072.533697
1074.252967,-9622.677246,-592.164754,842.705048
1074.253288,-9548.656652,-666.185348,1072.533697
1074.253609,-9474.636058,-592.164754,919.314598
1074.253930,-9622.677246,-148.041188,1302.362347
1074.254250,-9474.636058,-222.061783,1149.143247
1074.254571,-9252.574275,-222.061783,1149.143247
1074.254892,-9696.697840,0.000000,1302.362347
1074.255213,-9696.697840,0.000000,842.705048
1074.255533,-9548.656652,-370.102971,995.924147
1074.255854,-10140.821405,148.041188,2145.067394
1074.256175,-9622.677246,-444.123565,1149.143247
1074.256496,-9474.636058,-296.082377,842.705048
1074.256816,-9696.697840,-296.082377,1302.362347
1074.257137,-9622.677246,-222.061783,919.314598
1074.257458,-9474.636058,-296.082377,1378.971896
1074.257779,-9474.636058,-444.123565,1072.533697
1074.258099,-9474.636058,-518.144159,1149.143247
1074.258420,-9474.636058,-370.102971,1149.143247
1074.258741,-10214.842000,370.102971,1455.581446
1074.259062,-9474.636058,-296.082377,919.314598
1074.259382,-9622.677246,-148.041188,842.705048
1074.259703,-9696.697840,0.000000,842.705048
1074.260024,-9548.656652,-148.041188,2757.943793
1074.260345,-9474.636058,0.000000,842.705048
1074.260665,-9474.636058,0.000000,842.705048
1074.260986,-9696.697840,-148.041188,919.314598
1074.261307,-9622.677246,0.000000,995.924147
1074.261627,-9548.656652,-518.144159,1225.752797
1074.261948,-9622.677246,-222.061783,1149.143247
1074.262269,-9474.636058,-222.061783,1149.143247
1074.262590,-9474.636058,-148.041188,1225.752797
1074.262910,-9696.697840,-518.144159,536.266849
1074.263231,-9474.636058,-296.082377,1225.752797
1074.263552,-9622.677246,0.000000,1072.533697
1074.263873,-9622.677246,-148.041188,919.314598
1074.264193,-9474.636058,-592.164754,1225.752797
1074.264514,-9696.697840,-370.102971,1149.143247
1074.264835,-9622.677246,0.000000,1149.143247
1074.265156,-9622.677246,0.000000,1225.752797
1074.265476,-9770.718434,-222.061783,919.314598
1074.265797,-9844.739029,-370.102971,919.314598
1074.266118,-9548.656652,-296.082377,995.924147
1074.266439,-9622.677246,-296.082377,1149.143247
1074.266759,-9474.636058,-222.061783,1072.533697
1074.267080,-9696.697840,0.000000,689.485948
1074.267401,-9548.656652,-444.123565,1225.752797
1074.267722,-9548.656652,-444.123565,1225.752797
1074.268042,-9548.656652,-518.144159,1072.533697
1074.268363,-9622.677246,592.164754,2298.286494
1074.268684,-9474.636058,-518.144159,919.314598
1074.269005,-9548.656652,-296.082377,1225.752797
1074.269325,-9696.697840,-148.041188,995.924147
1074.269646,-9548.656652,-222.061783,1072.533697
1074.269967,-9178.553681,-518.144159,1532.190996
1074.270288,-9548.656652,-518.144159,1072.533697
1074.270608,-9844.739029,-222.061783,1149.143247
1074.270929,-9548.656652,-592.164754,1225.752797
1074.271250,-9770.718434,148.041188,842.705048
1074.271571,-9474.636058,0.000000,766.095498
1074.271891,-9622.677246,-222.061783,919.314598
1074.272212,-9474.636058,-148.041188,919.314598
1074.272533,-9548.656652,-148.041188,-842.705048
1074.272854,-9474.636058,-148.041188,766.095498
1074.273174,-9844.739029,0.000000,919.314598
1074.273495,-9622.677246,-370.102971,1072.533697
1074.273816,-9696.697840,-518.144159,1302.362347
1074.274137,-9696.697840,-518.144159,1149.143247
1074.274457,-9474.636058,-518.144159,1378.971896
1074.274778,-9474.636058,-518.144159,1455.581446
1074.275099,-9474.636058,-740.205942,1149.143247
1074.275420,-8808.450710,-962.267725,1072.533697
1074.275740,-9474.636058,-444.123565,919.314598
1074.276061,-9622.677246,-222.061783,919.314598
1074.276382,-9622.677246,-148.041188,1149.143247
1074.276703,-9474.636058,-148.041188,229.828649
1074.277023,-9548.656652,-296.082377,842.705048
1074.277344,-9474.636058,-222.061783,766.095498
1074.277665,-9622.677246,-148.041188,1149.143247
1074.277986,-9474.636058,-296.082377,1149.143247
1074.278306,-9474.636058,-148.041188,1302.362347
1074.278627,-9696.697840,-370.102971,1072.533697
1074.278948,-9548.656652,-518.144159,1225.752797
1074.279269,-9400.615463,-740.205942,1072.533697
1074.279589,-9178.553681,-666.185348,2068.457845
1074.279910,-9548.656652,-592.164754,1608.800546
1074.280231,-9548.656652,-592.164754,1225.752797
1074.280552,-9474.636058,-296.082377,1302.362347
1074.280872,-9548.656652,-222.061783,995.924147
1074.281193,-9474.636058,0.000000,1225.752797
1074.281514,-9548.656652,-370.102971,1225.752797
1074.281835,-9474.636058,0.000000,1378.971896
1074.282155,-9622.677246,-148.041188,1149.143247
1074.282476,-9252.574275,-444.123565,1685.410096
1074.282797,-9548.656652,-370.102971,1149.143247
1074.283118,-9622.677246,-370.102971,995.924147
1074.283438,-9548.656652,-296.082377,1225.752797
1074.283759,-9918.759623,-518.144159,1762.019645
1074.284080,-9400.615463,-444.123565,995.924147
1074.284401,-9622.677246,-518.144159,1072.533697
1074.284721,-9474.636058,-296.082377,842.705048
1074.285042,-9326.594869,-222.061783,1072.533697
1074.285363,-9622.677246,-222.061783,1532.190996
1074.285684,-9474.636058,-370.102971,919.314598
1074.286004,-9696.697840,-296.082377,919.314598
1074.286325,-9696.697840,-296.082377,1149.143247
1074.286646,-9326.594869,-296.082377,689.485948
1074.286967,-9474.636058,-370.102971,1149.143247
1074.287287,-9548.656652,-296.082377,1149.143247
1074.287608,-9474.636058,-370.102971,842.705048
1074.287929,-9844.739029,74.020594,766.095498
1074.288250,-9548.656652,-592.164754,1149.143247
1074.288570,-9622.677246,-296.082377,1225.752797
1074.288891,-9622.677246,-148.041188,1378.971896
1074.289212,-9622.677246,-296.082377,459.657299
1074.289533,-9622.677246,-370.102971,919.314598
1074.289853,-9400.615463,-148.041188,995.924147
1074.290174,-9696.697840,-296.082377,1225.752797
1074.290495,-9548.656652,-444.123565,1455.581446
1074.290816,-9844.739029,-74.020594,919.314598
1074.291136,-9474.636058,-444.123565,1072.533697
1074.291457,-9474.636058,-444.123565,1378.971896
1074.291778,-9474.636058,-148.041188,1072.533697
1074.292099,-9178.553681,-1184.329507,842.705048
1074.292419,-9474.636058,-444.123565,1072.533697
1074.292740,-9548.656652,-666.185348,1149.143247
1074.293061,-9474.636058,-518.144159,1225.752797
1074.293382,-9696.697840,-666.185348,919.314598
1074.293702,-9400.615463,-148.041188,1149.143247
1074.294023,-9770.718434,-148.041188,1072.533697
1074.294344,-9252.574275,-148.041188,1072.533697
1074.294665,-9992.780217,-444.123565,766.095498
1074.294985,-9252.574275,-444.123565,842.705048
1074.295306,-9622.677246,-148.041188,1149.143247
1074.295627,-9622.677246,-222.061783,1149.143247
1074.295947,-9474.636058,-518.144159,1072.533697
1074.296268,-8882.471304,-1036.288319,1455.581446
1074.296589,-9548.656652,-666.185348,995.924147
1074.296910,-9474.636058,-592.164754,1072.533697
1074.297230,-9622.677246,-296.082377,1149.143247
1074.297551,-9696.697840,-444.123565,995.924147
1074.297872,-9474.636058,-74.020594,995.924147
1074.298193,-9622.677246,-370.102971,995.924147
1074.298513,-9474.636058,0.000000,919.314598
1074.298834,-9622.677246,0.000000,1072.533697
1074.299155,-9770.718434,-74.020594,1072.533697
1074.299476,-9696.697840,-222.061783,995.924147
1074.299796,-9474.636058,-444.123565,842.705048
1074.300117,-9696.697840,0.000000,1225.752797
1074.300438,-10066.800811,74.020594,1532.190996
1074.300759,-9474.636058,-444.123565,1149.143247
1074.301079,-9770.718434,-296.082377,1302.362347
1074.301400,-9770.718434,-370.102971,995.924147
1074.301721,-9548.656652,296.082377,2221.676944
1074.302042,-9844.739029,-296.082377,1149.143247
1074.302362,-9548.656652,0.000000,1225.752797
1074.302683,-9474.636058,-370.102971,995.924147
1074.303004,-9474.636058,0.000000,995.924147
1074.303325,-9548.656652,-222.061783,1378.971896
1074.303645,-9696.697840,0.000000,1149.143247
1074.303966,-9844.739029,-518.144159,766.095498
1074.304287,-9474.636058,-74.020594,1072.533697
1074.304608,-9400.615463,-666.185348,612.876398
1074.304928,-9622.677246,-296.082377,995.924147
1074.305249,-9622.677246,0.000000,1072.533697
1074.305570,-9474.636058,0.000000,1149.143247
1074.305891,-9474.636058,-444.123565,1915.238745
1074.306211,-9474.636058,0.000000,1149.143247
1074.306532,-9622.677246,-518.144159,1302.362347
1074.306853,-9548.656652,-444.123565,1378.971896
1074.307174,-9326.594869,-222.061783,995.924147
1074.307494,-9400.615463,-74.020594,1149.143247
1074.307815,-9622.677246,0.000000,1072.533697
1074.308136,-9622.677246,-148.041188,995.924147
1074.308457,-9770.718434,-148.041188,919.314598
1074.308777,-9474.636058,-592.164754,689.485948
1074.309098,-9770.718434,-296.082377,1149.143247
1074.309419,-9474.636058,-296.082377,1149.143247
1074.309740,-9474.636058,-518.144159,766.095498
1074.310060,-9548.656652,-1258.350101,1149.143247
1074.310381,-9548.656652,-370.102971,1072.533697
1074.310702,-9474.636058,-370.102971,1378.971896
1074.311023,-9548.656652,-444.123565,1225.752797
1074.311343,-9548.656652,-296.082377,1378.971896
1074.311664,-9844.739029,-148.041188,919.314598
1074.311985,-9474.636058,-222.061783,1149.143247
1074.312306,-9400.615463,-444.123565,1072.533697
1074.312626,-9622.677246,-592.164754,995.924147
1074.312947,-9474.636058,0.000000,1302.362347
1074.313268,-9622.677246,-444.123565,1072.533697
1074.313589,-9622.677246,-444.123565,1072.533697
1074.313909,-9548.656652,0.000000,1072.533697
1074.314230,-9770.718434,0.000000,536.266849
1074.314551,-9548.656652,-444.123565,1149.143247
1074.314872,-9696.697840,-370.102971,1225.752797
1074.315192,-9548.656652,-740.205942,1225.752797
1074.315513,-9474.636058,-518.144159,1072.533697
1074.315834,-9548.656652,-592.164754,1378.971896
1074.316155,-9474.636058,-518.144159,1225.752797
1074.316475,-9548.656652,-444.123565,1302.362347
1074.316796,-9474.636058,-444.123565,1072.533697
1074.317117,-9622.677246,-370.102971,919.314598
1074.317438,-9992.780217,-296.082377,1149.143247
1074.317758,-9770.718434,-592.164754,1072.533697
1074.318079,-9548.656652,-592.164754,1149.143247
1074.318400,-9548.656652,-444.123565,919.314598
1074.318721,-9622.677246,0.000000,766.095498
1074.319041,-9696.697840,-370.102971,1072.533697
1074.319362,-9622.677246,-370.102971,766.095498
1074.319683,-9622.677246,-296.082377,689.485948
1074.320004,-9622.677246,-518.144159,689.485948
1074.320324,-9622.677246,0.000000,1149.143247
1074.320645,-9770.718434,-296.082377,612.876398
1074.320966,-9770.718434,-370.102971,766.095498
1074.321287,-9548.656652,-370.102971,1225.752797
1074.321607,-9548.656652,-592.164754,1225.752797
1074.321928,-9622.677246,-740.205942,1149.143247
1074.322249,-9622.677246,-518.144159,1072.533697
1074.322570,-9548.656652,-518.144159,919.314598
1074.322890,-9400.615463,-666.185348,919.314598
1074.323211,-9548.656652,-296.082377,1302.362347
1074.323532,-9474.636058,-370.102971,1225.752797
1074.323853,-9548.656652,-370.102971,1149.143247
1074.324173,-10288.862594,0.000000,766.095498
1074.324494,-9548.656652,-370.102971,919.314598
1074.324815,-9474.636058,-444.123565,689.485948
1074.325136,-9770.718434,-222.061783,995.924147
1074.325456,-9548.656652,0.000000,-229.828649
1074.325777,-9548.656652,-296.082377,1149.143247
1074.326098,-9696.697840,-222.061783,919.314598
1074.326419,-9696.697840,-296.082377,995.924147
1074.326739,-9400.615463,-148.041188,1149.143247
1074.327060,-9992.780217,-148.041188,995.924147
1074.327381,-9548.656652,-370.102971,1225.752797
1074.327702,-9696.697840,-518.144159,1072.533697
1074.328022,-9474.636058,-296.082377,919.314598
1074.328343,-9474.636058,-370.102971,919.314598
1074.328664,-9548.656652,-148.041188,1149.143247
1074.328985,-9548.656652,0.000000,1149.143247
1074.329305,-9622.677246,-222.061783,995.924147
1074.329626,-9622.677246,-370.102971,1072.533697
1074.329947,-9474.636058,0.000000,536.266849
1074.330267,-9548.656652,-222.061783,919.314598
1074.330588,-9770.718434,0.000000,919.314598
1074.330909,-9696.697840,-222.061783,1302.362347
1074.331230,-9844.739029,-222.061783,1225.752797
1074.331550,-9844.739029,-296.082377,842.705048
1074.331871,-9474.636058,-74.020594,842.705048
1074.332192,-9474.636058,-222.061783,919.314598
1074.332513,-9696.697840,-296.082377,1225.752797
1074.332833,-10214.842000,74.020594,842.705048
1074.333154,-9474.636058,-444.123565,1072.533697
1074.333475,-9474.636058,-518.144159,1302.362347
1074.333796,-9548.656652,-222.061783,995.924147
1074.334116,-9696.697840,-222.061783,1455.581446
1074.334437,-9400.615463,-370.102971,919.314598
1074.334758,-9548.656652,0.000000,1149.143247
1074.335079,-9770.718434,-222.061783,842.705048
1074.335399,-9548.656652,-444.123565,766.095498
1074.335720,-10362.883188,148.041188,842.705048
1074.336041,-9622.677246,0.000000,1072.533697
1074.336362,-9548.656652,-518.144159,842.705048
1074.336682,-9474.636058,-296.082377,1149.143247
1074.337003,-9622.677246,0.000000,2068.457845
1074.337324,-9548.656652,0.000000,842.705048
1074.337645,-9696.697840,-296.082377,1149.143247
1074.337965,-9622.677246,-370.102971,919.314598
1074.338286,-9696.697840,-296.082377,1225.752797
1074.338607,-9622.677246,-444.123565,1149.143247
1074.338928,-9918.759623,-888.247130,1225.752797
1074.339248,-9474.636058,-666.185348,1149.143247
1074.339569,-9548.656652,-444.123565,1072.533697
1074.339890,-8586.388927,-296.082377,153.219100
1074.340211,-9474.636058,-296.082377,842.705048
1074.340531,-9622.677246,-296.082377,1072.533697
1074.340852,-9548.656652,0.000000,1072.533697
1074.341173,-9696.697840,0.000000,1302.362347
1074.341494,-9696.697840,-444.123565,1302.362347
1074.341814,-9622.677246,-370.102971,1225.752797
1074.342135,-9474.636058,-370.102971,1072.533697
1074.342456,-9548.656652,-296.082377,919.314598
1074.342777,-9548.656652,0.000000,919.314598
1074.343097,-9696.697840,0.000000,1225.752797
1074.343418,-9474.636058,-370.102971,1455.581446
1074.343739,-9622.677246,0.000000,1072.533697
1074.344059,-10066.800811,-370.102971,1991.848295
1074.344380,-9770.718434,-296.082377,1378.971896
1074.344701,-9474.636058,-370.102971,919.314598
1074.345022,-9548.656652,-740.205942,1072.533697
1074.345342,-9622.677246,-296.082377,1149.143247
1074.345663,-9548.656652,-370.102971,1149.143247
1074.345984,-9696.697840,-222.061783,1072.533697
1074.346305,-9770.718434,0.000000,1532.190996
1074.346625,-9844.739029,-148.041188,1149.143247
1074.346946,-9474.636058,-222.061783,919.314598
1074.347267,-9622.677246,-592.164754,995.924147
1074.347588,-9622.677246,-370.102971,995.924147
1074.347908,-9474.636058,-592.164754,766.095498
1074.348229,-10214.842000,-592.164754,536.266849
1074.348550,-9622.677246,-592.164754,995.924147
1074.348871,-9770.718434,-444.123565,842.705048
1074.349191,-9548.656652,-296.082377,995.924147
1074.349512,-9696.697840,-148.041188,1455.581446
1074.349833,-9474.636058,-222.061783,1302.362347
1074.350154,-9622.677246,-444.123565,1149.143247
1074.350474,-9548.656652,-518.144159,1072.533697
1074.350795,-9548.656652,-370.102971,1378.971896
1074.351116,-9696.697840,0.000000,1378.971896
1074.351436,-9622.677246,-370.102971,1149.143247
1074.351757,-9474.636058,-370.102971,995.924147
1074.352078,-9474.636058,-74.020594,842.705048
1074.352399,-9178.553681,148.041188,995.924147
1074.352719,-9696.697840,-370.102971,1072.533697
1074.353040,-9474.636058,-370.102971,1149.143247
1074.353361,-9474.636058,-666.185348,1072.533697
1074.353682,-9622.677246,-444.123565,1378.971896
1074.354002,-9770.718434,-444.123565,1072.533697
1074.354323,-9548.656652,-518.144159,919.314598
1074.354644,-9474.636058,-370.102971,1302.362347
1074.354965,-9844.739029,-148.041188,919.314598
1074.355285,-9696.697840,-518.144159,842.705048
1074.355606,-9548.656652,-592.164754,842.705048
1074.355927,-9548.656652,-444.123565,995.924147
1074.356248,-9548.656652,-444.123565,842.705048
1074.356568,-10066.800811,0.000000,383.047749
1074.356889,-9474.636058,-370.102971,1378.971896
1074.357210,-9548.656652,-518.144159,1072.533697
1074.357531,-9474.636058,-148.041188,1302.362347
1074.357851,-9548.656652,-370.102971,842.705048
1074.358172,-9770.718434,-296.082377,1072.533697
1074.358493,-9622.677246,-518.144159,1225.752797
1074.358813,-9696.697840,-370.102971,1072.533697
1074.359134,-9474.636058,-444.123565,1149.143247
1074.359455,-9104.533087,-518.144159,1378.971896
1074.359776,-9474.636058,-222.061783,1149.143247
1074.360096,-9548.656652,-518.144159,1072.533697
1074.360417,-9326.594869,-444.123565,1149.143247
1074.360738,-9548.656652,-592.164754,459.657299
1074.361059,-9548.656652,-148.041188,995.924147
1074.361379,-9770.718434,0.000000,1072.533697
1074.361700,-9844.739029,-222.061783,995.924147
1074.362021,-9474.636058,-370.102971,995.924147
1074.362342,-9622.677246,-222.061783,1302.362347
1074.362662,-9622.677246,-518.144159,1455.581446
1074.362983,-9474.636058,-592.164754,1149.143247
1074.363304,-9400.615463,-518.144159,1072.533697
1074.363625,-9252.574275,-370.102971,1149.143247
1074.363945,-9474.636058,-444.123565,1149.143247
1074.364266,-9400.615463,-518.144159,1302.362347
1074.364587,-9622.677246,-518.144159,1149.143247
1074.364908,-9474.636058,-814.226536,153.219100
1074.365228,-9622.677246,-444.123565,1225.752797
1074.365549,-9770.718434,-222.061783,842.705048
1074.365870,-9474.636058,-444.123565,995.924147
1074.366190,-9548.656652,0.000000,1225.752797
1074.366511,-9548.656652,0.000000,1225.752797
1074.366832,-9548.656652,-444.123565,1072.533697
1074.367153,-9696.697840,-518.144159,919.314598
1074.367473,-9548.656652,-296.082377,612.876398
1074.367794,-10214.842000,0.000000,1378.971896
1074.368115,-9548.656652,-444.123565,1302.362347
1074.368436,-9474.636058,-444.123565,995.924147
1074.368756,-9474.636058,-666.185348,919.314598
1074.369077,-9918.759623,-1332.370696,536.266849
1074.369398,-9548.656652,-296.082377,1072.533697
1074.369719,-9548.656652,-296.082377,995.924147
1074.370039,-9696.697840,74.020594,995.924147
1074.370360,-9622.677246,-370.102971,1149.143247
1074.370681,-9474.636058,-222.061783,919.314598
1074.371002,-9474.636058,-518.144159,1072.533697
1074.371322,-9844.739029,-296.082377,689.485948
1074.371643,-9474.636058,-148.041188,919.314598
1074.371964,-9622.677246,0.000000,1072.533697
1074.372285,-9474.636058,-222.061783,766.095498
1074.372605,-9770.718434,0.000000,995.924147
1074.372926,-9696.697840,-148.041188,1455.581446
1074.373247,-10066.800811,-222.061783,689.485948
1074.373567,-9548.656652,-518.144159,842.705048
1074.373888,-9770.718434,-592.164754,995.924147
1074.374209,-9474.636058,-518.144159,1072.533697
1074.374530,-9696.697840,-148.041188,0.000000
1074.374850,-9548.656652,-222.061783,995.924147
1074.375171,-9622.677246,-296.082377,1072.533697
1074.375492,-9474.636058,0.000000,1072.533697
1074.375813,-9622.677246,0.000000,1378.971896
1074.376133,-9104.533087,-444.123565,536.266849
1074.376454,-9548.656652,0.000000,1149.143247
1074.376775,-9622.677246,-296.082377,1225.752797
1074.377096,-9770.718434,-444.123565,919.314598
1074.377416,-9548.656652,0.000000,689.485948
1074.377737,-9770.718434,-296.082377,1072.533697
1074.378058,-9548.656652,-370.102971,1149.143247
1074.378379,-9770.718434,-222.061783,1149.143247
1074.378699,-9548.656652,-296.082377,1072.533697
1074.379020,-9622.677246,-222.061783,1302.362347
1074.379341,-9622.677246,-296.082377,919.314598
1074.379662,-9474.636058,-370.102971,1072.533697
1074.379982,-9770.718434,-370.102971,995.924147
1074.380303,-9474.636058,-296.082377,1302.362347
1074.380624,-9548.656652,-222.061783,1072.533697
1074.380945,-9474.636058,-296.082377,842.705048
1074.381265,-9474.636058,-518.144159,995.924147
1074.381586,-9104.533087,-592.164754,383.047749
1074.381907,-9474.636058,-222.061783,995.924147
1074.382227,-9622.677246,-222.061783,1225.752797
1074.382548,-9474.636058,-740.205942,995.924147
1074.382869,-9548.656652,-370.102971,2298.286494
1074.383190,-9474.636058,-444.123565,1149.143247
1074.383510,-9622.677246,-296.082377,842.705048
1074.383831,-9400.615463,-518.144159,1225.752797
1074.384152,-9474.636058,-518.144159,1302.362347
1074.384473,-8882.471304,-666.185348,1225.752797
1074.384793,-9474.636058,-222.061783,1072.533697
1074.385114,-9474.636058,-222.061783,1072.533697
1074.385435,-9474.636058,-296.082377,1225.752797
1074.385756,-9918.759623,0.000000,1685.410096
1074.386076,-9696.697840,-518.144159,1302.362347
1074.386397,-9622.677246,-370.102971,995.924147
1074.386718,-9770.718434,-444.123565,1072.533697
1074.387039,-9548.656652,-370.102971,1225.752797
1074.387359,-9548.656652,-444.123565,1302.362347
1074.387680,-9474.636058,-370.102971,995.924147
1074.388001,-9622.677246,-296.082377,1072.533697
1074.388322,-9696.697840,-296.082377,1302.362347
1074.388642,-10140.821405,74.020594,919.314598
1074.388963,-9696.697840,-444.123565,919.314598
1074.389284,-9622.677246,-222.061783,1072.533697
1074.389604,-9696.697840,-370.102971,995.924147
1074.389925,-9548.656652,-296.082377,842.705048
1074.390246,-9622.677246,0.000000,689.485948
1074.390567,-9696.697840,-296.082377,919.314598
1074.390887,-9548.656652,-370.102971,919.314598
1074.391208,-9622.677246,-592.164754,1149.143247
1074.391529,-9696.697840,-370.102971,1225.752797
1074.391850,-9770.718434,-296.082377,1302.362347
1074.392170,-9844.739029,-444.123565,1378.971896
1074.392491,-9696.697840,-370.102971,1225.752797
1074.392812,-9548.656652,-444.123565,1915.238745
1074.393133,-9622.677246,-296.082377,1302.362347
1074.393453,-9474.636058,-444.123565,612.876398
1074.393774,-9474.636058,-518.144159,1072.533697
1074.394095,-9474.636058,74.020594,842.705048
1074.394416,-9474.636058,0.000000,919.314598
1074.394736,-9622.677246,-222.061783,842.705048
1074.395057,-9918.759623,-518.144159,919.314598
1074.395378,-9696.697840,-222.061783,919.314598
1074.395699,-9622.677246,-148.041188,995.924147
1074.396019,-9844.739029,-222.061783,919.314598
1074.396340,-9622.677246,-222.061783,1225.752797
1074.396661,-9474.636058,-296.082377,1072.533697
1074.396981,-9030.512492,-370.102971,1072.533697
1074.397302,-9474.636058,-296.082377,1072.533697
1074.397623,-9474.636058,-592.164754,919.314598
1074.397944,-9474.636058,-444.123565,1225.752797
1074.398264,-9474.636058,-370.102971,-153.219100
1074.398585,-9548.656652,-296.082377,919.314598
1074.398906,-9548.656652,-592.164754,1149.143247
1074.399227,-9548.656652,-592.164754,1225.752797
1074.399547,-9770.718434,-296.082377,1149.143247
1074.399868,-9622.677246,0.000000,1225.752797
1074.400189,-10066.800811,0.000000,1149.143247
1074.400510,-9548.656652,-370.102971,766.095498
1074.400830,-9548.656652,0.000000,766.095498
1074.401151,-9104.533087,-666.185348,1149.143247
1074.401472,-9474.636058,-222.061783,842.705048
1074.401793,-9474.636058,222.061783,919.314598
1074.402113,-9622.677246,0.000000,1225.752797
1074.402434,-9474.636058,-666.185348,766.095498
1074.402755,-9696.697840,-296.082377,1149.143247
1074.403076,-9548.656652,-444.123565,1072.533697
