#time,accel_x,accel_y,accel_z
1217.828594,-10140.821405,-1924.535449,2451.505594
1217.828915,-9548.656652,-2368.659014,2451.505594
1217.829236,-9326.594869,-2960.823768,2221.676944
1217.829557,-9252.574275,-3478.967927,1915.238745
1217.829878,-8808.450710,-3404.947333,1838.629195
1217.830199,-8808.450710,-3182.885551,689.485948
1217.830520,-8660.409521,-2960.823768,1225.752797
1217.830840,-9030.512492,-2072.576638,1302.362347
1217.831161,-9400.615463,-962.267725,1302.362347
1217.831482,-9622.677246,-148.041188,1149.143247
1217.831803,-9548.656652,592.164754,1072.533697
1217.832124,-10140.821405,888.247130,1608.800546
1217.832445,-10140.821405,666.185348,1225.752797
1217.832766,-10214.842000,148.041188,1838.629195
1217.833087,-10214.842000,-888.247130,1685.410096
1217.833408,-9474.636058,-1184.329507,1532.190996
1217.833729,-9474.636058,-2368.659014,1762.019645
1217.834050,-9178.553681,-2664.741391,1838.629195
1217.834371,-8660.409521,-2812.782580,2451.505594
1217.834691,-9252.574275,-3256.906145,1991.848295
1217.835012,-9326.594869,-2590.720797,2221.676944
1217.835333,-9474.636058,-2368.659014,2681.334243
1217.835654,-9622.677246,-1628.453072,3217.601092
1217.835975,-9770.718434,-1628.453072,2757.943793
1217.836296,-9770.718434,-1406.391290,2911.162892
1217.836617,-9844.739029,-1480.411884,3064.381992
1217.836938,-9770.718434,-1554.432478,2987.772442
1217.837259,-9622.677246,-2368.659014,3524.039291
1217.837580,-9622.677246,-2220.617826,3907.087040
1217.837901,-9474.636058,-2886.803174,3983.696590
1217.838222,-9474.636058,-3330.926739,4903.011187
1217.838543,-9252.574275,-4219.173869,6052.154434
1217.838863,-9104.533087,-5329.482782,6358.592633
1217.839184,-9030.512492,-5847.626942,6741.640382
1217.839505,-8882.471304,-6291.750507,6818.249932
1217.839826,-8660.409521,-6587.832884,6741.640382
1217.840147,-8512.368333,-6217.729913,6665.030833
1217.840468,-8438.347739,-5699.585753,6358.592633
1217.840789,-8586.388927,-5033.400406,5898.935335
1217.841110,-8882.471304,-4367.215058,5362.668486
1217.841431,-9178.553681,-3627.009116,5286.058936
1217.841752,-9474.636058,-3330.926739,4826.401637
1217.842073,-9548.656652,-2960.823768,4749.792088
1217.842394,-9770.718434,-2960.823768,4519.963438
1217.842715,-10510.924376,-2738.761985,2987.772442
1217.843035,-9918.759623,-3182.885551,4060.306139
1217.843356,-9918.759623,-3182.885551,3294.210641
1217.843677,-9992.780217,-3330.926739,3294.210641
1217.843998,-9844.739029,-2960.823768,3447.429741
1217.844319,-9918.759623,-3182.885551,3600.648841
1217.844640,-9770.718434,-3923.091493,3677.258390
1217.844961,-9918.759623,-4515.256246,3830.477490
1217.845282,-9918.759623,-5255.462188,3600.648841
1217.845603,-9548.656652,-5477.523971,3753.867940
1217.845924,-9622.677246,-5773.606348,2911.162892
1217.846245,-9104.533087,-4515.256246,1991.848295
1217.846566,-9548.656652,-3256.906145,1762.019645
1217.846887,-9252.574275,-1628.453072,1378.971896
1217.847207,-9548.656652,-1480.411884,1072.533697
1217.847528,-10140.821405,-1258.350101,842.705048
1217.847849,-10288.862594,-1776.494261,766.095498
1217.848170,-9696.697840,-2886.803174,2451.505594
1217.848491,-9992.780217,-2442.679609,383.047749
1217.848812,-9696.697840,-2442.679609,-919.314598
1217.849133,-9474.636058,-1554.432478,-1149.143247
1217.849454,-9474.636058,-740.205942,-1302.362347
1217.849775,-9400.615463,296.082377,-842.705048
1217.850096,-9770.718434,148.041188,-306.438199
1217.850417,-9474.636058,814.226536,1762.019645
1217.850738,-10881.027347,-1554.432478,2221.676944
1217.851059,-9030.512492,-1776.494261,3370.820191
1217.851379,-9548.656652,-3701.029710,2911.162892
1217.851701,-9400.615463,-3182.885551,3600.648841
1217.852022,-8364.327145,-3330.926739,2834.553343
1217.852343,-8808.450710,-1924.535449,3447.429741
1217.852664,-8660.409521,-1332.370696,2681.334243
1217.852985,-8290.306550,-148.041188,1608.800546
1217.853307,-9326.594869,1184.329507,1608.800546
1217.853628,-8882.471304,2368.659014,1149.143247
1217.853949,-9696.697840,3330.926739,1378.971896
1217.854270,-10214.842000,3923.091493,2451.505594
1217.854591,-9918.759623,3404.947333,2298.286494
1217.854913,-10732.986159,2812.782580,3294.210641
1217.855234,-10584.944971,1406.391290,3983.696590
1217.855555,-10214.842000,74.020594,4136.915689
1217.855876,-9918.759623,-962.267725,4136.915689
1217.856198,-9770.718434,-1480.411884,4903.011187
1217.856519,-8660.409521,-1406.391290,4213.525239
1217.856840,-9178.553681,-2812.782580,5439.278036
1217.857161,-9400.615463,-3552.988522,5286.058936
1217.857482,-9030.512492,-3627.009116,3447.429741
1217.857804,-8660.409521,-2072.576638,1685.410096
1217.858125,-9178.553681,444.123565,842.705048
1217.858446,-8660.409521,3923.091493,-306.438199
1217.858767,-10066.800811,5625.565159,0.000000
1217.859088,-9622.677246,6513.812290,-919.314598
1217.859410,-10436.903782,5995.668130,-689.485948
1217.859731,-11769.274478,2812.782580,-306.438199
1217.860052,-10955.047942,1036.288319,536.266849
1217.860373,-10658.965565,-666.185348,1302.362347
1217.860694,-10807.006753,-962.267725,1762.019645
1217.861016,-9548.656652,-3034.844362,2681.334243
1217.861337,-8438.347739,-5107.421000,2451.505594
1217.861658,-8364.327145,-6661.853478,995.924147
1217.861979,-7698.141797,-5699.585753,-459.657299
1217.862300,-7994.224174,-3849.070898,-1532.190996
1217.862622,-7698.141797,-592.164754,-1762.019645
1217.862943,-8882.471304,2072.576638,-1149.143247
1217.863264,-9548.656652,2516.700203,-766.095498
1217.863585,-10140.821405,2072.576638,0.000000
1217.863906,-11029.068536,1036.288319,-842.705048
1217.864228,-11325.150913,370.102971,-1149.143247
1217.864549,-10955.047942,222.061783,-229.828649
1217.864870,-10510.924376,0.000000,459.657299
1217.865191,-9770.718434,-370.102971,842.705048
1217.865512,-8882.471304,-2516.700203,689.485948
1217.865834,-8364.327145,-4663.297435,689.485948
1217.866155,-8586.388927,-6587.832884,153.219100
1217.866476,-7846.182985,-6365.771101,0.000000
1217.866797,-8142.265362,-3627.009116,76.609550
1217.867118,-8808.450710,-518.144159,1149.143247
1217.867440,-8956.491898,962.267725,1762.019645
1217.867761,-10066.800811,1776.494261,1762.019645
1217.868082,-10658.965565,740.205942,1455.581446
1217.868403,-10955.047942,1036.288319,1225.752797
1217.868725,-11251.130318,666.185348,1378.971896
1217.869046,-10732.986159,814.226536,2681.334243
1217.869367,-10584.944971,0.000000,2681.334243
1217.869688,-10066.800811,-1036.288319,2834.553343
1217.870009,-9474.636058,-2220.617826,2374.896044
1217.870331,-9252.574275,-3404.947333,1838.629195
1217.870652,-9104.533087,-3256.906145,1991.848295
1217.870973,-8956.491898,-2294.638420,1378.971896
1217.871294,-9104.533087,-296.082377,1838.629195
1217.871615,-8734.430116,1110.308913,2374.896044
1217.871937,-9400.615463,962.267725,1608.800546
1217.872258,-9548.656652,222.061783,1072.533697
1217.872579,-9918.759623,0.000000,1302.362347
1217.872900,-10362.883188,444.123565,1685.410096
1217.873221,-10140.821405,740.205942,1532.190996
1217.873543,-9992.780217,1406.391290,2374.896044
1217.873864,-9770.718434,888.247130,1685.410096
1217.874185,-9474.636058,0.000000,766.095498
1217.874506,-9474.636058,-666.185348,-1225.752797
1217.874827,-8586.388927,-444.123565,-383.047749
1217.875149,-8734.430116,-222.061783,-842.705048
1217.875470,-9178.553681,1480.411884,-306.438199
1217.875791,-9474.636058,2146.597232,612.876398
1217.876112,-9548.656652,1628.453072,1532.190996
1217.876433,-9548.656652,592.164754,1302.362347
1217.876755,-9918.759623,-222.061783,995.924147
1217.877076,-9696.697840,-518.144159,1302.362347
1217.877397,-10066.800811,370.102971,1685.410096
1217.877718,-9548.656652,74.020594,2145.067394
1217.878039,-9104.533087,0.000000,1685.410096
1217.878361,-8956.491898,-962.267725,229.828649
1217.878682,-8956.491898,-1406.391290,-1302.362347
1217.879003,-9104.533087,-296.082377,-306.438199
1217.879324,-9696.697840,1554.432478,-229.828649
1217.879646,-9844.739029,2738.761985,612.876398
1217.879967,-10214.842000,2960.823768,919.314598
1217.880288,-10732.986159,2072.576638,1455.581446
1217.880609,-10658.965565,296.082377,536.266849
1217.880930,-10288.862594,-296.082377,766.095498
1217.881252,-9844.739029,-888.247130,383.047749
1217.881573,-9770.718434,-740.205942,2068.457845
1217.881894,-9474.636058,-148.041188,1455.581446
1217.882215,-9030.512492,-1036.288319,1685.410096
1217.882536,-9030.512492,-2442.679609,1378.971896
1217.882858,-9030.512492,-2812.782580,-459.657299
1217.883179,-9474.636058,-2516.700203,0.000000
1217.883500,-9474.636058,-518.144159,229.828649
1217.883821,-9992.780217,1850.514855,842.705048
1217.884142,-10362.883188,2960.823768,1608.800546
1217.884464,-10881.027347,3256.906145,1532.190996
1217.884785,-10584.944971,1184.329507,1225.752797
1217.885106,-10436.903782,-148.041188,1302.362347
1217.885427,-9918.759623,-1554.432478,1838.629195
1217.885748,-9400.615463,-1776.494261,2221.676944
1217.886070,-8956.491898,-2738.761985,2451.505594
1217.886391,-8512.368333,-3404.947333,2298.286494
1217.886712,-8660.409521,-3849.070898,1991.848295
1217.887033,-8586.388927,-2886.803174,383.047749
1217.887354,-8438.347739,-2516.700203,536.266849
1217.887676,-8808.450710,-518.144159,766.095498
1217.887997,-9548.656652,1332.370696,1532.190996
1217.888318,-9992.780217,1628.453072,1991.848295
1217.888639,-10288.862594,814.226536,1302.362347
1217.888960,-10288.862594,-296.082377,612.876398
1217.889282,-10510.924376,-592.164754,766.095498
1217.889603,-10066.800811,-592.164754,1225.752797
1217.889924,-10510.924376,-370.102971,2374.896044
1217.890245,-9400.615463,-592.164754,1685.410096
1217.890566,-9178.553681,-1776.494261,1302.362347
1217.890888,-8882.471304,-2590.720797,1072.533697
1217.891209,-8882.471304,-3330.926739,229.828649
1217.891530,-8956.491898,-3404.947333,0.000000
1217.891851,-8660.409521,-1776.494261,-306.438199
1217.892173,-9326.594869,-148.041188,76.609550
1217.892494,-9326.594869,1554.432478,1149.143247
1217.892815,-9770.718434,1628.453072,995.924147
1217.893136,-10288.862594,1332.370696,995.924147
1217.893457,-10881.027347,1110.308913,995.924147
1217.893779,-10955.047942,814.226536,1532.190996
1217.894100,-9178.553681,-740.205942,2604.724693
1217.894421,-9770.718434,-962.267725,2221.676944
1217.894742,-9474.636058,-2072.576638,1762.019645
1217.895063,-9252.574275,-2886.803174,1072.533697
1217.895385,-8734.430116,-4071.132681,1838.629195
1217.895706,-9178.553681,-1628.453072,0.000000
1217.896027,-9326.594869,814.226536,306.438199
1217.896348,-9844.739029,2072.576638,995.924147
1217.896669,-9770.718434,2738.761985,1455.581446
1217.896991,-9992.780217,1480.411884,1149.143247
1217.897312,-10214.842000,592.164754,995.924147
1217.897633,-10288.862594,296.082377,919.314598
1217.897954,-10584.944971,814.226536,1378.971896
1217.898275,-10140.821405,1702.473667,1915.238745
1217.898597,-9474.636058,1110.308913,1762.019645
1217.898918,-9474.636058,74.020594,1608.800546
1217.899239,-8956.491898,-1776.494261,612.876398
1217.899560,-9400.615463,-2812.782580,-842.705048
1217.899881,-9104.533087,-2368.659014,-383.047749
1217.900203,-8882.471304,-592.164754,0.000000
1217.900524,-8956.491898,1258.350101,459.657299
1217.900845,-9474.636058,1850.514855,995.924147
1217.901166,-9770.718434,1628.453072,1608.800546
1217.901487,-9992.780217,814.226536,995.924147
1217.901809,-10066.800811,0.000000,1302.362347
1217.902130,-9770.718434,-370.102971,1302.362347
1217.902451,-9474.636058,0.000000,2374.896044
1217.902772,-9326.594869,-740.205942,2145.067394
1217.903094,-8808.450710,-1258.350101,1685.410096
1217.903415,-8660.409521,-2590.720797,995.924147
1217.903736,-8808.450710,-2220.617826,689.485948
1217.904057,-9030.512492,-1184.329507,0.000000
1217.904378,-9474.636058,592.164754,306.438199
1217.904700,-9548.656652,2072.576638,1149.143247
1217.905021,-9844.739029,2294.638420,1378.971896
1217.905342,-10140.821405,1258.350101,1378.971896
1217.905663,-10288.862594,-222.061783,919.314598
1217.905984,-10436.903782,-1036.288319,689.485948
1217.906306,-9918.759623,-888.247130,919.314598
1217.906627,-9992.780217,-592.164754,1915.238745
1217.906948,-9474.636058,0.000000,2068.457845
1217.907269,-9696.697840,-1036.288319,1455.581446
1217.907590,-9326.594869,-2368.659014,995.924147
1217.907912,-8068.244768,-2294.638420,1072.533697
1217.908233,-9622.677246,-2146.597232,-153.219100
1217.908554,-9400.615463,-444.123565,-306.438199
1217.908875,-9622.677246,1036.288319,0.000000
1217.909196,-9474.636058,3108.864956,2451.505594
1217.909518,-10881.027347,2072.576638,1225.752797
1217.909839,-10214.842000,1184.329507,1608.800546
1217.910160,-10584.944971,-592.164754,1685.410096
1217.910481,-10510.924376,-1258.350101,1915.238745
1217.910802,-9326.594869,-1776.494261,1608.800546
1217.911124,-9622.677246,-2072.576638,2298.286494
1217.911445,-9030.512492,-2368.659014,2145.067394
1217.911766,-8142.265362,-3404.947333,842.705048
1217.912087,-8438.347739,-2368.659014,0.000000
1217.912408,-8734.430116,-1628.453072,229.828649
1217.912730,-9400.615463,444.123565,459.657299
1217.913051,-9696.697840,1850.514855,1378.971896
1217.913372,-9474.636058,2072.576638,306.438199
1217.913693,-9918.759623,1184.329507,1455.581446
1217.914014,-10214.842000,-222.061783,919.314598
1217.914336,-9622.677246,-666.185348,766.095498
1217.914657,-10140.821405,-740.205942,1455.581446
1217.914978,-10066.800811,-444.123565,1991.848295
1217.915299,-9178.553681,-592.164754,2451.505594
1217.915621,-9104.533087,-1702.473667,2681.334243
1217.915942,-9104.533087,-2812.782580,2374.896044
1217.916263,-9030.512492,-3256.906145,612.876398
1217.916584,-9030.512492,-3182.885551,1149.143247
1217.916905,-9326.594869,-1332.370696,1302.362347
1217.917227,-9030.512492,518.144159,1072.533697
1217.917548,-9548.656652,1998.556043,1991.848295
1217.917869,-9548.656652,2146.597232,1225.752797
1217.918190,-10288.862594,1258.350101,1149.143247
1217.918511,-10436.903782,518.144159,1455.581446
1217.918833,-9918.759623,0.000000,1225.752797
1217.919154,-9696.697840,0.000000,1225.752797
1217.919475,-9326.594869,-296.082377,1608.800546
1217.919796,-9178.553681,-1258.350101,1378.971896
1217.920117,-8808.450710,-2368.659014,1072.533697
1217.920439,-9104.533087,-2812.782580,612.876398
1217.920760,-9474.636058,-1332.370696,0.000000
1217.921081,-9770.718434,296.082377,153.219100
1217.921402,-10140.821405,1850.514855,766.095498
1217.921723,-10140.821405,2294.638420,1455.581446
1217.922045,-9918.759623,1702.473667,919.314598
1217.922366,-10732.986159,592.164754,306.438199
1217.922687,-10066.800811,0.000000,153.219100
1217.923008,-10362.883188,0.000000,229.828649
1217.923329,-10214.842000,592.164754,1149.143247
1217.923651,-9474.636058,814.226536,1532.190996
1217.923972,-9474.636058,0.000000,1608.800546
1217.924293,-9326.594869,-1776.494261,1225.752797
1217.924614,-8734.430116,-1998.556043,-306.438199
1217.924935,-9474.636058,-2220.617826,76.609550
1217.925257,-9030.512492,-740.205942,-153.219100
1217.925578,-9474.636058,1554.432478,612.876398
1217.925899,-9252.574275,2516.700203,229.828649
1217.926220,-9474.636058,1850.514855,459.657299
1217.926542,-9548.656652,814.226536,995.924147
1217.926863,-10288.862594,0.000000,1378.971896
1217.927184,-10066.800811,-444.123565,1532.190996
1217.927505,-10214.842000,-666.185348,2528.115143
1217.927826,-9474.636058,-1332.370696,2528.115143
1217.928148,-8956.491898,-1850.514855,2451.505594
1217.928469,-8882.471304,-2442.679609,1608.800546
1217.928790,-8660.409521,-2960.823768,306.438199
1217.929111,-9030.512492,-1184.329507,153.219100
1217.929432,-9252.574275,1184.329507,306.438199
1217.929754,-9400.615463,2294.638420,1225.752797
1217.930075,-9400.615463,2590.720797,2221.676944
1217.930396,-9622.677246,1332.370696,1225.752797
1217.930717,-10066.800811,0.000000,1072.533697
1217.931038,-9992.780217,-592.164754,842.705048
1217.931360,-10066.800811,-370.102971,1608.800546
1217.931681,-10362.883188,-222.061783,2451.505594
1217.932002,-9400.615463,-962.267725,2604.724693
1217.932323,-9326.594869,-1850.514855,2681.334243
1217.932644,-9326.594869,-2664.741391,1378.971896
1217.932966,-8438.347739,-3552.988522,0.000000
1217.933287,-9178.553681,-1850.514855,0.000000
1217.933608,-9326.594869,148.041188,153.219100
1217.933929,-9622.677246,1850.514855,766.095498
1217.934250,-9696.697840,2886.803174,459.657299
1217.934572,-9992.780217,1776.494261,1608.800546
1217.934893,-10807.006753,814.226536,1608.800546
1217.935214,-10807.006753,-370.102971,1915.238745
1217.935535,-10362.883188,-888.247130,2145.067394
1217.935856,-9770.718434,-1110.308913,2145.067394
1217.936178,-9474.636058,-1850.514855,1915.238745
1217.936499,-8882.471304,-2590.720797,1991.848295
1217.936820,-8438.347739,-3330.926739,383.047749
1217.937141,-8882.471304,-2442.679609,-536.266849
1217.937462,-8956.491898,-1406.391290,-612.876398
1217.937784,-9548.656652,296.082377,153.219100
1217.938105,-10214.842000,1332.370696,1072.533697
1217.938426,-9992.780217,1850.514855,3294.210641
1217.938747,-10362.883188,740.205942,1378.971896
1217.939069,-10955.047942,-370.102971,842.705048
1217.939390,-9992.780217,-518.144159,689.485948
1217.939711,-10214.842000,-222.061783,842.705048
1217.940032,-9400.615463,222.061783,995.924147
1217.940353,-8956.491898,-666.185348,842.705048
1217.940675,-8734.430116,-1258.350101,1072.533697
1217.940996,-8586.388927,-2960.823768,306.438199
1217.941317,-8734.430116,-2738.761985,1225.752797
1217.941638,-8956.491898,-1998.556043,0.000000
1217.941959,-9326.594869,0.000000,153.219100
1217.942281,-9844.739029,1776.494261,919.314598
1217.942602,-9844.739029,2368.659014,1608.800546
1217.942923,-10214.842000,2368.659014,1991.848295
1217.943244,-10807.006753,222.061783,1072.533697
1217.943565,-9992.780217,-296.082377,1455.581446
1217.943887,-10140.821405,-1110.308913,1532.190996
1217.944208,-9178.553681,0.000000,2451.505594
1217.944529,-10140.821405,-1258.350101,2298.286494
1217.944850,-8660.409521,-1628.453072,2145.067394
1217.945171,-9400.615463,-2886.803174,919.314598
1217.945493,-9474.636058,-2664.741391,0.000000
1217.945814,-9474.636058,-592.164754,153.219100
1217.946135,-10510.924376,1258.350101,995.924147
1217.946456,-9844.739029,2738.761985,1149.143247
1217.946777,-10214.842000,2664.741391,1072.533697
1217.947099,-10436.903782,1258.350101,1149.143247
1217.947420,-10436.903782,222.061783,76.609550
1217.947741,-10732.986159,0.000000,229.828649
1217.948062,-9696.697840,74.020594,459.657299
1217.948383,-9030.512492,444.123565,1149.143247
1217.948705,-9252.574275,-222.061783,1225.752797
1217.949026,-8882.471304,-962.267725,1225.752797
1217.949347,-8882.471304,-2368.659014,919.314598
1217.949668,-8956.491898,-2960.823768,0.000000
1217.949989,-9474.636058,-2146.597232,306.438199
1217.950311,-9326.594869,0.000000,536.266849
1217.950632,-9474.636058,2072.576638,1225.752797
1217.950953,-9548.656652,3034.844362,1685.410096
1217.951274,-9474.636058,1776.494261,1378.971896
1217.951594,-9622.677246,888.247130,1302.362347
1217.951914,-10288.862594,0.000000,1532.190996
1217.952235,-10288.862594,-370.102971,2221.676944
1217.952555,-9770.718434,-1406.391290,2451.505594
1217.952876,-9030.512492,-1924.535449,2145.067394
1217.953196,-8808.450710,-2886.803174,1455.581446
1217.953517,-8956.491898,-3404.947333,689.485948
1217.953837,-8956.491898,-2442.679609,1225.752797
1217.954158,-8882.471304,-1480.411884,0.000000
1217.954478,-9474.636058,888.247130,0.000000
1217.954798,-9474.636058,1998.556043,229.828649
1217.955119,-9844.739029,2516.700203,-306.438199
1217.955439,-9992.780217,1332.370696,459.657299
1217.955760,-10288.862594,518.144159,383.047749
1217.956080,-10510.924376,-296.082377,689.485948
1217.956401,-10510.924376,-148.041188,1225.752797
1217.956721,-10436.903782,-370.102971,2298.286494
1217.957041,-9696.697840,-1184.329507,2298.286494
1217.957362,-9104.533087,-1776.494261,1838.629195
1217.957682,-9400.615463,-3182.885551,1072.533697
1217.958003,-7994.224174,-3478.967927,229.828649
1217.958323,-9030.512492,-1998.556043,-153.219100
1217.958644,-9252.574275,-444.123565,153.219100
1217.958964,-9474.636058,962.267725,689.485948
1217.959285,-9622.677246,1406.391290,1608.800546
1217.959605,-9992.780217,1036.288319,1378.971896
1217.959925,-10362.883188,814.226536,1608.800546
1217.960246,-10732.986159,222.061783,2145.067394
1217.960566,-10658.965565,-148.041188,2451.505594
1217.960887,-9844.739029,-962.267725,2451.505594
1217.961207,-9400.615463,-1702.473667,1991.848295
1217.961528,-8734.430116,-2590.720797,1378.971896
1217.961848,-8512.368333,-3182.885551,459.657299
1217.962168,-9104.533087,-2146.597232,-306.438199
1217.962489,-8808.450710,-518.144159,0.000000
1217.962809,-9326.594869,1184.329507,536.266849
1217.963130,-9844.739029,2368.659014,1149.143247
1217.963450,-9696.697840,2146.597232,612.876398
1217.963771,-10140.821405,444.123565,842.705048
1217.964091,-10140.821405,-148.041188,536.266849
1217.964412,-10214.842000,-592.164754,612.876398
1217.964732,-10140.821405,-296.082377,1225.752797
1217.965052,-9844.739029,444.123565,1685.410096
1217.965373,-9030.512492,-222.061783,1838.629195
1217.965693,-9030.512492,-1702.473667,1378.971896
1217.966014,-9104.533087,-3404.947333,842.705048
1217.966334,-8438.347739,-3256.906145,-689.485948
1217.966655,-9252.574275,-1850.514855,0.000000
1217.966975,-9400.615463,296.082377,459.657299
1217.967296,-9474.636058,2294.638420,1072.533697
1217.967616,-9918.759623,3552.988522,995.924147
1217.967936,-10288.862594,1628.453072,1149.143247
1217.968257,-10510.924376,444.123565,1072.533697
1217.968577,-10510.924376,-296.082377,1225.752797
1217.968898,-10436.903782,-444.123565,1685.410096
1217.969218,-9844.739029,-888.247130,2068.457845
1217.969539,-9252.574275,-1110.308913,2374.896044
1217.969859,-9178.553681,-2368.659014,1378.971896
1217.970179,-8882.471304,-2516.700203,459.657299
1217.970500,-9252.574275,-962.267725,0.000000
1217.970820,-9326.594869,-148.041188,-76.609550
1217.971141,-9844.739029,1480.411884,536.266849
1217.971461,-9918.759623,2220.617826,689.485948
1217.971782,-9770.718434,2072.576638,842.705048
1217.972102,-9918.759623,888.247130,536.266849
1217.972423,-10510.924376,370.102971,536.266849
1217.972743,-10214.842000,666.185348,919.314598
1217.973063,-10658.965565,1036.288319,1378.971896
1217.973384,-9844.739029,888.247130,1915.238745
1217.973704,-9474.636058,0.000000,2298.286494
1217.974025,-9104.533087,-1850.514855,1302.362347
1217.974345,-8956.491898,-2516.700203,919.314598
1217.974666,-8882.471304,-2368.659014,0.000000
1217.974986,-8734.430116,-1554.432478,-153.219100
1217.975307,-8586.388927,518.144159,76.609550
1217.975627,-9474.636058,1628.453072,459.657299
1217.975947,-9770.718434,2442.679609,919.314598
1217.976268,-10362.883188,1184.329507,1608.800546
1217.976588,-10288.862594,74.020594,2068.457845
1217.976909,-10807.006753,-814.226536,2374.896044
1217.977229,-10510.924376,-1554.432478,2834.553343
1217.977550,-9622.677246,-1480.411884,3370.820191
1217.977870,-8956.491898,-2368.659014,3064.381992
1217.978190,-8364.327145,-3404.947333,1991.848295
1217.978511,-8882.471304,-3552.988522,1455.581446
1217.978831,-9104.533087,-2738.761985,1225.752797
1217.979152,-9030.512492,-888.247130,919.314598
1217.979472,-9400.615463,1258.350101,1149.143247
1217.979793,-9474.636058,2146.597232,1149.143247
1217.980113,-9474.636058,2516.700203,1532.190996
1217.980434,-10288.862594,1776.494261,1762.019645
1217.980754,-10510.924376,888.247130,995.924147
1217.981074,-10362.883188,74.020594,1225.752797
1217.981395,-10584.944971,-740.205942,1072.533697
1217.981715,-9474.636058,-814.226536,1378.971896
1217.982036,-9548.656652,-1036.288319,1532.190996
1217.982356,-9326.594869,-1628.453072,1838.629195
1217.982677,-9030.512492,-2368.659014,919.314598
1217.982997,-8808.450710,-2960.823768,229.828649
1217.983317,-9252.574275,-2220.617826,-612.876398
1217.983638,-9548.656652,-444.123565,0.000000
1217.983958,-9548.656652,962.267725,459.657299
1217.984279,-9918.759623,1036.288319,306.438199
1217.984599,-10066.800811,814.226536,1149.143247
1217.984920,-10214.842000,296.082377,459.657299
1217.985240,-10436.903782,-148.041188,766.095498
1217.985561,-10436.903782,-222.061783,1302.362347
1217.985881,-10584.944971,-148.041188,1455.581446
1217.986201,-9548.656652,-518.144159,1915.238745
1217.986522,-9252.574275,-1258.350101,1455.581446
1217.986842,-8956.491898,-2368.659014,536.266849
1217.987163,-7476.080014,-3034.844362,229.828649
1217.987483,-8956.491898,-1110.308913,0.000000
1217.987804,-9622.677246,444.123565,383.047749
1217.988124,-9622.677246,1776.494261,919.314598
1217.988445,-9696.697840,1628.453072,842.705048
1217.988765,-10066.800811,1332.370696,842.705048
1217.989085,-10066.800811,592.164754,76.609550
1217.989406,-10362.883188,296.082377,689.485948
1217.989726,-10140.821405,296.082377,1302.362347
1217.990047,-9400.615463,-148.041188,1455.581446
1217.990367,-9400.615463,-962.267725,2145.067394
1217.990688,-9178.553681,-2072.576638,1455.581446
1217.991008,-9178.553681,-2960.823768,536.266849
1217.991328,-8734.430116,-1702.473667,459.657299
1217.991649,-8956.491898,-962.267725,-76.609550
1217.991969,-9178.553681,740.205942,459.657299
1217.992290,-9474.636058,1628.453072,1072.533697
1217.992610,-9474.636058,1036.288319,2604.724693
1217.992931,-9770.718434,296.082377,1225.752797
1217.993251,-10140.821405,-592.164754,1608.800546
1217.993572,-10436.903782,-370.102971,1838.629195
1217.993892,-10362.883188,0.000000,2451.505594
1217.994212,-9770.718434,-222.061783,2451.505594
1217.994533,-9178.553681,-888.247130,2298.286494
1217.994853,-9104.533087,-1554.432478,1455.581446
1217.995174,-9474.636058,-2072.576638,612.876398
1217.995494,-9400.615463,-1480.411884,0.000000
1217.995815,-9474.636058,-222.061783,536.266849
1217.996135,-9918.759623,1850.514855,459.657299
1217.996456,-9548.656652,2812.782580,1302.362347
1217.996776,-10140.821405,1702.473667,2221.676944
1217.997096,-10066.800811,962.267725,1225.752797
1217.997417,-10214.842000,-148.041188,536.266849
1217.997737,-10214.842000,-592.164754,1149.143247
1217.998058,-9918.759623,-370.102971,1225.752797
1217.998378,-9474.636058,-518.144159,1608.800546
1217.998699,-8808.450710,-370.102971,1302.362347
1217.999019,-9178.553681,-1628.453072,1225.752797
1217.999339,-9030.512492,-2590.720797,459.657299
1217.999660,-9548.656652,-2442.679609,842.705048
1217.999980,-9474.636058,-1702.473667,0.000000
1218.000301,-9400.615463,222.061783,229.828649
1218.000621,-9474.636058,1480.411884,842.705048
1218.000942,-10362.883188,1554.432478,1378.971896
1218.001262,-9622.677246,962.267725,842.705048
1218.001583,-10140.821405,148.041188,919.314598
1218.001903,-10140.821405,-1036.288319,1455.581446
1218.002223,-9992.780217,-1702.473667,1838.629195
1218.002544,-9548.656652,-1702.473667,2221.676944
1218.002864,-9400.615463,-2072.576638,2374.896044
1218.003185,-8882.471304,-2590.720797,1915.238745
1218.003505,-8956.491898,-3256.906145,1149.143247
1218.003826,-9252.574275,-2220.617826,383.047749
1218.004146,-9622.677246,-888.247130,0.000000
1218.004466,-9178.553681,1702.473667,689.485948
1218.004787,-9992.780217,1554.432478,842.705048
1218.005107,-9030.512492,1850.514855,1915.238745
1218.005428,-9992.780217,148.041188,306.438199
1218.005748,-10436.903782,-148.041188,459.657299
1218.006069,-10214.842000,-592.164754,919.314598
1218.006389,-10288.862594,148.041188,3677.258390
1218.006710,-10066.800811,0.000000,2374.896044
1218.007030,-9252.574275,-888.247130,1685.410096
1218.007350,-9326.594869,-1628.453072,1532.190996
1218.007671,-8660.409521,-2664.741391,536.266849
1218.007991,-8660.409521,-2442.679609,-536.266849
1218.008312,-9622.677246,-1332.370696,0.000000
1218.008632,-9326.594869,296.082377,0.000000
1218.008953,-9326.594869,1702.473667,153.219100
1218.009273,-10288.862594,2812.782580,842.705048
1218.009594,-10214.842000,1702.473667,1149.143247
1218.009914,-10436.903782,962.267725,1455.581446
1218.010234,-10955.047942,148.041188,2221.676944
1218.010555,-10362.883188,-370.102971,4366.744339
1218.010875,-10066.800811,-1480.411884,2757.943793
1218.011196,-9400.615463,-1998.556043,2911.162892
1218.011516,-9030.512492,-2738.761985,1915.238745
1218.011837,-8660.409521,-2886.803174,1378.971896
1218.012157,-8660.409521,-2146.597232,383.047749
1218.012477,-8438.347739,-296.082377,612.876398
1218.012798,-9548.656652,1110.308913,612.876398
1218.013118,-9474.636058,1998.556043,1225.752797
1218.013439,-9844.739029,666.185348,306.438199
1218.013759,-9770.718434,370.102971,842.705048
1218.014080,-9918.759623,148.041188,842.705048
1218.014400,-9696.697840,0.000000,919.314598
1218.014721,-9844.739029,370.102971,1149.143247
1218.015041,-9918.759623,370.102971,2068.457845
1218.015361,-9400.615463,-296.082377,1762.019645
1218.015682,-9548.656652,-1554.432478,1302.362347
1218.016002,-9252.574275,-1850.514855,229.828649
1218.016323,-9252.574275,-1258.350101,-306.438199
1218.016643,-9400.615463,0.000000,-306.438199
1218.016964,-9474.636058,1406.391290,0.000000
1218.017284,-9400.615463,2590.720797,383.047749
1218.017605,-11473.192101,2886.803174,229.828649
1218.017925,-9992.780217,1110.308913,842.705048
1218.018245,-10510.924376,222.061783,1149.143247
1218.018566,-10584.944971,0.000000,1608.800546
1218.018886,-10288.862594,222.061783,3524.039291
1218.019207,-10066.800811,-370.102971,2681.334243
1218.019527,-9474.636058,-1480.411884,2451.505594
1218.019848,-8882.471304,-2516.700203,1455.581446
1218.020168,-9400.615463,-3256.906145,1072.533697
1218.020488,-9178.553681,-1924.535449,76.609550
1218.020809,-9178.553681,-370.102971,76.609550
1218.021129,-9474.636058,888.247130,536.266849
1218.021450,-9400.615463,1924.535449,919.314598
1218.021770,-9844.739029,1850.514855,459.657299
1218.022091,-9992.780217,-148.041188,459.657299
1218.022411,-10214.842000,-740.205942,1072.533697
1218.022732,-10362.883188,-740.205942,1302.362347
1218.023052,-10214.842000,-740.205942,1838.629195
1218.023372,-9548.656652,-148.041188,2528.115143
1218.023693,-9326.594869,-814.226536,2068.457845
1218.024013,-8956.491898,-1776.494261,1378.971896
1218.024334,-8660.409521,-2368.659014,689.485948
1218.024654,-9030.512492,-2738.761985,-306.438199
1218.024975,-8586.388927,-1036.288319,-459.657299
1218.025295,-9030.512492,222.061783,-229.828649
1218.025615,-8882.471304,2220.617826,306.438199
1218.025936,-9622.677246,1628.453072,1838.629195
1218.026256,-10140.821405,1110.308913,1915.238745
1218.026577,-10436.903782,0.000000,2298.286494
1218.026897,-10362.883188,-1110.308913,2068.457845
1218.027218,-10288.862594,-1332.370696,2451.505594
1218.027538,-9992.780217,-1110.308913,2757.943793
1218.027859,-9400.615463,-1776.494261,2451.505594
1218.028179,-8586.388927,-2220.617826,1608.800546
1218.028499,-8956.491898,-2738.761985,306.438199
1218.028820,-9178.553681,-1776.494261,-306.438199
1218.029140,-9474.636058,-222.061783,0.000000
1218.029461,-9844.739029,1406.391290,1072.533697
1218.029781,-10214.842000,1628.453072,1225.752797
1218.030102,-10066.800811,1850.514855,842.705048
1218.030422,-10584.944971,0.000000,536.266849
1218.030743,-10510.924376,-222.061783,536.266849
1218.031063,-10436.903782,-518.144159,612.876398
1218.031383,-9992.780217,0.000000,1762.019645
1218.031704,-9400.615463,0.000000,1378.971896
1218.032024,-9252.574275,-518.144159,1072.533697
1218.032345,-8956.491898,-1184.329507,1225.752797
1218.032665,-8808.450710,-1998.556043,0.000000
1218.032986,-8956.491898,-2294.638420,383.047749
1218.033306,-9104.533087,-370.102971,-229.828649
1218.033626,-9474.636058,1110.308913,383.047749
1218.033947,-9474.636058,2072.576638,842.705048
1218.034267,-9844.739029,1406.391290,1225.752797
1218.034588,-9696.697840,666.185348,766.095498
1218.034908,-9918.759623,74.020594,919.314598
1218.035229,-9992.780217,0.000000,1608.800546
1218.035549,-10066.800811,-222.061783,2451.505594
1218.035870,-9844.739029,-370.102971,2604.724693
1218.036190,-8956.491898,-1998.556043,1991.848295
1218.036510,-8882.471304,-2960.823768,1608.800546
1218.036831,-8956.491898,-3256.906145,1072.533697
1218.037151,-9030.512492,-1998.556043,919.314598
1218.037472,-9548.656652,-740.205942,995.924147
1218.037792,-9548.656652,666.185348,995.924147
1218.038113,-9770.718434,1702.473667,1455.581446
1218.038433,-10214.842000,1258.350101,1149.143247
1218.038754,-10140.821405,666.185348,1532.190996
1218.039074,-10658.965565,222.061783,536.266849
1218.039394,-10214.842000,222.061783,1072.533697
1218.039715,-10214.842000,518.144159,1149.143247
1218.040035,-9474.636058,0.000000,842.705048
1218.040356,-8734.430116,-222.061783,1532.190996
1218.040676,-9474.636058,-1554.432478,1302.362347
1218.040997,-9030.512492,-1850.514855,306.438199
1218.041317,-9030.512492,-1554.432478,459.657299
1218.041637,-9178.553681,-518.144159,306.438199
1218.041958,-9326.594869,1332.370696,842.705048
1218.042278,-9622.677246,1406.391290,1302.362347
1218.042599,-9770.718434,1628.453072,1762.019645
1218.042919,-9770.718434,1110.308913,2451.505594
1218.043240,-10584.944971,148.041188,2374.896044
1218.043560,-10214.842000,-592.164754,2374.896044
1218.043881,-10510.924376,-1628.453072,2451.505594
1218.044201,-8660.409521,-666.185348,2298.286494
1218.044521,-9918.759623,-2442.679609,1838.629195
1218.044842,-8068.244768,-2442.679609,1838.629195
1218.045162,-9178.553681,-3997.112087,306.438199
1218.045483,-8956.491898,-2368.659014,229.828649
1218.045803,-8956.491898,0.000000,-536.266849
1218.046124,-9696.697840,1776.494261,1072.533697
1218.046444,-9992.780217,2072.576638,1378.971896
1218.046764,-9178.553681,888.247130,612.876398
1218.047085,-10881.027347,592.164754,689.485948
1218.047405,-9622.677246,-1258.350101,306.438199
1218.047726,-10140.821405,-592.164754,919.314598
1218.048046,-10436.903782,0.000000,2068.457845
1218.048367,-9326.594869,962.267725,3370.820191
1218.048687,-9400.615463,-518.144159,1532.190996
1218.049008,-9030.512492,-1850.514855,0.000000
1218.049328,-8882.471304,-2368.659014,-306.438199
1218.049648,-9104.533087,-2146.597232,-536.266849
1218.049969,-9326.594869,-518.144159,-612.876398
1218.050289,-9326.594869,1702.473667,0.000000
1218.050610,-9474.636058,2368.659014,689.485948
1218.050930,-9844.739029,2072.576638,842.705048
1218.051251,-10362.883188,1036.288319,612.876398
1218.051571,-10584.944971,148.041188,1302.362347
1218.051892,-10510.924376,-888.247130,1532.190996
1218.052212,-9844.739029,-1036.288319,1762.019645
1218.052532,-9622.677246,-1702.473667,2451.505594
1218.052853,-9252.574275,-2072.576638,2145.067394
1218.053173,-9030.512492,-2516.700203,1225.752797
1218.053494,-8808.450710,-2368.659014,536.266849
1218.053814,-9400.615463,-1036.288319,229.828649
1218.054135,-9474.636058,592.164754,76.609550
1218.054455,-9918.759623,2294.638420,612.876398
1218.054776,-9918.759623,2590.720797,1455.581446
1218.055096,-9918.759623,1406.391290,1225.752797
1218.055417,-9474.636058,-444.123565,0.000000
1218.055737,-10214.842000,0.000000,995.924147
1218.056058,-10732.986159,-370.102971,1532.190996
1218.056378,-10140.821405,148.041188,2221.676944
1218.056699,-9474.636058,74.020594,2681.334243
1218.057019,-9104.533087,-1258.350101,2145.067394
1218.057340,-9030.512492,-1998.556043,1225.752797
1218.057660,-8956.491898,-2664.741391,766.095498
1218.057981,-8956.491898,-2368.659014,153.219100
1218.058301,-8734.430116,-370.102971,229.828649
1218.058622,-9104.533087,888.247130,842.705048
1218.058942,-9400.615463,2146.597232,1455.581446
1218.059263,-9770.718434,1850.514855,1685.410096
1218.059583,-9696.697840,592.164754,1455.581446
1218.059904,-10214.842000,592.164754,1455.581446
1218.060224,-10436.903782,74.020594,2374.896044
1218.060545,-9844.739029,-888.247130,2451.505594
1218.060865,-9400.615463,-1924.535449,2451.505594
1218.061186,-8512.368333,-2368.659014,1685.410096
1218.061506,-8438.347739,-3478.967927,842.705048
1218.061827,-8660.409521,-2960.823768,459.657299
1218.062147,-8956.491898,-1702.473667,153.219100
1218.062468,-9178.553681,0.000000,229.828649
1218.062788,-9548.656652,1998.556043,919.314598
1218.063109,-9844.739029,1702.473667,1532.190996
1218.063430,-9992.780217,888.247130,919.314598
1218.063750,-9918.759623,-518.144159,-153.219100
1218.064071,-10214.842000,-740.205942,76.609550
1218.064391,-9844.739029,-444.123565,459.657299
1218.064712,-9844.739029,-592.164754,536.266849
1218.065032,-9770.718434,222.061783,1532.190996
1218.065353,-9548.656652,-888.247130,919.314598
1218.065673,-9400.615463,-1776.494261,689.485948
1218.065994,-9326.594869,-2812.782580,-383.047749
1218.066314,-8882.471304,-1924.535449,-1302.362347
1218.066635,-9622.677246,296.082377,-1149.143247
1218.066955,-9474.636058,2220.617826,0.000000
1218.067276,-9844.739029,3478.967927,536.266849
1218.067596,-10066.800811,2368.659014,612.876398
1218.067917,-10510.924376,1554.432478,2451.505594
1218.068237,-10807.006753,0.000000,1302.362347
1218.068558,-10584.944971,-518.144159,1685.410096
1218.068878,-10436.903782,-592.164754,2451.505594
1218.069199,-9770.718434,-888.247130,2987.772442
1218.069519,-9326.594869,-2220.617826,2681.334243
1218.069840,-9474.636058,-3034.844362,1838.629195
1218.070160,-8956.491898,-2812.782580,919.314598
1218.070481,-9326.594869,-1850.514855,842.705048
1218.070801,-9252.574275,0.000000,536.266849
1218.071122,-9474.636058,1110.308913,1149.143247
1218.071442,-9400.615463,1480.411884,1072.533697
1218.071763,-9770.718434,888.247130,842.705048
1218.072083,-10362.883188,1184.329507,995.924147
1218.072404,-10362.883188,-296.082377,1378.971896
1218.072724,-10436.903782,0.000000,1608.800546
1218.073045,-9992.780217,-222.061783,2145.067394
1218.073365,-9252.574275,-666.185348,2145.067394
1218.073686,-9030.512492,-1184.329507,1685.410096
1218.074006,-8586.388927,-2368.659014,1072.533697
1218.074327,-8734.430116,-2368.659014,536.266849
1218.074647,-8956.491898,-1628.453072,153.219100
1218.074968,-9400.615463,-444.123565,-459.657299
1218.075288,-9400.615463,1628.453072,459.657299
1218.075609,-9918.759623,2220.617826,1225.752797
1218.075929,-10066.800811,1480.411884,1225.752797
1218.076250,-9844.739029,666.185348,1455.581446
1218.076570,-10214.842000,296.082377,1149.143247
1218.076891,-10362.883188,-518.144159,2068.457845
1218.077211,-9844.739029,-740.205942,2374.896044
1218.077532,-9474.636058,-1628.453072,1991.848295
1218.077852,-8512.368333,-1998.556043,1608.800546
1218.078173,-9030.512492,-2664.741391,919.314598
1218.078493,-8734.430116,-2368.659014,76.609550
1218.078814,-9030.512492,-740.205942,0.000000
1218.079134,-8660.409521,0.000000,-383.047749
1218.079455,-9622.677246,1480.411884,536.266849
1218.079776,-10214.842000,1406.391290,919.314598
1218.080096,-10510.924376,666.185348,536.266849
1218.080417,-10658.965565,-370.102971,1072.533697
1218.080737,-10288.862594,0.000000,689.485948
1218.081058,-10288.862594,0.000000,1072.533697
1218.081378,-10510.924376,148.041188,1838.629195
1218.081699,-9844.739029,-222.061783,1762.019645
1218.082019,-8956.491898,-1480.411884,1149.143247
1218.082340,-9474.636058,-2442.679609,306.438199
1218.082660,-8808.450710,-2368.659014,0.000000
1218.082981,-9474.636058,-1554.432478,0.000000
1218.083301,-9474.636058,74.020594,995.924147
1218.083622,-9030.512492,1406.391290,153.219100
1218.083942,-9474.636058,1998.556043,842.705048
1218.084263,-9918.759623,1776.494261,1225.752797
1218.084583,-10510.924376,444.123565,1532.190996
1218.084904,-10584.944971,-222.061783,2374.896044
1218.085224,-9770.718434,-962.267725,1915.238745
1218.085545,-9622.677246,-1480.411884,2451.505594
1218.085865,-9474.636058,-1702.473667,2911.162892
1218.086186,-8808.450710,-2368.659014,3294.210641
1218.086506,-8512.368333,-3034.844362,1608.800546
1218.086827,-8290.306550,-2590.720797,229.828649
1218.087147,-8808.450710,-1554.432478,0.000000
1218.087468,-9178.553681,296.082377,153.219100
1218.087788,-9770.718434,2072.576638,919.314598
1218.088109,-9844.739029,1998.556043,1149.143247
1218.088429,-9992.780217,666.185348,1149.143247
1218.088750,-10214.842000,-444.123565,2528.115143
1218.089070,-10658.965565,-814.226536,1149.143247
1218.089391,-9992.780217,0.000000,1378.971896
1218.089711,-10362.883188,-518.144159,1991.848295
1218.090032,-9400.615463,-222.061783,1838.629195
1218.090352,-9326.594869,-740.205942,1685.410096
1218.090673,-9252.574275,-2146.597232,689.485948
1218.090993,-9178.553681,-1702.473667,76.609550
1218.091314,-9178.553681,-962.267725,0.000000
1218.091634,-8956.491898,518.144159,689.485948
1218.091955,-9400.615463,2220.617826,459.657299
1218.092275,-10140.821405,2442.679609,1149.143247
1218.092596,-9992.780217,2368.659014,919.314598
1218.092916,-10881.027347,2220.617826,0.000000
1218.093237,-10288.862594,74.020594,1149.143247
1218.093557,-10362.883188,0.000000,1685.410096
1218.093878,-10214.842000,-592.164754,2068.457845
1218.094198,-9474.636058,-962.267725,1991.848295
1218.094519,-9178.553681,-2146.597232,1838.629195
1218.094839,-8882.471304,-3330.926739,1072.533697
1218.095160,-9030.512492,-2590.720797,229.828649
1218.095480,-9326.594869,-1258.350101,153.219100
1218.095801,-8512.368333,296.082377,153.219100
1218.096122,-9474.636058,1776.494261,536.266849
1218.096442,-9474.636058,2146.597232,1302.362347
1218.096763,-10510.924376,444.123565,536.266849
1218.097083,-9918.759623,-296.082377,2145.067394
1218.097404,-10288.862594,-1258.350101,536.266849
1218.097724,-10436.903782,-370.102971,995.924147
1218.098045,-9844.739029,74.020594,1838.629195
1218.098365,-9918.759623,296.082377,2604.724693
1218.098686,-9400.615463,-222.061783,1991.848295
1218.099006,-9252.574275,-1850.514855,919.314598
1218.099327,-8956.491898,-2146.597232,459.657299
1218.099647,-8882.471304,-1258.350101,-459.657299
1218.099968,-9770.718434,1036.288319,-766.095498
1218.100288,-9326.594869,1924.535449,766.095498
1218.100609,-9252.574275,2442.679609,1072.533697
1218.100929,-10066.800811,1332.370696,995.924147
1218.101250,-9548.656652,518.144159,1991.848295
1218.101570,-10214.842000,-518.144159,1455.581446
1218.101891,-10140.821405,-1110.308913,2145.067394
1218.102211,-9548.656652,-962.267725,2757.943793
1218.102532,-9474.636058,-1850.514855,2604.724693
1218.102852,-8512.368333,-2812.782580,2757.943793
1218.103173,-8956.491898,-3108.864956,2068.457845
1218.103493,-8956.491898,-2516.700203,1378.971896
1218.103814,-9326.594869,-1924.535449,1149.143247
1218.104134,-9400.615463,-148.041188,919.314598
1218.104455,-9400.615463,962.267725,1455.581446
1218.104775,-9548.656652,1406.391290,1608.800546
1218.105096,-9992.780217,666.185348,1302.362347
1218.105416,-9992.780217,-518.144159,612.876398
1218.105737,-10214.842000,-296.082377,459.657299
1218.106057,-9918.759623,0.000000,842.705048
1218.106378,-9918.759623,370.102971,1532.190996
1218.106698,-9622.677246,-222.061783,1762.019645
1218.107019,-8364.327145,-1702.473667,919.314598
1218.107339,-9178.553681,-2664.741391,229.828649
1218.107660,-9178.553681,-2664.741391,0.000000
1218.107980,-9252.574275,-1998.556043,-536.266849
1218.108301,-9474.636058,74.020594,-536.266849
1218.108621,-9622.677246,1702.473667,0.000000
1218.108942,-9844.739029,2812.782580,536.266849
1218.109262,-10807.006753,1850.514855,842.705048
1218.109583,-10732.986159,1628.453072,153.219100
1218.109903,-11103.089130,-296.082377,1149.143247
1218.110224,-10658.965565,-1258.350101,995.924147
1218.110544,-9622.677246,-888.247130,1378.971896
1218.110865,-9992.780217,-1554.432478,1838.629195
1218.111185,-9252.574275,-1554.432478,1378.971896
1218.111506,-9252.574275,-2368.659014,842.705048
1218.111826,-9030.512492,-2072.576638,-306.438199
1218.112147,-9178.553681,-222.061783,-229.828649
1218.112468,-10510.924376,1628.453072,-383.047749
1218.112788,-9474.636058,1776.494261,1225.752797
1218.113109,-9474.636058,1480.411884,689.485948
1218.113429,-9770.718434,0.000000,766.095498
1218.113750,-9770.718434,-74.020594,1991.848295
1218.114070,-10362.883188,-444.123565,919.314598
1218.114391,-10140.821405,0.000000,1685.410096
1218.114711,-9918.759623,370.102971,2221.676944
1218.115032,-9474.636058,74.020594,2528.115143
1218.115352,-9326.594869,-1036.288319,1762.019645
1218.115673,-9252.574275,-2590.720797,1608.800546
1218.115993,-8512.368333,-3330.926739,306.438199
1218.116314,-8734.430116,-2294.638420,76.609550
1218.116634,-8956.491898,962.267725,0.000000
1218.116955,-9030.512492,1998.556043,612.876398
1218.117275,-9696.697840,2664.741391,1455.581446
1218.117596,-9770.718434,1850.514855,1455.581446
1218.117916,-10066.800811,1184.329507,1302.362347
1218.118237,-10510.924376,148.041188,2145.067394
1218.118557,-10658.965565,-666.185348,3064.381992
1218.118878,-10066.800811,-1850.514855,2757.943793
1218.119198,-9474.636058,-2294.638420,2681.334243
1218.119519,-9030.512492,-2664.741391,1838.629195
1218.119839,-8808.450710,-2664.741391,1225.752797
1218.120160,-8734.430116,-1776.494261,383.047749
1218.120480,-8956.491898,296.082377,306.438199
1218.120801,-9474.636058,2368.659014,842.705048
1218.121121,-9844.739029,2368.659014,1072.533697
1218.121442,-10066.800811,1998.556043,1149.143247
1218.121762,-10436.903782,370.102971,1225.752797
1218.122083,-10140.821405,370.102971,1378.971896
1218.122403,-10436.903782,-444.123565,842.705048
1218.122724,-10214.842000,0.000000,1762.019645
1218.123044,-10214.842000,0.000000,2068.457845
1218.123365,-9252.574275,-444.123565,1762.019645
1218.123685,-9326.594869,-1702.473667,1378.971896
1218.124006,-8956.491898,-2516.700203,76.609550
1218.124326,-9326.594869,-2516.700203,0.000000
1218.124647,-9104.533087,-1628.453072,0.000000
1218.124967,-9474.636058,370.102971,612.876398
1218.125288,-9548.656652,1036.288319,689.485948
1218.125608,-9918.759623,1332.370696,766.095498
1218.125929,-9992.780217,962.267725,612.876398
1218.126249,-10214.842000,0.000000,766.095498
1218.126570,-10436.903782,-148.041188,1072.533697
1218.126890,-10066.800811,-444.123565,1685.410096
1218.127211,-9474.636058,-962.267725,1915.238745
1218.127531,-9252.574275,-1702.473667,1762.019645
1218.127852,-8956.491898,-2960.823768,1455.581446
1218.128172,-8882.471304,-3478.967927,612.876398
1218.128493,-8882.471304,-2516.700203,76.609550
1218.128814,-9104.533087,-370.102971,153.219100
1218.129134,-9992.780217,2294.638420,306.438199
1218.129455,-9622.677246,2294.638420,1608.800546
1218.129775,-10214.842000,1628.453072,1455.581446
1218.130096,-10140.821405,-148.041188,1685.410096
1218.130416,-10584.944971,0.000000,0.000000
1218.130737,-10584.944971,-592.164754,1149.143247
1218.131057,-10214.842000,296.082377,1685.410096
1218.131378,-9844.739029,592.164754,2068.457845
1218.131698,-9030.512492,222.061783,2145.067394
1218.132019,-8734.430116,-888.247130,1838.629195
1218.132339,-9104.533087,-2146.597232,612.876398
1218.132660,-9178.553681,-2590.720797,0.000000
1218.132980,-8882.471304,-1036.288319,-383.047749
1218.133301,-8586.388927,370.102971,0.000000
1218.133621,-9252.574275,2072.576638,766.095498
1218.133942,-9918.759623,2220.617826,1762.019645
1218.134262,-10140.821405,296.082377,1608.800546
1218.134583,-10066.800811,740.205942,-536.266849
1218.134903,-10658.965565,-962.267725,1762.019645
1218.135224,-10436.903782,-1110.308913,2374.896044
1218.135544,-9474.636058,-1184.329507,2451.505594
1218.135865,-9252.574275,-1850.514855,2068.457845
1218.136185,-8216.285956,-1924.535449,1149.143247
1218.136506,-8956.491898,-2442.679609,76.609550
1218.136826,-9104.533087,-1480.411884,-229.828649
1218.137147,-9326.594869,0.000000,-306.438199
1218.137467,-9548.656652,1332.370696,1225.752797
1218.137788,-9696.697840,2146.597232,842.705048
1218.138108,-9622.677246,1924.535449,1225.752797
1218.138429,-10436.903782,444.123565,995.924147
1218.138749,-9844.739029,0.000000,-306.438199
1218.139070,-10066.800811,-222.061783,306.438199
1218.139390,-9992.780217,0.000000,995.924147
1218.139711,-9548.656652,148.041188,1915.238745
1218.140031,-9252.574275,-444.123565,1915.238745
1218.140352,-9030.512492,-1924.535449,1225.752797
1218.140672,-8882.471304,-2590.720797,689.485948
1218.140993,-9178.553681,-2664.741391,0.000000
1218.141313,-9474.636058,-888.247130,76.609550
1218.141634,-8734.430116,888.247130,0.000000
1218.141954,-9696.697840,2220.617826,995.924147
1218.142275,-9844.739029,2368.659014,1072.533697
1218.142595,-9918.759623,1184.329507,1149.143247
1218.142916,-10362.883188,148.041188,1072.533697
1218.143236,-10288.862594,-592.164754,1915.238745
1218.143557,-9992.780217,-1036.288319,2221.676944
1218.143877,-9918.759623,-1332.370696,2451.505594
1218.144198,-9252.574275,-1924.535449,2451.505594
1218.144518,-8586.388927,-2368.659014,1762.019645
1218.144839,-9326.594869,-2442.679609,842.705048
1218.145160,-9030.512492,-1480.411884,536.266849
1218.145480,-9474.636058,444.123565,689.485948
1218.145801,-9548.656652,1776.494261,2298.286494
1218.146121,-9474.636058,2220.617826,1072.533697
1218.146442,-9696.697840,1702.473667,1072.533697
1218.146762,-10066.800811,0.000000,766.095498
1218.147083,-9992.780217,-1110.308913,0.000000
1218.147403,-10288.862594,-1036.288319,1149.143247
1218.147724,-9844.739029,-666.185348,1915.238745
1218.148044,-9548.656652,-592.164754,2374.896044
1218.148365,-9474.636058,-1628.453072,1991.848295
1218.148685,-8438.347739,-2590.720797,2298.286494
1218.149006,-8882.471304,-3997.112087,689.485948
1218.149326,-8216.285956,-3182.885551,0.000000
1218.149647,-9326.594869,-1776.494261,0.000000
1218.149967,-8512.368333,-592.164754,76.609550
1218.150288,-9474.636058,1554.432478,459.657299
1218.150608,-9622.677246,2146.597232,1149.143247
1218.150929,-10362.883188,1776.494261,919.314598
1218.151249,-10732.986159,740.205942,1532.190996
1218.151570,-10955.047942,0.000000,2068.457845
1218.151890,-10140.821405,-148.041188,2068.457845
1218.152211,-9622.677246,-1184.329507,2068.457845
1218.152531,-9326.594869,-1998.556043,1762.019645
1218.152852,-8956.491898,-2738.761985,689.485948
1218.153172,-9030.512492,-2664.741391,-153.219100
1218.153493,-8586.388927,-1628.453072,-766.095498
1218.153814,-9400.615463,370.102971,-612.876398
1218.154134,-9474.636058,2368.659014,2604.724693
1218.154455,-9918.759623,2812.782580,842.705048
1218.154776,-10288.862594,1850.514855,306.438199
1218.155096,-10658.965565,370.102971,229.828649
1218.155417,-10510.924376,-518.144159,842.705048
1218.155738,-10732.986159,-666.185348,612.876398
1218.156058,-10436.903782,222.061783,1685.410096
1218.156379,-9844.739029,148.041188,1838.629195
1218.156700,-9252.574275,-740.205942,1915.238745
1218.157020,-8956.491898,-2368.659014,1532.190996
1218.157341,-8882.471304,-3034.844362,76.609550
1218.157662,-8808.450710,-2590.720797,-153.219100
1218.157983,-8956.491898,-1036.288319,0.000000
1218.158303,-9030.512492,1258.350101,-306.438199
1218.158624,-9400.615463,1332.370696,919.314598
1218.158945,-9252.574275,1702.473667,1838.629195
1218.159265,-10436.903782,740.205942,1532.190996
1218.159586,-10288.862594,74.020594,2451.505594
1218.159907,-10584.944971,-1110.308913,2298.286494
1218.160227,-9992.780217,-740.205942,2528.115143
1218.160548,-9474.636058,-1258.350101,2374.896044
1218.160869,-9178.553681,-1036.288319,2528.115143
1218.161189,-8216.285956,-2072.576638,1685.410096
1218.161510,-8734.430116,-1998.556043,459.657299
1218.161831,-9178.553681,-1184.329507,306.438199
1218.162151,-9104.533087,296.082377,229.828649
1218.162472,-9770.718434,1702.473667,2068.457845
1218.162793,-9844.739029,1628.453072,1225.752797
1218.163113,-9770.718434,1702.473667,1378.971896
1218.163434,-10510.924376,296.082377,995.924147
1218.163755,-10140.821405,-370.102971,995.924147
1218.164075,-10214.842000,-370.102971,1302.362347
1218.164396,-10214.842000,0.000000,2145.067394
1218.164717,-9770.718434,0.000000,2298.286494
1218.165037,-9474.636058,-888.247130,1991.848295
1218.165358,-9178.553681,-2146.597232,1455.581446
1218.165679,-9178.553681,-2590.720797,153.219100
1218.165999,-9326.594869,-2146.597232,383.047749
1218.166320,-9326.594869,-592.164754,0.000000
1218.166641,-9030.512492,1184.329507,536.266849
1218.166961,-9696.697840,1850.514855,995.924147
1218.167282,-10066.800811,1702.473667,1455.581446
1218.167603,-10436.903782,888.247130,1302.362347
1218.167923,-10214.842000,-370.102971,1225.752797
1218.168244,-9770.718434,-1258.350101,1532.190996
1218.168565,-9770.718434,-1332.370696,1762.019645
1218.168885,-9400.615463,-1702.473667,1915.238745
1218.169206,-8882.471304,-2072.576638,1838.629195
1218.169527,-8660.409521,-2516.700203,919.314598
1218.169847,-8882.471304,-2738.761985,306.438199
1218.170168,-8956.491898,-1776.494261,-76.609550
1218.170489,-9178.553681,-148.041188,-383.047749
1218.170809,-9252.574275,1332.370696,459.657299
1218.171130,-9178.553681,1776.494261,153.219100
1218.171451,-9548.656652,1258.350101,306.438199
1218.171771,-9992.780217,296.082377,229.828649
1218.172092,-10214.842000,-518.144159,306.438199
1218.172413,-10362.883188,-592.164754,842.705048
1218.172733,-10362.883188,0.000000,1838.629195
1218.173054,-9992.780217,0.000000,2145.067394
1218.173375,-9474.636058,-592.164754,2221.676944
1218.173695,-8586.388927,-2368.659014,1225.752797
1218.174016,-9104.533087,-2738.761985,995.924147
1218.174337,-9326.594869,-2442.679609,76.609550
1218.174657,-9400.615463,-740.205942,612.876398
1218.174978,-9844.739029,1702.473667,689.485948
1218.175299,-9548.656652,1998.556043,1685.410096
1218.175620,-9992.780217,1850.514855,1915.238745
1218.175940,-10288.862594,962.267725,1838.629195
1218.176261,-10881.027347,296.082377,1991.848295
1218.176582,-10288.862594,0.000000,1991.848295
1218.176902,-10214.842000,-518.144159,2757.943793
1218.177223,-9474.636058,-518.144159,2298.286494
1218.177544,-9400.615463,-1258.350101,2298.286494
1218.177864,-9030.512492,-2368.659014,1608.800546
1218.178185,-8882.471304,-2590.720797,612.876398
1218.178506,-9178.553681,-1702.473667,0.000000
1218.178826,-9548.656652,296.082377,383.047749
1218.179147,-10288.862594,2442.679609,995.924147
1218.179468,-9770.718434,2516.700203,1225.752797
1218.179788,-10066.800811,1924.535449,1225.752797
1218.180109,-10288.862594,592.164754,689.485948
1218.180430,-10362.883188,0.000000,689.485948
1218.180750,-9992.780217,-296.082377,459.657299
1218.181071,-9474.636058,0.000000,919.314598
1218.181392,-9178.553681,-296.082377,1378.971896
1218.181712,-8956.491898,-962.267725,1762.019645
1218.182033,-8364.327145,-2294.638420,842.705048
1218.182354,-8882.471304,-2442.679609,76.609550
1218.182674,-9030.512492,-1628.453072,0.000000
1218.182995,-9326.594869,0.000000,153.219100
1218.183316,-9770.718434,3182.885551,2221.676944
1218.183636,-9770.718434,2442.679609,1225.752797
1218.183957,-9696.697840,2294.638420,919.314598
1218.184278,-10066.800811,1110.308913,995.924147
1218.184598,-10214.842000,370.102971,1302.362347
1218.184919,-10584.944971,-296.082377,2221.676944
1218.185240,-9992.780217,-666.185348,2374.896044
1218.185560,-9326.594869,-1702.473667,2068.457845
1218.185881,-8734.430116,-2294.638420,1608.800546
1218.186202,-8586.388927,-3552.988522,919.314598
1218.186522,-8808.450710,-2812.782580,689.485948
1218.186843,-9030.512492,-1332.370696,689.485948
1218.187164,-9622.677246,0.000000,689.485948
1218.187484,-9548.656652,2294.638420,1608.800546
1218.187805,-10140.821405,1702.473667,1225.752797
1218.188126,-9918.759623,1258.350101,1532.190996
1218.188446,-10510.924376,148.041188,1378.971896
1218.188767,-10214.842000,-518.144159,1378.971896
1218.189088,-10214.842000,-592.164754,1225.752797
1218.189408,-9992.780217,-370.102971,1532.190996
1218.189729,-9622.677246,-518.144159,1991.848295
1218.190050,-9030.512492,-666.185348,1915.238745
1218.190370,-9770.718434,-1628.453072,919.314598
1218.190691,-8882.471304,-2664.741391,383.047749
1218.191012,-9252.574275,-2220.617826,-383.047749
1218.191332,-9474.636058,-444.123565,0.000000
1218.191653,-9992.780217,888.247130,0.000000
1218.191974,-9474.636058,1998.556043,1532.190996
1218.192294,-10584.944971,1258.350101,1532.190996
1218.192615,-9622.677246,518.144159,766.095498
1218.192936,-10955.047942,222.061783,1915.238745
1218.193256,-10288.862594,-370.102971,1838.629195
1218.193577,-9696.697840,-740.205942,1991.848295
1218.193898,-9622.677246,-1480.411884,1762.019645
1218.194219,-8290.306550,-2368.659014,1072.533697
1218.194539,-7846.182985,-3182.885551,306.438199
1218.194860,-8956.491898,-2590.720797,0.000000
1218.195181,-8734.430116,-1332.370696,-306.438199
1218.195501,-9770.718434,518.144159,76.609550
1218.195822,-9992.780217,1776.494261,536.266849
1218.196143,-10140.821405,1998.556043,1455.581446
1218.196463,-10214.842000,1036.288319,1302.362347
1218.196784,-10362.883188,-370.102971,842.705048
1218.197105,-10140.821405,-222.061783,919.314598
1218.197425,-10362.883188,-444.123565,1455.581446
1218.197746,-9622.677246,-148.041188,1608.800546
1218.198067,-9474.636058,-444.123565,1455.581446
1218.198387,-9252.574275,-1332.370696,1608.800546
1218.198708,-9474.636058,-1924.535449,0.000000
1218.199029,-9030.512492,-1924.535449,0.000000
1218.199349,-9104.533087,-1776.494261,-306.438199
1218.199670,-8956.491898,0.000000,153.219100
1218.199991,-9844.739029,222.061783,1915.238745
1218.200311,-9400.615463,2146.597232,689.485948
1218.200632,-10214.842000,2072.576638,919.314598
1218.200953,-9992.780217,1036.288319,842.705048
1218.201273,-10436.903782,518.144159,1302.362347
1218.201594,-10732.986159,-222.061783,2068.457845
1218.201915,-10140.821405,-962.267725,2374.896044
1218.202235,-9622.677246,-1850.514855,2528.115143
1218.202556,-9178.553681,-2442.679609,2145.067394
1218.202877,-8882.471304,-2442.679609,1608.800546
1218.203197,-9326.594869,-2516.700203,689.485948
1218.203518,-9030.512492,-888.247130,229.828649
1218.203839,-9474.636058,518.144159,383.047749
1218.204159,-9770.718434,1776.494261,1838.629195
1218.204480,-9918.759623,1628.453072,1302.362347
1218.204801,-10214.842000,1110.308913,919.314598
1218.205121,-10140.821405,148.041188,536.266849
1218.205442,-10436.903782,74.020594,1072.533697
1218.205763,-10436.903782,518.144159,1072.533697
1218.206083,-10066.800811,222.061783,1915.238745
1218.206404,-9474.636058,222.061783,2068.457845
1218.206725,-9178.553681,-1184.329507,1378.971896
1218.207045,-9400.615463,-2072.576638,1685.410096
1218.207366,-8586.388927,-2146.597232,153.219100
1218.207687,-8956.491898,-1258.350101,306.438199
1218.208007,-9104.533087,518.144159,536.266849
1218.208328,-9696.697840,1628.453072,612.876398
1218.208649,-9474.636058,1406.391290,1225.752797
1218.208969,-9844.739029,962.267725,1532.190996
1218.209290,-10140.821405,-222.061783,1608.800546
1218.209611,-10140.821405,-814.226536,1608.800546
1218.209931,-9918.759623,-740.205942,1762.019645
1218.210252,-9548.656652,-814.226536,2068.457845
1218.210573,-9474.636058,-1184.329507,2374.896044
1218.210893,-9252.574275,-2072.576638,1991.848295
1218.211214,-8068.244768,-3552.988522,383.047749
1218.211535,-8882.471304,-2590.720797,153.219100
1218.211856,-9400.615463,-1406.391290,306.438199
1218.212176,-9474.636058,0.000000,842.705048
1218.212497,-9622.677246,740.205942,2451.505594
1218.212818,-9400.615463,740.205942,1149.143247
1218.213138,-9992.780217,-222.061783,766.095498
1218.213459,-9918.759623,-1110.308913,536.266849
1218.213780,-10140.821405,-1036.288319,612.876398
1218.214100,-10066.800811,-444.123565,689.485948
1218.214421,-9844.739029,0.000000,1455.581446
1218.214742,-9622.677246,0.000000,2145.067394
1218.215062,-9252.574275,-1036.288319,1838.629195
1218.215383,-9622.677246,-2294.638420,459.657299
1218.215704,-9474.636058,-2368.659014,536.266849
1218.216024,-9474.636058,-1406.391290,-229.828649
1218.216345,-9474.636058,222.061783,459.657299
1218.216666,-9474.636058,1776.494261,229.828649
1218.216986,-9474.636058,2590.720797,459.657299
1218.217307,-10066.800811,2368.659014,766.095498
1218.217628,-10214.842000,1406.391290,995.924147
1218.217948,-10362.883188,222.061783,1532.190996
1218.218269,-10881.027347,-444.123565,1532.190996
1218.218590,-10140.821405,-1258.350101,2068.457845
1218.218910,-9474.636058,-1702.473667,2374.896044
1218.219231,-9326.594869,-2368.659014,2374.896044
1218.219552,-8660.409521,-3330.926739,766.095498
1218.219872,-9252.574275,-2368.659014,536.266849
1218.220193,-9252.574275,-740.205942,0.000000
1218.220514,-9178.553681,1110.308913,459.657299
1218.220834,-9622.677246,1776.494261,1149.143247
1218.221155,-9622.677246,1332.370696,842.705048
1218.221476,-10214.842000,518.144159,689.485948
1218.221796,-10288.862594,0.000000,536.266849
1218.222117,-10362.883188,74.020594,1072.533697
1218.222438,-10436.903782,444.123565,1378.971896
1218.222758,-9918.759623,370.102971,1838.629195
1218.223079,-9178.553681,0.000000,1685.410096
1218.223400,-9030.512492,-1110.308913,1149.143247
1218.223720,-9474.636058,-1998.556043,1072.533697
1218.224041,-8882.471304,-1924.535449,306.438199
1218.224362,-9104.533087,-888.247130,0.000000
1218.224682,-9474.636058,592.164754,306.438199
1218.225003,-9326.594869,1850.514855,1378.971896
1218.225324,-9474.636058,2294.638420,1991.848295
1218.225644,-10214.842000,962.267725,2221.676944
1218.225965,-10140.821405,888.247130,1838.629195
1218.226286,-10288.862594,-518.144159,1915.238745
1218.226606,-9992.780217,-148.041188,1991.848295
1218.226927,-9474.636058,-296.082377,2374.896044
1218.227248,-9474.636058,-1036.288319,2604.724693
1218.227568,-8660.409521,-1924.535449,2221.676944
1218.227889,-8734.430116,-3256.906145,1991.848295
1218.228210,-8956.491898,-2738.761985,689.485948
1218.228530,-9178.553681,-1850.514855,383.047749
1218.228851,-9400.615463,666.185348,612.876398
1218.229172,-9622.677246,1776.494261,1378.971896
1218.229493,-9622.677246,1998.556043,919.314598
1218.229813,-9844.739029,518.144159,842.705048
1218.230134,-10066.800811,-740.205942,612.876398
1218.230455,-10362.883188,-1332.370696,459.657299
1218.230775,-10066.800811,-1258.350101,1378.971896
1218.231096,-9918.759623,-1110.308913,1532.190996
1218.231417,-9326.594869,-814.226536,1532.190996
1218.231737,-9400.615463,-1480.411884,1762.019645
1218.232058,-9252.574275,-2516.700203,76.609550
1218.232379,-9030.512492,-2294.638420,0.000000
1218.232699,-9474.636058,-1850.514855,-536.266849
1218.233020,-9400.615463,740.205942,-459.657299
1218.233341,-9844.739029,2294.638420,76.609550
1218.233661,-9918.759623,2960.823768,842.705048
1218.233982,-10288.862594,1628.453072,1072.533697
1218.234303,-10362.883188,444.123565,919.314598
1218.234623,-10658.965565,-592.164754,1225.752797
1218.234944,-10436.903782,-814.226536,1685.410096
1218.235265,-10214.842000,-1258.350101,2145.067394
1218.235585,-9400.615463,-1776.494261,2068.457845
1218.235906,-9030.512492,-2664.741391,1149.143247
1218.236227,-8142.265362,-1480.411884,1378.971896
1218.236547,-9696.697840,-2294.638420,0.000000
1218.236868,-8364.327145,-518.144159,612.876398
1218.237189,-9992.780217,370.102971,459.657299
1218.237509,-10140.821405,1628.453072,2834.553343
1218.237830,-9770.718434,1184.329507,459.657299
1218.238151,-10362.883188,592.164754,1225.752797
1218.238471,-10288.862594,0.000000,995.924147
1218.238792,-9696.697840,-296.082377,842.705048
1218.239113,-10510.924376,592.164754,1225.752797
1218.239433,-9400.615463,222.061783,1532.190996
1218.239754,-9030.512492,-962.267725,1532.190996
1218.240075,-9178.553681,-1628.453072,1455.581446
1218.240395,-8660.409521,-2368.659014,2834.553343
1218.240716,-8586.388927,-2442.679609,0.000000
1218.241037,-9178.553681,-1036.288319,76.609550
1218.241357,-9326.594869,740.205942,536.266849
1218.241678,-9622.677246,1850.514855,2068.457845
1218.241999,-10066.800811,2072.576638,1532.190996
1218.242319,-9918.759623,1332.370696,1149.143247
1218.242640,-10362.883188,370.102971,1685.410096
1218.242961,-10288.862594,-296.082377,2068.457845
1218.243281,-9770.718434,-740.205942,2374.896044
1218.243602,-9252.574275,-814.226536,2451.505594
1218.243923,-9178.553681,-1258.350101,2451.505594
1218.244243,-8364.327145,-2146.597232,1915.238745
1218.244564,-9104.533087,-2442.679609,1991.848295
1218.244885,-8882.471304,-1702.473667,689.485948
1218.245205,-9252.574275,-296.082377,229.828649
1218.245526,-9474.636058,1110.308913,689.485948
1218.245847,-9696.697840,2072.576638,2604.724693
1218.246167,-10288.862594,1628.453072,1302.362347
1218.246488,-10214.842000,592.164754,919.314598
1218.246809,-10584.944971,0.000000,459.657299
1218.247129,-10584.944971,-666.185348,612.876398
1218.247450,-10140.821405,0.000000,1225.752797
1218.247771,-9918.759623,148.041188,1685.410096
1218.248092,-9548.656652,222.061783,1532.190996
1218.248412,-9178.553681,-888.247130,1225.752797
1218.248733,-8364.327145,-1628.453072,612.876398
1218.249054,-9252.574275,-2442.679609,0.000000
1218.249374,-9400.615463,-1554.432478,0.000000
1218.249695,-9178.553681,0.000000,153.219100
1218.250016,-9252.574275,1702.473667,2298.286494
1218.250336,-9474.636058,1554.432478,919.314598
1218.250657,-9844.739029,814.226536,1072.533697
1218.250978,-9992.780217,0.000000,1455.581446
1218.251298,-10214.842000,-518.144159,1762.019645
1218.251619,-10140.821405,-814.226536,2451.505594
1218.251940,-9400.615463,-1702.473667,2298.286494
1218.252260,-9030.512492,-2294.638420,2451.505594
1218.252581,-8956.491898,-2738.761985,2298.286494
1218.252902,-9474.636058,-3108.864956,1378.971896
1218.253222,-8882.471304,-3034.844362,383.047749
1218.253543,-9178.553681,-1036.288319,0.000000
1218.253864,-9474.636058,592.164754,842.705048
1218.254184,-9474.636058,1924.535449,2374.896044
1218.254505,-9696.697840,1036.288319,1302.362347
1218.254826,-9844.739029,-148.041188,689.485948
1218.255146,-10214.842000,-666.185348,0.000000
1218.255467,-10362.883188,-518.144159,1225.752797
1218.255788,-10658.965565,0.000000,1685.410096
1218.256108,-10214.842000,0.000000,2451.505594
1218.256429,-9178.553681,-1036.288319,1302.362347
1218.256750,-9030.512492,-1776.494261,919.314598
1218.257070,-8364.327145,-2220.617826,612.876398
1218.257391,-9030.512492,-2442.679609,0.000000
1218.257712,-9400.615463,-1258.350101,-459.657299
1218.258032,-9326.594869,444.123565,0.000000
1218.258353,-9474.636058,2220.617826,459.657299
1218.258674,-10362.883188,2368.659014,1532.190996
1218.258994,-10436.903782,1554.432478,1455.581446
1218.259315,-10955.047942,962.267725,1302.362347
1218.259636,-10807.006753,-148.041188,1532.190996
1218.259956,-9992.780217,-666.185348,1532.190996
1218.260277,-9696.697840,-1258.350101,2374.896044
1218.260597,-9326.594869,-1850.514855,2221.676944
1218.260918,-8660.409521,-2516.700203,1225.752797
1218.261239,-9474.636058,-2442.679609,0.000000
1218.261559,-8882.471304,-1850.514855,0.000000
1218.261880,-9178.553681,0.000000,383.047749
1218.262201,-9326.594869,1184.329507,76.609550
1218.262521,-9400.615463,2368.659014,383.047749
1218.262842,-9622.677246,2442.679609,459.657299
1218.263163,-9992.780217,1480.411884,229.828649
1218.263483,-10140.821405,592.164754,995.924147
1218.263804,-10436.903782,0.000000,1225.752797
1218.264125,-10584.944971,296.082377,1762.019645
1218.264445,-10066.800811,-148.041188,2068.457845
1218.264766,-9474.636058,-518.144159,2374.896044
1218.265087,-9104.533087,-2072.576638,1838.629195
1218.265407,-9252.574275,-1850.514855,919.314598
1218.265728,-8586.388927,-1480.411884,229.828649
1218.266049,-8956.491898,0.000000,-76.609550
1218.266369,-9104.533087,1406.391290,612.876398
1218.266690,-9178.553681,2294.638420,1072.533697
1218.267011,-9696.697840,2368.659014,1378.971896
1218.267331,-10066.800811,1628.453072,1608.800546
1218.267652,-10288.862594,296.082377,1838.629195
1218.267973,-10214.842000,-518.144159,1915.238745
1218.268293,-9474.636058,-1184.329507,2528.115143
1218.268614,-9400.615463,-1702.473667,2221.676944
1218.268935,-9104.533087,-1776.494261,2528.115143
1218.269255,-8808.450710,-2442.679609,1532.190996
1218.269576,-8216.285956,-3034.844362,-383.047749
1218.269897,-8808.450710,-1406.391290,76.609550
1218.270217,-9474.636058,222.061783,0.000000
1218.270538,-9844.739029,1850.514855,1072.533697
1218.270859,-9622.677246,2072.576638,1302.362347
1218.271179,-9844.739029,1036.288319,995.924147
1218.271500,-10584.944971,0.000000,1225.752797
1218.271821,-10732.986159,-962.267725,995.924147
1218.272141,-10436.903782,-740.205942,612.876398
1218.272462,-10362.883188,-814.226536,1378.971896
1218.272783,-9770.718434,222.061783,1532.190996
1218.273103,-9252.574275,-370.102971,1532.190996
1218.273424,-9178.553681,-1628.453072,842.705048
1218.273745,-9178.553681,-2812.782580,689.485948
1218.274065,-9252.574275,-2960.823768,-153.219100
1218.274386,-9622.677246,-1480.411884,-153.219100
1218.274707,-9770.718434,74.020594,306.438199
1218.275027,-9770.718434,1702.473667,689.485948
1218.275348,-9992.780217,2220.617826,1225.752797
1218.275669,-9696.697840,1480.411884,1072.533697
1218.275989,-10584.944971,0.000000,612.876398
1218.276310,-9696.697840,-296.082377,1149.143247
1218.276631,-9622.677246,-518.144159,1225.752797
1218.276951,-9474.636058,-1110.308913,2145.067394
1218.277272,-9178.553681,-1924.535449,2374.896044
1218.277593,-8734.430116,-2960.823768,1149.143247
1218.277913,-7994.224174,-3478.967927,919.314598
1218.278234,-9104.533087,-2146.597232,459.657299
1218.278555,-9474.636058,-370.102971,536.266849
1218.278875,-9770.718434,962.267725,689.485948
1218.279196,-9400.615463,1628.453072,612.876398
1218.279517,-9548.656652,1406.391290,1455.581446
1218.279837,-10066.800811,0.000000,842.705048
1218.280158,-9992.780217,-518.144159,1072.533697
1218.280479,-9992.780217,-888.247130,1149.143247
1218.280799,-10140.821405,0.000000,1455.581446
1218.281120,-9474.636058,0.000000,1762.019645
1218.281441,-9104.533087,-592.164754,1838.629195
1218.281761,-8808.450710,-1110.308913,1762.019645
1218.282082,-9548.656652,-1924.535449,2145.067394
1218.282403,-8660.409521,-1850.514855,306.438199
1218.282723,-9474.636058,-1110.308913,0.000000
1218.283044,-9474.636058,1332.370696,919.314598
1218.283365,-9622.677246,2294.638420,1149.143247
1218.283685,-10140.821405,2294.638420,1838.629195
1218.284006,-9844.739029,1406.391290,1072.533697
1218.284327,-10362.883188,222.061783,1225.752797
1218.284647,-10732.986159,-148.041188,2145.067394
1218.284968,-9918.759623,-814.226536,1991.848295
1218.285289,-9622.677246,-962.267725,2221.676944
1218.285609,-9252.574275,-1554.432478,1915.238745
1218.285930,-8586.388927,-2590.720797,919.314598
1218.286251,-9030.512492,-2886.803174,383.047749
1218.286571,-9400.615463,-1406.391290,229.828649
1218.286892,-9548.656652,370.102971,1072.533697
1218.287212,-9770.718434,1776.494261,1302.362347
1218.287533,-9918.759623,2220.617826,1532.190996
1218.287854,-10140.821405,1998.556043,1378.971896
1218.288174,-10288.862594,592.164754,1072.533697
1218.288495,-9992.780217,0.000000,1455.581446
1218.288816,-10066.800811,-148.041188,1302.362347
1218.289136,-9992.780217,-370.102971,1915.238745
1218.289457,-10214.842000,-148.041188,612.876398
1218.289778,-8956.491898,-888.247130,2221.676944
1218.290098,-9178.553681,-1850.514855,1302.362347
1218.290419,-9030.512492,-2368.659014,459.657299
1218.290740,-9400.615463,-1998.556043,229.828649
1218.291060,-9030.512492,-1036.288319,-383.047749
1218.291381,-9030.512492,592.164754,-153.219100
1218.291702,-9474.636058,2146.597232,76.609550
1218.292022,-9844.739029,2072.576638,612.876398
1218.292343,-9844.739029,1184.329507,1072.533697
1218.292664,-10436.903782,0.000000,995.924147
1218.292984,-10436.903782,-1036.288319,1608.800546
1218.293305,-10066.800811,-1554.432478,2068.457845
1218.293626,-9770.718434,-1850.514855,2374.896044
1218.293946,-9474.636058,-1924.535449,2451.505594
1218.294267,-8660.409521,-2960.823768,1302.362347
1218.294588,-9030.512492,-2886.803174,0.000000
1218.294908,-9104.533087,-1406.391290,-229.828649
1218.295229,-9474.636058,592.164754,76.609550
1218.295550,-9918.759623,1480.411884,995.924147
1218.295870,-9474.636058,1554.432478,919.314598
1218.296191,-9992.780217,444.123565,612.876398
1218.296512,-10436.903782,-592.164754,919.314598
1218.296832,-10140.821405,-666.185348,306.438199
1218.297153,-10362.883188,-740.205942,1608.800546
1218.297474,-9992.780217,0.000000,1915.238745
1218.297794,-9400.615463,0.000000,1532.190996
1218.298115,-9104.533087,-592.164754,1608.800546
1218.298436,-8660.409521,-1850.514855,995.924147
1218.298756,-9030.512492,-2368.659014,459.657299
1218.299077,-9104.533087,-2220.617826,0.000000
1218.299398,-9326.594869,-518.144159,-536.266849
1218.299718,-9770.718434,1702.473667,0.000000
1218.300039,-9770.718434,2368.659014,1149.143247
1218.300360,-10140.821405,2516.700203,1455.581446
1218.300680,-10510.924376,1110.308913,1685.410096
1218.301001,-9548.656652,888.247130,1455.581446
1218.301322,-10214.842000,-370.102971,1685.410096
1218.301642,-9770.718434,-444.123565,1915.238745
1218.301963,-9400.615463,-666.185348,2145.067394
1218.302284,-8882.471304,-1702.473667,1608.800546
1218.302604,-8734.430116,-3034.844362,1149.143247
1218.302925,-8882.471304,-3034.844362,689.485948
1218.303246,-9030.512492,-2442.679609,612.876398
1218.303566,-9548.656652,-370.102971,612.876398
1218.303887,-9992.780217,1480.411884,612.876398
1218.304208,-9548.656652,1776.494261,1378.971896
1218.304528,-9696.697840,1332.370696,1225.752797
1218.304849,-10436.903782,296.082377,1149.143247
1218.305170,-9104.533087,-370.102971,2221.676944
1218.305490,-10362.883188,-444.123565,1685.410096
1218.305811,-9770.718434,-444.123565,1762.019645
1218.306132,-9400.615463,0.000000,1455.581446
1218.306452,-8956.491898,-592.164754,1838.629195
1218.306773,-9326.594869,-1480.411884,1302.362347
1218.307094,-9104.533087,-2220.617826,459.657299
1218.307414,-8882.471304,-1480.411884,-153.219100
1218.307735,-9474.636058,-444.123565,-383.047749
1218.308056,-9326.594869,1480.411884,383.047749
1218.308376,-9622.677246,2146.597232,1149.143247
1218.308697,-9770.718434,1480.411884,1302.362347
1218.309018,-10140.821405,1036.288319,766.095498
1218.309338,-10881.027347,518.144159,1072.533697
1218.309659,-10510.924376,0.000000,1685.410096
1218.309980,-10140.821405,-592.164754,2298.286494
1218.310300,-9474.636058,-1184.329507,2145.067394
1218.310621,-8808.450710,-2220.617826,1608.800546
1218.310942,-8660.409521,-2960.823768,612.876398
1218.311262,-8956.491898,-3034.844362,459.657299
1218.311583,-8882.471304,-1554.432478,0.000000
1218.311904,-9474.636058,296.082377,306.438199
1218.312224,-10214.842000,1850.514855,1149.143247
1218.312545,-10140.821405,1702.473667,1225.752797
1218.312866,-10214.842000,814.226536,1149.143247
1218.313186,-10510.924376,-296.082377,842.705048
1218.313507,-10288.862594,-370.102971,229.828649
1218.313827,-10140.821405,-666.185348,919.314598
1218.314148,-9770.718434,-518.144159,1225.752797
1218.314469,-9252.574275,-740.205942,1302.362347
1218.314789,-8586.388927,-1850.514855,459.657299
1218.315110,-8734.430116,-3256.906145,459.657299
1218.315431,-8586.388927,-3108.864956,229.828649
1218.315751,-9252.574275,-2664.741391,-306.438199
1218.316072,-9252.574275,-370.102971,153.219100
1218.316393,-9400.615463,1332.370696,1762.019645
1218.316713,-10066.800811,2294.638420,1915.238745
1218.317034,-10140.821405,2220.617826,2145.067394
1218.317355,-10362.883188,740.205942,1455.581446
1218.317675,-9770.718434,814.226536,1838.629195
1218.317996,-10658.965565,-296.082377,1685.410096
1218.318317,-9622.677246,-148.041188,1762.019645
1218.318637,-9474.636058,-296.082377,2221.676944
1218.318958,-8882.471304,-1036.288319,1915.238745
1218.319279,-9178.553681,-2220.617826,1685.410096
1218.319599,-9474.636058,-2072.576638,536.266849
1218.319920,-9622.677246,-1036.288319,383.047749
1218.320241,-9696.697840,962.267725,306.438199
1218.320561,-9770.718434,2220.617826,919.314598
1218.320882,-9844.739029,2072.576638,995.924147
1218.321203,-10066.800811,1110.308913,1302.362347
1218.321523,-10214.842000,0.000000,842.705048
1218.321844,-9326.594869,-1110.308913,2145.067394
1218.322165,-9992.780217,-1184.329507,919.314598
1218.322485,-9474.636058,-592.164754,1072.533697
1218.322806,-9252.574275,0.000000,1532.190996
1218.323127,-8586.388927,-592.164754,1455.581446
1218.323447,-9104.533087,-1332.370696,1072.533697
1218.323768,-9474.636058,-2072.576638,919.314598
1218.324089,-9252.574275,-1850.514855,0.000000
1218.324409,-9548.656652,-444.123565,153.219100
1218.324730,-9548.656652,1554.432478,919.314598
1218.325051,-9548.656652,2294.638420,1378.971896
1218.325371,-9992.780217,1258.350101,1225.752797
1218.325692,-9770.718434,814.226536,612.876398
1218.326013,-10066.800811,1258.350101,-153.219100
1218.326333,-10436.903782,222.061783,1685.410096
1218.326654,-10066.800811,-666.185348,2298.286494
1218.326975,-9474.636058,-1998.556043,2298.286494
1218.327295,-8512.368333,-2146.597232,1302.362347
1218.327616,-9104.533087,-2886.803174,306.438199
1218.327937,-8660.409521,-1628.453072,229.828649
1218.328257,-9104.533087,-592.164754,76.609550
1218.328578,-9548.656652,1110.308913,153.219100
1218.328899,-9178.553681,2220.617826,229.828649
1218.329219,-9844.739029,2072.576638,766.095498
1218.329540,-9696.697840,1110.308913,689.485948
1218.329861,-10436.903782,0.000000,229.828649
1218.330181,-10658.965565,-444.123565,459.657299
1218.330502,-9696.697840,0.000000,919.314598
1218.330823,-10140.821405,0.000000,1378.971896
1218.331143,-9622.677246,-148.041188,2298.286494
1218.331464,-9104.533087,-1184.329507,1762.019645
1218.331785,-9178.553681,-2146.597232,1302.362347
1218.332105,-9104.533087,-2738.761985,383.047749
1218.332426,-9178.553681,-2146.597232,229.828649
1218.332747,-9400.615463,-592.164754,612.876398
1218.333067,-9252.574275,962.267725,1532.190996
1218.333388,-10066.800811,1998.556043,2298.286494
1218.333709,-10288.862594,1480.411884,1915.238745
1218.334029,-10658.965565,148.041188,1915.238745
1218.334350,-10881.027347,222.061783,1378.971896
1218.334671,-10510.924376,-666.185348,1838.629195
1218.334991,-9770.718434,-1036.288319,2374.896044
1218.335312,-9252.574275,-1258.350101,1915.238745
1218.335633,-8586.388927,-2220.617826,1762.019645
1218.335953,-8734.430116,-2516.700203,1072.533697
1218.336274,-9178.553681,-2590.720797,536.266849
1218.336595,-9252.574275,-1406.391290,459.657299
1218.336915,-9548.656652,296.082377,919.314598
1218.337236,-9548.656652,1184.329507,1685.410096
1218.337557,-9918.759623,1110.308913,1762.019645
1218.337877,-9770.718434,222.061783,1608.800546
1218.338198,-9918.759623,-222.061783,1072.533697
1218.338519,-10066.800811,-296.082377,383.047749
1218.338839,-9770.718434,-370.102971,1302.362347
1218.339160,-9622.677246,0.000000,1532.190996
1218.339481,-9104.533087,-444.123565,1532.190996
1218.339801,-8882.471304,-1110.308913,1378.971896
1218.340122,-9030.512492,-2664.741391,1225.752797
1218.340442,-8956.491898,-3034.844362,306.438199
1218.340763,-9474.636058,-2368.659014,-229.828649
1218.341084,-9474.636058,-370.102971,383.047749
1218.341404,-9622.677246,592.164754,612.876398
1218.341725,-9622.677246,1480.411884,842.705048
1218.342046,-9918.759623,1480.411884,689.485948
1218.342366,-10214.842000,740.205942,995.924147
1218.342687,-9696.697840,0.000000,2451.505594
1218.343008,-10214.842000,-666.185348,1378.971896
1218.343328,-9548.656652,-1036.288319,1608.800546
1218.343649,-9548.656652,-1258.350101,1762.019645
1218.343970,-9104.533087,-1702.473667,1838.629195
1218.344290,-9178.553681,-2294.638420,842.705048
1218.344611,-8956.491898,-1628.453072,76.609550
1218.344932,-9474.636058,-444.123565,76.609550
1218.345252,-9696.697840,1332.370696,689.485948
1218.345573,-9474.636058,2146.597232,1608.800546
1218.345894,-9770.718434,1998.556043,1149.143247
1218.346214,-9992.780217,666.185348,919.314598
1218.346535,-10066.800811,148.041188,842.705048
1218.346856,-9548.656652,-1258.350101,2221.676944
1218.347176,-10510.924376,444.123565,1838.629195
1218.347497,-10214.842000,962.267725,2298.286494
1218.347818,-9474.636058,444.123565,2145.067394
1218.348138,-9400.615463,-666.185348,1532.190996
1218.348459,-9030.512492,-2220.617826,459.657299
1218.348780,-9030.512492,-2220.617826,0.000000
1218.349100,-9178.553681,-1184.329507,-229.828649
1218.349421,-9474.636058,888.247130,0.000000
1218.349742,-9400.615463,3256.906145,766.095498
1218.350062,-9770.718434,2886.803174,1455.581446
1218.350383,-10140.821405,2368.659014,1685.410096
1218.350704,-10510.924376,1110.308913,1608.800546
1218.351024,-10214.842000,0.000000,2834.553343
1218.351345,-10140.821405,-1258.350101,2145.067394
1218.351666,-9400.615463,-1702.473667,2145.067394
1218.351986,-8882.471304,-2368.659014,2068.457845
1218.352307,-8438.347739,-2590.720797,1532.190996
1218.352628,-8808.450710,-2886.803174,842.705048
1218.352948,-8734.430116,-2368.659014,536.266849
1218.353269,-8956.491898,-1036.288319,229.828649
1218.353590,-9252.574275,370.102971,459.657299
1218.353910,-9548.656652,1924.535449,689.485948
1218.354231,-9918.759623,1702.473667,1225.752797
1218.354552,-9918.759623,370.102971,1225.752797
1218.354872,-10214.842000,-444.123565,612.876398
1218.355193,-10658.965565,-888.247130,612.876398
1218.355514,-10066.800811,222.061783,1455.581446
1218.355834,-9696.697840,148.041188,2068.457845
1218.356155,-9474.636058,-518.144159,1991.848295
1218.356475,-9104.533087,-2368.659014,1532.190996
1218.356796,-9104.533087,-3256.906145,459.657299
1218.357117,-9104.533087,-3849.070898,0.000000
1218.357437,-9104.533087,-2294.638420,-383.047749
1218.357758,-8956.491898,370.102971,229.828649
1218.358079,-9770.718434,2664.741391,229.828649
1218.358399,-9770.718434,3182.885551,1225.752797
1218.358720,-10658.965565,1554.432478,1455.581446
1218.359040,-10584.944971,0.000000,612.876398
1218.359361,-10658.965565,-1110.308913,919.314598
1218.359682,-10362.883188,-1110.308913,1455.581446
1218.360002,-9918.759623,-1184.329507,2068.457845
1218.360323,-9474.636058,-1036.288319,2145.067394
1218.360644,-8808.450710,-1332.370696,1685.410096
1218.360964,-9696.697840,-2516.700203,612.876398
1218.361285,-8660.409521,-1554.432478,76.609550
1218.361605,-9548.656652,-962.267725,229.828649
1218.361926,-9326.594869,740.205942,76.609550
1218.362247,-9474.636058,1332.370696,689.485948
1218.362567,-9474.636058,1480.411884,842.705048
1218.362888,-9770.718434,370.102971,612.876398
1218.363208,-10288.862594,-148.041188,612.876398
1218.363529,-10288.862594,-296.082377,842.705048
1218.363850,-10140.821405,-222.061783,1378.971896
1218.364170,-9474.636058,-148.041188,1455.581446
1218.364491,-9400.615463,0.000000,1685.410096
1218.364812,-8882.471304,-1776.494261,1762.019645
1218.365132,-8734.430116,-3108.864956,919.314598
1218.365453,-9178.553681,-2812.782580,766.095498
1218.365773,-9252.574275,-2220.617826,306.438199
1218.366094,-9400.615463,74.020594,995.924147
1218.366415,-9918.759623,1850.514855,1302.362347
1218.366735,-9548.656652,2368.659014,1762.019645
1218.367056,-9844.739029,1332.370696,1455.581446
1218.367377,-9474.636058,592.164754,1149.143247
1218.367697,-9918.759623,-666.185348,1532.190996
1218.368018,-9992.780217,-296.082377,2068.457845
1218.368338,-9770.718434,-814.226536,2374.896044
1218.368659,-9030.512492,-962.267725,2068.457845
1218.368980,-9030.512492,-1628.453072,1838.629195
1218.369300,-9104.533087,-2146.597232,1149.143247
1218.369621,-9178.553681,-2072.576638,536.266849
1218.369942,-9474.636058,-740.205942,0.000000
1218.370262,-9326.594869,1110.308913,153.219100
1218.370583,-10288.862594,2294.638420,612.876398
1218.370903,-10066.800811,2072.576638,1072.533697
1218.371224,-10214.842000,888.247130,536.266849
1218.371545,-10140.821405,0.000000,0.000000
1218.371865,-10288.862594,1184.329507,1685.410096
1218.372186,-10807.006753,444.123565,1378.971896
1218.372507,-10140.821405,444.123565,1762.019645
1218.372827,-9474.636058,0.000000,1608.800546
1218.373148,-9474.636058,-1554.432478,1532.190996
1218.373468,-9030.512492,-2664.741391,1072.533697
1218.373789,-9178.553681,-3108.864956,-536.266849
1218.374110,-8956.491898,-1850.514855,-766.095498
1218.374430,-9326.594869,444.123565,0.000000
1218.374751,-10066.800811,1776.494261,1225.752797
1218.375071,-9696.697840,1924.535449,1532.190996
1218.375392,-10066.800811,1110.308913,1072.533697
1218.375713,-9918.759623,444.123565,1608.800546
1218.376033,-10214.842000,-370.102971,536.266849
1218.376354,-10362.883188,-740.205942,2221.676944
1218.376675,-9178.553681,-1184.329507,2451.505594
1218.376995,-8734.430116,-1998.556043,2068.457845
1218.377316,-8734.430116,-2294.638420,1685.410096
1218.377636,-9030.512492,-2960.823768,1072.533697
1218.377957,-9030.512492,-2294.638420,919.314598
1218.378278,-9030.512492,-888.247130,536.266849
1218.378598,-9400.615463,1184.329507,689.485948
1218.378919,-9918.759623,1258.350101,2451.505594
1218.379240,-9474.636058,1776.494261,1838.629195
1218.379560,-9992.780217,592.164754,1149.143247
1218.379881,-10510.924376,0.000000,1149.143247
1218.380201,-10362.883188,-444.123565,2298.286494
1218.380522,-10140.821405,0.000000,1991.848295
1218.380843,-10140.821405,0.000000,2451.505594
1218.381163,-9474.636058,-740.205942,2604.724693
1218.381484,-9326.594869,-2294.638420,1991.848295
1218.381805,-8586.388927,-3108.864956,612.876398
1218.382125,-9030.512492,-2590.720797,229.828649
1218.382446,-9474.636058,-1776.494261,459.657299
1218.382766,-9104.533087,740.205942,612.876398
1218.383087,-8290.306550,2368.659014,229.828649
1218.383408,-9400.615463,1776.494261,536.266849
1218.383728,-9992.780217,814.226536,383.047749
1218.384049,-10362.883188,370.102971,689.485948
1218.384370,-10362.883188,-592.164754,689.485948
1218.384690,-10288.862594,-222.061783,995.924147
1218.385011,-9622.677246,-518.144159,1455.581446
1218.385331,-9770.718434,-1184.329507,1762.019645
1218.385652,-9178.553681,-2072.576638,1149.143247
1218.385973,-9104.533087,-2368.659014,612.876398
1218.386293,-9252.574275,-1628.453072,-229.828649
1218.386614,-9326.594869,222.061783,-229.828649
1218.386935,-9844.739029,1406.391290,0.000000
1218.387255,-8882.471304,2294.638420,1532.190996
1218.387576,-9474.636058,1776.494261,459.657299
1218.387896,-10510.924376,1258.350101,612.876398
1218.388217,-11177.109724,0.000000,1072.533697
1218.388538,-10288.862594,0.000000,919.314598
1218.388858,-10584.944971,0.000000,1685.410096
1218.389179,-9992.780217,0.000000,1838.629195
1218.389499,-8808.450710,-592.164754,1838.629195
1218.389820,-9178.553681,-2146.597232,1532.190996
1218.390141,-8364.327145,-3108.864956,842.705048
1218.390461,-8290.306550,-2442.679609,-383.047749
1218.390782,-9178.553681,-888.247130,-306.438199
1218.391103,-9400.615463,1258.350101,229.828649
1218.391423,-9696.697840,2812.782580,1072.533697
1218.391744,-10214.842000,2368.659014,1532.190996
1218.392064,-10066.800811,1702.473667,1302.362347
1218.392385,-10807.006753,222.061783,1532.190996
1218.392706,-10658.965565,-222.061783,3524.039291
1218.393026,-10140.821405,-814.226536,2528.115143
1218.393347,-9548.656652,-1554.432478,2604.724693
1218.393668,-9030.512492,-1702.473667,2451.505594
1218.393988,-8364.327145,-2590.720797,1608.800546
1218.394309,-9400.615463,-2294.638420,842.705048
1218.394629,-9104.533087,-2146.597232,689.485948
1218.394950,-9104.533087,-666.185348,229.828649
1218.395271,-9326.594869,1036.288319,383.047749
1218.395591,-9770.718434,1776.494261,2451.505594
1218.395912,-9918.759623,1850.514855,1302.362347
1218.396233,-10584.944971,592.164754,1149.143247
1218.396553,-10214.842000,148.041188,1072.533697
1218.396874,-10214.842000,-222.061783,995.924147
1218.397194,-10436.903782,0.000000,1838.629195
1218.397515,-9548.656652,-296.082377,2145.067394
1218.397836,-9178.553681,-1184.329507,1991.848295
1218.398156,-9030.512492,-2220.617826,1838.629195
1218.398477,-8808.450710,-2738.761985,1149.143247
1218.398798,-9178.553681,-2442.679609,153.219100
1218.399118,-9104.533087,-1554.432478,306.438199
1218.399439,-9178.553681,518.144159,306.438199
1218.399759,-9696.697840,2220.617826,2068.457845
1218.400080,-9992.780217,1184.329507,1532.190996
1218.400401,-9844.739029,296.082377,842.705048
1218.400721,-10214.842000,-148.041188,1302.362347
1218.401042,-10584.944971,-666.185348,3524.039291
1218.401362,-10214.842000,-814.226536,2068.457845
1218.401683,-9548.656652,-1554.432478,1991.848295
1218.402004,-9030.512492,-1998.556043,1685.410096
1218.402324,-9030.512492,-2368.659014,1072.533697
1218.402645,-8586.388927,-2368.659014,689.485948
1218.402966,-9178.553681,-1702.473667,0.000000
1218.403286,-9400.615463,-222.061783,-229.828649
1218.403607,-9474.636058,1110.308913,-153.219100
1218.403927,-9400.615463,1850.514855,612.876398
1218.404248,-9992.780217,1332.370696,919.314598
1218.404569,-10436.903782,222.061783,0.000000
1218.404889,-10436.903782,74.020594,-153.219100
1218.405210,-10732.986159,74.020594,536.266849
1218.405531,-10362.883188,444.123565,1302.362347
1218.405851,-9918.759623,222.061783,1149.143247
1218.406172,-9400.615463,-444.123565,1072.533697
1218.406492,-9030.512492,-1702.473667,536.266849
1218.406813,-8882.471304,-2960.823768,306.438199
1218.407134,-8882.471304,-2664.741391,0.000000
1218.407454,-8882.471304,-1332.370696,-306.438199
1218.407775,-9474.636058,814.226536,612.876398
1218.408096,-9400.615463,1776.494261,2221.676944
1218.408416,-9622.677246,2146.597232,2068.457845
1218.408737,-10140.821405,1036.288319,1685.410096
1218.409057,-9992.780217,592.164754,1915.238745
1218.409378,-10214.842000,-296.082377,2451.505594
1218.409699,-9548.656652,-814.226536,2604.724693
1218.410019,-9178.553681,-1332.370696,2681.334243
1218.410340,-9178.553681,-1702.473667,2528.115143
1218.410661,-8882.471304,-1924.535449,1762.019645
1218.410981,-9548.656652,-1924.535449,1378.971896
1218.411302,-9178.553681,-1258.350101,689.485948
1218.411622,-9474.636058,444.123565,919.314598
1218.411943,-10066.800811,1702.473667,1302.362347
1218.412264,-9474.636058,1480.411884,612.876398
1218.412584,-9844.739029,962.267725,1225.752797
1218.412905,-10066.800811,222.061783,612.876398
1218.413225,-9770.718434,-74.020594,766.095498
1218.413546,-10436.903782,74.020594,612.876398
1218.413867,-9400.615463,592.164754,1225.752797
1218.414187,-9622.677246,0.000000,1685.410096
1218.414508,-9326.594869,-518.144159,1762.019645
1218.414829,-9252.574275,-1998.556043,1455.581446
1218.415149,-9474.636058,-2590.720797,1072.533697
1218.415470,-9474.636058,-2220.617826,766.095498
1218.415790,-9474.636058,-1110.308913,995.924147
1218.416111,-9696.697840,518.144159,842.705048
1218.416432,-8660.409521,1628.453072,1991.848295
1218.416752,-9548.656652,1850.514855,1225.752797
1218.417073,-9770.718434,1110.308913,1072.533697
1218.417394,-10066.800811,-222.061783,842.705048
1218.417714,-10288.862594,-962.267725,2068.457845
1218.418035,-9992.780217,-1036.288319,1762.019645
1218.418355,-10066.800811,-1776.494261,2298.286494
1218.418676,-9548.656652,-1628.453072,2528.115143
1218.418997,-9992.780217,-2590.720797,1685.410096
1218.419317,-8882.471304,-2960.823768,536.266849
1218.419638,-8808.450710,-1480.411884,-229.828649
1218.419959,-9474.636058,-222.061783,0.000000
1218.420279,-8882.471304,1036.288319,0.000000
1218.420600,-9844.739029,2368.659014,-1455.581446
1218.420920,-9622.677246,1110.308913,-229.828649
1218.421241,-9622.677246,0.000000,-306.438199
1218.421562,-10288.862594,-518.144159,229.828649
1218.421882,-10658.965565,-740.205942,1072.533697
1218.422203,-10140.821405,-296.082377,1762.019645
1218.422524,-9844.739029,0.000000,2145.067394
1218.422844,-9252.574275,-1184.329507,1762.019645
1218.423165,-9178.553681,-2146.597232,995.924147
1218.423485,-8808.450710,-2812.782580,0.000000
1218.423806,-8808.450710,-2368.659014,-612.876398
1218.424127,-8956.491898,-592.164754,0.000000
1218.424447,-9030.512492,814.226536,76.609550
1218.424768,-9622.677246,2294.638420,689.485948
1218.425089,-9918.759623,1702.473667,1685.410096
1218.425409,-10807.006753,888.247130,1762.019645
1218.425730,-10658.965565,0.000000,1762.019645
1218.426050,-10214.842000,-666.185348,1991.848295
1218.426371,-10288.862594,-888.247130,2298.286494
1218.426692,-9696.697840,-740.205942,2911.162892
1218.427012,-9252.574275,-1332.370696,2298.286494
1218.427333,-8808.450710,-2072.576638,1378.971896
1218.427653,-8808.450710,-2220.617826,229.828649
1218.427974,-9178.553681,-1258.350101,153.219100
1218.428295,-9474.636058,1036.288319,766.095498
1218.428615,-9844.739029,1776.494261,1149.143247
1218.428936,-8882.471304,2960.823768,1762.019645
1218.429257,-10214.842000,962.267725,1455.581446
1218.429577,-10510.924376,-296.082377,1455.581446
1218.429898,-10140.821405,-666.185348,1302.362347
1218.430218,-10436.903782,296.082377,1302.362347
1218.430539,-9844.739029,296.082377,1991.848295
1218.430860,-9474.636058,0.000000,1685.410096
1218.431180,-9030.512492,-518.144159,1455.581446
1218.431501,-9030.512492,-1850.514855,842.705048
1218.431822,-8734.430116,-2368.659014,612.876398
1218.432142,-8956.491898,-1702.473667,0.000000
1218.432463,-9178.553681,-222.061783,153.219100
1218.432783,-9696.697840,1332.370696,1072.533697
1218.433104,-10140.821405,2368.659014,1608.800546
1218.433425,-10214.842000,1776.494261,1685.410096
1218.433745,-10140.821405,296.082377,995.924147
1218.434066,-9992.780217,148.041188,995.924147
1218.434387,-9992.780217,-74.020594,1302.362347
1218.434707,-9844.739029,-222.061783,2068.457845
1218.435028,-9326.594869,-888.247130,2068.457845
1218.435348,-9178.553681,-1406.391290,1991.848295
1218.435669,-9030.512492,-2220.617826,1072.533697
1218.435990,-9474.636058,-2294.638420,766.095498
1218.436310,-9474.636058,-1480.411884,153.219100
1218.436631,-9326.594869,0.000000,459.657299
1218.436952,-9474.636058,1110.308913,536.266849
1218.437272,-9474.636058,1480.411884,153.219100
1218.437593,-9770.718434,1110.308913,612.876398
1218.437913,-10214.842000,296.082377,459.657299
1218.438234,-10436.903782,148.041188,536.266849
1218.438555,-10658.965565,148.041188,153.219100
1218.438875,-9992.780217,-148.041188,1378.971896
1218.439196,-9844.739029,-370.102971,1838.629195
1218.439516,-9178.553681,-1850.514855,1378.971896
1218.439837,-9030.512492,-2960.823768,536.266849
1218.440158,-8808.450710,-3404.947333,-229.828649
1218.440478,-8956.491898,-2072.576638,-306.438199
1218.440799,-9178.553681,-148.041188,-229.828649
1218.441120,-9474.636058,1406.391290,766.095498
1218.441440,-9474.636058,2294.638420,1838.629195
1218.441761,-10066.800811,1258.350101,1378.971896
1218.442081,-10436.903782,222.061783,1685.410096
1218.442402,-10214.842000,-592.164754,1915.238745
1218.442723,-10436.903782,-740.205942,1838.629195
1218.443043,-9474.636058,-962.267725,2451.505594
1218.443364,-9104.533087,-1258.350101,2374.896044
1218.443685,-8808.450710,-1702.473667,1915.238745
1218.444005,-8586.388927,-2516.700203,1455.581446
1218.444326,-9030.512492,-2886.803174,76.609550
1218.444646,-9104.533087,-1332.370696,76.609550
1218.444967,-9622.677246,740.205942,536.266849
1218.445288,-9770.718434,2146.597232,1455.581446
1218.445608,-9474.636058,2664.741391,1149.143247
1218.445929,-9992.780217,1184.329507,1225.752797
1218.446250,-9844.739029,370.102971,766.095498
1218.446570,-10436.903782,-444.123565,689.485948
1218.446891,-9548.656652,0.000000,1302.362347
1218.447211,-9548.656652,0.000000,1302.362347
1218.447532,-9474.636058,-222.061783,1455.581446
1218.447853,-9178.553681,-1258.350101,1838.629195
1218.448173,-9030.512492,-2738.761985,919.314598
1218.448494,-8808.450710,-2960.823768,536.266849
1218.448815,-9326.594869,-2146.597232,0.000000
1218.449135,-9326.594869,518.144159,76.609550
1218.449456,-9770.718434,1776.494261,766.095498
1218.449776,-9548.656652,2738.761985,1532.190996
1218.450097,-9548.656652,1702.473667,1149.143247
1218.450418,-9844.739029,444.123565,689.485948
1218.450738,-10436.903782,0.000000,1225.752797
1218.451059,-10362.883188,-444.123565,2451.505594
1218.451380,-9844.739029,-222.061783,2298.286494
1218.451700,-9474.636058,-518.144159,2451.505594
1218.452021,-8956.491898,-1480.411884,2298.286494
1218.452341,-8882.471304,-2590.720797,1685.410096
1218.452662,-9104.533087,-2516.700203,383.047749
1218.452983,-8808.450710,-1332.370696,-306.438199
1218.453303,-9474.636058,222.061783,0.000000
1218.453624,-9696.697840,1702.473667,689.485948
1218.453944,-9918.759623,2590.720797,689.485948
1218.454265,-9844.739029,518.144159,612.876398
1218.454586,-10288.862594,-592.164754,536.266849
1218.454906,-10436.903782,-962.267725,383.047749
1218.455227,-10436.903782,-222.061783,153.219100
1218.455548,-10066.800811,518.144159,1838.629195
1218.455868,-9474.636058,222.061783,1532.190996
1218.456189,-8734.430116,-592.164754,689.485948
1218.456509,-8808.450710,-1776.494261,229.828649
1218.456830,-8882.471304,-2368.659014,-383.047749
1218.457151,-9400.615463,-1850.514855,0.000000
1218.457471,-9326.594869,-148.041188,0.000000
1218.457792,-9770.718434,1184.329507,995.924147
1218.458113,-9326.594869,1332.370696,1838.629195
1218.458433,-10362.883188,1184.329507,2374.896044
1218.458754,-10510.924376,296.082377,2298.286494
1218.459075,-10881.027347,-518.144159,2145.067394
1218.459395,-9844.739029,-888.247130,2451.505594
1218.459716,-9696.697840,-1036.288319,2604.724693
1218.460037,-9252.574275,-1332.370696,2528.115143
1218.460357,-8808.450710,-1776.494261,2528.115143
1218.460678,-8364.327145,-2442.679609,1685.410096
1218.460999,-8808.450710,-2738.761985,995.924147
1218.461319,-8956.491898,-2072.576638,536.266849
1218.461640,-9696.697840,-222.061783,689.485948
1218.461961,-9548.656652,1184.329507,1149.143247
1218.462281,-9992.780217,1924.535449,1532.190996
1218.462602,-10436.903782,1628.453072,1608.800546
1218.462923,-10362.883188,74.020594,842.705048
1218.463243,-10436.903782,-148.041188,612.876398
1218.463564,-10436.903782,-370.102971,1225.752797
1218.463885,-9992.780217,-148.041188,1915.238745
1218.464205,-9622.677246,-962.267725,1762.019645
1218.464526,-9178.553681,-1776.494261,1532.190996
1218.464847,-9030.512492,-2590.720797,612.876398
1218.465167,-9030.512492,-3034.844362,1762.019645
1218.465488,-8956.491898,-2072.576638,-153.219100
1218.465809,-9252.574275,-148.041188,0.000000
1218.466129,-9474.636058,1480.411884,76.609550
1218.466450,-9548.656652,2886.803174,536.266849
1218.466771,-9770.718434,2146.597232,689.485948
1218.467091,-9992.780217,1406.391290,612.876398
1218.467412,-10510.924376,666.185348,1072.533697
1218.467733,-10658.965565,0.000000,1608.800546
1218.468053,-9844.739029,-1036.288319,1915.238745
1218.468374,-9178.553681,-1850.514855,1532.190996
1218.468695,-8734.430116,-2294.638420,1915.238745
1218.469015,-9474.636058,-3256.906145,1072.533697
1218.469336,-8808.450710,-1998.556043,1838.629195
1218.469657,-9030.512492,-1628.453072,0.000000
1218.469977,-9252.574275,518.144159,612.876398
1218.470298,-9400.615463,1332.370696,766.095498
1218.470619,-9918.759623,1850.514855,1378.971896
1218.470939,-9622.677246,666.185348,1302.362347
1218.471260,-10140.821405,0.000000,306.438199
1218.471581,-10362.883188,296.082377,1149.143247
1218.471901,-10584.944971,740.205942,1532.190996
1218.472222,-10658.965565,740.205942,2068.457845
1218.472543,-9622.677246,-296.082377,1608.800546
1218.472863,-8882.471304,-1184.329507,689.485948
1218.473184,-9326.594869,-2368.659014,306.438199
1218.473505,-9400.615463,-1998.556043,-76.609550
1218.473826,-9104.533087,-1110.308913,153.219100
1218.474146,-9252.574275,444.123565,383.047749
1218.474467,-9548.656652,1850.514855,1149.143247
1218.474788,-9992.780217,2442.679609,2451.505594
1218.475108,-10510.924376,1258.350101,2528.115143
1218.475429,-10732.986159,666.185348,2221.676944
1218.475750,-10584.944971,0.000000,2068.457845
1218.476070,-10362.883188,-148.041188,2451.505594
1218.476391,-9992.780217,-444.123565,3370.820191
1218.476712,-9474.636058,-1258.350101,2911.162892
1218.477032,-9252.574275,-1776.494261,2145.067394
1218.477353,-8882.471304,-2442.679609,1378.971896
1218.477674,-8586.388927,-2368.659014,-536.266849
1218.477994,-8882.471304,-1332.370696,0.000000
1218.478315,-8808.450710,518.144159,306.438199
1218.478636,-9474.636058,1036.288319,306.438199
1218.478956,-9252.574275,814.226536,1072.533697
1218.479277,-9548.656652,-518.144159,995.924147
1218.479598,-10288.862594,-1184.329507,689.485948
1218.479918,-10140.821405,-1184.329507,919.314598
1218.480239,-10732.986159,-888.247130,1455.581446
1218.480560,-9326.594869,370.102971,2145.067394
1218.480880,-9992.780217,-1036.288319,2068.457845
1218.481201,-8882.471304,-1184.329507,1378.971896
1218.481522,-8882.471304,-2738.761985,0.000000
1218.481842,-8586.388927,-2590.720797,-1149.143247
1218.482163,-8882.471304,-888.247130,-919.314598
1218.482484,-8734.430116,888.247130,-919.314598
1218.482804,-9696.697840,2294.638420,383.047749
1218.483125,-9252.574275,1184.329507,2068.457845
1218.483446,-10807.006753,1110.308913,919.314598
1218.483766,-10140.821405,-222.061783,1455.581446
1218.484087,-10807.006753,-592.164754,1225.752797
1218.484408,-10584.944971,-666.185348,2145.067394
1218.484728,-9770.718434,-814.226536,1991.848295
1218.485049,-8660.409521,-1554.432478,1838.629195
1218.485370,-8882.471304,-2294.638420,689.485948
1218.485690,-8808.450710,-2812.782580,229.828649
1218.486011,-8438.347739,-2294.638420,842.705048
1218.486332,-9104.533087,-666.185348,306.438199
1218.486652,-9992.780217,444.123565,1072.533697
1218.486973,-9474.636058,2072.576638,1225.752797
1218.487294,-10510.924376,1702.473667,2987.772442
1218.487614,-10658.965565,666.185348,1225.752797
1218.487935,-10436.903782,296.082377,919.314598
1218.488256,-10658.965565,0.000000,1149.143247
1218.488576,-10214.842000,518.144159,1149.143247
1218.488897,-9548.656652,740.205942,1608.800546
1218.489218,-9400.615463,0.000000,1915.238745
1218.489538,-8734.430116,-1554.432478,1072.533697
1218.489859,-9030.512492,-2368.659014,383.047749
1218.490180,-9400.615463,-2812.782580,153.219100
1218.490500,-9030.512492,-1110.308913,0.000000
1218.490821,-9326.594869,666.185348,459.657299
1218.491142,-9400.615463,1702.473667,1149.143247
1218.491462,-9548.656652,2368.659014,1838.629195
1218.491783,-10214.842000,1702.473667,1378.971896
1218.492104,-10362.883188,592.164754,1532.190996
1218.492424,-9992.780217,0.000000,1225.752797
1218.492745,-10140.821405,-370.102971,1532.190996
1218.493066,-9474.636058,-666.185348,1762.019645
1218.493386,-8882.471304,-1110.308913,2068.457845
1218.493707,-8808.450710,-2294.638420,1455.581446
1218.494028,-8882.471304,-2886.803174,1072.533697
1218.494348,-7920.203579,-2886.803174,-1225.752797
1218.494669,-9178.553681,-666.185348,306.438199
1218.494990,-8956.491898,1110.308913,919.314598
1218.495310,-9474.636058,1480.411884,1225.752797
1218.495631,-9770.718434,1628.453072,1762.019645
1218.495952,-10140.821405,296.082377,766.095498
1218.496272,-10658.965565,-518.144159,995.924147
1218.496593,-10584.944971,-370.102971,995.924147
1218.496914,-10658.965565,74.020594,1225.752797
1218.497234,-10288.862594,296.082377,1608.800546
1218.497555,-9770.718434,-148.041188,1685.410096
1218.497876,-9474.636058,-1036.288319,1225.752797
1218.498196,-9474.636058,-2886.803174,-383.047749
1218.498517,-8808.450710,-2960.823768,689.485948
1218.498838,-9030.512492,-1998.556043,-842.705048
1218.499158,-9474.636058,518.144159,-612.876398
1218.499479,-9252.574275,2442.679609,612.876398
1218.499800,-9770.718434,1850.514855,2221.676944
1218.500120,-9622.677246,888.247130,1072.533697
1218.500441,-10658.965565,0.000000,1532.190996
1218.500762,-10436.903782,-444.123565,1915.238745
1218.501082,-10362.883188,-740.205942,2757.943793
1218.501403,-9548.656652,-1554.432478,2451.505594
1218.501724,-9030.512492,-2072.576638,2451.505594
1218.502044,-8956.491898,-2516.700203,2374.896044
1218.502365,-8956.491898,-2960.823768,1762.019645
1218.502686,-8956.491898,-2072.576638,1149.143247
1218.503007,-9252.574275,-1036.288319,1149.143247
1218.503327,-9252.574275,370.102971,1149.143247
1218.503648,-9770.718434,1628.453072,1762.019645
1218.503969,-9622.677246,1850.514855,3677.258390
1218.504289,-10066.800811,74.020594,1225.752797
1218.504610,-9622.677246,-370.102971,459.657299
1218.504931,-9770.718434,-740.205942,612.876398
1218.505251,-9844.739029,0.000000,1378.971896
1218.505572,-9992.780217,74.020594,2374.896044
1218.505893,-9178.553681,-814.226536,2451.505594
1218.506213,-8956.491898,-2516.700203,1455.581446
1218.506534,-9252.574275,-3256.906145,536.266849
1218.506855,-8734.430116,-1628.453072,-612.876398
1218.507175,-9400.615463,-1110.308913,76.609550
1218.507496,-9400.615463,296.082377,383.047749
1218.507817,-9474.636058,1554.432478,459.657299
1218.508137,-9844.739029,1036.288319,1455.581446
1218.508458,-9918.759623,222.061783,1072.533697
1218.508779,-10362.883188,-444.123565,1149.143247
1218.509099,-10584.944971,-888.247130,1225.752797
1218.509420,-9918.759623,-370.102971,1532.190996
1218.509741,-9770.718434,-370.102971,1838.629195
1218.510061,-9104.533087,-814.226536,1302.362347
1218.510382,-8882.471304,-1924.535449,689.485948
1218.510703,-9178.553681,-1924.535449,0.000000
1218.511023,-8512.368333,-1628.453072,-612.876398
1218.511344,-9252.574275,-74.020594,-153.219100
1218.511665,-9696.697840,1776.494261,229.828649
1218.511985,-9770.718434,2072.576638,459.657299
1218.512306,-9992.780217,2146.597232,-689.485948
1218.512627,-10362.883188,814.226536,153.219100
1218.512947,-10362.883188,222.061783,153.219100
1218.513268,-10658.965565,518.144159,689.485948
1218.513589,-9622.677246,962.267725,1455.581446
1218.513909,-8956.491898,296.082377,1608.800546
1218.514230,-9622.677246,0.000000,1608.800546
1218.514551,-8808.450710,-1406.391290,995.924147
1218.514871,-9104.533087,-2220.617826,689.485948
1218.515192,-8438.347739,-1332.370696,76.609550
1218.515513,-8734.430116,0.000000,0.000000
1218.515833,-9104.533087,1406.391290,689.485948
1218.516154,-9252.574275,2516.700203,842.705048
1218.516475,-9696.697840,2664.741391,1532.190996
1218.516795,-10214.842000,444.123565,1608.800546
1218.517116,-10066.800811,0.000000,1762.019645
1218.517437,-10881.027347,-444.123565,2681.334243
1218.517757,-10214.842000,-74.020594,2987.772442
1218.518078,-9696.697840,-518.144159,3524.039291
1218.518399,-8956.491898,-1628.453072,2451.505594
1218.518719,-8364.327145,-2294.638420,1685.410096
1218.519040,-8956.491898,-3034.844362,919.314598
1218.519361,-8660.409521,-814.226536,153.219100
1218.519681,-9104.533087,-296.082377,153.219100
1218.520002,-9622.677246,1406.391290,919.314598
1218.520323,-9474.636058,2516.700203,1302.362347
1218.520643,-10436.903782,2294.638420,3677.258390
1218.520964,-10732.986159,740.205942,1685.410096
1218.521285,-10584.944971,-222.061783,1532.190996
1218.521605,-10732.986159,-888.247130,1991.848295
1218.521926,-9992.780217,-740.205942,2298.286494
1218.522247,-9696.697840,-518.144159,2068.457845
1218.522567,-8882.471304,-1554.432478,1762.019645
1218.522888,-8882.471304,-2516.700203,689.485948
1218.523209,-8586.388927,-2664.741391,229.828649
1218.523529,-9696.697840,-2220.617826,-689.485948
1218.523850,-9696.697840,-888.247130,0.000000
1218.524171,-9326.594869,222.061783,229.828649
1218.524491,-9844.739029,1184.329507,1072.533697
1218.524812,-9992.780217,2072.576638,1072.533697
1218.525133,-10288.862594,444.123565,1072.533697
1218.525453,-10288.862594,-222.061783,459.657299
1218.525774,-10214.842000,-518.144159,1225.752797
1218.526095,-10066.800811,-666.185348,995.924147
1218.526415,-9548.656652,-518.144159,1072.533697
1218.526736,-8956.491898,-1554.432478,1225.752797
1218.527057,-8734.430116,-2664.741391,383.047749
1218.527377,-8364.327145,-2664.741391,-536.266849
1218.527698,-8216.285956,-2664.741391,-1149.143247
1218.528019,-9400.615463,0.000000,-306.438199
1218.528339,-8956.491898,1998.556043,459.657299
1218.528660,-10214.842000,1702.473667,459.657299
1218.528981,-9400.615463,2294.638420,459.657299
1218.529301,-10732.986159,148.041188,842.705048
1218.529622,-10288.862594,-296.082377,689.485948
1218.529943,-10436.903782,-296.082377,1532.190996
1218.530263,-10362.883188,0.000000,1455.581446
1218.530584,-9622.677246,444.123565,1991.848295
1218.530905,-9696.697840,-518.144159,1838.629195
1218.531225,-8808.450710,-1776.494261,1149.143247
1218.531546,-8882.471304,-2368.659014,306.438199
1218.531867,-8512.368333,-2294.638420,-612.876398
1218.532188,-9104.533087,-592.164754,229.828649
1218.532508,-9548.656652,1110.308913,766.095498
1218.532829,-9474.636058,2072.576638,1455.581446
1218.533150,-9844.739029,1628.453072,1915.238745
1218.533470,-10436.903782,740.205942,1685.410096
1218.533791,-10214.842000,222.061783,1762.019645
1218.534112,-10807.006753,0.000000,2374.896044
1218.534432,-9770.718434,-222.061783,2911.162892
1218.534753,-10140.821405,-296.082377,2374.896044
1218.535074,-9030.512492,-1406.391290,2374.896044
1218.535394,-8586.388927,-2516.700203,1149.143247
1218.535715,-8438.347739,-2294.638420,229.828649
1218.536036,-8956.491898,-1554.432478,995.924147
1218.536356,-8808.450710,518.144159,153.219100
1218.536677,-10066.800811,1850.514855,766.095498
1218.536998,-9844.739029,1850.514855,1302.362347
1218.537318,-10214.842000,1110.308913,1991.848295
1218.537639,-11473.192101,0.000000,995.924147
1218.537960,-10362.883188,-518.144159,1532.190996
1218.538280,-10732.986159,-740.205942,2068.457845
1218.538601,-9918.759623,-222.061783,2068.457845
1218.538922,-9326.594869,-666.185348,1225.752797
1218.539242,-8586.388927,-1110.308913,919.314598
1218.539563,-8586.388927,-2072.576638,689.485948
1218.539884,-9030.512492,-2516.700203,306.438199
1218.540204,-8808.450710,-2294.638420,0.000000
1218.540525,-9400.615463,-1036.288319,-306.438199
1218.540846,-9918.759623,370.102971,1072.533697
1218.541166,-9622.677246,1332.370696,1225.752797
1218.541487,-10214.842000,1406.391290,1072.533697
1218.541808,-9622.677246,740.205942,689.485948
1218.542128,-10436.903782,74.020594,1225.752797
1218.542449,-10510.924376,-962.267725,1455.581446
1218.542770,-9770.718434,-1332.370696,1378.971896
1218.543090,-9252.574275,-1554.432478,995.924147
1218.543411,-8734.430116,-1924.535449,1608.800546
1218.543732,-8734.430116,-2664.741391,842.705048
1218.544052,-8956.491898,-2590.720797,153.219100
1218.544373,-9400.615463,-1480.411884,153.219100
1218.544694,-9918.759623,592.164754,612.876398
1218.545014,-10066.800811,1702.473667,842.705048
1218.545335,-10140.821405,2072.576638,1225.752797
1218.545656,-10214.842000,1258.350101,1072.533697
1218.545976,-10066.800811,0.000000,842.705048
1218.546297,-10066.800811,-444.123565,995.924147
1218.546618,-10288.862594,-962.267725,919.314598
1218.546938,-10140.821405,-148.041188,1685.410096
1218.547259,-9770.718434,-444.123565,2298.286494
1218.547580,-9326.594869,-814.226536,2068.457845
1218.547900,-9178.553681,-2368.659014,1685.410096
1218.548221,-9030.512492,-2516.700203,766.095498
1218.548542,-8882.471304,-2368.659014,229.828649
1218.548862,-8882.471304,-666.185348,1072.533697
1218.549183,-9326.594869,888.247130,1072.533697
1218.549504,-9622.677246,1776.494261,1149.143247
1218.549824,-9918.759623,1924.535449,1762.019645
1218.550145,-10584.944971,1998.556043,919.314598
1218.550466,-10362.883188,888.247130,1762.019645
1218.550786,-10584.944971,222.061783,1455.581446
1218.551107,-9770.718434,-296.082377,2145.067394
1218.551428,-9474.636058,-1184.329507,3677.258390
1218.551748,-8956.491898,-2220.617826,1608.800546
1218.552069,-8586.388927,-2516.700203,689.485948
1218.552390,-8586.388927,-2368.659014,153.219100
1218.552710,-8512.368333,-1184.329507,-536.266849
1218.553031,-9548.656652,1258.350101,0.000000
1218.553352,-9770.718434,2072.576638,919.314598
1218.553672,-9918.759623,2664.741391,1302.362347
1218.553993,-10362.883188,1184.329507,1302.362347
1218.554314,-10658.965565,444.123565,0.000000
1218.554634,-10807.006753,296.082377,689.485948
1218.554955,-10584.944971,296.082377,1455.581446
1218.555276,-10140.821405,740.205942,1838.629195
1218.555596,-9474.636058,0.000000,1608.800546
1218.555917,-9104.533087,-814.226536,1225.752797
1218.556238,-8734.430116,-2294.638420,766.095498
1218.556558,-8882.471304,-2664.741391,229.828649
1218.556879,-9326.594869,-1776.494261,153.219100
1218.557200,-9400.615463,148.041188,153.219100
1218.557521,-9696.697840,1776.494261,842.705048
1218.557841,-9844.739029,1998.556043,1302.362347
1218.558162,-10140.821405,1036.288319,1532.190996
1218.558483,-10436.903782,74.020594,1225.752797
1218.558803,-10732.986159,0.000000,1225.752797
1218.559124,-10658.965565,222.061783,2221.676944
1218.559445,-9992.780217,-222.061783,2221.676944
1218.559766,-9326.594869,-962.267725,2221.676944
1218.560086,-8882.471304,-1702.473667,1991.848295
1218.560407,-8586.388927,-3108.864956,919.314598
1218.560728,-8882.471304,-3478.967927,919.314598
1218.561048,-8956.491898,-2886.803174,459.657299
1218.561369,-9030.512492,-370.102971,153.219100
1218.561690,-9548.656652,1110.308913,612.876398
1218.562011,-9696.697840,2220.617826,1915.238745
1218.562331,-10658.965565,666.185348,1991.848295
1218.562652,-9696.697840,-370.102971,1072.533697
1218.562973,-10288.862594,-1406.391290,383.047749
1218.563293,-10140.821405,-370.102971,766.095498
1218.563614,-9844.739029,74.020594,1532.190996
1218.563935,-9696.697840,370.102971,2451.505594
1218.564256,-8882.471304,-148.041188,1991.848295
1218.564576,-8808.450710,-2146.597232,1072.533697
1218.564897,-8882.471304,-3256.906145,153.219100
1218.565218,-8956.491898,-2812.782580,-306.438199
1218.565538,-9326.594869,-888.247130,0.000000
1218.565859,-9326.594869,888.247130,76.609550
1218.566180,-8734.430116,2146.597232,689.485948
1218.566501,-10066.800811,1258.350101,1072.533697
1218.566821,-9992.780217,370.102971,1149.143247
1218.567142,-10066.800811,-666.185348,1225.752797
1218.567463,-10732.986159,-888.247130,1608.800546
1218.567784,-10214.842000,-592.164754,2451.505594
1218.568104,-10214.842000,-1480.411884,2911.162892
1218.568425,-9696.697840,-2294.638420,2451.505594
1218.568746,-9178.553681,-3182.885551,1608.800546
1218.569066,-9030.512492,-3404.947333,919.314598
1218.569387,-8734.430116,-2368.659014,0.000000
1218.569708,-9622.677246,0.000000,766.095498
1218.570029,-9622.677246,1850.514855,842.705048
1218.570349,-9622.677246,2294.638420,842.705048
1218.570670,-9548.656652,1554.432478,229.828649
1218.570991,-10140.821405,148.041188,-612.876398
1218.571311,-9548.656652,592.164754,-459.657299
1218.571632,-10214.842000,444.123565,76.609550
1218.571953,-9918.759623,1110.308913,1072.533697
1218.572274,-9252.574275,296.082377,612.876398
1218.572594,-8512.368333,740.205942,995.924147
1218.572915,-9474.636058,-1184.329507,153.219100
1218.573236,-9252.574275,-1850.514855,153.219100
1218.573556,-9770.718434,-1406.391290,0.000000
1218.573877,-9474.636058,222.061783,-689.485948
1218.574198,-9474.636058,1258.350101,306.438199
1218.574519,-9474.636058,1998.556043,1149.143247
1218.574839,-9992.780217,1776.494261,842.705048
1218.575160,-10066.800811,888.247130,995.924147
1218.575481,-10436.903782,444.123565,919.314598
1218.575801,-10140.821405,0.000000,1762.019645
1218.576122,-10140.821405,-888.247130,2374.896044
1218.576443,-9474.636058,-1702.473667,2451.505594
1218.576764,-8956.491898,-2812.782580,1225.752797
1218.577084,-8956.491898,-2960.823768,1455.581446
1218.577405,-8882.471304,-2368.659014,459.657299
1218.577726,-9030.512492,-740.205942,229.828649
1218.578046,-9326.594869,1036.288319,995.924147
1218.578367,-9770.718434,2220.617826,1072.533697
1218.578688,-9770.718434,1850.514855,1532.190996
1218.579009,-9696.697840,740.205942,1225.752797
1218.579329,-9918.759623,-370.102971,919.314598
1218.579650,-10288.862594,-518.144159,1302.362347
1218.579971,-10288.862594,-370.102971,1838.629195
1218.580291,-10066.800811,-296.082377,2221.676944
1218.580612,-9326.594869,-444.123565,1915.238745
1218.580933,-8290.306550,-740.205942,2451.505594
1218.581254,-9400.615463,-2368.659014,1302.362347
1218.581574,-8808.450710,-2294.638420,689.485948
1218.581895,-9030.512492,-1776.494261,0.000000
1218.582216,-8956.491898,0.000000,229.828649
1218.582537,-9474.636058,1258.350101,1072.533697
1218.582857,-9844.739029,1776.494261,1378.971896
1218.583178,-9918.759623,1554.432478,1915.238745
1218.583499,-10658.965565,296.082377,1762.019645
1218.583819,-10436.903782,-518.144159,1608.800546
1218.584140,-10584.944971,-1110.308913,2528.115143
1218.584461,-10436.903782,-1110.308913,2757.943793
1218.584782,-9474.636058,-1480.411884,2911.162892
1218.585102,-9252.574275,-2368.659014,1532.190996
1218.585423,-8734.430116,-3256.906145,842.705048
1218.585744,-8808.450710,-2960.823768,76.609550
1218.586064,-9104.533087,-1776.494261,-306.438199
1218.586385,-9474.636058,222.061783,229.828649
1218.586706,-9918.759623,1776.494261,153.219100
1218.587027,-9622.677246,1850.514855,689.485948
1218.587347,-9992.780217,1480.411884,306.438199
1218.587668,-10658.965565,666.185348,919.314598
1218.587989,-11029.068536,-148.041188,919.314598
1218.588309,-10436.903782,-814.226536,766.095498
1218.588630,-9918.759623,-1184.329507,919.314598
1218.588951,-9252.574275,-1554.432478,1072.533697
1218.589272,-9252.574275,-1702.473667,1608.800546
1218.589592,-9030.512492,-2664.741391,536.266849
1218.589913,-8512.368333,-2368.659014,-383.047749
1218.590234,-9178.553681,-1406.391290,-229.828649
1218.590554,-9252.574275,148.041188,0.000000
1218.590875,-9548.656652,1406.391290,536.266849
1218.591196,-9770.718434,1702.473667,919.314598
1218.591517,-9844.739029,1110.308913,919.314598
1218.591837,-10066.800811,222.061783,842.705048
1218.592158,-9696.697840,-444.123565,1225.752797
1218.592479,-10066.800811,0.000000,2298.286494
1218.592799,-10066.800811,0.000000,2451.505594
1218.593120,-9474.636058,-1036.288319,2451.505594
1218.593441,-7624.121203,-2368.659014,842.705048
1218.593762,-9178.553681,-2368.659014,919.314598
1218.594082,-8956.491898,-2368.659014,689.485948
1218.594403,-8956.491898,-888.247130,229.828649
1218.594724,-9326.594869,888.247130,1072.533697
1218.595044,-9844.739029,2294.638420,1685.410096
1218.595365,-10066.800811,2590.720797,2068.457845
1218.595686,-10140.821405,1924.535449,1532.190996
1218.596007,-10510.924376,888.247130,842.705048
1218.596327,-10510.924376,1332.370696,766.095498
1218.596648,-10362.883188,592.164754,1991.848295
1218.596969,-10066.800811,148.041188,2451.505594
1218.597290,-9326.594869,-814.226536,2528.115143
1218.597610,-9252.574275,-1850.514855,1072.533697
1218.597931,-9030.512492,-2886.803174,919.314598
1218.598252,-9030.512492,-2294.638420,689.485948
1218.598572,-9400.615463,-814.226536,459.657299
1218.598893,-9252.574275,1332.370696,612.876398
1218.599214,-9326.594869,2220.617826,689.485948
1218.599535,-9548.656652,2368.659014,1149.143247
1218.599855,-10066.800811,1554.432478,1302.362347
1218.600176,-10362.883188,518.144159,1532.190996
1218.600497,-10584.944971,-148.041188,1532.190996
1218.600817,-10214.842000,-444.123565,1685.410096
1218.601138,-9992.780217,-592.164754,1762.019645
1218.601459,-9474.636058,-1332.370696,2068.457845
1218.601780,-8216.285956,-2368.659014,2451.505594
1218.602100,-8734.430116,-2812.782580,383.047749
1218.602421,-9030.512492,-2146.597232,0.000000
1218.602742,-9178.553681,-888.247130,-459.657299
1218.603062,-9474.636058,1628.453072,1455.581446
1218.603383,-9992.780217,1776.494261,842.705048
1218.603704,-9252.574275,2368.659014,459.657299
1218.604025,-10510.924376,296.082377,153.219100
1218.604345,-9992.780217,-666.185348,0.000000
1218.604666,-9992.780217,-1184.329507,995.924147
1218.604987,-9770.718434,-1184.329507,919.314598
1218.605307,-9844.739029,-592.164754,1225.752797
1218.605628,-9252.574275,-814.226536,1302.362347
1218.605949,-8660.409521,-2146.597232,3140.991542
1218.606270,-8290.306550,-3330.926739,-306.438199
1218.606590,-8660.409521,-2812.782580,-689.485948
1218.606911,-8660.409521,-2146.597232,-1225.752797
1218.607232,-8734.430116,74.020594,-536.266849
1218.607552,-9104.533087,1554.432478,459.657299
1218.607873,-9548.656652,2220.617826,1149.143247
1218.608194,-10288.862594,1406.391290,1838.629195
1218.608515,-10584.944971,0.000000,1762.019645
1218.608835,-11103.089130,-814.226536,2298.286494
1218.609156,-10510.924376,-1480.411884,2987.772442
1218.609477,-9918.759623,-1702.473667,2987.772442
1218.609797,-9696.697840,-1998.556043,2987.772442
1218.610118,-8512.368333,-1702.473667,2451.505594
1218.610439,-8956.491898,-2442.679609,1685.410096
1218.610760,-9178.553681,-1924.535449,919.314598
1218.611080,-9474.636058,-148.041188,995.924147
1218.611401,-10066.800811,1184.329507,2451.505594
1218.611722,-10066.800811,1924.535449,1762.019645
1218.612043,-10362.883188,1406.391290,2068.457845
1218.612363,-10732.986159,222.061783,1608.800546
1218.612684,-10214.842000,-296.082377,1072.533697
1218.613005,-10584.944971,-444.123565,1608.800546
1218.613325,-10140.821405,148.041188,1838.629195
1218.613646,-10066.800811,444.123565,2298.286494
1218.613967,-9548.656652,-296.082377,2068.457845
1218.614288,-9400.615463,-1480.411884,536.266849
1218.614608,-9252.574275,-2590.720797,459.657299
1218.614929,-9030.512492,-2516.700203,-76.609550
1218.615250,-9104.533087,-1406.391290,0.000000
1218.615570,-9474.636058,296.082377,0.000000
1218.615891,-9252.574275,2072.576638,612.876398
1218.616212,-10362.883188,2220.617826,842.705048
1218.616533,-10362.883188,1628.453072,1072.533697
1218.616853,-10510.924376,962.267725,919.314598
1218.617174,-9918.759623,-592.164754,919.314598
