#time,accel_x,accel_y,accel_z
1255.187432,-9918.759623,-962.267725,1838.629195
1255.187752,-9918.759623,-1332.370696,1685.410096
1255.188073,-9548.656652,-1924.535449,1225.752797
1255.188394,-9400.615463,-2220.617826,919.314598
1255.188715,-9252.574275,-1998.556043,2451.505594
1255.189035,-9474.636058,-1776.494261,1302.362347
1255.189356,-9770.718434,-1480.411884,1608.800546
1255.189677,-9696.697840,-1110.308913,1685.410096
1255.189998,-9622.677246,-814.226536,1302.362347
1255.190318,-9622.677246,-814.226536,1225.752797
1255.190639,-9252.574275,0.000000,995.924147
1255.190960,-9548.656652,222.061783,1532.190996
1255.191280,-9474.636058,-148.041188,1378.971896
1255.191601,-9992.780217,-518.144159,612.876398
1255.191922,-9400.615463,-1036.288319,1302.362347
1255.192243,-9474.636058,-1480.411884,1608.800546
1255.192563,-9770.718434,-1776.494261,2451.505594
1255.192884,-9770.718434,-2368.659014,2681.334243
1255.193205,-9252.574275,-2590.720797,2374.896044
1255.193526,-9474.636058,-2516.700203,2451.505594
1255.193846,-9622.677246,-2368.659014,2451.505594
1255.194167,-9696.697840,-1850.514855,3064.381992
1255.194488,-9918.759623,-1628.453072,2911.162892
1255.194808,-9474.636058,-1184.329507,3064.381992
1255.195129,-9696.697840,-592.164754,3140.991542
1255.195450,-9918.759623,-962.267725,3294.210641
1255.195771,-9474.636058,-518.144159,3217.601092
1255.196091,-9918.759623,-1036.288319,3753.867940
1255.196412,-9844.739029,-1184.329507,4136.915689
1255.196733,-9548.656652,-1850.514855,4443.353888
1255.197053,-9474.636058,-2146.597232,5132.839837
1255.197374,-9622.677246,-2294.638420,5822.325785
1255.197695,-9548.656652,-2664.741391,6281.983084
1255.198016,-9474.636058,-3034.844362,6281.983084
1255.198336,-9622.677246,-2960.823768,6358.592633
1255.198657,-9400.615463,-2886.803174,6588.421283
1255.198978,-9326.594869,-2442.679609,5975.544884
1255.199299,-9326.594869,-2960.823768,5822.325785
1255.199619,-9178.553681,-3330.926739,4903.011187
1255.199940,-8586.388927,-3923.091493,4290.134789
1255.200261,-8734.430116,-3627.009116,3294.210641
1255.200581,-9178.553681,-3478.967927,3294.210641
1255.200902,-9474.636058,-2664.741391,3370.820191
1255.201223,-9622.677246,-2886.803174,3753.867940
1255.201544,-9622.677246,-3108.864956,4136.915689
1255.201864,-9992.780217,-4293.194464,4060.306139
1255.202185,-9770.718434,-5477.523971,4519.963438
1255.202506,-9474.636058,-6809.894666,4596.572988
1255.202827,-8882.471304,-7846.182985,5362.668486
1255.203147,-8882.471304,-8438.347739,4903.011187
1255.203468,-8512.368333,-9030.512492,4596.572988
1255.203789,-8142.265362,-8660.409521,3907.087040
1255.204109,-8808.450710,-7402.059420,3294.210641
1255.204430,-8068.244768,-6513.812290,2451.505594
1255.204751,-8216.285956,-5329.482782,1915.238745
1255.205072,-9030.512492,-3775.050304,1991.848295
1255.205392,-9474.636058,-3182.885551,1915.238745
1255.205713,-9992.780217,-2960.823768,3140.991542
1255.206034,-10288.862594,-3627.009116,2757.943793
1255.206355,-10362.883188,-4145.153275,2145.067394
1255.206675,-10807.006753,-4515.256246,1838.629195
1255.206996,-10066.800811,-4219.173869,1149.143247
1255.207317,-9918.759623,-3330.926739,612.876398
1255.207637,-9770.718434,-2072.576638,536.266849
1255.207958,-9918.759623,-1480.411884,766.095498
1255.208279,-9622.677246,-1110.308913,1762.019645
1255.208600,-10214.842000,-1406.391290,2374.896044
1255.208920,-10510.924376,-2664.741391,2757.943793
1255.209241,-10510.924376,-3478.967927,3217.601092
1255.209562,-10510.924376,-3849.070898,5056.230287
1255.209883,-10288.862594,-4293.194464,3677.258390
1255.210203,-9548.656652,-3552.988522,3600.648841
1255.210524,-9844.739029,-3627.009116,3830.477490
1255.210845,-9326.594869,-3478.967927,2681.334243
1255.211165,-9400.615463,-2812.782580,1378.971896
1255.211486,-9474.636058,-1332.370696,1302.362347
1255.211807,-9474.636058,222.061783,1455.581446
1255.212128,-9992.780217,1258.350101,2374.896044
1255.212448,-10214.842000,740.205942,3294.210641
1255.212769,-9918.759623,0.000000,3447.429741
1255.213090,-10955.047942,-1258.350101,3753.867940
1255.213410,-10066.800811,-2072.576638,3983.696590
1255.213731,-9548.656652,-1554.432478,5056.230287
1255.214052,-9548.656652,-1924.535449,5132.839837
1255.214372,-8882.471304,-2368.659014,5515.887586
1255.214693,-8216.285956,-4219.173869,4749.792088
1255.215014,-7550.100608,-5403.503377,3447.429741
1255.215335,-7920.203579,-4515.256246,2911.162892
1255.215655,-8142.265362,-1998.556043,2528.115143
1255.215976,-8364.327145,1258.350101,3064.381992
1255.216297,-8660.409521,3182.885551,3524.039291
1255.216617,-7994.224174,3701.029710,2911.162892
1255.216938,-8956.491898,1776.494261,2068.457845
1255.217259,-9770.718434,814.226536,1991.848295
1255.217579,-9992.780217,962.267725,2451.505594
1255.217900,-10362.883188,0.000000,3064.381992
1255.218221,-9474.636058,-370.102971,2987.772442
1255.218542,-9104.533087,-1628.453072,1762.019645
1255.218862,-8438.347739,-1480.411884,995.924147
1255.219183,-9030.512492,-296.082377,1685.410096
1255.219504,-9770.718434,1036.288319,2221.676944
1255.219824,-10436.903782,1406.391290,3907.087040
1255.220145,-10214.842000,888.247130,3140.991542
1255.220466,-10066.800811,740.205942,2374.896044
1255.220787,-10807.006753,1480.411884,2757.943793
1255.221107,-11177.109724,1258.350101,3217.601092
1255.221428,-11029.068536,0.000000,3370.820191
1255.221749,-10436.903782,-1554.432478,1225.752797
1255.222069,-9030.512492,-1850.514855,-1455.581446
1255.222390,-9474.636058,-1110.308913,-2298.286494
1255.222711,-9474.636058,740.205942,-1072.533697
1255.223031,-9178.553681,2072.576638,229.828649
1255.223352,-10362.883188,666.185348,383.047749
1255.223673,-8068.244768,-814.226536,383.047749
1255.223994,-9992.780217,-2294.638420,306.438199
1255.224314,-10584.944971,-3256.906145,1685.410096
1255.224635,-10658.965565,-3478.967927,2987.772442
1255.224956,-10436.903782,-4071.132681,1991.848295
1255.225276,-8586.388927,-3330.926739,0.000000
1255.225597,-8660.409521,-1702.473667,-689.485948
1255.225918,-9474.636058,0.000000,536.266849
1255.226238,-9178.553681,148.041188,689.485948
1255.226559,-8734.430116,-518.144159,-229.828649
1255.226880,-8438.347739,-814.226536,-1762.019645
1255.227201,-8808.450710,-518.144159,-229.828649
1255.227521,-10436.903782,-1036.288319,2374.896044
1255.227842,-10584.944971,-2220.617826,3140.991542
1255.228163,-9474.636058,-3701.029710,2451.505594
1255.228483,-8882.471304,-3108.864956,1225.752797
1255.228804,-9548.656652,-2368.659014,1685.410096
1255.229125,-9622.677246,-370.102971,1838.629195
1255.229446,-9548.656652,-592.164754,3140.991542
1255.229766,-8068.244768,-962.267725,1838.629195
1255.230087,-7550.100608,-2146.597232,0.000000
1255.230408,-8586.388927,-2146.597232,766.095498
1255.230728,-9400.615463,-2072.576638,2145.067394
1255.231049,-9252.574275,-1702.473667,2681.334243
1255.231370,-10362.883188,-1480.411884,1455.581446
1255.231690,-8438.347739,-1036.288319,153.219100
1255.232011,-10436.903782,444.123565,1072.533697
1255.232332,-11695.253884,1184.329507,3370.820191
1255.232653,-10140.821405,-74.020594,1991.848295
1255.232973,-10955.047942,-518.144159,1302.362347
1255.233294,-9770.718434,370.102971,-995.924147
1255.233615,-10140.821405,740.205942,842.705048
1255.233935,-10214.842000,74.020594,2528.115143
1255.234256,-9474.636058,-1184.329507,919.314598
1255.234577,-8438.347739,-666.185348,-1838.629195
1255.234898,-9252.574275,518.144159,-1378.971896
1255.235218,-9474.636058,2072.576638,229.828649
1255.235539,-11325.150913,1998.556043,1838.629195
1255.235860,-10584.944971,962.267725,1685.410096
1255.236180,-9770.718434,222.061783,76.609550
1255.236501,-10214.842000,222.061783,995.924147
1255.236822,-11325.150913,370.102971,2757.943793
1255.237142,-10658.965565,-888.247130,3370.820191
1255.237463,-9104.533087,-962.267725,-612.876398
1255.237784,-8290.306550,148.041188,-1532.190996
1255.238105,-8808.450710,1480.411884,-1685.410096
1255.238425,-8586.388927,3701.029710,459.657299
1255.238746,-10510.924376,1628.453072,1225.752797
1255.239067,-8216.285956,1924.535449,76.609550
1255.239387,-9696.697840,148.041188,-1072.533697
1255.239708,-10510.924376,666.185348,1302.362347
1255.240029,-10140.821405,-222.061783,2145.067394
1255.240349,-9400.615463,-1554.432478,1302.362347
1255.240670,-8216.285956,-962.267725,-229.828649
1255.240991,-7105.977043,296.082377,-2298.286494
1255.241312,-8586.388927,1924.535449,-306.438199
1255.241632,-8586.388927,1998.556043,1838.629195
1255.241953,-9252.574275,1184.329507,919.314598
1255.242274,-9696.697840,888.247130,1149.143247
1255.242594,-9696.697840,1406.391290,1838.629195
1255.242915,-10807.006753,148.041188,4060.306139
1255.243236,-11399.171507,-2294.638420,4903.011187
1255.243557,-9474.636058,-3330.926739,3140.991542
1255.243877,-8586.388927,-2516.700203,153.219100
1255.244198,-8808.450710,-296.082377,0.000000
1255.244519,-9030.512492,1628.453072,2145.067394
1255.244839,-9474.636058,1036.288319,2221.676944
1255.245160,-9252.574275,962.267725,1072.533697
1255.245481,-9770.718434,740.205942,306.438199
1255.245801,-10362.883188,0.000000,1915.238745
1255.246122,-11695.253884,-1258.350101,4366.744339
1255.246443,-11103.089130,-3108.864956,4136.915689
1255.246764,-10214.842000,-3552.988522,1072.533697
1255.247084,-8956.491898,-814.226536,76.609550
1255.247405,-9548.656652,1406.391290,536.266849
1255.247726,-9844.739029,1628.453072,2298.286494
1255.248046,-9474.636058,222.061783,1762.019645
1255.248367,-9252.574275,-888.247130,0.000000
1255.248688,-9474.636058,-1554.432478,-229.828649
1255.249008,-10288.862594,-1850.514855,1991.848295
1255.249329,-11029.068536,-3256.906145,3524.039291
1255.249650,-10066.800811,-4367.215058,2604.724693
1255.249971,-8734.430116,-3478.967927,1762.019645
1255.250291,-8586.388927,-814.226536,-459.657299
1255.250612,-9548.656652,666.185348,459.657299
1255.250933,-10140.821405,0.000000,1072.533697
1255.251253,-9030.512492,-444.123565,-383.047749
1255.251574,-9030.512492,0.000000,-2834.553343
1255.251895,-9252.574275,740.205942,-842.705048
1255.252216,-10362.883188,-592.164754,1685.410096
1255.252536,-10066.800811,-2664.741391,2298.286494
1255.252857,-8808.450710,-3849.070898,612.876398
1255.253178,-8956.491898,-2146.597232,-995.924147
1255.253498,-9252.574275,0.000000,0.000000
1255.253819,-10140.821405,1110.308913,2145.067394
1255.254140,-9844.739029,1258.350101,2374.896044
1255.254460,-8734.430116,-592.164754,-76.609550
1255.254781,-8882.471304,-666.185348,-459.657299
1255.255102,-9770.718434,-1332.370696,1225.752797
1255.255423,-9770.718434,-2368.659014,2987.772442
1255.255743,-9622.677246,-2590.720797,2374.896044
1255.256064,-8438.347739,-1776.494261,153.219100
1255.256385,-8808.450710,666.185348,-306.438199
1255.256705,-9770.718434,2442.679609,1608.800546
1255.257026,-10510.924376,1776.494261,1532.190996
1255.257347,-9992.780217,148.041188,1072.533697
1255.257667,-9622.677246,444.123565,-689.485948
1255.257988,-9252.574275,1036.288319,-612.876398
1255.258309,-9844.739029,1628.453072,1838.629195
1255.258630,-9696.697840,-1036.288319,2681.334243
1255.258950,-9474.636058,-2146.597232,766.095498
1255.259271,-9104.533087,-1036.288319,-383.047749
1255.259592,-9622.677246,814.226536,1149.143247
1255.259912,-10658.965565,1702.473667,3753.867940
1255.260233,-11103.089130,444.123565,3983.696590
1255.260554,-10066.800811,-222.061783,2221.676944
1255.260875,-9326.594869,0.000000,766.095498
1255.261195,-9622.677246,74.020594,1378.971896
1255.261516,-9918.759623,-814.226536,3140.991542
1255.261837,-9622.677246,-1850.514855,2145.067394
1255.262157,-8660.409521,-370.102971,0.000000
1255.262478,-8956.491898,2072.576638,-1302.362347
1255.262799,-8956.491898,2664.741391,306.438199
1255.263119,-9918.759623,1924.535449,1838.629195
1255.263440,-10066.800811,222.061783,1149.143247
1255.263761,-9400.615463,148.041188,-383.047749
1255.264082,-9548.656652,962.267725,459.657299
1255.264402,-11029.068536,592.164754,2298.286494
1255.264723,-10066.800811,-814.226536,2911.162892
1255.265044,-9696.697840,-2516.700203,1072.533697
1255.265364,-7846.182985,-1554.432478,-1991.848295
1255.265685,-8882.471304,222.061783,-1608.800546
1255.266006,-9400.615463,2072.576638,459.657299
1255.266326,-10066.800811,1998.556043,2298.286494
1255.266647,-9770.718434,1406.391290,0.000000
1255.266968,-9326.594869,74.020594,0.000000
1255.267289,-10066.800811,-592.164754,383.047749
1255.267609,-10510.924376,-1480.411884,2298.286494
1255.267930,-10288.862594,-2960.823768,2374.896044
1255.268251,-9326.594869,-2960.823768,153.219100
1255.268571,-8290.306550,-888.247130,-1685.410096
1255.268892,-9104.533087,1480.411884,0.000000
1255.269213,-9770.718434,1702.473667,1838.629195
1255.269534,-10362.883188,592.164754,1149.143247
1255.269854,-9696.697840,-518.144159,0.000000
1255.270175,-9252.574275,296.082377,-383.047749
1255.270496,-10140.821405,-148.041188,995.924147
1255.270816,-9400.615463,-2664.741391,3447.429741
1255.271137,-9622.677246,-3552.988522,1608.800546
1255.271458,-8660.409521,-2664.741391,-612.876398
1255.271778,-9252.574275,74.020594,-383.047749
1255.272099,-9918.759623,1628.453072,1685.410096
1255.272420,-10510.924376,888.247130,3294.210641
1255.272741,-9992.780217,-296.082377,2451.505594
1255.273061,-9104.533087,-1258.350101,612.876398
1255.273382,-9474.636058,-1332.370696,1838.629195
1255.273703,-10362.883188,-2516.700203,3370.820191
1255.274023,-9696.697840,-3775.050304,4136.915689
1255.274344,-9178.553681,-4219.173869,1532.190996
1255.274665,-7624.121203,-2072.576638,-229.828649
1255.274985,-8364.327145,962.267725,919.314598
1255.275306,-9622.677246,1036.288319,2145.067394
1255.275627,-9474.636058,0.000000,2451.505594
1255.275948,-9178.553681,-888.247130,612.876398
1255.276268,-9400.615463,-370.102971,0.000000
1255.276589,-9918.759623,0.000000,2451.505594
1255.276910,-10362.883188,-1850.514855,4136.915689
1255.277230,-10066.800811,-3330.926739,2834.553343
1255.277551,-7994.224174,-1480.411884,306.438199
1255.277872,-8734.430116,-1332.370696,-383.047749
1255.278193,-8142.265362,2294.638420,689.485948
1255.278513,-10584.944971,1628.453072,2298.286494
1255.278834,-9252.574275,518.144159,1608.800546
1255.279155,-8808.450710,-814.226536,1072.533697
1255.279475,-9474.636058,-962.267725,306.438199
1255.279796,-10140.821405,-1110.308913,2451.505594
1255.280117,-10732.986159,-2812.782580,3140.991542
1255.280437,-9252.574275,-2590.720797,1685.410096
1255.280758,-8364.327145,-1332.370696,-1225.752797
1255.281079,-8734.430116,1406.391290,-766.095498
1255.281400,-9770.718434,2442.679609,1532.190996
1255.281720,-10362.883188,1110.308913,1685.410096
1255.282041,-9474.636058,370.102971,-612.876398
1255.282362,-9400.615463,1036.288319,-1532.190996
1255.282682,-10584.944971,1480.411884,536.266849
1255.283003,-10362.883188,888.247130,2604.724693
1255.283324,-10955.047942,-1332.370696,2374.896044
1255.283644,-9326.594869,-1702.473667,-536.266849
1255.283965,-9104.533087,592.164754,-1685.410096
1255.284286,-9844.739029,2590.720797,306.438199
1255.284607,-10362.883188,2368.659014,1608.800546
1255.284927,-10362.883188,1554.432478,1838.629195
1255.285248,-9622.677246,148.041188,229.828649
1255.285569,-9178.553681,0.000000,229.828649
1255.285889,-10362.883188,-370.102971,2298.286494
1255.286210,-10510.924376,-1480.411884,4366.744339
1255.286531,-9696.697840,-2886.803174,2528.115143
1255.286852,-8512.368333,-1776.494261,-153.219100
1255.287172,-8142.265362,1258.350101,0.000000
1255.287493,-9474.636058,3108.864956,2834.553343
1255.287814,-10510.924376,1702.473667,3064.381992
1255.288134,-9474.636058,74.020594,919.314598
1255.288455,-9400.615463,74.020594,-459.657299
1255.288776,-9992.780217,666.185348,766.095498
1255.289096,-10362.883188,-666.185348,3447.429741
1255.289417,-9918.759623,-2442.679609,2911.162892
1255.289738,-8956.491898,-2590.720797,383.047749
1255.290059,-8290.306550,-296.082377,-1149.143247
1255.290379,-9474.636058,2516.700203,0.000000
1255.290700,-10140.821405,2516.700203,2374.896044
1255.291021,-9844.739029,1036.288319,2528.115143
1255.291341,-9178.553681,-814.226536,766.095498
1255.291662,-9030.512492,-1554.432478,1455.581446
1255.291983,-9696.697840,-1924.535449,1685.410096
1255.292303,-10140.821405,-2886.803174,3447.429741
1255.292624,-9548.656652,-3478.967927,2298.286494
1255.292945,-8438.347739,-2368.659014,-229.828649
1255.293266,-8216.285956,518.144159,-1072.533697
1255.293586,-9474.636058,1850.514855,383.047749
1255.293907,-9992.780217,1702.473667,1915.238745
1255.294228,-9770.718434,296.082377,383.047749
1255.294548,-9326.594869,222.061783,-383.047749
1255.294869,-9992.780217,370.102971,0.000000
1255.295190,-10584.944971,-592.164754,2528.115143
1255.295511,-10436.903782,-2442.679609,2757.943793
1255.295831,-9622.677246,-2886.803174,383.047749
1255.296152,-8512.368333,-1628.453072,-1608.800546
1255.296473,-9030.512492,888.247130,-1149.143247
1255.296793,-9548.656652,2072.576638,1302.362347
1255.297114,-10066.800811,1480.411884,2451.505594
1255.297435,-9844.739029,0.000000,919.314598
1255.297755,-9400.615463,-888.247130,-76.609550
1255.298076,-9918.759623,-666.185348,1302.362347
1255.298397,-11325.150913,-2220.617826,3600.648841
1255.298718,-10288.862594,-3552.988522,3370.820191
1255.299038,-9548.656652,-2886.803174,612.876398
1255.299359,-8364.327145,-148.041188,-459.657299
1255.299680,-9326.594869,1110.308913,76.609550
1255.300000,-10066.800811,1554.432478,536.266849
1255.300321,-9178.553681,1110.308913,1302.362347
1255.300642,-9770.718434,148.041188,-536.266849
1255.300962,-8882.471304,962.267725,76.609550
1255.301283,-10807.006753,-1036.288319,1762.019645
1255.301604,-10362.883188,-2220.617826,3064.381992
1255.301925,-9474.636058,-3627.009116,612.876398
1255.302245,-8734.430116,-1480.411884,-153.219100
1255.302566,-8882.471304,1258.350101,0.000000
1255.302887,-9104.533087,1776.494261,2528.115143
1255.303207,-10436.903782,740.205942,3217.601092
1255.303528,-9474.636058,-740.205942,1838.629195
1255.303849,-9326.594869,-666.185348,459.657299
1255.304170,-9400.615463,0.000000,2911.162892
1255.304490,-9770.718434,-1406.391290,3677.258390
1255.304811,-9548.656652,-2960.823768,3140.991542
1255.305132,-8512.368333,-3034.844362,76.609550
1255.305452,-7402.059420,-370.102971,-1072.533697
1255.305773,-9252.574275,1628.453072,-459.657299
1255.306094,-9326.594869,1776.494261,1532.190996
1255.306414,-9548.656652,296.082377,842.705048
1255.306735,-9696.697840,0.000000,-306.438199
1255.307056,-9770.718434,962.267725,-766.095498
1255.307377,-11177.109724,1036.288319,2374.896044
1255.307697,-11177.109724,-1110.308913,4136.915689
1255.308018,-10214.842000,-2368.659014,2145.067394
1255.308339,-9030.512492,-2442.679609,-689.485948
1255.308659,-8586.388927,592.164754,-1378.971896
1255.308980,-9844.739029,3034.844362,1072.533697
1255.309301,-10732.986159,2220.617826,2145.067394
1255.309621,-9548.656652,962.267725,1225.752797
1255.309942,-9030.512492,0.000000,-689.485948
1255.310263,-9548.656652,-518.144159,0.000000
1255.310584,-10584.944971,-1480.411884,2528.115143
1255.310904,-10510.924376,-2664.741391,3677.258390
1255.311225,-8660.409521,-2812.782580,1915.238745
1255.311546,-8808.450710,-518.144159,-536.266849
1255.311867,-8956.491898,1702.473667,-306.438199
1255.312187,-9918.759623,2072.576638,1302.362347
1255.312508,-9992.780217,962.267725,536.266849
1255.312829,-9252.574275,0.000000,-689.485948
1255.313150,-9326.594869,592.164754,-1149.143247
1255.313471,-10066.800811,370.102971,1072.533697
1255.313791,-10362.883188,-1258.350101,2911.162892
1255.314112,-10214.842000,-2886.803174,2298.286494
1255.314433,-9178.553681,-2664.741391,0.000000
1255.314754,-9400.615463,-444.123565,-383.047749
1255.315074,-9474.636058,1776.494261,612.876398
1255.315395,-9178.553681,1924.535449,1455.581446
1255.315716,-9918.759623,1406.391290,2068.457845
1255.316037,-8956.491898,0.000000,383.047749
1255.316357,-9400.615463,-666.185348,383.047749
1255.316678,-10066.800811,-1998.556043,1685.410096
1255.316999,-9474.636058,-2960.823768,2911.162892
1255.317320,-9770.718434,-3627.009116,1608.800546
1255.317641,-7772.162391,-740.205942,-306.438199
1255.317961,-8956.491898,1184.329507,229.828649
1255.318282,-9548.656652,1850.514855,2068.457845
1255.318603,-9548.656652,592.164754,2374.896044
1255.318924,-9622.677246,-1110.308913,689.485948
1255.319244,-8882.471304,-148.041188,-306.438199
1255.319565,-9770.718434,-222.061783,919.314598
1255.319886,-10436.903782,-1184.329507,3677.258390
1255.320207,-10510.924376,-3108.864956,3064.381992
1255.320527,-9548.656652,-3108.864956,1378.971896
1255.320848,-9178.553681,-888.247130,-229.828649
1255.321169,-10214.842000,1480.411884,995.924147
1255.321490,-10732.986159,1924.535449,2834.553343
1255.321811,-9770.718434,592.164754,1762.019645
1255.322131,-9178.553681,-296.082377,-383.047749
1255.322452,-8068.244768,-962.267725,-1149.143247
1255.322773,-9178.553681,-1850.514855,306.438199
1255.323094,-9622.677246,-2442.679609,2068.457845
1255.323414,-9474.636058,-3330.926739,1455.581446
1255.323735,-8586.388927,-2516.700203,-612.876398
1255.324056,-9030.512492,74.020594,-383.047749
1255.324377,-10066.800811,1998.556043,1838.629195
1255.324697,-10955.047942,962.267725,2834.553343
1255.325018,-10214.842000,-148.041188,1302.362347
1255.325339,-8882.471304,-518.144159,0.000000
1255.325660,-9400.615463,0.000000,-229.828649
1255.325981,-10362.883188,-518.144159,1915.238745
1255.326301,-10288.862594,-1924.535449,2145.067394
1255.326622,-8808.450710,-1998.556043,-689.485948
1255.326943,-7624.121203,0.000000,-2681.334243
1255.327264,-8660.409521,2442.679609,-1302.362347
1255.327584,-10362.883188,3108.864956,1762.019645
1255.327905,-10807.006753,1776.494261,2374.896044
1255.328226,-9696.697840,-74.020594,1302.362347
1255.328547,-9770.718434,-962.267725,0.000000
1255.328867,-10510.924376,-1184.329507,2757.943793
1255.329188,-11029.068536,-2368.659014,4596.572988
1255.329509,-9770.718434,-4071.132681,3677.258390
1255.329830,-7476.080014,-2072.576638,-306.438199
1255.330151,-7994.224174,518.144159,-1532.190996
1255.330471,-9030.512492,3108.864956,766.095498
1255.330792,-10140.821405,2072.576638,2451.505594
1255.331113,-9844.739029,1036.288319,995.924147
1255.331434,-8956.491898,0.000000,-612.876398
1255.331754,-9770.718434,0.000000,306.438199
1255.332075,-11325.150913,-592.164754,3524.039291
1255.332396,-10732.986159,-2442.679609,5898.935335
1255.332717,-9474.636058,-3034.844362,1149.143247
1255.333037,-8364.327145,-444.123565,-1149.143247
1255.333358,-9326.594869,2368.659014,0.000000
1255.333679,-10436.903782,3997.112087,2221.676944
1255.334000,-10584.944971,2812.782580,2451.505594
1255.334321,-9326.594869,666.185348,842.705048
1255.334641,-9178.553681,-814.226536,-153.219100
1255.334962,-9770.718434,-2146.597232,1532.190996
1255.335283,-9992.780217,-3108.864956,4826.401637
1255.335604,-10214.842000,-3849.070898,3370.820191
1255.335924,-9252.574275,-2442.679609,1302.362347
1255.336245,-8216.285956,888.247130,-153.219100
1255.336566,-10510.924376,3478.967927,1378.971896
1255.336887,-10066.800811,2590.720797,2374.896044
1255.337207,-9548.656652,370.102971,842.705048
1255.337528,-9104.533087,-814.226536,-1302.362347
1255.337849,-8660.409521,592.164754,0.000000
1255.338170,-10881.027347,-1702.473667,2451.505594
1255.338491,-9844.739029,-2368.659014,3753.867940
1255.338811,-9474.636058,-4219.173869,1225.752797
1255.339132,-8364.327145,-2072.576638,-995.924147
1255.339453,-8734.430116,1036.288319,-383.047749
1255.339774,-9918.759623,2368.659014,1608.800546
1255.340094,-9844.739029,1702.473667,2757.943793
1255.340415,-9178.553681,-148.041188,306.438199
1255.340736,-8808.450710,-1776.494261,-229.828649
1255.341057,-9030.512492,-1702.473667,383.047749
1255.341377,-10658.965565,-1554.432478,3370.820191
1255.341698,-10288.862594,-3478.967927,2987.772442
1255.342019,-8956.491898,-2146.597232,229.828649
1255.342340,-8438.347739,-148.041188,-919.314598
1255.342661,-9104.533087,2220.617826,-229.828649
1255.342981,-10436.903782,2590.720797,2145.067394
1255.343302,-10066.800811,518.144159,1302.362347
1255.343623,-8734.430116,-296.082377,-995.924147
1255.343944,-9400.615463,0.000000,-995.924147
1255.344264,-10214.842000,0.000000,1915.238745
1255.344585,-10658.965565,-1554.432478,3217.601092
1255.344906,-10140.821405,-2368.659014,842.705048
1255.345227,-8660.409521,-2220.617826,-766.095498
1255.345547,-8808.450710,518.144159,-1149.143247
1255.345868,-10510.924376,1998.556043,1685.410096
1255.346189,-10584.944971,1702.473667,2834.553343
1255.346510,-9992.780217,296.082377,1532.190996
1255.346831,-9326.594869,-740.205942,153.219100
1255.347151,-9696.697840,-740.205942,383.047749
1255.347472,-10732.986159,-1924.535449,2528.115143
1255.347793,-10066.800811,-2960.823768,3294.210641
1255.348114,-9474.636058,-2368.659014,1608.800546
1255.348434,-8808.450710,-962.267725,229.828649
1255.348755,-9326.594869,1258.350101,383.047749
1255.349076,-10214.842000,1776.494261,1991.848295
1255.349397,-10362.883188,962.267725,2221.676944
1255.349717,-9474.636058,-296.082377,76.609550
1255.350038,-8956.491898,296.082377,-689.485948
1255.350359,-10140.821405,0.000000,1532.190996
1255.350680,-10732.986159,-1406.391290,3064.381992
1255.351001,-9770.718434,-3404.947333,2604.724693
1255.351321,-9030.512492,-3034.844362,0.000000
1255.351642,-8512.368333,222.061783,-919.314598
1255.351963,-8068.244768,2220.617826,612.876398
1255.352284,-10066.800811,2664.741391,2374.896044
1255.352604,-9696.697840,1258.350101,1455.581446
1255.352925,-8882.471304,0.000000,-766.095498
1255.353246,-9030.512492,-518.144159,-153.219100
1255.353567,-10140.821405,-1850.514855,2374.896044
1255.353887,-9918.759623,-3627.009116,2987.772442
1255.354208,-9104.533087,-4071.132681,1149.143247
1255.354529,-8142.265362,-1480.411884,-1225.752797
1255.354850,-8586.388927,1554.432478,-153.219100
1255.355171,-9992.780217,3108.864956,1532.190996
1255.355491,-9918.759623,2072.576638,2374.896044
1255.355812,-9474.636058,74.020594,0.000000
1255.356133,-9400.615463,-148.041188,-306.438199
1255.356454,-9992.780217,0.000000,1072.533697
1255.356774,-10881.027347,-1628.453072,2987.772442
1255.357095,-9844.739029,-3034.844362,2528.115143
1255.357416,-8808.450710,-2886.803174,-153.219100
1255.357737,-8586.388927,-666.185348,-1915.238745
1255.358057,-9622.677246,2294.638420,306.438199
1255.358378,-10436.903782,2812.782580,2145.067394
1255.358699,-10436.903782,1924.535449,2145.067394
1255.359020,-9548.656652,518.144159,459.657299
1255.359341,-9474.636058,0.000000,153.219100
1255.359661,-9918.759623,-1258.350101,2145.067394
1255.359982,-10584.944971,-2664.741391,3524.039291
1255.360303,-9770.718434,-3701.029710,1685.410096
1255.360624,-8586.388927,-1628.453072,0.000000
1255.360944,-8734.430116,1110.308913,-153.219100
1255.361265,-9770.718434,2664.741391,1302.362347
1255.361586,-10140.821405,1776.494261,2068.457845
1255.361907,-9548.656652,0.000000,612.876398
1255.362227,-8882.471304,222.061783,-995.924147
1255.362548,-9992.780217,0.000000,459.657299
1255.362869,-10362.883188,-962.267725,3370.820191
1255.363190,-10214.842000,-3182.885551,3217.601092
1255.363511,-9622.677246,-3256.906145,1149.143247
1255.363831,-8512.368333,-444.123565,-612.876398
1255.364152,-9178.553681,1702.473667,229.828649
1255.364473,-10140.821405,2368.659014,1838.629195
1255.364794,-9548.656652,1036.288319,2451.505594
1255.365114,-8734.430116,-1110.308913,536.266849
1255.365435,-8290.306550,-1406.391290,306.438199
1255.365756,-9622.677246,-2442.679609,1762.019645
1255.366077,-9844.739029,-3108.864956,3753.867940
1255.366397,-9548.656652,-4219.173869,2528.115143
1255.366718,-8068.244768,-2812.782580,-919.314598
1255.367039,-7920.203579,962.267725,0.000000
1255.367360,-10732.986159,1702.473667,1378.971896
1255.367681,-9696.697840,1110.308913,2757.943793
1255.368001,-9844.739029,-1332.370696,689.485948
1255.368322,-9104.533087,0.000000,-612.876398
1255.368643,-9252.574275,-518.144159,536.266849
1255.368964,-10066.800811,-222.061783,3370.820191
1255.369284,-9844.739029,-2220.617826,2911.162892
1255.369605,-9474.636058,-3256.906145,153.219100
1255.369926,-7994.224174,-1702.473667,-842.705048
1255.370247,-8956.491898,1554.432478,-1225.752797
1255.370567,-10362.883188,3256.906145,1225.752797
1255.370888,-10732.986159,2442.679609,1991.848295
1255.371209,-9548.656652,1036.288319,612.876398
1255.371530,-8882.471304,-296.082377,-76.609550
1255.371851,-10658.965565,-222.061783,995.924147
1255.372171,-11843.295072,-1628.453072,4443.353888
1255.372492,-10658.965565,-3775.050304,2834.553343
1255.372813,-9548.656652,-2516.700203,919.314598
1255.373134,-8660.409521,-148.041188,-995.924147
1255.373454,-8808.450710,1406.391290,536.266849
1255.373775,-10214.842000,1702.473667,1838.629195
1255.374096,-9326.594869,518.144159,459.657299
1255.374417,-8290.306550,148.041188,-1838.629195
1255.374737,-9474.636058,740.205942,-1532.190996
1255.375058,-10510.924376,444.123565,1991.848295
1255.375379,-11029.068536,-962.267725,3294.210641
1255.375700,-9326.594869,-2664.741391,2068.457845
1255.376020,-9178.553681,-740.205942,-689.485948
1255.376341,-9474.636058,1110.308913,-306.438199
1255.376662,-10584.944971,2368.659014,1762.019645
1255.376983,-9622.677246,1850.514855,1455.581446
1255.377304,-9770.718434,222.061783,1072.533697
1255.377624,-8586.388927,-370.102971,-459.657299
1255.377945,-9104.533087,-518.144159,766.095498
1255.378266,-9992.780217,-1998.556043,3294.210641
1255.378587,-9622.677246,-2960.823768,3294.210641
1255.378907,-9030.512492,-2886.803174,1302.362347
1255.379228,-8364.327145,-740.205942,-153.219100
1255.379549,-9030.512492,1998.556043,1072.533697
1255.379870,-9992.780217,2072.576638,3217.601092
1255.380190,-9770.718434,518.144159,2451.505594
1255.380511,-8956.491898,222.061783,-612.876398
1255.380832,-8808.450710,1110.308913,-842.705048
1255.381153,-9474.636058,1702.473667,919.314598
1255.381474,-10288.862594,-666.185348,3600.648841
1255.381794,-9992.780217,-2590.720797,2298.286494
1255.382115,-8808.450710,-2442.679609,-383.047749
1255.382436,-8586.388927,0.000000,-1378.971896
1255.382757,-10140.821405,1406.391290,1378.971896
1255.383077,-10214.842000,1332.370696,3140.991542
1255.383398,-9992.780217,-222.061783,1685.410096
1255.383719,-8882.471304,-592.164754,-459.657299
1255.384040,-9326.594869,-814.226536,-306.438199
1255.384360,-10584.944971,-2072.576638,2374.896044
1255.384681,-10584.944971,-3182.885551,2911.162892
1255.385002,-9696.697840,-3182.885551,536.266849
1255.385323,-7920.203579,-814.226536,-1915.238745
1255.385644,-9326.594869,2072.576638,-689.485948
1255.385964,-10436.903782,2590.720797,1225.752797
1255.386285,-10436.903782,888.247130,1149.143247
1255.386606,-9474.636058,0.000000,-919.314598
1255.386927,-9252.574275,518.144159,-1991.848295
1255.387247,-10288.862594,296.082377,306.438199
1255.387568,-10807.006753,-1184.329507,3064.381992
1255.387889,-10140.821405,-3182.885551,2374.896044
1255.388210,-9474.636058,-2590.720797,76.609550
1255.388530,-9400.615463,-740.205942,-766.095498
1255.388851,-10140.821405,1184.329507,1225.752797
1255.389172,-10881.027347,1110.308913,3524.039291
1255.389493,-9992.780217,888.247130,3907.087040
1255.389814,-10066.800811,-1036.288319,459.657299
1255.390134,-8364.327145,-814.226536,-459.657299
1255.390455,-9474.636058,-2220.617826,919.314598
1255.390776,-9770.718434,-2368.659014,2451.505594
1255.391097,-8808.450710,-2664.741391,612.876398
1255.391417,-7772.162391,-592.164754,-1532.190996
1255.391738,-8290.306550,2368.659014,-919.314598
1255.392059,-9622.677246,3330.926739,1149.143247
1255.392380,-10584.944971,2368.659014,3830.477490
1255.392700,-9474.636058,0.000000,1532.190996
1255.393021,-9992.780217,370.102971,306.438199
1255.393342,-9992.780217,518.144159,1991.848295
1255.393663,-10436.903782,-1036.288319,4290.134789
1255.393984,-10362.883188,-3849.070898,3983.696590
1255.394304,-8586.388927,-4441.235652,766.095498
1255.394625,-7698.141797,-1702.473667,-1762.019645
1255.394946,-8586.388927,1554.432478,-229.828649
1255.395267,-9844.739029,1924.535449,76.609550
1255.395587,-9326.594869,1110.308913,2068.457845
1255.395908,-8734.430116,0.000000,612.876398
1255.396229,-9548.656652,-666.185348,229.828649
1255.396550,-10214.842000,-1850.514855,3064.381992
1255.396870,-11251.130318,-4071.132681,4903.011187
1255.397191,-10288.862594,-4219.173869,3600.648841
1255.397512,-8734.430116,-2220.617826,1149.143247
1255.397833,-8882.471304,296.082377,689.485948
1255.398154,-9030.512492,2146.597232,2681.334243
1255.398474,-9474.636058,888.247130,1455.581446
1255.398795,-9400.615463,740.205942,-229.828649
1255.399116,-9030.512492,592.164754,-1532.190996
1255.399437,-9770.718434,814.226536,0.000000
1255.399757,-10140.821405,-444.123565,2374.896044
1255.400078,-10214.842000,-2664.741391,2528.115143
1255.400399,-9622.677246,-1998.556043,689.485948
1255.400720,-10214.842000,-814.226536,0.000000
1255.401040,-9400.615463,1702.473667,-306.438199
1255.401361,-10658.965565,3182.885551,2221.676944
1255.401682,-10510.924376,1332.370696,1685.410096
1255.402003,-9104.533087,888.247130,0.000000
1255.402324,-8956.491898,0.000000,383.047749
1255.402644,-9474.636058,-888.247130,766.095498
1255.402965,-9992.780217,-2442.679609,2068.457845
1255.403286,-10140.821405,-4071.132681,1378.971896
1255.403607,-8808.450710,-1628.453072,2604.724693
1255.403927,-9252.574275,814.226536,-536.266849
1255.404248,-9622.677246,3034.844362,1378.971896
1255.404569,-10955.047942,2368.659014,2221.676944
1255.404890,-10436.903782,1036.288319,842.705048
1255.405210,-9400.615463,1406.391290,-612.876398
1255.405531,-9770.718434,370.102971,-153.219100
1255.405852,-9918.759623,-148.041188,2298.286494
1255.406173,-10214.842000,-2294.638420,2834.553343
1255.406494,-9030.512492,-3108.864956,1838.629195
1255.406814,-8290.306550,-1258.350101,-995.924147
1255.407135,-9252.574275,740.205942,76.609550
1255.407456,-9548.656652,2072.576638,2145.067394
1255.407777,-9474.636058,2072.576638,3524.039291
1255.408097,-9548.656652,74.020594,1608.800546
1255.408418,-8364.327145,-518.144159,229.828649
1255.408739,-9104.533087,-888.247130,1608.800546
1255.409060,-10362.883188,-2294.638420,4136.915689
1255.409380,-9992.780217,-3404.947333,3370.820191
1255.409701,-9030.512492,-2664.741391,1225.752797
1255.410022,-8068.244768,-296.082377,-536.266849
1255.410343,-8586.388927,2516.700203,842.705048
1255.410663,-9918.759623,1628.453072,1302.362347
1255.410984,-9622.677246,1480.411884,1608.800546
1255.411305,-9178.553681,592.164754,-153.219100
1255.411625,-9474.636058,740.205942,0.000000
1255.411946,-10288.862594,-74.020594,2451.505594
1255.412267,-10732.986159,-2294.638420,3447.429741
1255.412587,-9918.759623,-3108.864956,2145.067394
1255.412908,-9030.512492,-1776.494261,-306.438199
1255.413229,-8808.450710,666.185348,-153.219100
1255.413549,-9918.759623,1406.391290,1378.971896
1255.413870,-9992.780217,1184.329507,1991.848295
1255.414191,-9918.759623,0.000000,612.876398
1255.414511,-9400.615463,-296.082377,-689.485948
1255.414832,-9844.739029,-740.205942,383.047749
1255.415153,-10658.965565,-1924.535449,2451.505594
1255.415473,-10584.944971,-3330.926739,2298.286494
1255.415794,-8956.491898,-3552.988522,0.000000
1255.416115,-8512.368333,-1628.453072,-1302.362347
1255.416435,-9104.533087,592.164754,-306.438199
1255.416756,-9992.780217,888.247130,1149.143247
1255.417077,-10066.800811,0.000000,1072.533697
1255.417397,-9252.574275,0.000000,-995.924147
1255.417718,-9474.636058,148.041188,-689.485948
1255.418039,-10436.903782,-370.102971,1302.362347
1255.418359,-10584.944971,-1850.514855,2757.943793
1255.418680,-9992.780217,-3627.009116,1685.410096
1255.419001,-7920.203579,-3108.864956,766.095498
1255.419321,-8660.409521,74.020594,-842.705048
1255.419642,-9548.656652,2146.597232,1225.752797
1255.419963,-9992.780217,1998.556043,2298.286494
1255.420283,-9548.656652,888.247130,1378.971896
1255.420604,-8808.450710,74.020594,0.000000
1255.420925,-9252.574275,0.000000,612.876398
1255.421245,-10288.862594,-1110.308913,2911.162892
1255.421566,-10436.903782,-2738.761985,3524.039291
1255.421887,-9104.533087,-3330.926739,1378.971896
1255.422207,-8512.368333,-1554.432478,-306.438199
1255.422528,-8882.471304,888.247130,536.266849
1255.422849,-9992.780217,1998.556043,2374.896044
1255.423169,-9918.759623,1332.370696,2604.724693
1255.423490,-9178.553681,666.185348,612.876398
1255.423811,-9548.656652,1036.288319,306.438199
1255.424131,-10288.862594,0.000000,1762.019645
1255.424452,-10881.027347,-1850.514855,3677.258390
1255.424773,-10214.842000,-3330.926739,2987.772442
1255.425093,-9400.615463,-2516.700203,306.438199
1255.425414,-9104.533087,0.000000,-536.266849
1255.425735,-9252.574275,2960.823768,1225.752797
1255.426055,-10066.800811,2368.659014,2221.676944
1255.426376,-9844.739029,1480.411884,1608.800546
1255.426697,-9252.574275,0.000000,153.219100
1255.427017,-9400.615463,-740.205942,536.266849
1255.427338,-10140.821405,-1406.391290,3677.258390
1255.427658,-10436.903782,-3701.029710,3600.648841
1255.427979,-9474.636058,-4071.132681,2298.286494
1255.428300,-8290.306550,-2516.700203,-153.219100
1255.428620,-8364.327145,962.267725,-383.047749
1255.428941,-9770.718434,1850.514855,1455.581446
1255.429262,-9622.677246,1480.411884,1915.238745
1255.429582,-9474.636058,592.164754,-306.438199
1255.429903,-9252.574275,740.205942,-1302.362347
1255.430224,-10510.924376,740.205942,229.828649
1255.430544,-10881.027347,-148.041188,2604.724693
1255.430865,-10807.006753,-1702.473667,2528.115143
1255.431186,-9474.636058,-2220.617826,0.000000
1255.431506,-9030.512492,-222.061783,-1149.143247
1255.431827,-9178.553681,1628.453072,-306.438199
1255.432148,-9770.718434,2220.617826,1225.752797
1255.432468,-9400.615463,1036.288319,919.314598
1255.432789,-9030.512492,0.000000,-383.047749
1255.433110,-8586.388927,-814.226536,-536.266849
1255.433430,-10066.800811,-1628.453072,1532.190996
1255.433751,-10732.986159,-2664.741391,4136.915689
1255.434072,-10362.883188,-3701.029710,2451.505594
1255.434392,-9178.553681,-1850.514855,536.266849
1255.434713,-9474.636058,222.061783,-229.828649
1255.435034,-9548.656652,3034.844362,1838.629195
1255.435354,-10732.986159,888.247130,2528.115143
1255.435675,-9844.739029,-296.082377,995.924147
1255.435996,-9030.512492,-1184.329507,-1608.800546
1255.436316,-9326.594869,0.000000,-459.657299
1255.436637,-10807.006753,-296.082377,2451.505594
1255.436958,-9992.780217,-1924.535449,2604.724693
1255.437278,-9326.594869,-1924.535449,842.705048
1255.437599,-8512.368333,-148.041188,-1225.752797
1255.437920,-9474.636058,2220.617826,0.000000
1255.438240,-10955.047942,1628.453072,2451.505594
1255.438561,-9770.718434,1332.370696,1915.238745
1255.438882,-9696.697840,0.000000,459.657299
1255.439202,-9030.512492,0.000000,0.000000
1255.439523,-9474.636058,-222.061783,2068.457845
1255.439844,-10955.047942,-1406.391290,3677.258390
1255.440164,-9992.780217,-3108.864956,3830.477490
1255.440485,-8586.388927,-2664.741391,766.095498
1255.440806,-8808.450710,-222.061783,229.828649
1255.441126,-9400.615463,1184.329507,2374.896044
1255.441447,-9844.739029,1110.308913,2681.334243
1255.441768,-9474.636058,0.000000,1455.581446
1255.442088,-9178.553681,-148.041188,-919.314598
1255.442409,-9178.553681,666.185348,-459.657299
1255.442730,-9844.739029,296.082377,2221.676944
1255.443050,-10066.800811,-1480.411884,2604.724693
1255.443371,-9474.636058,-2516.700203,842.705048
1255.443692,-8586.388927,-1776.494261,-919.314598
1255.444012,-9030.512492,0.000000,-536.266849
1255.444333,-9844.739029,592.164754,1685.410096
1255.444654,-10584.944971,222.061783,2298.286494
1255.444974,-9770.718434,-518.144159,1072.533697
1255.445295,-9252.574275,-444.123565,-536.266849
1255.445616,-9696.697840,0.000000,766.095498
1255.445936,-10658.965565,-1258.350101,2834.553343
1255.446257,-9844.739029,-3256.906145,2221.676944
1255.446578,-8660.409521,-2590.720797,-306.438199
1255.446898,-8142.265362,-592.164754,-1532.190996
1255.447219,-9030.512492,1702.473667,383.047749
1255.447540,-10658.965565,1776.494261,2068.457845
1255.447860,-10214.842000,962.267725,1072.533697
1255.448181,-9622.677246,1480.411884,-766.095498
1255.448502,-9622.677246,1628.453072,-383.047749
1255.448822,-10881.027347,962.267725,1838.629195
1255.449143,-10881.027347,-1184.329507,3140.991542
1255.449464,-9992.780217,-2886.803174,1455.581446
1255.449784,-8512.368333,-1628.453072,-1532.190996
1255.450105,-8956.491898,814.226536,-1149.143247
1255.450426,-9844.739029,1850.514855,995.924147
1255.450746,-10362.883188,1776.494261,2681.334243
1255.451067,-9696.697840,-148.041188,1455.581446
1255.451388,-9548.656652,-1554.432478,-76.609550
1255.451708,-9326.594869,-296.082377,1608.800546
1255.452029,-11843.295072,-3775.050304,2987.772442
1255.452350,-8956.491898,-3404.947333,4060.306139
1255.452670,-9104.533087,-3627.009116,766.095498
1255.452991,-8512.368333,-222.061783,-842.705048
1255.453312,-8660.409521,2146.597232,-153.219100
1255.453632,-10140.821405,2812.782580,2145.067394
1255.453953,-9992.780217,1702.473667,1915.238745
1255.454274,-8660.409521,518.144159,-995.924147
1255.454594,-9992.780217,1258.350101,-306.438199
1255.454915,-10288.862594,148.041188,1685.410096
1255.455236,-10436.903782,-1036.288319,3370.820191
1255.455556,-10288.862594,-2664.741391,2528.115143
1255.455877,-8808.450710,-2442.679609,0.000000
1255.456198,-8290.306550,0.000000,-766.095498
1255.456518,-11103.089130,2220.617826,459.657299
1255.456839,-10066.800811,1110.308913,3064.381992
1255.457160,-10140.821405,0.000000,2145.067394
1255.457480,-9548.656652,-518.144159,306.438199
1255.457801,-9252.574275,-592.164754,2221.676944
1255.458122,-10436.903782,-2664.741391,2911.162892
1255.458442,-9992.780217,-4441.235652,3217.601092
1255.458763,-9030.512492,-4441.235652,153.219100
1255.459083,-7624.121203,-1480.411884,-1532.190996
1255.459404,-9030.512492,2220.617826,0.000000
1255.459725,-9326.594869,2664.741391,1838.629195
1255.460045,-9770.718434,1036.288319,1838.629195
1255.460366,-9622.677246,0.000000,229.828649
1255.460687,-9252.574275,1628.453072,842.705048
1255.461007,-11695.253884,0.000000,2451.505594
1255.461328,-11251.130318,-1036.288319,4443.353888
1255.461649,-10066.800811,-3256.906145,2681.334243
1255.461969,-9474.636058,-4145.153275,229.828649
1255.462290,-7550.100608,-370.102971,-1532.190996
1255.462611,-9770.718434,1110.308913,76.609550
1255.462931,-9030.512492,2368.659014,612.876398
1255.463252,-9474.636058,2294.638420,612.876398
1255.463573,-8586.388927,888.247130,0.000000
1255.463893,-9178.553681,148.041188,153.219100
1255.464214,-10955.047942,-1776.494261,2451.505594
1255.464535,-10732.986159,-3552.988522,3983.696590
1255.464855,-10658.965565,-3923.091493,2145.067394
1255.465176,-9326.594869,-1924.535449,842.705048
1255.465497,-8882.471304,1036.288319,919.314598
1255.465817,-9622.677246,2442.679609,2374.896044
1255.466138,-9030.512492,1184.329507,1608.800546
1255.466459,-9326.594869,-222.061783,-612.876398
1255.466779,-8808.450710,0.000000,-1225.752797
1255.467100,-9622.677246,222.061783,612.876398
1255.467421,-10436.903782,0.000000,3524.039291
1255.467741,-10584.944971,-2220.617826,3217.601092
1255.468062,-9696.697840,-2886.803174,766.095498
1255.468383,-9030.512492,-370.102971,-612.876398
1255.468703,-9548.656652,1924.535449,612.876398
1255.469024,-10214.842000,2220.617826,2604.724693
1255.469345,-10214.842000,1850.514855,1762.019645
1255.469665,-9400.615463,814.226536,0.000000
1255.469986,-9030.512492,814.226536,-306.438199
1255.470307,-10140.821405,-148.041188,1302.362347
1255.470627,-10436.903782,-2368.659014,3907.087040
1255.470948,-9918.759623,-3775.050304,2451.505594
1255.471269,-8956.491898,-2738.761985,383.047749
1255.471589,-8808.450710,0.000000,383.047749
1255.471910,-9400.615463,1332.370696,2374.896044
1255.472231,-10214.842000,1110.308913,2834.553343
1255.472551,-9474.636058,296.082377,766.095498
1255.472872,-9104.533087,74.020594,-995.924147
1255.473193,-9696.697840,148.041188,0.000000
1255.473513,-10510.924376,-666.185348,2528.115143
1255.473834,-9992.780217,-2072.576638,2681.334243
1255.474155,-9400.615463,-2220.617826,536.266849
1255.474475,-8808.450710,-444.123565,-612.876398
1255.474796,-9104.533087,1406.391290,-229.828649
1255.475117,-10288.862594,1554.432478,1685.410096
1255.475437,-9918.759623,592.164754,1225.752797
1255.475758,-9252.574275,-148.041188,-383.047749
1255.476079,-8586.388927,-296.082377,-995.924147
1255.476399,-9400.615463,-666.185348,536.266849
1255.476720,-10436.903782,-2072.576638,2528.115143
1255.477041,-9918.759623,-3701.029710,2145.067394
1255.477361,-8216.285956,-2886.803174,229.828649
1255.477682,-8882.471304,-148.041188,-383.047749
1255.478003,-9474.636058,2146.597232,1225.752797
1255.478323,-9770.718434,1628.453072,1762.019645
1255.478644,-9992.780217,1480.411884,842.705048
1255.478965,-9252.574275,444.123565,-1302.362347
1255.479285,-9474.636058,518.144159,-229.828649
1255.479606,-10510.924376,-592.164754,2451.505594
1255.479927,-10732.986159,-2220.617826,2911.162892
1255.480247,-9400.615463,-2960.823768,1225.752797
1255.480568,-9030.512492,-1406.391290,-842.705048
1255.480889,-9178.553681,740.205942,-306.438199
1255.481209,-9622.677246,2442.679609,1685.410096
1255.481530,-10807.006753,1850.514855,1378.971896
1255.481851,-9696.697840,1184.329507,1149.143247
1255.482171,-9474.636058,0.000000,153.219100
1255.482492,-9918.759623,-1036.288319,1762.019645
1255.482813,-10288.862594,-2590.720797,3064.381992
1255.483133,-10288.862594,-3701.029710,3140.991542
1255.483454,-9030.512492,-3034.844362,995.924147
1255.483775,-8068.244768,-592.164754,0.000000
1255.484095,-9326.594869,1776.494261,1302.362347
1255.484416,-9992.780217,2146.597232,2834.553343
1255.484737,-9992.780217,370.102971,2298.286494
1255.485057,-9178.553681,-592.164754,-229.828649
1255.485378,-9474.636058,-444.123565,229.828649
1255.485699,-10214.842000,-962.267725,2298.286494
1255.486019,-10288.862594,-2738.761985,3830.477490
1255.486340,-9178.553681,-3108.864956,1762.019645
1255.486661,-8882.471304,-1998.556043,-459.657299
1255.486981,-8290.306550,1998.556043,-766.095498
1255.487302,-9992.780217,3701.029710,1838.629195
1255.487623,-10214.842000,3256.906145,3064.381992
1255.487943,-9696.697840,1332.370696,1532.190996
1255.488264,-8660.409521,74.020594,0.000000
1255.488585,-8660.409521,-962.267725,1072.533697
1255.488905,-10362.883188,-2664.741391,2604.724693
1255.489226,-9844.739029,-4145.153275,3447.429741
1255.489547,-8734.430116,-3997.112087,383.047749
1255.489867,-8216.285956,-1554.432478,-1302.362347
1255.490188,-8882.471304,1332.370696,612.876398
1255.490508,-10288.862594,1850.514855,2145.067394
1255.490829,-9696.697840,666.185348,1532.190996
1255.491150,-8438.347739,222.061783,-1608.800546
1255.491470,-9474.636058,148.041188,-842.705048
1255.491791,-10140.821405,74.020594,1455.581446
1255.492112,-11251.130318,-1480.411884,3524.039291
1255.492432,-10066.800811,-2886.803174,1915.238745
1255.492753,-8808.450710,-1702.473667,-689.485948
1255.493074,-9326.594869,518.144159,-1302.362347
1255.493394,-9844.739029,2368.659014,306.438199
1255.493715,-10066.800811,2368.659014,1378.971896
1255.494036,-9474.636058,1406.391290,842.705048
1255.494356,-9030.512492,0.000000,-995.924147
1255.494677,-9326.594869,-888.247130,76.609550
1255.494998,-9992.780217,-1998.556043,2374.896044
1255.495318,-9770.718434,-2442.679609,4136.915689
1255.495639,-9696.697840,-2442.679609,1685.410096
1255.495960,-8808.450710,-370.102971,0.000000
1255.496280,-9474.636058,1776.494261,229.828649
1255.496601,-9992.780217,2072.576638,2298.286494
1255.496922,-10066.800811,444.123565,1991.848295
1255.497242,-9474.636058,-370.102971,0.000000
1255.497563,-9326.594869,296.082377,-229.828649
1255.497884,-10436.903782,-370.102971,1838.629195
1255.498204,-8956.491898,-814.226536,3064.381992
1255.498525,-10140.821405,-2368.659014,2528.115143
1255.498846,-8734.430116,-1480.411884,0.000000
1255.499166,-8956.491898,1258.350101,-306.438199
1255.499487,-10140.821405,3034.844362,2604.724693
1255.499808,-10362.883188,2812.782580,2681.334243
1255.500128,-9918.759623,1406.391290,1378.971896
1255.500449,-8808.450710,814.226536,459.657299
1255.500770,-9326.594869,-1332.370696,2374.896044
1255.501090,-9548.656652,-1184.329507,2834.553343
1255.501411,-10214.842000,-3552.988522,3140.991542
1255.501732,-8660.409521,-3034.844362,1378.971896
1255.502052,-8734.430116,-74.020594,-306.438199
1255.502373,-8734.430116,2294.638420,1455.581446
1255.502694,-9474.636058,2516.700203,2451.505594
1255.503014,-9918.759623,740.205942,2221.676944
1255.503335,-9622.677246,-296.082377,0.000000
1255.503656,-8808.450710,0.000000,0.000000
1255.503976,-10362.883188,-296.082377,1455.581446
1255.504297,-9844.739029,-1776.494261,3447.429741
1255.504618,-9918.759623,-3108.864956,2374.896044
1255.504938,-9030.512492,-2960.823768,0.000000
1255.505259,-8216.285956,-592.164754,-1532.190996
1255.505580,-9696.697840,1406.391290,536.266849
1255.505900,-9696.697840,1036.288319,1685.410096
1255.506221,-9918.759623,222.061783,1225.752797
1255.506542,-9474.636058,-1184.329507,-536.266849
1255.506862,-9104.533087,-962.267725,-306.438199
1255.507183,-10288.862594,-1480.411884,1915.238745
1255.507504,-10732.986159,-2738.761985,3600.648841
1255.507824,-9770.718434,-3182.885551,3447.429741
1255.508145,-9474.636058,-2294.638420,689.485948
1255.508466,-9252.574275,-296.082377,153.219100
1255.508786,-9622.677246,1110.308913,1455.581446
1255.509107,-10140.821405,444.123565,2374.896044
1255.509428,-9770.718434,-518.144159,229.828649
1255.509748,-8660.409521,148.041188,-1532.190996
1255.510069,-9400.615463,-296.082377,-612.876398
1255.510390,-9918.759623,-888.247130,842.705048
1255.510710,-9770.718434,-1480.411884,1608.800546
1255.511031,-9622.677246,-2294.638420,153.219100
1255.511352,-8438.347739,-444.123565,-1302.362347
1255.511672,-9326.594869,1110.308913,-383.047749
1255.511993,-10955.047942,1628.453072,2068.457845
1255.512314,-10214.842000,518.144159,2374.896044
1255.512634,-10214.842000,-1258.350101,766.095498
1255.512955,-8956.491898,-962.267725,306.438199
1255.513275,-9770.718434,-1332.370696,1302.362347
1255.513596,-11029.068536,-2516.700203,2987.772442
1255.513917,-9622.677246,-2960.823768,2145.067394
1255.514237,-8882.471304,-2072.576638,-306.438199
1255.514558,-8586.388927,814.226536,-766.095498
1255.514879,-8956.491898,2220.617826,919.314598
1255.515199,-9918.759623,2442.679609,2298.286494
1255.515520,-9918.759623,1406.391290,1378.971896
1255.515840,-9252.574275,962.267725,-306.438199
1255.516161,-9030.512492,1702.473667,1455.581446
1255.516482,-11251.130318,962.267725,2987.772442
1255.516802,-11325.150913,-444.123565,4596.572988
1255.517123,-9918.759623,-1850.514855,2451.505594
1255.517444,-8808.450710,-1332.370696,0.000000
1255.517764,-8586.388927,592.164754,-459.657299
1255.518085,-9770.718434,1924.535449,2451.505594
1255.518405,-10214.842000,666.185348,3140.991542
1255.518726,-9178.553681,0.000000,1685.410096
1255.519047,-9548.656652,-1554.432478,-229.828649
1255.519367,-9178.553681,-1628.453072,1532.190996
1255.519688,-10066.800811,-2442.679609,3217.601092
1255.520009,-10362.883188,-3701.029710,2911.162892
1255.520329,-8808.450710,-2590.720797,0.000000
1255.520650,-8142.265362,-444.123565,-1685.410096
1255.520970,-9178.553681,2220.617826,689.485948
1255.521291,-9622.677246,2146.597232,1838.629195
1255.521612,-9844.739029,1036.288319,919.314598
1255.521932,-9252.574275,148.041188,-306.438199
1255.522253,-9252.574275,148.041188,-612.876398
1255.522574,-10066.800811,-222.061783,1685.410096
1255.522894,-10807.006753,-1628.453072,3064.381992
1255.523215,-9474.636058,-1628.453072,842.705048
1255.523535,-8882.471304,-518.144159,-995.924147
1255.523856,-9178.553681,962.267725,-1149.143247
1255.524177,-9400.615463,2072.576638,612.876398
1255.524497,-10955.047942,888.247130,2145.067394
1255.524818,-10066.800811,518.144159,766.095498
1255.525139,-9992.780217,222.061783,-153.219100
1255.525459,-10140.821405,296.082377,459.657299
1255.525780,-10658.965565,-148.041188,2528.115143
1255.526100,-10732.986159,-1998.556043,2221.676944
1255.526421,-8956.491898,-1998.556043,-536.266849
1255.526742,-8290.306550,-592.164754,-2604.724693
1255.527062,-8216.285956,1850.514855,-1762.019645
1255.527383,-9030.512492,2294.638420,766.095498
1255.527703,-9918.759623,1406.391290,1225.752797
1255.528024,-9252.574275,296.082377,-229.828649
1255.528345,-9770.718434,444.123565,0.000000
1255.528665,-10288.862594,814.226536,3907.087040
1255.528986,-11843.295072,-1184.329507,4979.620737
1255.529307,-10955.047942,-3034.844362,4136.915689
1255.529627,-8808.450710,-3627.009116,612.876398
1255.529948,-7994.224174,-1406.391290,-459.657299
1255.530268,-9252.574275,1036.288319,919.314598
1255.530589,-9992.780217,1554.432478,3294.210641
1255.530910,-9400.615463,444.123565,2451.505594
1255.531230,-8734.430116,-666.185348,689.485948
1255.531551,-8586.388927,-740.205942,153.219100
1255.531872,-10362.883188,-1332.370696,3600.648841
1255.532192,-10881.027347,-2812.782580,4290.134789
1255.532513,-8956.491898,-3330.926739,2221.676944
1255.532833,-7994.224174,-1480.411884,-459.657299
1255.533154,-8290.306550,370.102971,306.438199
1255.533475,-9326.594869,962.267725,1915.238745
1255.533795,-9844.739029,0.000000,1915.238745
1255.534116,-9030.512492,-222.061783,76.609550
1255.534437,-9030.512492,0.000000,-536.266849
1255.534757,-10214.842000,0.000000,1991.848295
1255.535078,-10881.027347,-1480.411884,3907.087040
1255.535398,-10362.883188,-3034.844362,2451.505594
1255.535719,-9104.533087,-2516.700203,-612.876398
1255.536040,-8882.471304,0.000000,-1225.752797
1255.536360,-9622.677246,1702.473667,306.438199
1255.536681,-10362.883188,1924.535449,1532.190996
1255.537002,-9844.739029,1628.453072,0.000000
1255.537322,-9104.533087,148.041188,-1225.752797
1255.537643,-9770.718434,518.144159,-306.438199
1255.537963,-10807.006753,-592.164754,1991.848295
1255.538284,-11029.068536,-2664.741391,2834.553343
1255.538605,-10214.842000,-3182.885551,1072.533697
1255.538925,-8512.368333,-1702.473667,-1762.019645
1255.539246,-9178.553681,1036.288319,-919.314598
1255.539567,-10066.800811,2368.659014,995.924147
1255.539887,-9696.697840,962.267725,1378.971896
1255.540208,-9548.656652,-148.041188,-536.266849
1255.540528,-9178.553681,0.000000,-1991.848295
1255.540849,-10584.944971,222.061783,306.438199
1255.541170,-11695.253884,0.000000,2145.067394
1255.541490,-10140.821405,-2368.659014,2374.896044
1255.541811,-9474.636058,-2442.679609,-306.438199
1255.542131,-8586.388927,-518.144159,-1608.800546
1255.542452,-9252.574275,1332.370696,612.876398
1255.542773,-9696.697840,1406.391290,1991.848295
1255.543093,-9474.636058,222.061783,1455.581446
1255.543414,-8882.471304,74.020594,76.609550
1255.543735,-9030.512492,0.000000,76.609550
1255.544055,-10362.883188,222.061783,2528.115143
1255.544376,-10214.842000,-2442.679609,3524.039291
1255.544696,-9104.533087,-3182.885551,2145.067394
1255.545017,-7994.224174,-2294.638420,-995.924147
1255.545338,-7994.224174,888.247130,-919.314598
1255.545658,-9326.594869,3108.864956,1378.971896
1255.545979,-9992.780217,2960.823768,3064.381992
1255.546300,-9548.656652,1184.329507,2145.067394
1255.546620,-9992.780217,0.000000,842.705048
1255.546941,-10362.883188,0.000000,2451.505594
1255.547261,-11547.212695,-1850.514855,4366.744339
1255.547582,-10881.027347,-2960.823768,4903.011187
1255.547903,-9252.574275,-3478.967927,1685.410096
1255.548223,-7698.141797,0.000000,76.609550
1255.548544,-8660.409521,1480.411884,0.000000
1255.548865,-8808.450710,2664.741391,1762.019645
1255.549185,-9696.697840,1554.432478,2145.067394
1255.549506,-9252.574275,814.226536,2604.724693
1255.549826,-9104.533087,518.144159,536.266849
1255.550147,-10807.006753,-666.185348,2451.505594
1255.550468,-11251.130318,-2516.700203,4443.353888
1255.550788,-10436.903782,-4293.194464,3064.381992
1255.551109,-9400.615463,-2738.761985,153.219100
1255.551430,-8660.409521,-296.082377,-766.095498
1255.551750,-9622.677246,2294.638420,306.438199
1255.552071,-9844.739029,1998.556043,1455.581446
1255.552391,-9474.636058,962.267725,0.000000
1255.552712,-8956.491898,-296.082377,-1532.190996
1255.553033,-9548.656652,-962.267725,-842.705048
1255.553353,-10807.006753,-1702.473667,2298.286494
1255.553674,-10658.965565,-3478.967927,2987.772442
1255.553994,-10066.800811,-3552.988522,1302.362347
1255.554315,-9178.553681,-1332.370696,-383.047749
1255.554636,-9400.615463,1258.350101,0.000000
1255.554956,-9992.780217,2442.679609,1685.410096
1255.555277,-9622.677246,1628.453072,1302.362347
1255.555598,-9326.594869,0.000000,0.000000
1255.555918,-9030.512492,-814.226536,-1225.752797
1255.556239,-9030.512492,-1258.350101,459.657299
1255.556559,-9474.636058,-2146.597232,2451.505594
1255.556880,-9770.718434,-2886.803174,2451.505594
1255.557201,-9252.574275,-2516.700203,383.047749
1255.557521,-8956.491898,-666.185348,-153.219100
1255.557842,-9326.594869,888.247130,766.095498
1255.558163,-10066.800811,740.205942,1378.971896
1255.558483,-9696.697840,0.000000,1072.533697
1255.558804,-8882.471304,-296.082377,-766.095498
1255.559124,-9474.636058,888.247130,0.000000
1255.559445,-10732.986159,296.082377,2221.676944
1255.559766,-9696.697840,-1184.329507,3064.381992
1255.560086,-9548.656652,-3108.864956,1302.362347
1255.560407,-8290.306550,-1036.288319,-1072.533697
1255.560728,-10066.800811,2294.638420,229.828649
1255.561048,-9696.697840,2368.659014,1838.629195
1255.561369,-9992.780217,1924.535449,2834.553343
1255.561689,-9548.656652,814.226536,1532.190996
1255.562010,-9104.533087,0.000000,612.876398
1255.562331,-9622.677246,-666.185348,1532.190996
1255.562651,-10881.027347,-1776.494261,3907.087040
1255.562972,-9918.759623,-2812.782580,3524.039291
1255.563293,-9474.636058,-2590.720797,1302.362347
1255.563613,-8142.265362,0.000000,536.266849
1255.563934,-9548.656652,2516.700203,1455.581446
1255.564254,-10510.924376,2886.803174,3064.381992
1255.564575,-10955.047942,962.267725,2681.334243
1255.564896,-9548.656652,296.082377,1302.362347
1255.565216,-9918.759623,74.020594,-383.047749
1255.565537,-10140.821405,0.000000,1762.019645
1255.565858,-10732.986159,-962.267725,3600.648841
1255.566178,-9622.677246,-2294.638420,2374.896044
1255.566499,-9030.512492,-2220.617826,-383.047749
1255.566819,-8438.347739,-296.082377,-1302.362347
1255.567140,-9992.780217,1554.432478,306.438199
1255.567461,-10066.800811,1332.370696,2221.676944
1255.567781,-9622.677246,148.041188,995.924147
1255.568102,-8882.471304,-740.205942,-612.876398
1255.568422,-8808.450710,-962.267725,229.828649
1255.568743,-10214.842000,-2146.597232,1838.629195
1255.569064,-9844.739029,-3923.091493,2834.553343
1255.569384,-9400.615463,-3256.906145,612.876398
1255.569705,-8438.347739,-1110.308913,-1915.238745
1255.570026,-8660.409521,1850.514855,-766.095498
1255.570346,-9548.656652,1924.535449,842.705048
1255.570667,-9622.677246,1628.453072,306.438199
1255.570987,-9326.594869,666.185348,-842.705048
1255.571308,-9400.615463,1036.288319,-1455.581446
1255.571629,-9992.780217,148.041188,459.657299
1255.571949,-10214.842000,-1554.432478,2068.457845
1255.572270,-9696.697840,-2812.782580,1072.533697
1255.572591,-9030.512492,-1850.514855,-306.438199
1255.572911,-9474.636058,444.123565,-1149.143247
1255.573232,-9474.636058,2294.638420,1455.581446
1255.573552,-10732.986159,2294.638420,2451.505594
1255.573873,-9918.759623,1110.308913,2374.896044
1255.574194,-9548.656652,-740.205942,76.609550
1255.574514,-9252.574275,-740.205942,2911.162892
1255.574835,-10066.800811,-2368.659014,2757.943793
1255.575156,-10510.924376,-3552.988522,3370.820191
1255.575476,-9696.697840,-4145.153275,1991.848295
1255.575797,-8438.347739,-1702.473667,-536.266849
1255.576117,-8734.430116,1776.494261,153.219100
1255.576438,-9992.780217,2886.803174,1838.629195
1255.576759,-10214.842000,2368.659014,2757.943793
1255.577079,-10510.924376,888.247130,1915.238745
1255.577400,-9474.636058,444.123565,1608.800546
1255.577721,-9992.780217,-592.164754,2681.334243
1255.578041,-10732.986159,-1628.453072,4443.353888
1255.578362,-10955.047942,-2664.741391,4443.353888
1255.578682,-9474.636058,-2368.659014,766.095498
1255.579003,-8364.327145,370.102971,-612.876398
1255.579324,-8808.450710,2368.659014,76.609550
1255.579644,-9548.656652,2960.823768,1608.800546
1255.579965,-9696.697840,1258.350101,2145.067394
1255.580286,-8956.491898,-518.144159,0.000000
1255.580606,-8068.244768,-1406.391290,0.000000
1255.580927,-10066.800811,-1998.556043,2145.067394
1255.581247,-10732.986159,-2664.741391,4290.134789
1255.581568,-9178.553681,-4219.173869,3600.648841
1255.581889,-8956.491898,-2812.782580,766.095498
1255.582209,-7994.224174,-666.185348,-459.657299
1255.582530,-9030.512492,814.226536,689.485948
1255.582850,-9918.759623,518.144159,1685.410096
1255.583171,-8808.450710,-518.144159,0.000000
1255.583492,-8364.327145,-666.185348,-1532.190996
1255.583812,-8882.471304,0.000000,-1149.143247
1255.584133,-9400.615463,740.205942,1838.629195
1255.584454,-11473.192101,-1998.556043,3524.039291
1255.584774,-9474.636058,-1702.473667,1225.752797
1255.585095,-9178.553681,-1258.350101,-1302.362347
1255.585415,-9400.615463,1036.288319,-612.876398
1255.585736,-10584.944971,1998.556043,2145.067394
1255.586057,-10510.924376,1406.391290,2068.457845
1255.586377,-9104.533087,370.102971,536.266849
1255.586698,-8882.471304,-296.082377,-1225.752797
1255.587019,-8808.450710,148.041188,919.314598
1255.587339,-11399.171507,-2368.659014,2528.115143
1255.587660,-9696.697840,-3182.885551,2221.676944
1255.587980,-8438.347739,-2738.761985,-383.047749
1255.588301,-8364.327145,222.061783,-1455.581446
1255.588622,-9326.594869,3330.926739,0.000000
1255.588942,-11029.068536,3404.947333,2528.115143
1255.589263,-10510.924376,1406.391290,1685.410096
1255.589584,-9178.553681,666.185348,-689.485948
1255.589904,-10584.944971,444.123565,-153.219100
1255.590225,-10658.965565,518.144159,2221.676944
1255.590545,-10881.027347,-1258.350101,3753.867940
1255.590866,-9474.636058,-2146.597232,1302.362347
1255.591187,-8438.347739,-444.123565,-306.438199
1255.591507,-8660.409521,888.247130,-1225.752797
1255.591828,-9474.636058,1850.514855,1532.190996
1255.592149,-10362.883188,1036.288319,2451.505594
1255.592469,-9474.636058,74.020594,1455.581446
1255.592790,-9252.574275,74.020594,689.485948
1255.593110,-9918.759623,-370.102971,2451.505594
1255.593431,-10658.965565,-1702.473667,4903.011187
1255.593752,-11177.109724,-5181.441594,4060.306139
1255.594072,-8068.244768,-3108.864956,1762.019645
1255.594393,-9104.533087,-2220.617826,-766.095498
1255.594713,-7624.121203,1924.535449,919.314598
1255.595034,-10288.862594,2960.823768,2528.115143
1255.595355,-10510.924376,1110.308913,2451.505594
1255.595675,-8808.450710,148.041188,-995.924147
1255.595996,-9770.718434,592.164754,-306.438199
1255.596317,-10658.965565,-370.102971,2757.943793
1255.596637,-10214.842000,-2516.700203,3294.210641
1255.596958,-10140.821405,-3182.885551,2298.286494
1255.597278,-7772.162391,-1776.494261,-1378.971896
1255.597599,-8216.285956,1036.288319,-1762.019645
1255.597920,-9474.636058,2664.741391,1149.143247
1255.598240,-10140.821405,2072.576638,2068.457845
1255.598561,-9770.718434,740.205942,919.314598
1255.598882,-9178.553681,-222.061783,76.609550
1255.599202,-9844.739029,-888.247130,1072.533697
1255.599523,-10288.862594,-3849.070898,4136.915689
1255.599843,-10584.944971,-3923.091493,2987.772442
1255.600164,-9104.533087,-3108.864956,842.705048
1255.600485,-8438.347739,-814.226536,-1072.533697
1255.600805,-8882.471304,1406.391290,0.000000
1255.601126,-9474.636058,1480.411884,1532.190996
1255.601447,-9622.677246,370.102971,689.485948
1255.601767,-9400.615463,74.020594,-1225.752797
1255.602088,-9030.512492,370.102971,-1149.143247
1255.602408,-10288.862594,-444.123565,842.705048
1255.602729,-11103.089130,-1776.494261,2604.724693
1255.603050,-9992.780217,-2664.741391,1685.410096
1255.603370,-9474.636058,-2368.659014,-842.705048
1255.603691,-8512.368333,444.123565,-1225.752797
1255.604012,-9548.656652,1924.535449,306.438199
1255.604332,-10140.821405,2146.597232,1532.190996
1255.604653,-9548.656652,1332.370696,459.657299
1255.604973,-8734.430116,74.020594,-229.828649
1255.605294,-9474.636058,-1184.329507,76.609550
1255.605615,-9770.718434,-2072.576638,2528.115143
1255.605935,-10807.006753,-3849.070898,3370.820191
1255.606256,-9252.574275,-3627.009116,1685.410096
1255.606577,-8512.368333,-1332.370696,-229.828649
1255.606897,-9252.574275,1184.329507,689.485948
1255.607218,-9918.759623,2516.700203,2604.724693
1255.607538,-10066.800811,1036.288319,2298.286494
1255.607859,-9030.512492,-296.082377,0.000000
1255.608180,-8882.471304,-222.061783,-919.314598
1255.608500,-10066.800811,0.000000,1608.800546
1255.608821,-10658.965565,-1332.370696,3370.820191
1255.609141,-9696.697840,-2886.803174,3064.381992
1255.609462,-9178.553681,-2368.659014,383.047749
1255.609783,-9104.533087,370.102971,306.438199
1255.610103,-10066.800811,1628.453072,1455.581446
1255.610424,-9992.780217,1998.556043,3064.381992
1255.610745,-9992.780217,666.185348,1915.238745
1255.611065,-8808.450710,-370.102971,919.314598
1255.611386,-9400.615463,-1110.308913,1072.533697
1255.611706,-10066.800811,-1998.556043,3217.601092
1255.612027,-9770.718434,-2590.720797,3830.477490
1255.612343,-9104.533087,-3775.050304,1072.533697
1255.612663,-7994.224174,-2294.638420,-1378.971896
1255.612984,-8068.244768,666.185348,-1608.800546
1255.613305,-9474.636058,2442.679609,919.314598
1255.613626,-9992.780217,1036.288319,1532.190996
1255.613947,-9696.697840,-74.020594,0.000000
1255.614268,-9992.780217,-296.082377,-153.219100
1255.614588,-10807.006753,0.000000,1608.800546
1255.614909,-11621.233289,-1332.370696,3524.039291
1255.615230,-10955.047942,-2368.659014,3677.258390
1255.615551,-9474.636058,-2368.659014,306.438199
1255.615872,-8734.430116,-370.102971,-1072.533697
1255.616192,-9474.636058,1850.514855,76.609550
1255.616513,-9844.739029,1924.535449,1225.752797
1255.616834,-9400.615463,1184.329507,229.828649
1255.617155,-8956.491898,518.144159,-919.314598
1255.617476,-8660.409521,666.185348,-766.095498
1255.617797,-10584.944971,0.000000,1915.238745
1255.618117,-10955.047942,-2220.617826,3677.258390
1255.618438,-10140.821405,-3182.885551,2298.286494
1255.618759,-9400.615463,-2072.576638,-229.828649
1255.619080,-8512.368333,1850.514855,-612.876398
1255.619401,-10066.800811,2664.741391,1378.971896
1255.619721,-10066.800811,1998.556043,1532.190996
1255.620042,-8808.450710,444.123565,-536.266849
1255.620363,-8734.430116,-148.041188,-1608.800546
1255.620684,-9474.636058,-444.123565,-306.438199
1255.621005,-10584.944971,-592.164754,2451.505594
1255.621325,-10732.986159,-2072.576638,3064.381992
1255.621646,-9474.636058,-2812.782580,766.095498
1255.621967,-8216.285956,0.000000,-842.705048
1255.622288,-9474.636058,1850.514855,612.876398
1255.622609,-9548.656652,3108.864956,1991.848295
1255.622930,-10436.903782,2590.720797,2987.772442
1255.623250,-10140.821405,1480.411884,-306.438199
1255.623571,-9178.553681,74.020594,0.000000
1255.623892,-9326.594869,-740.205942,1838.629195
1255.624213,-10436.903782,-2886.803174,3294.210641
1255.624534,-9474.636058,-3997.112087,2298.286494
1255.624854,-8586.388927,-3256.906145,-76.609550
1255.625175,-7698.141797,74.020594,-766.095498
1255.625496,-9474.636058,2442.679609,1608.800546
1255.625817,-10288.862594,1924.535449,3524.039291
1255.626138,-10288.862594,74.020594,1991.848295
1255.626459,-9326.594869,-962.267725,0.000000
1255.626779,-9622.677246,-740.205942,383.047749
1255.627100,-10436.903782,-740.205942,2987.772442
1255.627421,-11473.192101,-1184.329507,3753.867940
1255.627742,-9548.656652,-2516.700203,995.924147
1255.628063,-8142.265362,-1258.350101,-995.924147
1255.628383,-8882.471304,518.144159,-459.657299
1255.628704,-10214.842000,1702.473667,1532.190996
1255.629025,-10584.944971,888.247130,2451.505594
1255.629346,-9474.636058,-444.123565,306.438199
1255.629667,-9252.574275,-1332.370696,-383.047749
1255.629988,-9474.636058,-1184.329507,919.314598
1255.630308,-10436.903782,-2516.700203,3140.991542
1255.630629,-10584.944971,-3182.885551,2911.162892
1255.630950,-9030.512492,-2960.823768,689.485948
1255.631271,-8882.471304,-814.226536,-689.485948
1255.631592,-9326.594869,814.226536,1149.143247
1255.631912,-10214.842000,1702.473667,2068.457845
1255.632233,-9992.780217,740.205942,1149.143247
1255.632554,-9030.512492,-518.144159,-995.924147
1255.632875,-9178.553681,-370.102971,-1378.971896
1255.633196,-10584.944971,-888.247130,1455.581446
1255.633517,-10362.883188,-2072.576638,3064.381992
1255.633837,-10362.883188,-2368.659014,1378.971896
1255.634158,-8956.491898,-814.226536,-1149.143247
1255.634479,-9178.553681,1406.391290,-766.095498
1255.634800,-9844.739029,2886.803174,1225.752797
1255.635121,-10362.883188,1850.514855,2221.676944
1255.635441,-9696.697840,0.000000,1225.752797
1255.635762,-8808.450710,-1184.329507,0.000000
1255.636083,-9400.615463,-1480.411884,689.485948
1255.636404,-10584.944971,-2368.659014,3064.381992
1255.636725,-10510.924376,-3627.009116,3830.477490
1255.637045,-8734.430116,-3330.926739,1455.581446
1255.637366,-8142.265362,-1110.308913,-766.095498
1255.637687,-8734.430116,1628.453072,306.438199
1255.638008,-9918.759623,2368.659014,2451.505594
1255.638329,-9918.759623,1554.432478,1915.238745
1255.638650,-9030.512492,444.123565,612.876398
1255.638970,-9326.594869,1110.308913,-153.219100
1255.639291,-10288.862594,814.226536,1991.848295
1255.639612,-10807.006753,0.000000,3677.258390
1255.639933,-10436.903782,-1776.494261,2298.286494
1255.640254,-8808.450710,-1036.288319,-459.657299
1255.640574,-8364.327145,1554.432478,-1455.581446
1255.640895,-9844.739029,2442.679609,689.485948
1255.641216,-9844.739029,2072.576638,2145.067394
1255.641537,-9252.574275,814.226536,995.924147
1255.641858,-9400.615463,666.185348,383.047749
1255.642179,-9474.636058,0.000000,1455.581446
1255.642499,-9918.759623,-1850.514855,3217.601092
1255.642820,-10362.883188,-3182.885551,3830.477490
1255.643141,-8956.491898,-3701.029710,1149.143247
1255.643462,-8438.347739,-1776.494261,-842.705048
1255.643783,-8364.327145,592.164754,0.000000
1255.644103,-9474.636058,1480.411884,1378.971896
1255.644424,-9622.677246,962.267725,1532.190996
1255.644745,-9326.594869,740.205942,536.266849
1255.645066,-9400.615463,666.185348,-153.219100
1255.645387,-10807.006753,0.000000,2528.115143
1255.645708,-11103.089130,-1184.329507,4213.525239
1255.646028,-10214.842000,-3034.844362,4290.134789
1255.646349,-9622.677246,-3404.947333,689.485948
1255.646670,-7772.162391,-370.102971,-766.095498
1255.646991,-8808.450710,592.164754,-306.438199
1255.647312,-9104.533087,2664.741391,2145.067394
1255.647632,-9474.636058,962.267725,612.876398
1255.647953,-8364.327145,518.144159,-1685.410096
1255.648274,-8956.491898,962.267725,-766.095498
1255.648595,-10066.800811,-370.102971,1532.190996
1255.648916,-10436.903782,-1850.514855,3217.601092
1255.649237,-10807.006753,-3034.844362,2068.457845
1255.649557,-8808.450710,-2072.576638,-919.314598
1255.649878,-9178.553681,740.205942,-459.657299
1255.650199,-10436.903782,2442.679609,1532.190996
1255.650520,-9770.718434,1776.494261,1302.362347
1255.650841,-9918.759623,1258.350101,0.000000
1255.651161,-8882.471304,1110.308913,-1302.362347
1255.651482,-9030.512492,296.082377,1149.143247
1255.651803,-11177.109724,-814.226536,2834.553343
1255.652124,-10214.842000,-3034.844362,2451.505594
1255.652445,-8882.471304,-3034.844362,-153.219100
1255.652765,-8438.347739,-1184.329507,-1455.581446
1255.653086,-9252.574275,888.247130,153.219100
1255.653407,-10066.800811,2220.617826,2298.286494
1255.653728,-10510.924376,222.061783,1915.238745
1255.654049,-8882.471304,0.000000,306.438199
1255.654370,-9474.636058,-296.082377,0.000000
1255.654690,-10584.944971,-962.267725,2221.676944
1255.655011,-10510.924376,-2220.617826,4213.525239
1255.655332,-9844.739029,-3627.009116,2911.162892
1255.655653,-8512.368333,-1924.535449,2681.334243
1255.655974,-8364.327145,-296.082377,0.000000
1255.656294,-9696.697840,1036.288319,1915.238745
1255.656615,-9474.636058,814.226536,2987.772442
1255.656936,-9474.636058,0.000000,1838.629195
1255.657257,-8734.430116,0.000000,229.828649
1255.657578,-9178.553681,148.041188,842.705048
1255.657899,-9770.718434,-518.144159,3064.381992
1255.658219,-10510.924376,-2516.700203,3677.258390
1255.658540,-8660.409521,-2886.803174,3064.381992
1255.658861,-8808.450710,-666.185348,229.828649
1255.659182,-9252.574275,1480.411884,536.266849
1255.659503,-10288.862594,2220.617826,2221.676944
1255.659823,-10214.842000,1776.494261,3064.381992
1255.660144,-9992.780217,444.123565,689.485948
1255.660465,-9474.636058,-370.102971,-229.828649
1255.660786,-9918.759623,-444.123565,1838.629195
1255.661107,-11251.130318,-2368.659014,3294.210641
1255.661428,-9622.677246,-3775.050304,2298.286494
1255.661748,-8734.430116,-3256.906145,-459.657299
1255.662069,-8586.388927,-1036.288319,-1532.190996
1255.662390,-8660.409521,1110.308913,-612.876398
1255.662711,-9696.697840,1036.288319,2374.896044
1255.663032,-9622.677246,666.185348,306.438199
1255.663352,-9696.697840,370.102971,-1302.362347
1255.663673,-10584.944971,296.082377,-536.266849
1255.663994,-10807.006753,-444.123565,1149.143247
1255.664315,-11325.150913,-2294.638420,2374.896044
1255.664636,-9992.780217,-2960.823768,0.000000
1255.664957,-7772.162391,-1406.391290,-2987.772442
1255.665277,-8364.327145,1850.514855,-2451.505594
1255.665598,-9326.594869,3775.050304,229.828649
1255.665919,-9696.697840,2664.741391,1302.362347
1255.666240,-9844.739029,518.144159,153.219100
1255.666561,-9252.574275,-888.247130,-766.095498
1255.666881,-10362.883188,-1184.329507,1378.971896
1255.667202,-11251.130318,-2220.617826,3983.696590
1255.667523,-10732.986159,-2812.782580,3907.087040
1255.667844,-9326.594869,-1924.535449,1455.581446
1255.668165,-8438.347739,148.041188,-2374.896044
1255.668485,-8808.450710,2368.659014,0.000000
1255.668806,-9696.697840,1998.556043,1762.019645
1255.669127,-9844.739029,888.247130,1455.581446
1255.669448,-8734.430116,518.144159,-612.876398
1255.669769,-9178.553681,814.226536,-383.047749
1255.670090,-10214.842000,0.000000,2681.334243
1255.670410,-10510.924376,-1776.494261,4596.572988
1255.670731,-10436.903782,-3849.070898,3370.820191
1255.671052,-8290.306550,-3404.947333,842.705048
1255.671373,-8438.347739,0.000000,153.219100
1255.671694,-9844.739029,1776.494261,2145.067394
1255.672014,-9696.697840,2220.617826,3294.210641
1255.672335,-9326.594869,814.226536,1762.019645
1255.672656,-8068.244768,370.102971,-383.047749
1255.672977,-8734.430116,-296.082377,536.266849
1255.673298,-10732.986159,-1480.411884,3753.867940
1255.673619,-10732.986159,-3256.906145,4443.353888
1255.673939,-9474.636058,-3404.947333,1302.362347
1255.674260,-8364.327145,-1332.370696,0.000000
1255.674581,-9030.512492,1036.288319,383.047749
1255.674902,-10140.821405,1406.391290,2757.943793
1255.675223,-10510.924376,518.144159,2528.115143
1255.675543,-9178.553681,-592.164754,76.609550
1255.675864,-9030.512492,-74.020594,-229.828649
1255.676185,-10140.821405,0.000000,1838.629195
1255.676506,-10658.965565,-1480.411884,4673.182538
1255.676827,-10066.800811,-2294.638420,2374.896044
1255.677148,-9030.512492,-1776.494261,-766.095498
1255.677468,-8956.491898,-222.061783,-1455.581446
1255.677789,-9474.636058,1110.308913,-153.219100
1255.678110,-10288.862594,1480.411884,2068.457845
1255.678431,-9918.759623,592.164754,459.657299
1255.678752,-9104.533087,74.020594,-689.485948
1255.679072,-9474.636058,-518.144159,-459.657299
1255.679393,-10140.821405,-962.267725,1302.362347
1255.679714,-10881.027347,-2960.823768,2451.505594
1255.680035,-9844.739029,-3108.864956,995.924147
1255.680356,-8586.388927,-1850.514855,-1378.971896
1255.680677,-8438.347739,666.185348,-1225.752797
1255.680997,-9992.780217,1258.350101,1225.752797
1255.681318,-10140.821405,444.123565,1838.629195
1255.681639,-9474.636058,-592.164754,0.000000
1255.681960,-9400.615463,-296.082377,-383.047749
1255.682281,-9844.739029,74.020594,1302.362347
1255.682601,-10584.944971,-962.267725,2911.162892
1255.682922,-10436.903782,-2220.617826,2451.505594
1255.683243,-8290.306550,-518.144159,0.000000
1255.683564,-9030.512492,888.247130,-1225.752797
1255.683885,-8808.450710,2442.679609,612.876398
1255.684205,-10214.842000,2368.659014,2681.334243
1255.684526,-9918.759623,592.164754,2068.457845
1255.684847,-8956.491898,1036.288319,1532.190996
1255.685168,-9548.656652,-296.082377,612.876398
1255.685489,-9622.677246,-962.267725,3370.820191
1255.685810,-10732.986159,-2590.720797,4596.572988
1255.686130,-9548.656652,-2664.741391,2681.334243
1255.686451,-7772.162391,-1924.535449,-306.438199
1255.686772,-7698.141797,1184.329507,-689.485948
1255.687093,-9400.615463,2960.823768,1072.533697
1255.687414,-9918.759623,2146.597232,2528.115143
1255.687734,-9770.718434,592.164754,1225.752797
1255.688055,-9326.594869,666.185348,76.609550
1255.688376,-10807.006753,-814.226536,2145.067394
1255.688697,-11399.171507,-1628.453072,4136.915689
1255.689018,-11621.233289,-2590.720797,4749.792088
1255.689339,-9548.656652,-2886.803174,1225.752797
1255.689659,-8364.327145,-296.082377,-1072.533697
1255.689980,-8438.347739,1332.370696,-306.438199
1255.690301,-9696.697840,1924.535449,1302.362347
1255.690622,-9696.697840,740.205942,1762.019645
1255.690943,-8808.450710,-592.164754,-459.657299
1255.691263,-8882.471304,-962.267725,0.000000
1255.691584,-10436.903782,-1850.514855,1838.629195
1255.691905,-10881.027347,-3182.885551,3907.087040
1255.692226,-10436.903782,-4071.132681,2145.067394
1255.692547,-8808.450710,-1850.514855,-306.438199
1255.692868,-9030.512492,666.185348,-766.095498
1255.693188,-9696.697840,2220.617826,1378.971896
1255.693509,-10140.821405,2368.659014,1455.581446
1255.693830,-9474.636058,1258.350101,0.000000
1255.694151,-9252.574275,370.102971,-1532.190996
1255.694472,-9548.656652,-222.061783,-919.314598
1255.694792,-10214.842000,-1184.329507,1378.971896
1255.695113,-10584.944971,-2960.823768,2145.067394
1255.695434,-9548.656652,-2442.679609,153.219100
1255.695755,-9252.574275,-740.205942,-1225.752797
1255.696076,-9326.594869,2220.617826,153.219100
1255.696397,-10436.903782,2738.761985,1991.848295
1255.696717,-10066.800811,1554.432478,2528.115143
1255.697038,-9474.636058,-518.144159,229.828649
1255.697359,-8216.285956,-1998.556043,-995.924147
1255.697680,-9252.574275,-2146.597232,1072.533697
1255.698001,-10436.903782,-2960.823768,2911.162892
1255.698321,-10066.800811,-3552.988522,2604.724693
1255.698642,-8660.409521,-2368.659014,-229.828649
1255.698963,-8216.285956,518.144159,-1072.533697
1255.699284,-9770.718434,2442.679609,1225.752797
1255.699605,-10436.903782,1776.494261,2911.162892
1255.699925,-9844.739029,444.123565,1378.971896
1255.700246,-8660.409521,-296.082377,-612.876398
1255.700567,-9400.615463,0.000000,306.438199
1255.700888,-10658.965565,-444.123565,2834.553343
1255.701209,-10584.944971,-1850.514855,4060.306139
1255.701530,-9770.718434,-2146.597232,3677.258390
1255.701850,-8660.409521,-444.123565,76.609550
1255.702171,-8882.471304,1554.432478,76.609550
1255.702492,-10362.883188,2368.659014,2221.676944
1255.702813,-10362.883188,1480.411884,3064.381992
1255.703134,-9770.718434,0.000000,1762.019645
1255.703454,-8882.471304,-518.144159,612.876398
1255.703775,-9474.636058,-814.226536,2374.896044
1255.704096,-10288.862594,-1776.494261,3983.696590
1255.704417,-10066.800811,-3182.885551,4749.792088
1255.704738,-9104.533087,-2442.679609,1149.143247
1255.705059,-7994.224174,-222.061783,-766.095498
1255.705379,-8882.471304,1702.473667,383.047749
1255.705700,-9844.739029,1184.329507,1991.848295
1255.706021,-9770.718434,0.000000,1608.800546
1255.706342,-9178.553681,-666.185348,-153.219100
1255.706663,-9400.615463,-518.144159,-536.266849
1255.706983,-10288.862594,-1258.350101,1915.238745
1255.707304,-10066.800811,-1924.535449,3370.820191
1255.707625,-9844.739029,-2812.782580,1378.971896
1255.707946,-8438.347739,-1406.391290,-1149.143247
1255.708267,-8290.306550,666.185348,-1838.629195
1255.708588,-9622.677246,2220.617826,383.047749
1255.708908,-10658.965565,1998.556043,1455.581446
1255.709229,-9252.574275,962.267725,995.924147
1255.709550,-9400.615463,-1480.411884,-842.705048
1255.709871,-7920.203579,-444.123565,0.000000
1255.710192,-10881.027347,-2590.720797,1991.848295
1255.710512,-9992.780217,-2516.700203,2604.724693
1255.710833,-9252.574275,-2294.638420,459.657299
1255.711154,-8438.347739,370.102971,-1455.581446
1255.711475,-9104.533087,2368.659014,-536.266849
1255.711796,-11769.274478,3330.926739,1915.238745
1255.712117,-10732.986159,2664.741391,1072.533697
1255.712437,-10436.903782,-296.082377,383.047749
1255.712758,-8512.368333,0.000000,-536.266849
1255.713079,-10288.862594,-296.082377,1762.019645
1255.713400,-11695.253884,-1702.473667,3370.820191
1255.713721,-9474.636058,-1998.556043,1915.238745
1255.714041,-9104.533087,-666.185348,0.000000
1255.714362,-8142.265362,1332.370696,0.000000
1255.714683,-8882.471304,2368.659014,459.657299
1255.715004,-10807.006753,1554.432478,3217.601092
1255.715325,-9178.553681,-592.164754,1455.581446
1255.715645,-8882.471304,-1036.288319,1762.019645
1255.715966,-9474.636058,-888.247130,1532.190996
1255.716287,-9844.739029,-1332.370696,3677.258390
1255.716608,-11029.068536,-2368.659014,5362.668486
1255.716928,-9770.718434,-3404.947333,3064.381992
1255.717249,-7994.224174,-1332.370696,459.657299
1255.717570,-9474.636058,1110.308913,1072.533697
1255.717891,-10214.842000,1850.514855,2987.772442
1255.718211,-9474.636058,740.205942,3064.381992
1255.718532,-8438.347739,-444.123565,-459.657299
1255.718853,-8364.327145,-740.205942,-1302.362347
1255.719174,-9326.594869,-444.123565,459.657299
1255.719494,-9918.759623,-962.267725,3064.381992
1255.719815,-10214.842000,-2664.741391,842.705048
1255.720136,-8364.327145,-3108.864956,-612.876398
1255.720457,-8660.409521,-444.123565,-1378.971896
1255.720777,-9548.656652,2072.576638,536.266849
1255.721098,-10436.903782,2812.782580,2451.505594
1255.721419,-10807.006753,1184.329507,2604.724693
1255.721740,-9326.594869,-518.144159,0.000000
1255.722060,-9178.553681,-1184.329507,-612.876398
1255.722381,-10584.944971,-2146.597232,1455.581446
1255.722702,-10362.883188,-2664.741391,2681.334243
1255.723023,-9622.677246,-2442.679609,612.876398
1255.723343,-8512.368333,-296.082377,-1302.362347
1255.723664,-7920.203579,1776.494261,-2145.067394
1255.723985,-9696.697840,2294.638420,-306.438199
1255.724306,-10288.862594,814.226536,1608.800546
1255.724626,-9696.697840,-666.185348,0.000000
1255.724947,-9696.697840,-1036.288319,-995.924147
1255.725268,-9992.780217,-148.041188,229.828649
1255.725589,-10510.924376,-592.164754,2374.896044
1255.725909,-10881.027347,-1628.453072,2834.553343
1255.726230,-9474.636058,-1628.453072,153.219100
1255.726551,-8660.409521,-666.185348,-1991.848295
1255.726872,-9030.512492,444.123565,-2068.457845
1255.727192,-9844.739029,1258.350101,995.924147
1255.727513,-9844.739029,444.123565,1762.019645
1255.727834,-9622.677246,-962.267725,459.657299
1255.728155,-8956.491898,-1036.288319,766.095498
1255.728475,-10140.821405,-1924.535449,2528.115143
1255.728796,-11103.089130,-2442.679609,4290.134789
1255.729117,-10510.924376,-2886.803174,3140.991542
1255.729438,-8660.409521,-2442.679609,612.876398
1255.729758,-7550.100608,74.020594,-536.266849
1255.730079,-8660.409521,1850.514855,229.828649
1255.730400,-9770.718434,1406.391290,1532.190996
1255.730721,-9252.574275,222.061783,1072.533697
1255.731041,-8438.347739,0.000000,-919.314598
1255.731362,-10362.883188,518.144159,689.485948
1255.731683,-11177.109724,222.061783,3140.991542
1255.732004,-11251.130318,-1258.350101,4366.744339
1255.732324,-9992.780217,-1998.556043,689.485948
1255.732645,-8142.265362,-518.144159,-612.876398
1255.732966,-8438.347739,1258.350101,-536.266849
1255.733287,-9548.656652,1480.411884,1455.581446
1255.733607,-9252.574275,592.164754,2221.676944
1255.733928,-9252.574275,-518.144159,919.314598
1255.734249,-9030.512492,-370.102971,612.876398
1255.734570,-10140.821405,-296.082377,2221.676944
1255.734890,-11177.109724,-1184.329507,4596.572988
1255.735211,-11769.274478,-1628.453072,3600.648841
1255.735532,-9474.636058,-1628.453072,1838.629195
1255.735853,-9030.512492,74.020594,0.000000
1255.736173,-9326.594869,888.247130,919.314598
1255.736494,-9474.636058,1850.514855,3370.820191
1255.736815,-9992.780217,518.144159,689.485948
1255.737136,-9030.512492,0.000000,-689.485948
1255.737456,-9252.574275,74.020594,-383.047749
1255.737777,-10510.924376,-666.185348,1915.238745
1255.738098,-10881.027347,-2738.761985,2834.553343
1255.738419,-9992.780217,-3552.988522,1302.362347
1255.738739,-8808.450710,-1924.535449,-536.266849
1255.739060,-8882.471304,962.267725,-766.095498
1255.739381,-10214.842000,2294.638420,1072.533697
1255.739702,-9844.739029,888.247130,1762.019645
1255.740022,-9400.615463,-740.205942,0.000000
1255.740343,-8882.471304,-1184.329507,-1225.752797
1255.740664,-9474.636058,-1110.308913,766.095498
1255.740985,-10288.862594,-1184.329507,2681.334243
1255.741305,-10140.821405,-2590.720797,2681.334243
1255.741626,-9252.574275,-2664.741391,612.876398
1255.741947,-8216.285956,-370.102971,-1225.752797
1255.742268,-9252.574275,1184.329507,153.219100
1255.742588,-9918.759623,1406.391290,2298.286494
1255.742909,-9622.677246,-222.061783,1685.410096
1255.743230,-9030.512492,-962.267725,-383.047749
1255.743551,-8956.491898,814.226536,-766.095498
1255.743871,-9918.759623,518.144159,1762.019645
1255.744192,-10955.047942,-592.164754,3370.820191
1255.744513,-10362.883188,-1480.411884,2145.067394
1255.744834,-8808.450710,-740.205942,-995.924147
1255.745154,-8956.491898,1036.288319,-1225.752797
1255.745475,-9844.739029,2220.617826,1072.533697
1255.745796,-10066.800811,2516.700203,2451.505594
1255.746117,-9844.739029,592.164754,1532.190996
1255.746437,-8882.471304,0.000000,0.000000
1255.746758,-9252.574275,-370.102971,1225.752797
1255.747079,-10584.944971,-1776.494261,3064.381992
1255.747400,-10732.986159,-2220.617826,4060.306139
1255.747720,-9844.739029,-2442.679609,2145.067394
1255.748041,-8438.347739,74.020594,-459.657299
1255.748362,-8808.450710,1776.494261,0.000000
1255.748683,-9474.636058,1776.494261,1838.629195
1255.749003,-9918.759623,888.247130,2068.457845
1255.749324,-9474.636058,-814.226536,153.219100
1255.749645,-9030.512492,0.000000,-919.314598
1255.749966,-10510.924376,0.000000,1378.971896
1255.750286,-10955.047942,-888.247130,3907.087040
1255.750607,-10362.883188,-2072.576638,3524.039291
1255.750928,-9326.594869,-1850.514855,0.000000
1255.751249,-8364.327145,222.061783,-689.485948
1255.751569,-9474.636058,1850.514855,842.705048
1255.751890,-10881.027347,888.247130,2374.896044
1255.752211,-9400.615463,-296.082377,1149.143247
1255.752532,-8586.388927,-962.267725,-612.876398
1255.752852,-8882.471304,-1258.350101,-536.266849
1255.753173,-9844.739029,-2072.576638,3064.381992
1255.753494,-10510.924376,-2960.823768,3753.867940
1255.753815,-9474.636058,-3552.988522,1225.752797
1255.754135,-8216.285956,-2146.597232,-919.314598
1255.754456,-8364.327145,814.226536,-995.924147
1255.754777,-9104.533087,1998.556043,842.705048
1255.755098,-10066.800811,2146.597232,1378.971896
1255.755418,-9252.574275,666.185348,-459.657299
1255.755739,-9030.512492,518.144159,-1378.971896
1255.756060,-9252.574275,0.000000,229.828649
1255.756381,-11251.130318,-814.226536,3140.991542
1255.756701,-10955.047942,-2442.679609,3447.429741
1255.757022,-9770.718434,-2664.741391,842.705048
1255.757343,-8068.244768,-666.185348,766.095498
1255.757664,-9474.636058,1258.350101,689.485948
1255.757984,-10066.800811,1776.494261,1991.848295
1255.758305,-9844.739029,814.226536,1455.581446
1255.758626,-8882.471304,0.000000,-383.047749
1255.758947,-8956.491898,444.123565,-842.705048
1255.759267,-10066.800811,-444.123565,2068.457845
1255.759588,-10732.986159,-2146.597232,3677.258390
1255.759909,-10436.903782,-2812.782580,2451.505594
1255.760230,-8660.409521,-1924.535449,306.438199
1255.760550,-9178.553681,148.041188,383.047749
1255.760871,-10214.842000,1554.432478,2374.896044
1255.761192,-10288.862594,962.267725,2834.553343
1255.761513,-9474.636058,-370.102971,76.609550
1255.761833,-8808.450710,1258.350101,-1149.143247
1255.762154,-10066.800811,1110.308913,459.657299
1255.762475,-10510.924376,-370.102971,2911.162892
1255.762796,-10436.903782,-2294.638420,3217.601092
1255.763116,-9326.594869,-3478.967927,689.485948
1255.763437,-8660.409521,-1702.473667,-995.924147
1255.763758,-8956.491898,1258.350101,0.000000
1255.764079,-10807.006753,2886.803174,3370.820191
1255.764399,-10362.883188,1850.514855,3907.087040
1255.764720,-9252.574275,518.144159,1149.143247
1255.765041,-8808.450710,-592.164754,536.266849
1255.765362,-9696.697840,-1998.556043,1991.848295
1255.765682,-11177.109724,-2442.679609,2221.676944
1255.766003,-9770.718434,-3701.029710,2604.724693
1255.766324,-7772.162391,-1998.556043,0.000000
1255.766645,-8364.327145,0.000000,-306.438199
1255.766965,-8808.450710,1776.494261,919.314598
1255.767286,-9696.697840,740.205942,1838.629195
1255.767607,-9548.656652,148.041188,842.705048
1255.767928,-9104.533087,-444.123565,-612.876398
1255.768248,-9770.718434,-518.144159,0.000000
1255.768569,-10658.965565,-1406.391290,2145.067394
1255.768890,-9770.718434,-2516.700203,2528.115143
1255.769211,-9474.636058,-3034.844362,1072.533697
1255.769531,-8512.368333,-1776.494261,-1072.533697
1255.769852,-8660.409521,444.123565,-919.314598
1255.770173,-9696.697840,814.226536,766.095498
1255.770494,-9622.677246,1332.370696,1455.581446
1255.770814,-9696.697840,148.041188,229.828649
1255.771135,-8364.327145,296.082377,-306.438199
1255.771456,-9918.759623,-1258.350101,612.876398
1255.771777,-10584.944971,-2146.597232,2451.505594
1255.772097,-10732.986159,-3404.947333,3064.381992
1255.772418,-9400.615463,-2886.803174,536.266849
1255.772739,-8364.327145,814.226536,-229.828649
1255.773060,-10584.944971,2368.659014,1302.362347
1255.773380,-9992.780217,3034.844362,2528.115143
1255.773701,-10288.862594,1258.350101,1762.019645
1255.774022,-10584.944971,518.144159,995.924147
1255.774343,-9252.574275,518.144159,0.000000
1255.774663,-10955.047942,-296.082377,2145.067394
1255.774984,-10362.883188,-1406.391290,4060.306139
1255.775305,-9770.718434,-2738.761985,1685.410096
1255.775626,-8882.471304,-1258.350101,76.609550
1255.775946,-8808.450710,1480.411884,-689.485948
1255.776267,-10140.821405,3108.864956,1838.629195
1255.776588,-10436.903782,1776.494261,2911.162892
1255.776909,-10140.821405,0.000000,689.485948
1255.777229,-8586.388927,-1036.288319,-383.047749
1255.777550,-9252.574275,-1406.391290,383.047749
1255.777871,-10436.903782,-1850.514855,3524.039291
1255.778192,-10140.821405,-3256.906145,2757.943793
1255.778512,-8956.491898,-2590.720797,1608.800546
1255.778833,-8142.265362,0.000000,-306.438199
1255.779154,-8660.409521,1702.473667,842.705048
1255.779475,-10288.862594,1332.370696,2911.162892
1255.779795,-9918.759623,740.205942,1991.848295
1255.780116,-8882.471304,-592.164754,-76.609550
1255.780437,-8956.491898,0.000000,-383.047749
1255.780758,-10288.862594,-592.164754,2374.896044
1255.781078,-10584.944971,-2072.576638,3600.648841
1255.781399,-9474.636058,-2664.741391,2298.286494
1255.781720,-9252.574275,-1998.556043,-612.876398
1255.782041,-7994.224174,444.123565,-1378.971896
1255.782361,-9548.656652,1702.473667,383.047749
1255.782682,-10362.883188,1924.535449,2298.286494
1255.783003,-9474.636058,666.185348,689.485948
1255.783324,-9400.615463,222.061783,-229.828649
1255.783644,-9400.615463,222.061783,229.828649
1255.783965,-11177.109724,-962.267725,2298.286494
1255.784286,-10807.006753,-2368.659014,3217.601092
1255.784607,-9252.574275,-2664.741391,306.438199
1255.784927,-8660.409521,-666.185348,-1072.533697
1255.785248,-9474.636058,1480.411884,459.657299
1255.785569,-9770.718434,2220.617826,1455.581446
1255.785890,-10584.944971,1036.288319,1608.800546
1255.786210,-9622.677246,-222.061783,-153.219100
1255.786531,-8956.491898,-592.164754,459.657299
1255.786852,-10807.006753,-740.205942,689.485948
1255.787173,-11103.089130,-1998.556043,2834.553343
1255.787493,-10214.842000,-3775.050304,1915.238745
1255.787814,-8364.327145,-3552.988522,-1762.019645
1255.788135,-7846.182985,0.000000,-2834.553343
1255.788456,-9474.636058,2294.638420,-842.705048
1255.788777,-9696.697840,2516.700203,1072.533697
1255.789097,-9474.636058,1110.308913,1072.533697
1255.789418,-8882.471304,-1110.308913,0.000000
1255.789739,-9178.553681,-1110.308913,-459.657299
1255.790060,-10955.047942,-1628.453072,2987.772442
1255.790380,-11103.089130,-2812.782580,4596.572988
1255.790701,-8956.491898,-3775.050304,2604.724693
1255.791022,-8364.327145,-1628.453072,0.000000
1255.791343,-7994.224174,962.267725,-1072.533697
1255.791663,-9252.574275,2590.720797,1608.800546
1255.791984,-9622.677246,1776.494261,2374.896044
1255.792305,-8956.491898,740.205942,76.609550
1255.792626,-8586.388927,962.267725,-995.924147
1255.792946,-10436.903782,666.185348,1915.238745
1255.793267,-11103.089130,-592.164754,4596.572988
1255.793588,-10807.006753,-2960.823768,4826.401637
1255.793909,-9992.780217,-2738.761985,1532.190996
1255.794229,-8512.368333,-370.102971,-459.657299
1255.794550,-9326.594869,2368.659014,612.876398
1255.794871,-9400.615463,3330.926739,3064.381992
1255.795192,-9474.636058,1406.391290,2298.286494
1255.795512,-9178.553681,0.000000,306.438199
1255.795833,-8956.491898,-1258.350101,229.828649
1255.796154,-9622.677246,-1480.411884,2681.334243
1255.796475,-11325.150913,-2886.803174,4213.525239
1255.796795,-10214.842000,-2886.803174,3370.820191
1255.797116,-8660.409521,-1406.391290,76.609550
1255.797437,-8660.409521,1036.288319,306.438199
1255.797758,-10362.883188,2294.638420,2068.457845
1255.798078,-10881.027347,518.144159,2987.772442
1255.798399,-9770.718434,-962.267725,766.095498
1255.798720,-9104.533087,-1628.453072,-842.705048
1255.799041,-9474.636058,518.144159,-612.876398
1255.799361,-11399.171507,-740.205942,2528.115143
1255.799682,-10584.944971,-1332.370696,3370.820191
1255.800003,-9474.636058,-2442.679609,0.000000
1255.800324,-8734.430116,-1184.329507,-1225.752797
1255.800644,-8956.491898,444.123565,-1838.629195
1255.800965,-9622.677246,1110.308913,536.266849
1255.801286,-9548.656652,1184.329507,1608.800546
1255.801607,-8438.347739,222.061783,-383.047749
1255.801927,-8734.430116,-444.123565,-689.485948
1255.802248,-9548.656652,-1406.391290,1225.752797
1255.802569,-10510.924376,-2738.761985,2987.772442
1255.802890,-10362.883188,-3182.885551,2451.505594
1255.803210,-9030.512492,-1332.370696,1225.752797
1255.803531,-8586.388927,592.164754,-766.095498
1255.803852,-9030.512492,1998.556043,459.657299
1255.804173,-9918.759623,1258.350101,1762.019645
1255.804493,-9326.594869,-222.061783,919.314598
1255.804814,-9030.512492,-444.123565,-1225.752797
1255.805135,-9548.656652,370.102971,0.000000
1255.805456,-11029.068536,-1110.308913,3140.991542
1255.805776,-10140.821405,-1924.535449,3677.258390
1255.806097,-9474.636058,-2664.741391,1608.800546
1255.806418,-8660.409521,-1258.350101,-1608.800546
1255.806739,-8956.491898,1850.514855,-459.657299
1255.807059,-10288.862594,1998.556043,1608.800546
1255.807380,-9474.636058,2220.617826,1838.629195
1255.807701,-10214.842000,-814.226536,689.485948
1255.808022,-7698.141797,518.144159,-612.876398
1255.808342,-10807.006753,-444.123565,919.314598
1255.808663,-9844.739029,0.000000,4519.963438
1255.808984,-10881.027347,-2590.720797,3370.820191
1255.809305,-9474.636058,-1406.391290,1378.971896
1255.809625,-8808.450710,-222.061783,-689.485948
1255.809946,-9104.533087,2072.576638,306.438199
1255.810267,-10140.821405,1776.494261,2528.115143
1255.810588,-9400.615463,296.082377,919.314598
1255.810908,-10214.842000,444.123565,153.219100
1255.811229,-8068.244768,148.041188,-383.047749
1255.811550,-9474.636058,0.000000,2374.896044
1255.811871,-11621.233289,-1036.288319,5209.449386
1255.812191,-9918.759623,-2812.782580,2681.334243
1255.812512,-9030.512492,-2220.617826,229.828649
1255.812833,-8734.430116,0.000000,-842.705048
1255.813154,-9030.512492,1924.535449,1991.848295
1255.813474,-10732.986159,962.267725,3447.429741
1255.813795,-8808.450710,-296.082377,766.095498
1255.814116,-8068.244768,-444.123565,-995.924147
1255.814437,-9178.553681,-888.247130,0.000000
1255.814757,-10214.842000,-1998.556043,2604.724693
1255.815078,-10955.047942,-3478.967927,2987.772442
1255.815399,-8586.388927,-2886.803174,536.266849
1255.815720,-8660.409521,-814.226536,-2068.457845
1255.816041,-8956.491898,1850.514855,229.828649
1255.816361,-9992.780217,1998.556043,1685.410096
1255.816682,-9918.759623,962.267725,1838.629195
1255.817003,-9104.533087,-222.061783,-612.876398
1255.817324,-8956.491898,74.020594,-1378.971896
1255.817644,-9770.718434,222.061783,689.485948
1255.817965,-10584.944971,-962.267725,2374.896044
1255.818286,-10362.883188,-1776.494261,1915.238745
1255.818607,-7698.141797,-1332.370696,-1455.581446
1255.818928,-8586.388927,1406.391290,-1762.019645
1255.819248,-9992.780217,2368.659014,459.657299
1255.819569,-10584.944971,1258.350101,2145.067394
1255.819890,-9770.718434,666.185348,306.438199
1255.820211,-9104.533087,-1258.350101,-919.314598
1255.820532,-9104.533087,-962.267725,-153.219100
1255.820852,-10732.986159,-1258.350101,2145.067394
1255.821173,-10658.965565,-1998.556043,3677.258390
1255.821494,-10214.842000,-2294.638420,1838.629195
1255.821815,-8216.285956,-592.164754,-766.095498
1255.822135,-9030.512492,518.144159,-842.705048
1255.822456,-9770.718434,814.226536,1455.581446
1255.822777,-10288.862594,148.041188,1685.410096
1255.823098,-9474.636058,0.000000,0.000000
1255.823419,-9104.533087,592.164754,-842.705048
1255.823739,-10436.903782,148.041188,1991.848295
1255.824060,-11325.150913,-1480.411884,4136.915689
1255.824381,-10955.047942,-2960.823768,3370.820191
1255.824702,-9548.656652,-2368.659014,919.314598
1255.825023,-8586.388927,148.041188,0.000000
1255.825343,-9770.718434,1776.494261,1685.410096
1255.825664,-10288.862594,1998.556043,3294.210641
1255.825985,-9696.697840,444.123565,2451.505594
1255.826306,-8660.409521,-222.061783,689.485948
1255.826626,-9104.533087,-1110.308913,1225.752797
1255.826947,-10510.924376,-1702.473667,2298.286494
1255.827268,-10436.903782,-3404.947333,3677.258390
1255.827589,-8956.491898,-3182.885551,2451.505594
1255.827910,-8364.327145,-1332.370696,229.828649
1255.828230,-8438.347739,814.226536,76.609550
1255.828551,-9548.656652,1702.473667,2145.067394
1255.828872,-9918.759623,888.247130,2145.067394
1255.829193,-9326.594869,0.000000,0.000000
1255.829514,-9030.512492,222.061783,-306.438199
1255.829834,-9770.718434,592.164754,1149.143247
1255.830155,-10807.006753,-962.267725,2681.334243
1255.830476,-9844.739029,-2960.823768,2451.505594
1255.830797,-8734.430116,-3108.864956,-229.828649
1255.831118,-8142.265362,-592.164754,-1991.848295
1255.831438,-9474.636058,1332.370696,-306.438199
1255.831759,-10214.842000,2220.617826,1608.800546
1255.832080,-8882.471304,1924.535449,1608.800546
1255.832401,-9622.677246,-370.102971,-612.876398
1255.832721,-7994.224174,0.000000,-612.876398
1255.833042,-10362.883188,-888.247130,1532.190996
1255.833363,-11029.068536,-2072.576638,2834.553343
1255.833684,-10140.821405,-1998.556043,1915.238745
1255.834005,-9030.512492,-1184.329507,-306.438199
1255.834325,-8142.265362,1628.453072,-1838.629195
1255.834646,-10288.862594,2368.659014,76.609550
1255.834967,-10436.903782,1924.535449,1762.019645
1255.835288,-10140.821405,148.041188,-1072.533697
1255.835609,-9474.636058,148.041188,-1225.752797
1255.835929,-9548.656652,888.247130,459.657299
1255.836250,-11029.068536,-296.082377,2451.505594
1255.836571,-10658.965565,-1406.391290,3140.991542
1255.836892,-9844.739029,-2072.576638,842.705048
1255.837212,-8808.450710,0.000000,-689.485948
1255.837533,-9178.553681,1776.494261,76.609550
1255.837854,-10658.965565,1702.473667,2298.286494
1255.838175,-9548.656652,740.205942,1762.019645
1255.838496,-9104.533087,-666.185348,229.828649
1255.838816,-8956.491898,-592.164754,306.438199
1255.839137,-9696.697840,-1480.411884,2145.067394
1255.839458,-11103.089130,-1258.350101,3600.648841
1255.839779,-9918.759623,-2368.659014,2987.772442
1255.840100,-8882.471304,-1850.514855,842.705048
1255.840420,-8364.327145,888.247130,536.266849
1255.840741,-9474.636058,1776.494261,2068.457845
1255.841062,-9844.739029,1036.288319,3064.381992
1255.841383,-9696.697840,0.000000,2298.286494
1255.841703,-9030.512492,-1110.308913,383.047749
1255.842024,-9474.636058,-666.185348,1149.143247
1255.842345,-10807.006753,-1776.494261,2604.724693
1255.842666,-10658.965565,-2664.741391,3677.258390
1255.842987,-8956.491898,-2664.741391,1455.581446
1255.843307,-8438.347739,-1480.411884,-919.314598
1255.843628,-8068.244768,1776.494261,459.657299
1255.843949,-9844.739029,2294.638420,1532.190996
1255.844270,-10436.903782,1406.391290,2451.505594
1255.844591,-9696.697840,222.061783,1302.362347
1255.844911,-9252.574275,0.000000,-153.219100
1255.845232,-9844.739029,-962.267725,1225.752797
1255.845553,-11103.089130,-2368.659014,2987.772442
1255.845874,-10436.903782,-3552.988522,2451.505594
1255.846194,-8808.450710,-2516.700203,0.000000
1255.846515,-8364.327145,0.000000,-1302.362347
1255.846836,-8734.430116,1480.411884,-612.876398
1255.847157,-9918.759623,1332.370696,536.266849
1255.847478,-9474.636058,0.000000,-153.219100
1255.847798,-9030.512492,0.000000,-383.047749
1255.848119,-9770.718434,0.000000,-995.924147
1255.848440,-11029.068536,-518.144159,1838.629195
1255.848761,-11695.253884,-2368.659014,2834.553343
1255.849082,-10436.903782,-3108.864956,1225.752797
1255.849402,-8808.450710,-2220.617826,-1838.629195
1255.849723,-8142.265362,1480.411884,-1838.629195
1255.850044,-10362.883188,2294.638420,842.705048
1255.850365,-9770.718434,1850.514855,1838.629195
1255.850685,-9400.615463,-370.102971,383.047749
1255.851006,-8438.347739,-1406.391290,-1225.752797
1255.851327,-9178.553681,-1702.473667,383.047749
1255.851648,-10584.944971,-1924.535449,3677.258390
1255.851969,-10881.027347,-2516.700203,4749.792088
1255.852289,-9030.512492,-2368.659014,919.314598
1255.852610,-8364.327145,444.123565,-612.876398
1255.852931,-9326.594869,1776.494261,612.876398
1255.853252,-9548.656652,2368.659014,1685.410096
1255.853573,-10066.800811,1184.329507,1532.190996
1255.853893,-9178.553681,962.267725,76.609550
1255.854214,-9104.533087,1554.432478,229.828649
1255.854535,-10807.006753,592.164754,3370.820191
1255.854856,-11843.295072,-592.164754,5132.839837
1255.855176,-10658.965565,-2738.761985,4213.525239
1255.855497,-9474.636058,-2516.700203,1685.410096
1255.855818,-8808.450710,-444.123565,766.095498
1255.856139,-10288.862594,1184.329507,1762.019645
1255.856460,-10140.821405,888.247130,3600.648841
1255.856780,-9030.512492,222.061783,1225.752797
1255.857101,-8142.265362,-370.102971,-919.314598
1255.857422,-7994.224174,-444.123565,153.219100
1255.857743,-10066.800811,-1628.453072,2451.505594
1255.858064,-10288.862594,-2516.700203,3140.991542
1255.858384,-9474.636058,-2960.823768,1608.800546
1255.858705,-8586.388927,-962.267725,0.000000
1255.859026,-9030.512492,1110.308913,76.609550
1255.859347,-10807.006753,1554.432478,2604.724693
1255.859667,-10362.883188,518.144159,1915.238745
1255.859988,-9326.594869,-370.102971,-536.266849
1255.860309,-9178.553681,0.000000,-1685.410096
1255.860630,-9770.718434,148.041188,383.047749
1255.860951,-11103.089130,-1036.288319,2451.505594
1255.861271,-10362.883188,-1924.535449,2298.286494
1255.861592,-8364.327145,-2220.617826,-995.924147
1255.861913,-8660.409521,-592.164754,-1838.629195
1255.862234,-9474.636058,666.185348,306.438199
1255.862555,-10288.862594,1332.370696,1685.410096
1255.862875,-10288.862594,592.164754,1455.581446
1255.863196,-8290.306550,-296.082377,0.000000
1255.863517,-8882.471304,-148.041188,-383.047749
1255.863838,-10584.944971,-888.247130,2145.067394
1255.864158,-10658.965565,-1850.514855,3140.991542
1255.864479,-9918.759623,-1554.432478,0.000000
1255.864800,-8142.265362,-888.247130,-1225.752797
1255.865121,-8512.368333,1480.411884,-1072.533697
1255.865442,-10066.800811,2368.659014,1072.533697
1255.865762,-9844.739029,1554.432478,1685.410096
1255.866083,-9548.656652,592.164754,766.095498
1255.866404,-9252.574275,0.000000,-995.924147
1255.866725,-10066.800811,0.000000,1072.533697
1255.867046,-10807.006753,-1258.350101,3217.601092
1255.867366,-10362.883188,-2368.659014,2298.286494
1255.867687,-9178.553681,-2368.659014,919.314598
1255.868008,-8586.388927,-518.144159,-689.485948
1255.868329,-9474.636058,1110.308913,766.095498
1255.868650,-11399.171507,2442.679609,2604.724693
1255.868970,-10288.862594,1036.288319,3294.210641
1255.869291,-9622.677246,-222.061783,1608.800546
1255.869612,-9178.553681,-1184.329507,842.705048
1255.869933,-9474.636058,-1776.494261,2451.505594
1255.870253,-9622.677246,-1776.494261,2757.943793
1255.870574,-9326.594869,-2368.659014,1838.629195
1255.870895,-6957.935855,0.000000,-689.485948
1255.871216,-8586.388927,1480.411884,-229.828649
1255.871537,-9104.533087,1850.514855,536.266849
1255.871857,-9844.739029,1924.535449,2757.943793
1255.872178,-10732.986159,74.020594,1915.238745
1255.872499,-9770.718434,814.226536,919.314598
1255.872820,-11399.171507,1406.391290,1532.190996
1255.873141,-11695.253884,0.000000,4136.915689
1255.873461,-11103.089130,-1776.494261,4366.744339
1255.873782,-9770.718434,-3849.070898,1149.143247
1255.874103,-7328.038826,-1924.535449,-995.924147
1255.874424,-8438.347739,296.082377,-842.705048
1255.874744,-9326.594869,1628.453072,1302.362347
1255.875065,-9400.615463,1554.432478,1685.410096
1255.875386,-9770.718434,-222.061783,689.485948
1255.875707,-8142.265362,-1406.391290,-383.047749
1255.876028,-9770.718434,-1776.494261,995.924147
1255.876348,-11325.150913,-2812.782580,3677.258390
1255.876669,-10214.842000,-3182.885551,2528.115143
1255.876990,-9770.718434,-2590.720797,-229.828649
1255.877311,-8068.244768,148.041188,-1915.238745
1255.877632,-9178.553681,2146.597232,-995.924147
1255.877952,-10066.800811,1924.535449,919.314598
1255.878273,-9622.677246,666.185348,-612.876398
1255.878594,-9326.594869,740.205942,-1762.019645
1255.878915,-9474.636058,444.123565,-766.095498
1255.879235,-10436.903782,-1184.329507,1532.190996
1255.879556,-10510.924376,-2664.741391,2528.115143
1255.879877,-9474.636058,-3182.885551,76.609550
1255.880198,-8956.491898,-1110.308913,-995.924147
1255.880519,-9178.553681,1776.494261,-76.609550
1255.880839,-10288.862594,2368.659014,1608.800546
1255.881160,-10436.903782,1480.411884,3524.039291
1255.881481,-9696.697840,-444.123565,536.266849
1255.881802,-9104.533087,-1184.329507,-153.219100
1255.882123,-9548.656652,-1776.494261,1302.362347
1255.882443,-9918.759623,-2590.720797,2911.162892
1255.882764,-9548.656652,-2516.700203,3140.991542
1255.883085,-8956.491898,-1924.535449,689.485948
1255.883406,-8438.347739,666.185348,-383.047749
1255.883726,-9326.594869,1702.473667,1072.533697
1255.884047,-9918.759623,1184.329507,2451.505594
1255.884368,-10362.883188,-592.164754,2068.457845
1255.884689,-9548.656652,-888.247130,689.485948
1255.885010,-9474.636058,-592.164754,536.266849
1255.885330,-9918.759623,-148.041188,4366.744339
1255.885651,-10881.027347,-1924.535449,4290.134789
1255.885972,-9918.759623,-2442.679609,2068.457845
1255.886293,-8882.471304,-962.267725,-536.266849
1255.886614,-8734.430116,1850.514855,-689.485948
1255.886934,-9622.677246,3404.947333,1991.848295
1255.887255,-10584.944971,2368.659014,3217.601092
1255.887576,-9844.739029,740.205942,2068.457845
1255.887897,-9030.512492,-666.185348,612.876398
1255.888217,-9474.636058,-1406.391290,1378.971896
1255.888538,-10362.883188,-2442.679609,3830.477490
1255.888859,-10214.842000,-3034.844362,3753.867940
1255.889180,-8808.450710,-2442.679609,1378.971896
1255.889501,-7550.100608,1332.370696,-76.609550
1255.889821,-8882.471304,1998.556043,612.876398
1255.890142,-10066.800811,1406.391290,1532.190996
1255.890463,-9548.656652,0.000000,1532.190996
1255.890784,-9326.594869,-1480.411884,0.000000
1255.891105,-8882.471304,-740.205942,-536.266849
1255.891425,-10436.903782,-740.205942,1532.190996
1255.891746,-10807.006753,-1406.391290,3140.991542
1255.892067,-9622.677246,-2294.638420,1072.533697
1255.892388,-8956.491898,-1332.370696,-2374.896044
1255.892708,-8586.388927,444.123565,-1838.629195
1255.893029,-9474.636058,1850.514855,0.000000
1255.893350,-10066.800811,1406.391290,1302.362347
1255.893671,-9474.636058,740.205942,612.876398
1255.893992,-8734.430116,296.082377,536.266849
1255.894312,-9548.656652,-1258.350101,229.828649
1255.894633,-9844.739029,-962.267725,2374.896044
1255.894954,-10732.986159,-2368.659014,2987.772442
1255.895275,-9622.677246,-2072.576638,842.705048
1255.895596,-8586.388927,592.164754,-1455.581446
1255.895916,-9104.533087,2368.659014,-229.828649
1255.896237,-9400.615463,2516.700203,766.095498
1255.896558,-10140.821405,888.247130,842.705048
1255.896879,-9252.574275,-74.020594,-536.266849
1255.897199,-9474.636058,888.247130,-766.095498
1255.897520,-10362.883188,962.267725,1302.362347
1255.897841,-10807.006753,-592.164754,3294.210641
1255.898162,-10584.944971,-1776.494261,2374.896044
1255.898483,-9474.636058,-1628.453072,-383.047749
1255.898803,-8660.409521,666.185348,-1532.190996
1255.899124,-9918.759623,2294.638420,459.657299
1255.899445,-10066.800811,2072.576638,2298.286494
1255.899766,-9696.697840,444.123565,1302.362347
1255.900087,-8734.430116,-370.102971,0.000000
1255.900407,-8512.368333,-740.205942,-536.266849
1255.900728,-9400.615463,-592.164754,1378.971896
1255.901049,-10066.800811,-1776.494261,3294.210641
1255.901370,-9622.677246,-2146.597232,2987.772442
1255.901690,-8882.471304,-962.267725,842.705048
1255.902011,-9326.594869,444.123565,919.314598
1255.902332,-10140.821405,1036.288319,3140.991542
1255.902653,-10807.006753,148.041188,5515.887586
1255.902974,-10436.903782,-370.102971,2451.505594
1255.903294,-9400.615463,222.061783,1149.143247
1255.903615,-9770.718434,74.020594,1685.410096
1255.903936,-9992.780217,-1258.350101,3064.381992
1255.904257,-10066.800811,-2960.823768,2374.896044
1255.904578,-8734.430116,-2812.782580,0.000000
1255.904898,-7624.121203,-740.205942,-1532.190996
1255.905219,-8882.471304,1110.308913,459.657299
1255.905540,-10214.842000,1480.411884,1608.800546
1255.905861,-10140.821405,592.164754,2451.505594
1255.906182,-9770.718434,-296.082377,1378.971896
1255.906502,-9104.533087,-518.144159,1072.533697
1255.906823,-10436.903782,-1480.411884,3524.039291
1255.907144,-10584.944971,-2886.803174,3447.429741
1255.907465,-9474.636058,-3775.050304,1685.410096
1255.907785,-7994.224174,-1998.556043,-766.095498
1255.908106,-8142.265362,518.144159,-1532.190996
1255.908427,-9400.615463,1850.514855,383.047749
1255.908748,-9918.759623,1036.288319,1302.362347
1255.909069,-9844.739029,74.020594,-383.047749
1255.909389,-9622.677246,-296.082377,-995.924147
1255.909710,-11103.089130,444.123565,0.000000
1255.910031,-11547.212695,-888.247130,2451.505594
1255.910352,-11029.068536,-1924.535449,2604.724693
1255.910673,-9696.697840,-2072.576638,76.609550
1255.910993,-8364.327145,-666.185348,-2604.724693
1255.911314,-8882.471304,1554.432478,-1532.190996
1255.911635,-10066.800811,2072.576638,689.485948
1255.911956,-9548.656652,1036.288319,689.485948
1255.912276,-9104.533087,-592.164754,0.000000
1255.912597,-8808.450710,-666.185348,0.000000
1255.912918,-9770.718434,-1110.308913,2145.067394
1255.913239,-11251.130318,-2368.659014,3983.696590
1255.913560,-10510.924376,-2664.741391,3140.991542
1255.913880,-9178.553681,-2146.597232,1225.752797
1255.914201,-8438.347739,0.000000,-459.657299
1255.914522,-9474.636058,1184.329507,995.924147
1255.914843,-10066.800811,666.185348,2374.896044
1255.915164,-9252.574275,-592.164754,1838.629195
1255.915484,-8586.388927,-74.020594,-842.705048
1255.915805,-9548.656652,666.185348,76.609550
1255.916126,-10881.027347,0.000000,2681.334243
1255.916447,-10807.006753,-1998.556043,3677.258390
1255.916768,-9178.553681,-2960.823768,1608.800546
1255.917089,-8734.430116,-1702.473667,-766.095498
1255.917409,-9400.615463,888.247130,689.485948
1255.917730,-10288.862594,1702.473667,2604.724693
1255.918051,-10288.862594,1406.391290,3217.601092
1255.918372,-9178.553681,-370.102971,1072.533697
1255.918693,-8808.450710,-444.123565,612.876398
1255.919013,-10288.862594,-1110.308913,2068.457845
1255.919334,-10362.883188,-1924.535449,3753.867940
1255.919655,-10066.800811,-3330.926739,2987.772442
1255.919976,-8734.430116,-2368.659014,306.438199
1255.920297,-7698.141797,0.000000,-689.485948
1255.920618,-9400.615463,2442.679609,1685.410096
1255.920938,-10288.862594,1998.556043,2221.676944
1255.921259,-9622.677246,0.000000,1072.533697
1255.921580,-8956.491898,-444.123565,-1225.752797
1255.921901,-9400.615463,222.061783,-612.876398
1255.922222,-10955.047942,518.144159,2987.772442
1255.922542,-10807.006753,-740.205942,3677.258390
1255.922863,-9770.718434,-1998.556043,1838.629195
1255.923184,-9104.533087,-1480.411884,-459.657299
1255.923505,-8956.491898,666.185348,0.000000
1255.923826,-10362.883188,1480.411884,2298.286494
1255.924147,-10510.924376,814.226536,2681.334243
1255.924467,-9474.636058,-370.102971,1225.752797
1255.924788,-8586.388927,-814.226536,-612.876398
1255.925109,-8660.409521,-740.205942,153.219100
1255.925430,-10066.800811,-814.226536,2221.676944
1255.925751,-10066.800811,-1776.494261,1762.019645
1255.926071,-8142.265362,-296.082377,-612.876398
1255.926392,-8586.388927,1480.411884,-1915.238745
1255.926713,-8512.368333,2368.659014,-1072.533697
1255.927034,-10066.800811,1554.432478,842.705048
1255.927355,-9844.739029,518.144159,689.485948
1255.927675,-9474.636058,-666.185348,-766.095498
1255.927996,-9770.718434,-370.102971,153.219100
1255.928317,-10436.903782,-518.144159,2298.286494
1255.928638,-10881.027347,-1924.535449,2911.162892
1255.928959,-9992.780217,-1924.535449,1838.629195
1255.929280,-9030.512492,-296.082377,-919.314598
1255.929600,-8660.409521,888.247130,-1302.362347
1255.929921,-9548.656652,1554.432478,842.705048
1255.930242,-9622.677246,1036.288319,2451.505594
1255.930563,-10436.903782,444.123565,919.314598
1255.930884,-9178.553681,-814.226536,459.657299
1255.931204,-9918.759623,-888.247130,2068.457845
1255.931525,-11177.109724,-1480.411884,4443.353888
1255.931846,-10510.924376,-2516.700203,4519.963438
1255.932167,-9400.615463,-2146.597232,2451.505594
1255.932488,-8512.368333,-962.267725,229.828649
1255.932809,-8290.306550,1924.535449,383.047749
1255.933129,-9622.677246,2368.659014,2604.724693
1255.933450,-9696.697840,1110.308913,2451.505594
1255.933771,-8956.491898,222.061783,1225.752797
1255.934092,-9474.636058,-666.185348,612.876398
1255.934413,-9918.759623,-370.102971,2221.676944
1255.934733,-11177.109724,-1036.288319,4060.306139
1255.935054,-10214.842000,-2072.576638,3064.381992
1255.935375,-9178.553681,-740.205942,306.438199
1255.935696,-9474.636058,592.164754,-229.828649
1255.936017,-8808.450710,1258.350101,306.438199
1255.936337,-10066.800811,1406.391290,1532.190996
1255.936658,-9918.759623,-370.102971,689.485948
1255.936979,-9400.615463,-148.041188,689.485948
1255.937300,-10288.862594,-1184.329507,689.485948
1255.937621,-9770.718434,-2072.576638,1762.019645
1255.937942,-10807.006753,-2960.823768,2451.505594
1255.938262,-9326.594869,-2886.803174,1225.752797
1255.938583,-8734.430116,-2146.597232,-1225.752797
1255.938904,-8216.285956,222.061783,-1608.800546
1255.939225,-8290.306550,518.144159,-383.047749
1255.939546,-8882.471304,148.041188,-459.657299
1255.939866,-8438.347739,0.000000,-1225.752797
1255.940187,-9474.636058,370.102971,-1225.752797
1255.940508,-10436.903782,888.247130,1608.800546
1255.940829,-10658.965565,-1184.329507,3140.991542
1255.941150,-11325.150913,-2664.741391,3064.381992
1255.941471,-10510.924376,-2664.741391,1225.752797
1255.941791,-9474.636058,-444.123565,-842.705048
1255.942112,-9178.553681,1776.494261,153.219100
1255.942433,-9326.594869,2516.700203,536.266849
1255.942754,-9252.574275,2146.597232,612.876398
1255.943075,-9474.636058,-370.102971,-459.657299
1255.943395,-8290.306550,-592.164754,-306.438199
1255.943716,-10140.821405,-2072.576638,1762.019645
1255.944037,-10955.047942,-3478.967927,3447.429741
1255.944358,-9474.636058,-3108.864956,2145.067394
1255.944679,-9622.677246,-1628.453072,536.266849
1255.945000,-8142.265362,1776.494261,-306.438199
1255.945320,-9696.697840,2664.741391,1225.752797
1255.945641,-9622.677246,1110.308913,1991.848295
1255.945962,-9918.759623,0.000000,-766.095498
1255.946283,-9326.594869,-888.247130,-766.095498
1255.946604,-10140.821405,-592.164754,919.314598
1255.946924,-10510.924376,-740.205942,3064.381992
1255.947245,-10881.027347,-1480.411884,4213.525239
1255.947566,-10214.842000,-2368.659014,1762.019645
1255.947887,-8660.409521,-296.082377,0.000000
1255.948208,-10288.862594,296.082377,383.047749
1255.948528,-9918.759623,1406.391290,2145.067394
1255.948849,-10584.944971,1332.370696,2221.676944
1255.949170,-9770.718434,74.020594,995.924147
1255.949491,-8956.491898,370.102971,383.047749
1255.949812,-10140.821405,0.000000,2528.115143
1255.950133,-11251.130318,-740.205942,4519.963438
1255.950453,-10288.862594,-2146.597232,3064.381992
1255.950774,-9030.512492,-1850.514855,536.266849
1255.951095,-8364.327145,592.164754,0.000000
1255.951416,-9326.594869,1850.514855,1532.190996
1255.951737,-10140.821405,1332.370696,2911.162892
1255.952057,-9400.615463,-592.164754,1532.190996
1255.952378,-8808.450710,-962.267725,-612.876398
1255.952699,-9326.594869,-592.164754,0.000000
1255.953020,-10362.883188,-444.123565,3217.601092
1255.953341,-10510.924376,-1702.473667,3370.820191
1255.953662,-9400.615463,-2664.741391,919.314598
1255.953982,-8216.285956,-1406.391290,-1378.971896
1255.954303,-8586.388927,666.185348,-995.924147
1255.954624,-9474.636058,1480.411884,612.876398
1255.954945,-9918.759623,592.164754,1455.581446
1255.955266,-8956.491898,-296.082377,0.000000
1255.955586,-8438.347739,-296.082377,-995.924147
1255.955907,-9770.718434,-888.247130,612.876398
1255.956228,-10881.027347,-1702.473667,2757.943793
1255.956549,-10510.924376,-2664.741391,2911.162892
1255.956870,-9252.574275,-3330.926739,383.047749
1255.957191,-7105.977043,-962.267725,-1762.019645
1255.957511,-9252.574275,1110.308913,383.047749
1255.957832,-9474.636058,1554.432478,1378.971896
1255.958153,-9992.780217,740.205942,842.705048
1255.958474,-9104.533087,222.061783,-1149.143247
1255.958795,-9400.615463,296.082377,-383.047749
1255.959115,-10807.006753,-666.185348,1532.190996
1255.959436,-10510.924376,-1406.391290,2987.772442
1255.959757,-10584.944971,-1850.514855,1608.800546
1255.960078,-9030.512492,0.000000,-459.657299
1255.960399,-9030.512492,2146.597232,-459.657299
1255.960719,-9844.739029,3478.967927,1455.581446
1255.961040,-10362.883188,1924.535449,2528.115143
1255.961361,-9844.739029,592.164754,842.705048
1255.961682,-9326.594869,-740.205942,76.609550
1255.962003,-9104.533087,-1184.329507,919.314598
1255.962324,-10362.883188,-1702.473667,2911.162892
1255.962644,-10436.903782,-1554.432478,3677.258390
1255.962965,-9622.677246,-1850.514855,1685.410096
1255.963286,-8512.368333,74.020594,459.657299
1255.963607,-9326.594869,1184.329507,1685.410096
1255.963928,-10066.800811,1258.350101,2911.162892
1255.964248,-9992.780217,-370.102971,2221.676944
1255.964569,-9030.512492,-962.267725,153.219100
1255.964890,-8734.430116,-148.041188,0.000000
1255.965211,-9696.697840,-518.144159,1762.019645
1255.965532,-9844.739029,-2442.679609,3600.648841
1255.965853,-9918.759623,-3182.885551,2451.505594
1255.966173,-9030.512492,-2516.700203,229.828649
1255.966494,-8364.327145,-518.144159,-229.828649
1255.966815,-9548.656652,1184.329507,1532.190996
1255.967136,-10140.821405,888.247130,2374.896044
1255.967457,-9474.636058,0.000000,1915.238745
1255.967777,-8438.347739,-962.267725,229.828649
1255.968098,-9178.553681,-1258.350101,383.047749
1255.968419,-10288.862594,-1702.473667,1608.800546
1255.968740,-9548.656652,-2442.679609,1302.362347
1255.969061,-8882.471304,-1554.432478,-689.485948
1255.969382,-7846.182985,518.144159,-1915.238745
1255.969702,-8956.491898,1776.494261,-1685.410096
1255.970023,-9918.759623,1776.494261,306.438199
1255.970344,-10214.842000,740.205942,995.924147
1255.970665,-10881.027347,74.020594,459.657299
1255.970986,-10732.986159,148.041188,612.876398
1255.971306,-11029.068536,0.000000,2451.505594
1255.971627,-11399.171507,-1036.288319,3370.820191
1255.971948,-10288.862594,-2294.638420,1991.848295
1255.972269,-8882.471304,-2368.659014,-689.485948
