#time,accel_x,accel_y,accel_z
808.578054,-9844.739029,-1776.494261,-1532.190996
808.578375,-9770.718434,-1850.514855,-1072.533697
808.578696,-9400.615463,-518.144159,-153.219100
808.579017,-10214.842000,-740.205942,1072.533697
808.579338,-9622.677246,-814.226536,1225.752797
808.579659,-9178.553681,-1184.329507,766.095498
808.579980,-9548.656652,-1554.432478,1302.362347
808.580301,-9178.553681,-1258.350101,2374.896044
808.580622,-8956.491898,-1406.391290,1915.238745
808.580943,-9400.615463,-1258.350101,2068.457845
808.581264,-8660.409521,-1406.391290,612.876398
808.581585,-10214.842000,-592.164754,2987.772442
808.581906,-9770.718434,-740.205942,1378.971896
808.582227,-10214.842000,-518.144159,612.876398
808.582547,-10066.800811,-222.061783,1225.752797
808.582868,-9622.677246,-888.247130,536.266849
808.583189,-9770.718434,-592.164754,919.314598
808.583510,-10140.821405,-1110.308913,153.219100
808.583831,-9326.594869,-888.247130,0.000000
808.584152,-9400.615463,-1554.432478,0.000000
808.584473,-9178.553681,-1924.535449,383.047749
808.584794,-9104.533087,-2146.597232,-383.047749
808.585115,-9104.533087,-2886.803174,-766.095498
808.585436,-9252.574275,-3108.864956,-1149.143247
808.585757,-9252.574275,-3182.885551,0.000000
808.586078,-9474.636058,-3330.926739,-1991.848295
808.586399,-9548.656652,-3404.947333,-2374.896044
808.586720,-9474.636058,-2738.761985,-2757.943793
808.587041,-9400.615463,-3404.947333,-3217.601092
808.587362,-9622.677246,-3108.864956,-3217.601092
808.587683,-9400.615463,-2812.782580,-3983.696590
808.588004,-9770.718434,-3330.926739,-3753.867940
808.588325,-9400.615463,-3256.906145,-3753.867940
808.588646,-9400.615463,-3478.967927,-3677.258390
808.588967,-10066.800811,-3256.906145,-3370.820191
808.589288,-9622.677246,-3256.906145,-2757.943793
808.589609,-9770.718434,-2886.803174,-2221.676944
808.589930,-9622.677246,-2886.803174,-3217.601092
808.590251,-9400.615463,-3034.844362,-2528.115143
808.590572,-9696.697840,-3108.864956,-2451.505594
808.590893,-9696.697840,-2960.823768,-2145.067394
808.591214,-9548.656652,-2960.823768,-1915.238745
808.591535,-9474.636058,-2960.823768,-1991.848295
808.591856,-9548.656652,-3330.926739,-2451.505594
808.592177,-9474.636058,-3552.988522,-2374.896044
808.592498,-9474.636058,-3701.029710,-2604.724693
808.592819,-9474.636058,-3775.050304,-1608.800546
808.593140,-9622.677246,-3330.926739,-2374.896044
808.593461,-10066.800811,-3330.926739,-1838.629195
808.593782,-9844.739029,-3108.864956,-1302.362347
808.594103,-10066.800811,-2738.761985,-306.438199
808.594424,-10066.800811,-2886.803174,612.876398
808.594745,-10140.821405,-3034.844362,1072.533697
808.595066,-9918.759623,-3404.947333,766.095498
808.595387,-9474.636058,-2960.823768,0.000000
808.595708,-9178.553681,-2368.659014,0.000000
808.596029,-8586.388927,-1406.391290,-306.438199
808.596350,-9178.553681,-1332.370696,-153.219100
808.596671,-8882.471304,-740.205942,0.000000
808.596991,-8882.471304,-888.247130,1685.410096
808.597312,-9992.780217,-962.267725,2298.286494
808.597633,-10732.986159,-1184.329507,3983.696590
808.597954,-10658.965565,-962.267725,4596.572988
808.598275,-10584.944971,-592.164754,4979.620737
808.598596,-10066.800811,-888.247130,4903.011187
808.598917,-9474.636058,-962.267725,4443.353888
808.599238,-8882.471304,-740.205942,3217.601092
808.599559,-8586.388927,-814.226536,2298.286494
808.599880,-8142.265362,-222.061783,1149.143247
808.600201,-8660.409521,148.041188,612.876398
808.600522,-8660.409521,296.082377,306.438199
808.600843,-9474.636058,222.061783,229.828649
808.601164,-9770.718434,0.000000,766.095498
808.601484,-10510.924376,74.020594,1532.190996
808.601805,-10584.944971,148.041188,2068.457845
808.602126,-10658.965565,444.123565,2145.067394
808.602446,-10510.924376,518.144159,2221.676944
808.602767,-10214.842000,814.226536,1225.752797
808.603087,-9474.636058,1850.514855,919.314598
808.603408,-9474.636058,2072.576638,536.266849
808.603729,-9474.636058,2146.597232,536.266849
808.604049,-9326.594869,2738.761985,689.485948
808.604370,-9326.594869,2664.741391,612.876398
808.604691,-9474.636058,3034.844362,689.485948
808.605011,-9918.759623,2738.761985,1072.533697
808.605332,-9474.636058,1702.473667,995.924147
808.605652,-9918.759623,1554.432478,-229.828649
808.605973,-10066.800811,1184.329507,-766.095498
808.606294,-10140.821405,888.247130,-919.314598
808.606614,-9770.718434,222.061783,-1225.752797
808.606935,-9918.759623,296.082377,-1072.533697
808.607255,-9770.718434,0.000000,-689.485948
808.607576,-9992.780217,-296.082377,-612.876398
808.607897,-9474.636058,-518.144159,-383.047749
808.608217,-9178.553681,370.102971,459.657299
808.608538,-8956.491898,0.000000,0.000000
808.608858,-8956.491898,74.020594,842.705048
808.609179,-9104.533087,-222.061783,1072.533697
808.609500,-9104.533087,-370.102971,919.314598
808.609820,-9178.553681,-370.102971,1685.410096
808.610141,-9622.677246,-444.123565,2374.896044
808.610461,-9696.697840,-148.041188,3064.381992
808.610782,-9696.697840,-518.144159,2834.553343
808.611103,-9474.636058,-592.164754,2298.286494
808.611423,-9326.594869,-1184.329507,1762.019645
808.611744,-9474.636058,-1480.411884,1608.800546
808.612064,-9326.594869,-1776.494261,459.657299
808.612385,-8808.450710,-1480.411884,1225.752797
808.612706,-9104.533087,-1702.473667,0.000000
808.613026,-9474.636058,-1480.411884,0.000000
808.613347,-9992.780217,-1554.432478,1378.971896
808.613668,-10214.842000,-1702.473667,2068.457845
808.613988,-10658.965565,-1924.535449,2451.505594
808.614309,-10362.883188,-1924.535449,2604.724693
808.614629,-9992.780217,-2220.617826,3447.429741
808.614950,-10066.800811,-1776.494261,3140.991542
808.615271,-9030.512492,-1776.494261,3370.820191
808.615591,-9104.533087,-1258.350101,2451.505594
808.615912,-8882.471304,-888.247130,1455.581446
808.616232,-9178.553681,-666.185348,1685.410096
808.616553,-9622.677246,-296.082377,2604.724693
808.616874,-9770.718434,-296.082377,2145.067394
808.617194,-9918.759623,-666.185348,2528.115143
808.617515,-10140.821405,-888.247130,1762.019645
808.617835,-9770.718434,-740.205942,1532.190996
808.618156,-9548.656652,-1110.308913,766.095498
808.618477,-9400.615463,-1110.308913,0.000000
808.618797,-9030.512492,-962.267725,-612.876398
808.619118,-9104.533087,-518.144159,-689.485948
808.619438,-11103.089130,-370.102971,-612.876398
808.619759,-9474.636058,-814.226536,153.219100
808.620080,-9844.739029,-962.267725,153.219100
808.620400,-9844.739029,-740.205942,153.219100
808.620721,-9622.677246,-740.205942,-689.485948
808.621041,-9474.636058,0.000000,612.876398
808.621362,-9326.594869,-296.082377,536.266849
808.621683,-8956.491898,444.123565,-229.828649
808.622003,-9030.512492,888.247130,-76.609550
808.622324,-9252.574275,1628.453072,0.000000
808.622645,-9696.697840,1924.535449,1225.752797
808.622965,-9770.718434,1850.514855,1838.629195
808.623286,-9918.759623,1110.308913,1455.581446
808.623606,-9178.553681,592.164754,2374.896044
808.623927,-9548.656652,-296.082377,1685.410096
808.624248,-9252.574275,-370.102971,1072.533697
808.624568,-9104.533087,-370.102971,536.266849
808.624889,-8734.430116,222.061783,-383.047749
808.625209,-8956.491898,740.205942,-612.876398
808.625530,-9474.636058,740.205942,-383.047749
808.625851,-9844.739029,592.164754,153.219100
808.626171,-10510.924376,296.082377,995.924147
808.626492,-10807.006753,222.061783,1455.581446
808.626812,-10732.986159,148.041188,2451.505594
808.627133,-10732.986159,148.041188,2987.772442
808.627454,-10140.821405,74.020594,2834.553343
808.627774,-9844.739029,666.185348,2451.505594
808.628095,-9548.656652,1332.370696,2374.896044
808.628415,-9252.574275,1110.308913,2298.286494
808.628736,-9326.594869,1110.308913,2374.896044
808.629057,-9252.574275,518.144159,2298.286494
808.629377,-9474.636058,444.123565,2451.505594
808.629698,-9770.718434,0.000000,2374.896044
808.630018,-9770.718434,-444.123565,2298.286494
808.630339,-9696.697840,-444.123565,1685.410096
808.630660,-9474.636058,-518.144159,1838.629195
808.630980,-9696.697840,-592.164754,1225.752797
808.631301,-9844.739029,-592.164754,229.828649
808.631622,-9844.739029,-370.102971,306.438199
808.631942,-9918.759623,-666.185348,459.657299
808.632263,-9696.697840,-962.267725,842.705048
808.632583,-9474.636058,-1258.350101,766.095498
808.632904,-9400.615463,-1480.411884,766.095498
808.633225,-8956.491898,-1406.391290,842.705048
808.633545,-8956.491898,-1554.432478,1762.019645
808.633866,-9178.553681,-1258.350101,919.314598
808.634186,-9030.512492,-1110.308913,612.876398
808.634507,-8956.491898,-814.226536,766.095498
808.634828,-8956.491898,-814.226536,1685.410096
808.635148,-9622.677246,-518.144159,1608.800546
808.635469,-9844.739029,-666.185348,1455.581446
808.635789,-9622.677246,-444.123565,1302.362347
808.636110,-9622.677246,-814.226536,842.705048
808.636431,-9548.656652,-1332.370696,0.000000
808.636751,-9178.553681,-1480.411884,-459.657299
808.637072,-9104.533087,-1110.308913,-1608.800546
808.637392,-8808.450710,-888.247130,-2068.457845
808.637713,-8364.327145,-1480.411884,-1072.533697
808.638034,-9474.636058,-888.247130,-1225.752797
808.638354,-9992.780217,-1332.370696,0.000000
808.638675,-10214.842000,-1702.473667,153.219100
808.638996,-10140.821405,-1480.411884,1225.752797
808.639316,-10436.903782,-1332.370696,1608.800546
808.639637,-9992.780217,-1184.329507,2221.676944
808.639957,-9770.718434,-740.205942,1915.238745
808.640278,-9252.574275,-666.185348,1378.971896
808.640599,-9548.656652,-74.020594,919.314598
808.640919,-9252.574275,-296.082377,1378.971896
808.641240,-9400.615463,-370.102971,1838.629195
808.641560,-9474.636058,-740.205942,1915.238745
808.641881,-8882.471304,-814.226536,1991.848295
808.642202,-9548.656652,-1184.329507,2068.457845
808.642522,-9696.697840,-1258.350101,1915.238745
808.642843,-9548.656652,-1554.432478,1378.971896
808.643163,-9622.677246,-814.226536,1149.143247
808.643484,-9992.780217,-518.144159,689.485948
808.643805,-9548.656652,-740.205942,766.095498
808.644125,-9918.759623,-296.082377,1302.362347
808.644446,-10066.800811,0.000000,1378.971896
808.644766,-9696.697840,-592.164754,1455.581446
808.645087,-10066.800811,-296.082377,1455.581446
808.645408,-9770.718434,0.000000,1685.410096
808.645728,-9844.739029,0.000000,2374.896044
808.646049,-9474.636058,666.185348,2528.115143
808.646369,-9474.636058,592.164754,1838.629195
808.646690,-9622.677246,814.226536,1915.238745
808.647011,-9622.677246,1110.308913,2068.457845
808.647331,-10066.800811,1332.370696,1991.848295
808.647652,-9918.759623,1184.329507,1991.848295
808.647973,-9696.697840,1110.308913,1838.629195
808.648293,-9326.594869,370.102971,1302.362347
808.648614,-9252.574275,0.000000,689.485948
808.648934,-9474.636058,-296.082377,536.266849
808.649255,-9400.615463,-518.144159,-612.876398
808.649576,-9030.512492,-592.164754,-1149.143247
808.649896,-9548.656652,-444.123565,-1225.752797
808.650217,-9844.739029,0.000000,-1608.800546
808.650537,-9918.759623,-592.164754,0.000000
808.650858,-10066.800811,-518.144159,153.219100
808.651179,-9844.739029,-518.144159,842.705048
808.651499,-10066.800811,-370.102971,1072.533697
808.651820,-9770.718434,0.000000,1225.752797
808.652140,-9696.697840,74.020594,1072.533697
808.652461,-9326.594869,370.102971,1149.143247
808.652782,-9326.594869,592.164754,919.314598
808.653102,-9252.574275,888.247130,1149.143247
808.653423,-9474.636058,814.226536,1608.800546
808.653743,-9252.574275,518.144159,1455.581446
808.654064,-9548.656652,148.041188,1532.190996
808.654385,-9622.677246,-888.247130,306.438199
808.654705,-9474.636058,-296.082377,1149.143247
808.655026,-9474.636058,-518.144159,1225.752797
808.655346,-9770.718434,-592.164754,689.485948
808.655667,-9696.697840,-666.185348,536.266849
808.655988,-9844.739029,-444.123565,306.438199
808.656308,-9696.697840,-444.123565,766.095498
808.656629,-9992.780217,-962.267725,1072.533697
808.656950,-9992.780217,-1184.329507,1378.971896
808.657270,-9844.739029,-1332.370696,1608.800546
808.657591,-9548.656652,-1332.370696,1378.971896
808.657911,-9474.636058,-1184.329507,1685.410096
808.658232,-9474.636058,-962.267725,1455.581446
808.658553,-9770.718434,-370.102971,1685.410096
808.658873,-9474.636058,-444.123565,1532.190996
808.659194,-9474.636058,0.000000,1762.019645
808.659514,-9622.677246,0.000000,2145.067394
808.659835,-9548.656652,0.000000,2145.067394
808.660156,-9622.677246,-222.061783,2298.286494
808.660476,-9474.636058,-222.061783,1762.019645
808.660797,-9770.718434,-666.185348,1532.190996
808.661117,-9400.615463,-740.205942,1072.533697
808.661438,-8734.430116,-1036.288319,-306.438199
808.661759,-9326.594869,-1184.329507,-766.095498
808.662079,-8956.491898,-814.226536,-919.314598
808.662400,-9326.594869,-1184.329507,-536.266849
808.662720,-9474.636058,-1480.411884,-919.314598
808.663041,-9844.739029,-1258.350101,0.000000
808.663362,-10066.800811,-962.267725,919.314598
808.663682,-10140.821405,-1110.308913,1455.581446
808.664003,-10066.800811,-592.164754,1762.019645
808.664323,-9992.780217,-296.082377,1532.190996
808.664644,-9548.656652,74.020594,1302.362347
808.664965,-9474.636058,444.123565,1378.971896
808.665285,-9326.594869,370.102971,1378.971896
808.665606,-9474.636058,740.205942,1149.143247
808.665927,-9252.574275,148.041188,1762.019645
808.666247,-9474.636058,0.000000,1762.019645
808.666568,-9474.636058,0.000000,1685.410096
808.666888,-9918.759623,-518.144159,995.924147
808.667209,-9474.636058,-592.164754,1225.752797
808.667530,-9474.636058,-518.144159,612.876398
808.667850,-9548.656652,-518.144159,459.657299
808.668171,-9992.780217,-296.082377,766.095498
808.668491,-9844.739029,-296.082377,919.314598
808.668812,-10436.903782,0.000000,1378.971896
808.669133,-10362.883188,-296.082377,1302.362347
808.669453,-10066.800811,-370.102971,1455.581446
808.669774,-10288.862594,-1110.308913,536.266849
808.670094,-9326.594869,-518.144159,1149.143247
808.670415,-9252.574275,-518.144159,1302.362347
808.670736,-9474.636058,0.000000,1455.581446
808.671056,-9474.636058,444.123565,1225.752797
808.671377,-9474.636058,888.247130,2068.457845
808.671697,-9844.739029,1036.288319,1991.848295
808.672018,-9696.697840,814.226536,2298.286494
808.672339,-10066.800811,444.123565,1991.848295
808.672659,-9622.677246,222.061783,1991.848295
808.672980,-9548.656652,148.041188,1608.800546
808.673301,-9770.718434,-148.041188,919.314598
808.673621,-9252.574275,-518.144159,0.000000
808.673942,-9844.739029,370.102971,-459.657299
808.674262,-9030.512492,-148.041188,-842.705048
808.674583,-9474.636058,-592.164754,-459.657299
808.674904,-9474.636058,-518.144159,229.828649
808.675224,-9992.780217,-962.267725,1072.533697
808.675545,-10066.800811,-888.247130,1838.629195
808.675865,-9992.780217,-1480.411884,2145.067394
808.676186,-9770.718434,-962.267725,2374.896044
808.676507,-9400.615463,-666.185348,2145.067394
808.676827,-9474.636058,-222.061783,1378.971896
808.677148,-9104.533087,444.123565,1532.190996
808.677468,-8586.388927,740.205942,1608.800546
808.677789,-9252.574275,296.082377,1455.581446
808.678110,-9326.594869,148.041188,1302.362347
808.678430,-9548.656652,0.000000,2145.067394
808.678751,-9844.739029,-148.041188,2145.067394
808.679071,-9844.739029,-148.041188,1838.629195
808.679392,-9770.718434,-592.164754,2298.286494
808.679713,-9844.739029,-518.144159,1302.362347
808.680033,-9474.636058,-1036.288319,766.095498
808.680354,-9400.615463,-1332.370696,-306.438199
808.680674,-9622.677246,-888.247130,0.000000
808.680995,-9474.636058,-814.226536,-76.609550
808.681316,-9770.718434,-444.123565,459.657299
808.681636,-9548.656652,-1036.288319,536.266849
808.681957,-9622.677246,-592.164754,612.876398
808.682278,-9252.574275,-1184.329507,2145.067394
808.682598,-9696.697840,-888.247130,1762.019645
808.682919,-9548.656652,-592.164754,1532.190996
808.683239,-9474.636058,-296.082377,1378.971896
808.683560,-9400.615463,148.041188,1302.362347
808.683881,-9622.677246,444.123565,2221.676944
808.684201,-9622.677246,296.082377,2068.457845
808.684522,-9548.656652,592.164754,1838.629195
808.684842,-9770.718434,370.102971,1762.019645
808.685163,-9474.636058,0.000000,2451.505594
808.685484,-9548.656652,-444.123565,1455.581446
808.685804,-9474.636058,-1036.288319,153.219100
808.686125,-9474.636058,-1184.329507,-612.876398
808.686445,-9326.594869,-666.185348,-612.876398
808.686766,-9474.636058,-740.205942,-919.314598
808.687087,-9548.656652,-666.185348,-153.219100
808.687407,-9844.739029,-1036.288319,0.000000
808.687728,-9992.780217,-1036.288319,306.438199
808.688048,-10214.842000,-1332.370696,919.314598
808.688369,-9992.780217,-1406.391290,1225.752797
808.688690,-10214.842000,-962.267725,1685.410096
808.689010,-9622.677246,-740.205942,1378.971896
808.689331,-9326.594869,0.000000,1991.848295
808.689651,-9326.594869,148.041188,1072.533697
808.689972,-9326.594869,666.185348,1072.533697
808.690293,-9474.636058,592.164754,1378.971896
808.690613,-9844.739029,666.185348,1455.581446
808.690934,-9548.656652,0.000000,1838.629195
808.691255,-9622.677246,-222.061783,1608.800546
808.691575,-9400.615463,-592.164754,1608.800546
808.691896,-9770.718434,-444.123565,1685.410096
808.692216,-9992.780217,-518.144159,919.314598
808.692537,-9696.697840,-518.144159,76.609550
808.692858,-9696.697840,-666.185348,612.876398
808.693178,-9992.780217,-296.082377,919.314598
808.693499,-10510.924376,-148.041188,1455.581446
808.693819,-10066.800811,-814.226536,1608.800546
808.694140,-9622.677246,-1036.288319,1302.362347
808.694461,-9696.697840,-962.267725,1455.581446
808.694781,-10140.821405,-148.041188,1302.362347
808.695102,-9622.677246,0.000000,2145.067394
808.695422,-9474.636058,-222.061783,1838.629195
808.695743,-9326.594869,0.000000,1149.143247
808.696064,-9252.574275,444.123565,1455.581446
808.696384,-9696.697840,666.185348,1991.848295
808.696705,-9844.739029,592.164754,1991.848295
808.697025,-9696.697840,444.123565,1685.410096
808.697346,-9474.636058,0.000000,1302.362347
808.697667,-9252.574275,-592.164754,1225.752797
808.697987,-9400.615463,-592.164754,153.219100
808.698308,-9474.636058,-740.205942,-229.828649
808.698628,-9252.574275,-592.164754,-995.924147
808.698949,-8956.491898,-962.267725,-842.705048
808.699270,-9474.636058,-888.247130,-766.095498
808.699590,-9622.677246,-1036.288319,-229.828649
808.699911,-9918.759623,-1480.411884,0.000000
808.700232,-9622.677246,-1406.391290,612.876398
808.700552,-9696.697840,-1332.370696,995.924147
808.700873,-9770.718434,-888.247130,1685.410096
808.701193,-9548.656652,-666.185348,1455.581446
808.701514,-9400.615463,0.000000,2068.457845
808.701835,-9252.574275,-296.082377,1072.533697
808.702155,-8882.471304,370.102971,1378.971896
808.702476,-9474.636058,666.185348,1532.190996
808.702797,-9474.636058,888.247130,1915.238745
808.703117,-9030.512492,444.123565,2145.067394
808.703438,-9474.636058,222.061783,1991.848295
808.703759,-9770.718434,-148.041188,1915.238745
808.704079,-9474.636058,-888.247130,1455.581446
808.704400,-9696.697840,-1184.329507,1149.143247
808.704721,-10066.800811,-814.226536,1225.752797
808.705041,-9622.677246,-666.185348,459.657299
808.705362,-9474.636058,-74.020594,306.438199
808.705682,-10214.842000,-296.082377,1225.752797
808.706003,-10362.883188,-666.185348,689.485948
808.706324,-9696.697840,-888.247130,919.314598
808.706644,-10288.862594,-814.226536,1302.362347
808.706965,-9474.636058,-740.205942,2068.457845
808.707286,-9844.739029,-962.267725,2834.553343
808.707606,-9844.739029,-444.123565,2604.724693
808.707927,-9030.512492,-296.082377,1302.362347
808.708248,-9992.780217,592.164754,2221.676944
808.708568,-9400.615463,740.205942,2145.067394
808.708889,-9474.636058,518.144159,2298.286494
808.709210,-9696.697840,148.041188,2068.457845
808.709530,-9104.533087,0.000000,1685.410096
808.709851,-9178.553681,-222.061783,1149.143247
808.710171,-9178.553681,222.061783,919.314598
808.710492,-8956.491898,-740.205942,229.828649
808.710813,-9178.553681,-740.205942,-766.095498
808.711133,-9400.615463,-666.185348,-842.705048
808.711454,-9400.615463,-370.102971,-1302.362347
808.711775,-9844.739029,-962.267725,-459.657299
808.712095,-9992.780217,-888.247130,153.219100
808.712416,-10066.800811,-666.185348,842.705048
808.712737,-10140.821405,-1184.329507,995.924147
808.713057,-10214.842000,-666.185348,1685.410096
808.713378,-9770.718434,-592.164754,1302.362347
808.713699,-9474.636058,-740.205942,1378.971896
808.714019,-9474.636058,0.000000,1378.971896
808.714340,-9252.574275,-518.144159,612.876398
808.714660,-9252.574275,518.144159,1302.362347
808.714981,-9474.636058,666.185348,1608.800546
808.715302,-9474.636058,592.164754,1762.019645
808.715622,-9918.759623,592.164754,1685.410096
808.715943,-9548.656652,444.123565,1532.190996
808.716264,-9474.636058,-296.082377,919.314598
808.716584,-9622.677246,-370.102971,689.485948
808.716905,-9844.739029,-222.061783,383.047749
808.717226,-9474.636058,-370.102971,306.438199
808.717546,-9992.780217,-148.041188,229.828649
808.717867,-9844.739029,-370.102971,229.828649
808.718188,-10066.800811,-518.144159,766.095498
808.718508,-9770.718434,-888.247130,536.266849
808.718829,-9696.697840,-370.102971,919.314598
808.719150,-9622.677246,-518.144159,1532.190996
808.719470,-9622.677246,-592.164754,1532.190996
808.719791,-9400.615463,-740.205942,2068.457845
808.720111,-9474.636058,0.000000,1762.019645
808.720432,-9474.636058,370.102971,1838.629195
808.720753,-9474.636058,666.185348,2451.505594
808.721073,-9104.533087,592.164754,2451.505594
808.721394,-9622.677246,0.000000,1915.238745
808.721715,-9622.677246,0.000000,2451.505594
808.722035,-9474.636058,-444.123565,2145.067394
808.722356,-9400.615463,-740.205942,1838.629195
808.722677,-8808.450710,-1036.288319,1991.848295
808.722997,-9178.553681,-1258.350101,153.219100
808.723318,-9030.512492,-1036.288319,-459.657299
808.723639,-9252.574275,-740.205942,-536.266849
808.723959,-9622.677246,-814.226536,-76.609550
808.724280,-9474.636058,-296.082377,459.657299
808.724600,-10066.800811,-814.226536,306.438199
808.724921,-9770.718434,-518.144159,1378.971896
808.725242,-10066.800811,-1258.350101,1532.190996
808.725562,-8808.450710,-740.205942,536.266849
808.725883,-9770.718434,-740.205942,1455.581446
808.726204,-9326.594869,74.020594,1455.581446
808.726524,-9400.615463,444.123565,1838.629195
808.726845,-9400.615463,518.144159,1378.971896
808.727166,-9252.574275,148.041188,1685.410096
808.727486,-9326.594869,370.102971,1378.971896
808.727807,-9770.718434,0.000000,1762.019645
808.728128,-9622.677246,-592.164754,1762.019645
808.728448,-9104.533087,-814.226536,1455.581446
808.728769,-9844.739029,-592.164754,1149.143247
808.729089,-9844.739029,-666.185348,612.876398
808.729410,-9770.718434,-370.102971,383.047749
808.729731,-9918.759623,-666.185348,76.609550
808.730051,-10140.821405,-296.082377,0.000000
808.730372,-9770.718434,-814.226536,383.047749
808.730693,-10140.821405,-1110.308913,842.705048
808.731013,-9696.697840,-962.267725,1225.752797
808.731334,-9474.636058,-962.267725,1225.752797
808.731655,-9474.636058,-370.102971,1302.362347
808.731975,-9844.739029,-148.041188,1378.971896
808.732296,-9474.636058,148.041188,1532.190996
808.732617,-9548.656652,296.082377,1302.362347
808.732937,-9474.636058,518.144159,1838.629195
808.733258,-9844.739029,518.144159,2221.676944
808.733578,-9844.739029,518.144159,2374.896044
808.733899,-9548.656652,148.041188,2068.457845
808.734220,-9252.574275,0.000000,1685.410096
808.734540,-9474.636058,-222.061783,1455.581446
808.734861,-9474.636058,-740.205942,1225.752797
808.735182,-9178.553681,-814.226536,229.828649
808.735502,-8956.491898,-740.205942,-536.266849
808.735823,-8882.471304,-740.205942,-919.314598
808.736144,-9400.615463,-1110.308913,-766.095498
808.736464,-9474.636058,-592.164754,0.000000
808.736785,-9992.780217,-1110.308913,383.047749
808.737106,-9918.759623,-1184.329507,766.095498
808.737426,-10732.986159,-518.144159,306.438199
808.737747,-10214.842000,-814.226536,1915.238745
808.738067,-10140.821405,-666.185348,2451.505594
808.738388,-9548.656652,-296.082377,1838.629195
808.738709,-9178.553681,222.061783,1685.410096
808.739029,-8956.491898,888.247130,1302.362347
808.739350,-9104.533087,592.164754,1302.362347
808.739671,-9400.615463,888.247130,1532.190996
808.739991,-9696.697840,296.082377,1838.629195
808.740312,-9252.574275,0.000000,1762.019645
808.740633,-9770.718434,-222.061783,1225.752797
808.740953,-9696.697840,-370.102971,842.705048
808.741274,-9918.759623,-370.102971,766.095498
808.741595,-9622.677246,-518.144159,306.438199
808.741915,-9918.759623,-666.185348,-383.047749
808.742236,-9770.718434,-370.102971,76.609550
808.742556,-10362.883188,-444.123565,536.266849
808.742877,-10140.821405,-740.205942,1149.143247
808.743198,-9844.739029,-1036.288319,689.485948
808.743518,-9844.739029,-592.164754,1149.143247
808.743839,-9770.718434,-444.123565,1685.410096
808.744160,-9622.677246,-740.205942,2145.067394
808.744480,-9474.636058,-518.144159,1685.410096
808.744801,-9474.636058,-370.102971,1378.971896
808.745122,-9400.615463,74.020594,1838.629195
808.745442,-9622.677246,370.102971,2068.457845
808.745763,-9844.739029,296.082377,1991.848295
808.746084,-9622.677246,222.061783,2145.067394
808.746404,-9474.636058,0.000000,1915.238745
808.746725,-9474.636058,-370.102971,1762.019645
808.747046,-9474.636058,-888.247130,842.705048
808.747366,-9474.636058,-1036.288319,153.219100
808.747687,-9178.553681,-1036.288319,-459.657299
808.748007,-9326.594869,-740.205942,-1378.971896
808.748328,-8956.491898,-444.123565,-1225.752797
808.748649,-9400.615463,-296.082377,229.828649
808.748969,-9696.697840,-518.144159,0.000000
808.749290,-9918.759623,-518.144159,0.000000
808.749611,-10214.842000,-962.267725,842.705048
808.749931,-9844.739029,-962.267725,2068.457845
808.750252,-9770.718434,-666.185348,1302.362347
808.750573,-9474.636058,-296.082377,1149.143247
808.750893,-9326.594869,74.020594,842.705048
808.751214,-9474.636058,666.185348,1225.752797
808.751535,-9178.553681,666.185348,1455.581446
808.751855,-9178.553681,444.123565,1762.019645
808.752176,-9622.677246,74.020594,2298.286494
808.752496,-9548.656652,-296.082377,2145.067394
808.752817,-8808.450710,-666.185348,2145.067394
808.753138,-9548.656652,-1036.288319,1378.971896
808.753458,-9474.636058,-888.247130,1072.533697
808.753779,-9770.718434,-962.267725,766.095498
808.754100,-9548.656652,-592.164754,0.000000
808.754420,-9622.677246,-518.144159,229.828649
808.754741,-10140.821405,-740.205942,995.924147
808.755062,-10288.862594,-1184.329507,1302.362347
808.755382,-10288.862594,-1258.350101,1455.581446
808.755703,-9770.718434,-1036.288319,1455.581446
808.756024,-9474.636058,-1036.288319,1302.362347
808.756344,-9252.574275,-666.185348,1608.800546
808.756665,-9474.636058,-222.061783,1685.410096
808.756985,-8586.388927,0.000000,2298.286494
808.757306,-9474.636058,444.123565,1838.629195
808.757627,-9622.677246,592.164754,2221.676944
808.757947,-9696.697840,444.123565,2298.286494
808.758268,-9918.759623,0.000000,2681.334243
808.758589,-9548.656652,0.000000,2145.067394
808.758909,-9326.594869,0.000000,1915.238745
808.759230,-9474.636058,-592.164754,1608.800546
808.759551,-9474.636058,-666.185348,766.095498
808.759871,-9104.533087,-592.164754,-612.876398
808.760192,-9030.512492,-518.144159,-1149.143247
808.760513,-9326.594869,-444.123565,-919.314598
808.760833,-9326.594869,-518.144159,-536.266849
808.761154,-9918.759623,-1184.329507,-153.219100
808.761474,-9770.718434,-1036.288319,229.828649
808.761795,-10066.800811,-1184.329507,766.095498
808.762116,-9992.780217,-1110.308913,1225.752797
808.762436,-9918.759623,-814.226536,919.314598
808.762757,-9474.636058,0.000000,1072.533697
808.763078,-9474.636058,444.123565,1149.143247
808.763398,-9474.636058,666.185348,1225.752797
808.763719,-9178.553681,74.020594,689.485948
808.764040,-9474.636058,222.061783,1149.143247
808.764360,-9474.636058,74.020594,1149.143247
808.764681,-9770.718434,-222.061783,1225.752797
808.765002,-9696.697840,74.020594,1302.362347
808.765322,-9548.656652,-296.082377,1838.629195
808.765643,-9474.636058,-518.144159,1149.143247
808.765963,-9474.636058,-962.267725,383.047749
808.766284,-9400.615463,-592.164754,0.000000
808.766605,-9770.718434,-814.226536,459.657299
808.766925,-9844.739029,-518.144159,536.266849
808.767246,-10066.800811,-740.205942,689.485948
808.767567,-9770.718434,-666.185348,1149.143247
808.767887,-9622.677246,-962.267725,1302.362347
808.768208,-9104.533087,-888.247130,1378.971896
808.768529,-9918.759623,-740.205942,2145.067394
808.768849,-9474.636058,-666.185348,2298.286494
808.769170,-9474.636058,-592.164754,2221.676944
808.769491,-9326.594869,444.123565,1991.848295
808.769811,-9770.718434,592.164754,2451.505594
808.770132,-9770.718434,814.226536,2757.943793
808.770452,-9918.759623,666.185348,2681.334243
808.770773,-9696.697840,814.226536,1532.190996
808.771094,-9548.656652,148.041188,1915.238745
808.771414,-9474.636058,0.000000,1838.629195
808.771735,-9696.697840,-444.123565,1072.533697
808.772056,-9400.615463,-444.123565,0.000000
808.772376,-9326.594869,-370.102971,-689.485948
808.772697,-9252.574275,-592.164754,-612.876398
808.773018,-9474.636058,-1110.308913,-612.876398
808.773338,-9918.759623,-962.267725,-229.828649
808.773659,-9400.615463,-1110.308913,0.000000
808.773980,-9844.739029,-1406.391290,306.438199
808.774300,-9844.739029,-1184.329507,1302.362347
808.774621,-9844.739029,-1184.329507,1455.581446
808.774941,-9548.656652,-222.061783,2987.772442
808.775262,-9548.656652,74.020594,1455.581446
808.775583,-9252.574275,370.102971,1455.581446
808.775903,-9252.574275,444.123565,995.924147
808.776224,-9252.574275,592.164754,1302.362347
808.776545,-9252.574275,222.061783,1915.238745
808.776865,-9474.636058,444.123565,1838.629195
808.777186,-9622.677246,370.102971,1838.629195
808.777507,-9474.636058,222.061783,1455.581446
808.777827,-10140.821405,518.144159,919.314598
808.778148,-9696.697840,74.020594,459.657299
808.778469,-9622.677246,-518.144159,153.219100
808.778789,-9474.636058,-592.164754,-536.266849
808.779110,-9844.739029,-814.226536,1225.752797
808.779431,-9992.780217,-518.144159,76.609550
808.779751,-10140.821405,-814.226536,459.657299
808.780072,-9770.718434,-962.267725,1149.143247
808.780392,-9844.739029,-814.226536,1149.143247
808.780713,-9770.718434,-740.205942,1685.410096
808.781034,-9918.759623,-666.185348,1685.410096
808.781354,-9696.697840,-370.102971,2145.067394
808.781675,-9474.636058,-370.102971,1302.362347
808.781996,-9326.594869,0.000000,1991.848295
808.782316,-9400.615463,444.123565,2221.676944
808.782637,-9622.677246,296.082377,2298.286494
808.782958,-9548.656652,222.061783,2451.505594
808.783278,-9326.594869,0.000000,2451.505594
808.783599,-9474.636058,-148.041188,1991.848295
808.783920,-9622.677246,-592.164754,1455.581446
808.784240,-9474.636058,-962.267725,919.314598
808.784561,-9474.636058,-888.247130,153.219100
808.784881,-9030.512492,-1110.308913,-153.219100
808.785202,-9844.739029,-666.185348,-306.438199
808.785523,-9844.739029,-666.185348,459.657299
808.785843,-9992.780217,-592.164754,306.438199
808.786164,-9548.656652,-1184.329507,1455.581446
808.786485,-9844.739029,-814.226536,1225.752797
808.786805,-10140.821405,-592.164754,1838.629195
808.787126,-9770.718434,-296.082377,1149.143247
808.787447,-9400.615463,-222.061783,1685.410096
808.787767,-9252.574275,148.041188,689.485948
808.788088,-9400.615463,296.082377,689.485948
808.788409,-9326.594869,888.247130,766.095498
808.788729,-9474.636058,444.123565,1225.752797
808.789050,-9474.636058,814.226536,919.314598
808.789370,-9770.718434,0.000000,1378.971896
808.789691,-9844.739029,-370.102971,1149.143247
808.790012,-9770.718434,-444.123565,766.095498
808.790332,-9252.574275,-888.247130,153.219100
808.790653,-9474.636058,-1184.329507,0.000000
808.790974,-9178.553681,-1110.308913,-536.266849
808.791294,-9622.677246,-666.185348,-153.219100
808.791615,-9548.656652,-444.123565,-536.266849
808.791936,-10140.821405,-518.144159,766.095498
808.792256,-9992.780217,-962.267725,842.705048
808.792577,-9770.718434,-814.226536,689.485948
808.792898,-9622.677246,-888.247130,1608.800546
808.793218,-9770.718434,-592.164754,1532.190996
808.793539,-9474.636058,-370.102971,1838.629195
808.793859,-9474.636058,0.000000,1532.190996
808.794180,-9326.594869,74.020594,1608.800546
808.794501,-8882.471304,0.000000,1532.190996
808.794821,-9696.697840,0.000000,2221.676944
808.795142,-9474.636058,296.082377,2298.286494
808.795463,-9770.718434,-148.041188,2374.896044
808.795783,-9252.574275,-74.020594,2298.286494
808.796104,-9622.677246,-370.102971,2068.457845
808.796425,-9178.553681,-814.226536,1225.752797
808.796745,-9252.574275,-1036.288319,76.609550
808.797066,-9030.512492,-962.267725,-536.266849
808.797387,-9474.636058,-740.205942,-919.314598
808.797707,-9696.697840,-740.205942,153.219100
808.798028,-9844.739029,-518.144159,536.266849
808.798348,-10066.800811,-814.226536,919.314598
808.798669,-10288.862594,-888.247130,1991.848295
808.798990,-10066.800811,-962.267725,1302.362347
808.799310,-9770.718434,-666.185348,1532.190996
808.799631,-9548.656652,-444.123565,1378.971896
808.799952,-9400.615463,222.061783,459.657299
808.800272,-9252.574275,592.164754,1225.752797
808.800593,-9104.533087,666.185348,919.314598
808.800913,-9326.594869,666.185348,1762.019645
808.801234,-9770.718434,296.082377,1455.581446
808.801555,-10066.800811,222.061783,2221.676944
808.801875,-9844.739029,-296.082377,1838.629195
808.802196,-9770.718434,-518.144159,1455.581446
808.802516,-9622.677246,-888.247130,1149.143247
808.802837,-9252.574275,-1628.453072,306.438199
808.803157,-9474.636058,-888.247130,-229.828649
808.803478,-9474.636058,-444.123565,0.000000
808.803799,-9474.636058,-666.185348,383.047749
808.804119,-10140.821405,-222.061783,0.000000
808.804440,-10140.821405,-888.247130,766.095498
808.804760,-9844.739029,-666.185348,229.828649
808.805081,-9548.656652,-592.164754,919.314598
808.805401,-9770.718434,-962.267725,1302.362347
808.805722,-9844.739029,-518.144159,1762.019645
808.806043,-9548.656652,-444.123565,1149.143247
808.806363,-9326.594869,296.082377,1302.362347
808.806684,-9474.636058,592.164754,1685.410096
808.807004,-9548.656652,592.164754,1915.238745
808.807325,-9474.636058,444.123565,2145.067394
808.807646,-9770.718434,222.061783,1685.410096
808.807966,-9400.615463,0.000000,1532.190996
808.808287,-9474.636058,-148.041188,1608.800546
808.808607,-9844.739029,-518.144159,1072.533697
808.808928,-9548.656652,-592.164754,766.095498
808.809248,-9400.615463,-592.164754,-229.828649
808.809569,-9326.594869,-814.226536,-536.266849
808.809890,-9326.594869,-1184.329507,306.438199
808.810210,-9992.780217,-740.205942,459.657299
808.810531,-9844.739029,-1110.308913,689.485948
808.810851,-9696.697840,-1110.308913,766.095498
808.811172,-9844.739029,-1628.453072,995.924147
808.811492,-9622.677246,-1036.288319,1455.581446
808.811813,-9770.718434,-370.102971,1762.019645
808.812134,-9474.636058,370.102971,1608.800546
808.812454,-9400.615463,740.205942,1149.143247
808.812775,-9400.615463,666.185348,1378.971896
808.813095,-9548.656652,518.144159,1532.190996
808.813416,-9696.697840,74.020594,1838.629195
808.813736,-9474.636058,-222.061783,2221.676944
808.814057,-9844.739029,-148.041188,1838.629195
808.814378,-9696.697840,-666.185348,1838.629195
808.814698,-9844.739029,-888.247130,1225.752797
808.815019,-9252.574275,-962.267725,459.657299
808.815339,-9326.594869,-1036.288319,153.219100
808.815660,-9474.636058,-888.247130,-153.219100
808.815981,-9474.636058,-888.247130,0.000000
808.816301,-10214.842000,-1258.350101,536.266849
808.816622,-9770.718434,-1406.391290,842.705048
808.816942,-9696.697840,-1554.432478,459.657299
808.817263,-9548.656652,-814.226536,612.876398
808.817583,-9770.718434,-518.144159,1608.800546
808.817904,-9622.677246,-148.041188,2068.457845
808.818225,-9104.533087,-148.041188,2068.457845
808.818545,-9104.533087,0.000000,1685.410096
808.818866,-9178.553681,0.000000,1455.581446
808.819186,-9400.615463,0.000000,1838.629195
808.819507,-9622.677246,-74.020594,1991.848295
808.819827,-9474.636058,296.082377,2068.457845
808.820148,-9474.636058,444.123565,1915.238745
808.820469,-9622.677246,0.000000,1838.629195
808.820789,-9992.780217,0.000000,1532.190996
808.821110,-9548.656652,-370.102971,689.485948
808.821430,-9474.636058,-222.061783,0.000000
808.821751,-9252.574275,-370.102971,76.609550
808.822072,-9474.636058,-666.185348,-153.219100
808.822392,-9474.636058,-1110.308913,766.095498
808.822713,-9918.759623,-1184.329507,383.047749
808.823033,-9622.677246,-1184.329507,536.266849
808.823354,-9770.718434,-1332.370696,1072.533697
808.823674,-9178.553681,-444.123565,3064.381992
808.823995,-9622.677246,-962.267725,1838.629195
808.824316,-9548.656652,-518.144159,1302.362347
808.824636,-9178.553681,-444.123565,1149.143247
808.824957,-9178.553681,-222.061783,1072.533697
808.825277,-9252.574275,74.020594,1532.190996
808.825598,-9400.615463,444.123565,1455.581446
808.825918,-9548.656652,518.144159,1838.629195
808.826239,-9844.739029,518.144159,1762.019645
808.826560,-10066.800811,222.061783,1762.019645
808.826880,-9474.636058,222.061783,1608.800546
808.827201,-9548.656652,-592.164754,689.485948
808.827521,-9400.615463,-592.164754,306.438199
808.827842,-10362.883188,-666.185348,-766.095498
808.828163,-9400.615463,-666.185348,0.000000
808.828483,-9844.739029,-592.164754,229.828649
808.828804,-9844.739029,-518.144159,842.705048
808.829124,-10066.800811,-814.226536,842.705048
808.829445,-9696.697840,-444.123565,919.314598
808.829765,-9918.759623,-370.102971,1149.143247
808.830086,-9548.656652,0.000000,2221.676944
808.830407,-9770.718434,0.000000,2221.676944
808.830727,-9696.697840,444.123565,2068.457845
808.831048,-9548.656652,740.205942,1455.581446
808.831368,-9548.656652,740.205942,1915.238745
808.831689,-9548.656652,518.144159,2451.505594
808.832009,-9474.636058,592.164754,3370.820191
808.832330,-9548.656652,74.020594,1685.410096
808.832651,-9474.636058,0.000000,1608.800546
808.832971,-9474.636058,-148.041188,1302.362347
808.833292,-9770.718434,-888.247130,919.314598
808.833612,-9548.656652,-1332.370696,-459.657299
808.833933,-9400.615463,-592.164754,-689.485948
808.834253,-9474.636058,-592.164754,-766.095498
808.834574,-9918.759623,-222.061783,-383.047749
808.834895,-10140.821405,0.000000,0.000000
808.835215,-10214.842000,-518.144159,536.266849
808.835536,-9992.780217,-518.144159,842.705048
808.835856,-10066.800811,-740.205942,919.314598
808.836177,-10510.924376,0.000000,1762.019645
808.836498,-9474.636058,-148.041188,1149.143247
808.836818,-9400.615463,592.164754,1149.143247
808.837139,-9326.594869,814.226536,1072.533697
808.837459,-9178.553681,814.226536,919.314598
808.837780,-9030.512492,74.020594,1225.752797
808.838100,-9400.615463,74.020594,1378.971896
808.838421,-9622.677246,0.000000,1762.019645
808.838742,-9474.636058,-592.164754,2145.067394
808.839062,-8808.450710,-666.185348,2145.067394
808.839383,-9400.615463,-666.185348,995.924147
808.839703,-9326.594869,-592.164754,842.705048
808.840024,-9474.636058,-740.205942,383.047749
808.840344,-9030.512492,-814.226536,0.000000
808.840665,-9326.594869,-518.144159,153.219100
808.840986,-9992.780217,-962.267725,995.924147
808.841306,-9696.697840,-1184.329507,1072.533697
808.841627,-9844.739029,-1184.329507,1149.143247
808.841947,-9770.718434,-814.226536,1838.629195
808.842268,-9474.636058,-592.164754,2221.676944
808.842589,-9622.677246,-296.082377,2757.943793
808.842909,-9622.677246,-296.082377,2451.505594
808.843230,-9252.574275,74.020594,1302.362347
808.843550,-9474.636058,592.164754,2145.067394
808.843871,-9104.533087,296.082377,2068.457845
808.844191,-9622.677246,0.000000,1838.629195
808.844512,-9696.697840,-518.144159,919.314598
808.844833,-9252.574275,0.000000,1762.019645
808.845153,-9770.718434,-370.102971,1608.800546
808.845474,-10066.800811,-888.247130,1532.190996
808.845794,-9474.636058,-962.267725,995.924147
808.846115,-9548.656652,-962.267725,-306.438199
808.846435,-9326.594869,-814.226536,-383.047749
808.846756,-9474.636058,-740.205942,-536.266849
808.847077,-9622.677246,-962.267725,0.000000
808.847397,-10066.800811,-740.205942,76.609550
808.847718,-9844.739029,-814.226536,229.828649
808.848038,-9918.759623,-1036.288319,766.095498
808.848359,-9918.759623,-888.247130,842.705048
808.848680,-9770.718434,-444.123565,2757.943793
808.849000,-9548.656652,-296.082377,842.705048
808.849321,-9326.594869,0.000000,1072.533697
808.849641,-9474.636058,-148.041188,612.876398
808.849962,-9548.656652,296.082377,2757.943793
808.850282,-9622.677246,518.144159,1685.410096
808.850603,-9696.697840,518.144159,1685.410096
808.850924,-9622.677246,0.000000,1608.800546
808.851244,-9474.636058,0.000000,842.705048
808.851565,-9400.615463,-370.102971,612.876398
808.851885,-9474.636058,-740.205942,459.657299
808.852206,-9474.636058,-740.205942,-459.657299
808.852526,-9548.656652,-592.164754,-229.828649
808.852847,-10066.800811,518.144159,-306.438199
808.853168,-9770.718434,-370.102971,229.828649
808.853488,-10066.800811,-888.247130,689.485948
808.853809,-10214.842000,-814.226536,919.314598
808.854129,-10140.821405,-666.185348,1302.362347
808.854450,-9844.739029,-740.205942,1762.019645
808.854770,-9770.718434,-592.164754,1915.238745
808.855091,-9474.636058,-740.205942,1685.410096
808.855412,-9400.615463,-296.082377,1378.971896
808.855732,-9326.594869,518.144159,2221.676944
808.856053,-9252.574275,740.205942,2068.457845
808.856373,-9548.656652,740.205942,2374.896044
808.856694,-9622.677246,666.185348,2298.286494
808.857015,-8808.450710,-74.020594,2221.676944
808.857335,-9696.697840,-74.020594,2451.505594
808.857656,-9474.636058,-592.164754,1915.238745
808.857976,-9622.677246,-962.267725,1378.971896
808.858297,-9252.574275,-962.267725,1302.362347
808.858617,-9030.512492,-518.144159,-459.657299
808.858938,-9326.594869,-518.144159,0.000000
808.859259,-9474.636058,-370.102971,153.219100
808.859579,-10066.800811,-666.185348,689.485948
808.859900,-10066.800811,-666.185348,1302.362347
808.860220,-9844.739029,-888.247130,1302.362347
808.860541,-9992.780217,-888.247130,1915.238745
808.860861,-9770.718434,-740.205942,1838.629195
808.861182,-9918.759623,-814.226536,1149.143247
808.861503,-9326.594869,148.041188,1378.971896
808.861823,-9030.512492,222.061783,1149.143247
808.862144,-9326.594869,666.185348,1302.362347
808.862464,-9474.636058,518.144159,1762.019645
808.862785,-9326.594869,592.164754,2221.676944
808.863106,-9548.656652,0.000000,1762.019645
808.863426,-9548.656652,-222.061783,1532.190996
808.863747,-9474.636058,-814.226536,919.314598
808.864067,-9622.677246,-592.164754,1685.410096
808.864388,-9474.636058,-1110.308913,0.000000
808.864708,-9548.656652,-740.205942,-612.876398
808.865029,-9548.656652,-962.267725,-383.047749
808.865350,-9696.697840,-666.185348,0.000000
808.865670,-9770.718434,-740.205942,-229.828649
808.865991,-9918.759623,-962.267725,536.266849
808.866311,-9844.739029,-1110.308913,689.485948
808.866632,-9770.718434,-740.205942,919.314598
808.866952,-9696.697840,-666.185348,1455.581446
808.867273,-9844.739029,148.041188,1149.143247
808.867594,-9474.636058,370.102971,1302.362347
808.867914,-9178.553681,814.226536,1225.752797
808.868235,-9326.594869,1110.308913,1455.581446
808.868555,-9548.656652,888.247130,1991.848295
808.868876,-9474.636058,518.144159,1532.190996
808.869197,-9548.656652,370.102971,1532.190996
808.869517,-9474.636058,0.000000,1378.971896
808.869838,-9548.656652,-592.164754,1302.362347
808.870158,-9918.759623,-518.144159,1149.143247
808.870479,-9400.615463,-814.226536,0.000000
808.870799,-9252.574275,-666.185348,-383.047749
808.871120,-9252.574275,-814.226536,-459.657299
808.871441,-9548.656652,-370.102971,0.000000
808.871761,-9770.718434,-592.164754,689.485948
808.872082,-9992.780217,-1184.329507,689.485948
808.872402,-9918.759623,-888.247130,1378.971896
808.872723,-10140.821405,-1110.308913,2145.067394
808.873043,-9918.759623,-1184.329507,1838.629195
808.873364,-9548.656652,-592.164754,2068.457845
808.873685,-9400.615463,-370.102971,1991.848295
808.874005,-9178.553681,0.000000,2068.457845
808.874326,-9400.615463,0.000000,2221.676944
808.874646,-9252.574275,74.020594,4903.011187
808.874967,-9474.636058,222.061783,2298.286494
808.875287,-9400.615463,148.041188,2528.115143
808.875608,-9474.636058,-370.102971,2451.505594
808.875929,-9622.677246,-148.041188,1838.629195
808.876249,-9770.718434,-518.144159,1302.362347
808.876570,-9474.636058,-740.205942,766.095498
808.876890,-9548.656652,-518.144159,536.266849
808.877211,-9696.697840,-1036.288319,0.000000
808.877532,-9474.636058,0.000000,76.609550
808.877852,-10140.821405,-888.247130,-306.438199
808.878173,-10140.821405,0.000000,766.095498
808.878493,-10214.842000,-666.185348,612.876398
808.878814,-9844.739029,0.000000,766.095498
808.879134,-9696.697840,-592.164754,1072.533697
808.879455,-9474.636058,-740.205942,1685.410096
808.879776,-9622.677246,-148.041188,1532.190996
808.880096,-9326.594869,-444.123565,612.876398
808.880417,-9474.636058,740.205942,1225.752797
808.880737,-9548.656652,814.226536,2298.286494
808.881058,-9548.656652,888.247130,1455.581446
808.881378,-9992.780217,296.082377,1685.410096
808.881699,-9252.574275,222.061783,1378.971896
808.882020,-9548.656652,-740.205942,1149.143247
808.882340,-9548.656652,-962.267725,459.657299
808.882661,-9252.574275,-1110.308913,0.000000
808.882981,-9252.574275,-962.267725,-919.314598
808.883302,-9030.512492,-666.185348,-766.095498
808.883623,-9400.615463,-518.144159,-689.485948
808.883943,-9992.780217,-370.102971,-229.828649
808.884264,-9770.718434,-962.267725,383.047749
808.884584,-9844.739029,-1036.288319,1149.143247
808.884905,-9696.697840,-1850.514855,1225.752797
808.885225,-9696.697840,-592.164754,2451.505594
808.885546,-9770.718434,-962.267725,1762.019645
808.885867,-9252.574275,-148.041188,1762.019645
808.886187,-9252.574275,518.144159,1762.019645
808.886508,-9474.636058,888.247130,1302.362347
808.886828,-9326.594869,962.267725,1685.410096
808.887149,-9696.697840,740.205942,1991.848295
808.887469,-9474.636058,296.082377,2221.676944
808.887790,-9622.677246,-296.082377,1991.848295
808.888111,-9474.636058,-296.082377,2528.115143
808.888431,-9474.636058,-888.247130,1532.190996
808.888752,-9622.677246,-962.267725,1302.362347
808.889072,-9696.697840,-592.164754,306.438199
808.889393,-9622.677246,-222.061783,0.000000
808.889714,-9992.780217,0.000000,383.047749
808.890034,-9844.739029,-518.144159,842.705048
808.890355,-10362.883188,-740.205942,1149.143247
808.890675,-10140.821405,-1406.391290,1149.143247
808.890996,-9844.739029,-1110.308913,1072.533697
808.891316,-9696.697840,-1110.308913,1762.019645
808.891637,-9622.677246,-444.123565,1991.848295
808.891958,-9770.718434,0.000000,2068.457845
808.892278,-9178.553681,370.102971,1608.800546
808.892599,-9252.574275,444.123565,1225.752797
808.892919,-9326.594869,518.144159,1532.190996
808.893240,-9548.656652,444.123565,2298.286494
808.893560,-9696.697840,888.247130,995.924147
808.893881,-9474.636058,-148.041188,1991.848295
808.894202,-9548.656652,-370.102971,1762.019645
808.894522,-9474.636058,-518.144159,1072.533697
808.894843,-9474.636058,-592.164754,383.047749
808.895163,-9474.636058,-444.123565,229.828649
808.895484,-9178.553681,-518.144159,-612.876398
808.895804,-9474.636058,-444.123565,-689.485948
808.896125,-9770.718434,-518.144159,0.000000
808.896446,-10140.821405,-666.185348,0.000000
808.896766,-10066.800811,-222.061783,766.095498
808.897087,-10214.842000,-370.102971,919.314598
808.897407,-10066.800811,-666.185348,1149.143247
808.897728,-9696.697840,-444.123565,-76.609550
808.898049,-9474.636058,148.041188,1149.143247
808.898369,-9474.636058,666.185348,1378.971896
808.898690,-9252.574275,888.247130,1149.143247
808.899010,-9252.574275,592.164754,1378.971896
808.899331,-9696.697840,518.144159,1608.800546
808.899651,-9770.718434,222.061783,2068.457845
808.899972,-9622.677246,-296.082377,1685.410096
808.900293,-9474.636058,-444.123565,1455.581446
808.900613,-8808.450710,-1184.329507,1991.848295
808.900934,-9400.615463,-1036.288319,536.266849
808.901254,-9474.636058,-1332.370696,0.000000
808.901575,-9474.636058,-1480.411884,-383.047749
808.901895,-9400.615463,-1258.350101,-229.828649
808.902216,-9696.697840,-962.267725,-76.609550
808.902537,-10066.800811,-740.205942,229.828649
808.902857,-10214.842000,-1110.308913,842.705048
808.903178,-10214.842000,-1036.288319,612.876398
808.903499,-9622.677246,-888.247130,842.705048
808.903820,-9622.677246,-518.144159,1455.581446
808.904140,-9770.718434,0.000000,1455.581446
808.904461,-9252.574275,444.123565,1685.410096
808.904782,-8512.368333,666.185348,1838.629195
808.905102,-9474.636058,888.247130,2068.457845
808.905423,-9622.677246,518.144159,2451.505594
808.905744,-9622.677246,444.123565,2451.505594
808.906065,-10066.800811,740.205942,4366.744339
808.906385,-9548.656652,148.041188,2834.553343
808.906706,-9844.739029,74.020594,1991.848295
808.907027,-9770.718434,-592.164754,1455.581446
808.907347,-9622.677246,-444.123565,689.485948
808.907668,-9622.677246,-592.164754,-229.828649
808.907989,-9326.594869,-518.144159,-536.266849
808.908310,-9770.718434,-592.164754,-306.438199
808.908630,-9622.677246,-518.144159,459.657299
808.908951,-9770.718434,-888.247130,689.485948
808.909272,-9918.759623,-1184.329507,1072.533697
808.909592,-10214.842000,-1924.535449,1608.800546
808.909913,-9770.718434,-1332.370696,1838.629195
808.910234,-9696.697840,-1628.453072,1685.410096
808.910555,-9104.533087,-592.164754,1302.362347
808.910875,-9104.533087,0.000000,1149.143247
808.911196,-8956.491898,444.123565,1225.752797
808.911517,-9326.594869,222.061783,1072.533697
808.911837,-9548.656652,518.144159,1608.800546
808.912158,-9622.677246,-296.082377,1532.190996
808.912479,-9252.574275,-592.164754,1685.410096
808.912800,-9696.697840,-222.061783,1072.533697
808.913120,-8290.306550,148.041188,1072.533697
808.913441,-9474.636058,-74.020594,383.047749
808.913762,-9474.636058,0.000000,306.438199
808.914082,-9474.636058,-370.102971,-306.438199
808.914403,-9770.718434,-74.020594,-766.095498
808.914724,-9918.759623,-296.082377,766.095498
808.915045,-9622.677246,-592.164754,536.266849
808.915365,-9844.739029,-666.185348,766.095498
808.915686,-9548.656652,-666.185348,1302.362347
808.916007,-9844.739029,-518.144159,919.314598
808.916327,-9770.718434,-370.102971,1685.410096
808.916648,-9548.656652,-296.082377,1225.752797
808.916969,-9622.677246,296.082377,1225.752797
808.917290,-9178.553681,1110.308913,842.705048
808.917610,-9548.656652,1036.288319,1685.410096
808.917931,-9918.759623,814.226536,1838.629195
808.918252,-9918.759623,222.061783,2145.067394
808.918572,-9696.697840,0.000000,2068.457845
808.918893,-9918.759623,-370.102971,1915.238745
808.919214,-9770.718434,-518.144159,1378.971896
808.919535,-9548.656652,-518.144159,919.314598
808.919855,-9326.594869,-444.123565,306.438199
808.920176,-9400.615463,-148.041188,-229.828649
808.920497,-9474.636058,-740.205942,76.609550
808.920817,-9770.718434,-1036.288319,536.266849
808.921138,-9770.718434,-1332.370696,1072.533697
808.921459,-9844.739029,-2146.597232,842.705048
808.921780,-9992.780217,-1184.329507,1915.238745
808.922100,-9770.718434,-1110.308913,2451.505594
808.922421,-9770.718434,-444.123565,2145.067394
808.922742,-9474.636058,-148.041188,2451.505594
808.923062,-9030.512492,-296.082377,1685.410096
808.923383,-9252.574275,-296.082377,1762.019645
808.923704,-9178.553681,0.000000,1532.190996
808.924025,-9252.574275,74.020594,1838.629195
808.924345,-9474.636058,0.000000,2068.457845
808.924666,-9326.594869,0.000000,1991.848295
808.924987,-9474.636058,-296.082377,1532.190996
808.925307,-9326.594869,-74.020594,689.485948
808.925628,-9474.636058,-444.123565,-459.657299
808.925949,-9474.636058,-518.144159,-383.047749
808.926270,-9474.636058,-666.185348,-536.266849
808.926590,-9548.656652,-518.144159,-689.485948
808.926911,-9844.739029,-592.164754,0.000000
808.927232,-9844.739029,-740.205942,153.219100
808.927552,-10362.883188,-814.226536,153.219100
808.927873,-10066.800811,-148.041188,459.657299
808.928194,-9844.739029,0.000000,536.266849
808.928515,-9696.697840,222.061783,1532.190996
808.928835,-9844.739029,222.061783,1302.362347
808.929156,-9696.697840,296.082377,1149.143247
808.929477,-9474.636058,444.123565,1302.362347
808.929797,-9770.718434,888.247130,536.266849
808.930118,-9548.656652,296.082377,1532.190996
808.930439,-9992.780217,296.082377,1685.410096
808.930759,-9696.697840,0.000000,1608.800546
808.931080,-9622.677246,-370.102971,1608.800546
808.931401,-9696.697840,-962.267725,1072.533697
808.931722,-9548.656652,-1406.391290,459.657299
808.932042,-9178.553681,-1480.411884,0.000000
808.932363,-9178.553681,-1258.350101,-612.876398
808.932684,-9474.636058,-1110.308913,-612.876398
808.933004,-9622.677246,-962.267725,-383.047749
808.933325,-9770.718434,-1480.411884,612.876398
808.933646,-9992.780217,-1184.329507,1072.533697
808.933967,-10362.883188,-888.247130,1991.848295
808.934287,-9992.780217,-888.247130,2451.505594
808.934608,-9548.656652,-962.267725,2528.115143
808.934929,-9474.636058,-222.061783,2374.896044
808.935249,-9104.533087,296.082377,842.705048
808.935570,-8808.450710,740.205942,2068.457845
808.935891,-9400.615463,1036.288319,2298.286494
808.936212,-9178.553681,888.247130,2298.286494
808.936532,-9622.677246,518.144159,2221.676944
808.936853,-9474.636058,0.000000,2451.505594
808.937174,-9770.718434,-666.185348,2145.067394
808.937494,-9548.656652,-666.185348,1608.800546
808.937815,-9474.636058,-888.247130,919.314598
808.938136,-9400.615463,-1110.308913,383.047749
808.938457,-9326.594869,-888.247130,0.000000
808.938777,-9770.718434,-592.164754,-153.219100
808.939098,-9844.739029,-518.144159,76.609550
808.939419,-9992.780217,-962.267725,76.609550
808.939739,-9992.780217,-814.226536,1072.533697
808.940060,-9992.780217,-1258.350101,1225.752797
808.940381,-9844.739029,-740.205942,1072.533697
808.940702,-9992.780217,-666.185348,1149.143247
808.941022,-9622.677246,-444.123565,919.314598
808.941343,-9770.718434,222.061783,1072.533697
808.941664,-9474.636058,1036.288319,1072.533697
808.941984,-9622.677246,1184.329507,1302.362347
808.942305,-9770.718434,740.205942,766.095498
808.942626,-9918.759623,296.082377,1302.362347
808.942947,-9696.697840,0.000000,1762.019645
808.943267,-9918.759623,-148.041188,1455.581446
808.943588,-9474.636058,-370.102971,1149.143247
808.943909,-9548.656652,-888.247130,612.876398
808.944229,-9178.553681,-962.267725,0.000000
808.944550,-9400.615463,-592.164754,-536.266849
808.944871,-9252.574275,-370.102971,-995.924147
808.945192,-9400.615463,-814.226536,-536.266849
808.945512,-9548.656652,-592.164754,-76.609550
808.945833,-9918.759623,-1184.329507,689.485948
808.946154,-9770.718434,-1480.411884,1149.143247
808.946474,-10658.965565,-1480.411884,536.266849
808.946795,-9548.656652,-1184.329507,1838.629195
808.947116,-9696.697840,0.000000,1455.581446
808.947437,-9474.636058,0.000000,1685.410096
808.947757,-9178.553681,296.082377,1455.581446
808.948078,-9400.615463,296.082377,1378.971896
808.948399,-9252.574275,518.144159,1685.410096
808.948719,-9252.574275,148.041188,2145.067394
808.949040,-9474.636058,0.000000,2221.676944
808.949361,-9400.615463,0.000000,2374.896044
808.949682,-9474.636058,0.000000,1915.238745
808.950002,-9622.677246,-444.123565,1532.190996
808.950323,-9622.677246,-296.082377,1149.143247
808.950644,-9474.636058,-740.205942,-229.828649
808.950964,-9474.636058,-592.164754,153.219100
808.951285,-9918.759623,-592.164754,76.609550
808.951606,-9844.739029,-814.226536,766.095498
808.951927,-10362.883188,-666.185348,153.219100
808.952247,-9918.759623,-962.267725,1302.362347
808.952568,-9844.739029,-1110.308913,1378.971896
808.952889,-9770.718434,-740.205942,1991.848295
808.953209,-9844.739029,-370.102971,1915.238745
808.953530,-9326.594869,0.000000,2298.286494
808.953851,-9252.574275,814.226536,1455.581446
808.954172,-9474.636058,740.205942,1455.581446
808.954492,-9474.636058,1036.288319,1532.190996
808.954813,-9992.780217,1258.350101,1225.752797
808.955134,-9622.677246,74.020594,1685.410096
808.955454,-9474.636058,0.000000,1762.019645
808.955775,-9548.656652,0.000000,1225.752797
808.956096,-9474.636058,-518.144159,1225.752797
808.956417,-9178.553681,-962.267725,-459.657299
808.956737,-9030.512492,-1184.329507,-1149.143247
808.957058,-8882.471304,-1184.329507,-1378.971896
808.957379,-9252.574275,-1184.329507,-1455.581446
808.957699,-9400.615463,-1258.350101,-612.876398
808.958020,-9992.780217,-888.247130,0.000000
808.958341,-9770.718434,-1110.308913,612.876398
808.958662,-9992.780217,-592.164754,1532.190996
808.958982,-9844.739029,-666.185348,1608.800546
808.959303,-9548.656652,-74.020594,1685.410096
808.959624,-9622.677246,-148.041188,1532.190996
808.959944,-9178.553681,296.082377,1378.971896
808.960265,-8956.491898,222.061783,1302.362347
808.960586,-9104.533087,518.144159,1072.533697
808.960907,-9326.594869,592.164754,1915.238745
808.961227,-9474.636058,296.082377,1838.629195
808.961548,-9696.697840,-148.041188,1991.848295
808.961869,-9400.615463,-666.185348,1378.971896
808.962189,-9918.759623,-222.061783,1378.971896
808.962510,-9770.718434,-222.061783,1225.752797
808.962831,-9770.718434,0.000000,612.876398
808.963151,-9622.677246,0.000000,919.314598
808.963472,-9992.780217,-148.041188,536.266849
808.963793,-9622.677246,-148.041188,1302.362347
808.964114,-10214.842000,-1036.288319,919.314598
808.964434,-9696.697840,-1332.370696,1072.533697
808.964755,-9918.759623,-740.205942,1225.752797
808.965076,-9770.718434,-1036.288319,1915.238745
808.965396,-9474.636058,-888.247130,1532.190996
808.965717,-9622.677246,-518.144159,1532.190996
808.966038,-9548.656652,74.020594,2068.457845
808.966359,-9844.739029,148.041188,1838.629195
808.966679,-9770.718434,666.185348,2298.286494
808.967000,-9770.718434,222.061783,2528.115143
808.967321,-8956.491898,666.185348,2911.162892
808.967641,-9474.636058,0.000000,2451.505594
808.967962,-9622.677246,0.000000,2145.067394
808.968283,-9474.636058,-296.082377,1455.581446
808.968604,-9400.615463,-814.226536,842.705048
808.968924,-9030.512492,-740.205942,0.000000
808.969245,-8808.450710,-962.267725,-995.924147
808.969566,-9178.553681,-740.205942,-1225.752797
808.969886,-9326.594869,-814.226536,-919.314598
808.970207,-9696.697840,-962.267725,0.000000
808.970528,-10214.842000,-1258.350101,306.438199
808.970849,-10140.821405,-962.267725,995.924147
808.971169,-10140.821405,-1184.329507,842.705048
808.971490,-9696.697840,-1184.329507,1072.533697
808.971811,-9474.636058,-740.205942,766.095498
808.972131,-9474.636058,-296.082377,459.657299
808.972452,-9252.574275,0.000000,842.705048
808.972773,-9252.574275,148.041188,842.705048
808.973094,-9474.636058,148.041188,1072.533697
808.973414,-9770.718434,0.000000,1072.533697
808.973735,-9770.718434,0.000000,1302.362347
808.974056,-9844.739029,74.020594,1455.581446
808.974376,-9918.759623,592.164754,1149.143247
808.974697,-9696.697840,0.000000,766.095498
808.975018,-9622.677246,-296.082377,766.095498
808.975339,-9844.739029,-666.185348,0.000000
808.975659,-9622.677246,-370.102971,536.266849
808.975980,-9696.697840,-592.164754,383.047749
808.976301,-9992.780217,-740.205942,1072.533697
808.976621,-9918.759623,-814.226536,1762.019645
808.976942,-9696.697840,-1110.308913,1225.752797
808.977263,-9178.553681,-518.144159,1225.752797
808.977584,-9252.574275,-518.144159,1838.629195
808.977904,-9548.656652,0.000000,1991.848295
808.978225,-9474.636058,222.061783,2221.676944
808.978546,-9548.656652,296.082377,1838.629195
808.978866,-9326.594869,370.102971,2528.115143
808.979187,-9548.656652,0.000000,2681.334243
808.979508,-9918.759623,0.000000,2604.724693
808.979829,-9696.697840,-148.041188,2451.505594
808.980149,-9030.512492,0.000000,2604.724693
808.980470,-9474.636058,-148.041188,1762.019645
808.980791,-9252.574275,-666.185348,1072.533697
808.981111,-9178.553681,-1184.329507,306.438199
808.981432,-9030.512492,-814.226536,-229.828649
808.981753,-9030.512492,-888.247130,-612.876398
808.982074,-9474.636058,-814.226536,-153.219100
808.982394,-9770.718434,-740.205942,383.047749
808.982715,-9918.759623,-962.267725,612.876398
808.983036,-10066.800811,-1036.288319,1608.800546
808.983356,-9770.718434,-1184.329507,1149.143247
808.983677,-9844.739029,-666.185348,1685.410096
808.983998,-9770.718434,-518.144159,1378.971896
808.984319,-9400.615463,0.000000,1302.362347
808.984639,-8734.430116,814.226536,919.314598
808.984960,-9400.615463,370.102971,766.095498
808.985281,-9252.574275,814.226536,1149.143247
808.985601,-9474.636058,666.185348,1378.971896
808.985922,-9918.759623,444.123565,1915.238745
808.986243,-10436.903782,592.164754,1838.629195
808.986564,-9474.636058,0.000000,919.314598
808.986884,-9844.739029,-370.102971,459.657299
808.987205,-9622.677246,0.000000,383.047749
808.987526,-9918.759623,-518.144159,-153.219100
808.987846,-9474.636058,-296.082377,-919.314598
808.988167,-9770.718434,-222.061783,-383.047749
808.988488,-10436.903782,0.000000,76.609550
808.988809,-10288.862594,-222.061783,689.485948
808.989129,-9326.594869,148.041188,0.000000
808.989450,-9770.718434,-148.041188,1149.143247
808.989771,-9918.759623,-592.164754,1149.143247
808.990091,-9548.656652,-592.164754,1302.362347
808.990412,-9474.636058,-296.082377,1455.581446
808.990733,-9622.677246,148.041188,1455.581446
808.991054,-9400.615463,0.000000,1378.971896
808.991374,-9326.594869,0.000000,1532.190996
808.991695,-9770.718434,148.041188,2374.896044
808.992016,-9992.780217,740.205942,1838.629195
808.992336,-9400.615463,222.061783,2451.505594
808.992657,-9104.533087,0.000000,2145.067394
808.992978,-9474.636058,-962.267725,1608.800546
808.993299,-9474.636058,-1110.308913,1378.971896
808.993619,-9104.533087,-1332.370696,306.438199
808.993940,-9178.553681,-1036.288319,-306.438199
808.994261,-9178.553681,-1480.411884,-229.828649
808.994581,-9326.594869,-1258.350101,306.438199
808.994902,-9696.697840,-1554.432478,153.219100
808.995223,-9622.677246,-1332.370696,766.095498
808.995543,-9622.677246,-1332.370696,1608.800546
808.995864,-9844.739029,-1184.329507,1915.238745
808.996185,-9030.512492,-592.164754,2145.067394
808.996506,-9548.656652,-74.020594,1838.629195
808.996826,-9400.615463,74.020594,1762.019645
808.997147,-9252.574275,0.000000,1072.533697
808.997468,-9252.574275,296.082377,995.924147
808.997788,-9400.615463,0.000000,1838.629195
808.998109,-9474.636058,-74.020594,1608.800546
808.998430,-9474.636058,-370.102971,1378.971896
808.998751,-9696.697840,-518.144159,1225.752797
808.999071,-9622.677246,-740.205942,766.095498
808.999392,-9622.677246,-444.123565,306.438199
808.999713,-9844.739029,-518.144159,153.219100
809.000033,-9770.718434,-370.102971,0.000000
809.000354,-9918.759623,-888.247130,-536.266849
809.000675,-10362.883188,-296.082377,383.047749
809.000996,-10362.883188,-962.267725,383.047749
809.001316,-10066.800811,-740.205942,306.438199
809.001637,-9918.759623,-592.164754,919.314598
809.001958,-9474.636058,-74.020594,766.095498
809.002278,-9548.656652,-148.041188,1378.971896
809.002599,-9696.697840,74.020594,1378.971896
809.002920,-9474.636058,296.082377,766.095498
809.003241,-9474.636058,518.144159,1302.362347
809.003561,-9696.697840,740.205942,2068.457845
809.003882,-9622.677246,444.123565,2145.067394
809.004203,-9770.718434,296.082377,2221.676944
809.004523,-9474.636058,888.247130,2681.334243
809.004844,-9474.636058,-444.123565,1455.581446
809.005165,-9622.677246,-740.205942,689.485948
809.005486,-9178.553681,-444.123565,306.438199
809.005806,-9178.553681,-592.164754,-995.924147
809.006127,-8512.368333,-444.123565,-1225.752797
809.006448,-9030.512492,-518.144159,-1532.190996
809.006768,-9400.615463,-296.082377,-689.485948
809.007089,-9696.697840,-1258.350101,-229.828649
809.007410,-10066.800811,-740.205942,153.219100
809.007731,-9918.759623,-1480.411884,766.095498
809.008051,-9696.697840,-1110.308913,1225.752797
809.008372,-9770.718434,-814.226536,1762.019645
809.008693,-8660.409521,148.041188,2528.115143
809.009013,-9030.512492,74.020594,1838.629195
809.009334,-9104.533087,296.082377,1302.362347
809.009655,-9326.594869,518.144159,1838.629195
809.009976,-9474.636058,148.041188,2221.676944
809.010296,-9030.512492,0.000000,2145.067394
809.010617,-9252.574275,0.000000,2604.724693
809.010938,-10140.821405,74.020594,2681.334243
809.011258,-9918.759623,0.000000,2757.943793
809.011579,-10436.903782,0.000000,2528.115143
809.011900,-10066.800811,-370.102971,1455.581446
809.012221,-9622.677246,-666.185348,612.876398
809.012541,-10362.883188,-518.144159,1149.143247
809.012862,-9770.718434,0.000000,1072.533697
809.013183,-10066.800811,-296.082377,919.314598
809.013503,-10288.862594,-592.164754,1225.752797
809.013824,-9548.656652,-518.144159,919.314598
809.014145,-9992.780217,-444.123565,1378.971896
809.014466,-10362.883188,148.041188,2451.505594
809.014786,-9844.739029,-222.061783,1838.629195
809.015107,-9770.718434,0.000000,1762.019645
809.015428,-9622.677246,74.020594,1455.581446
809.015748,-9474.636058,1184.329507,3217.601092
809.016069,-10214.842000,444.123565,2298.286494
809.016390,-9622.677246,518.144159,1991.848295
809.016710,-9770.718434,370.102971,1072.533697
809.017031,-9474.636058,74.020594,1302.362347
809.017352,-9474.636058,-222.061783,689.485948
809.017673,-9326.594869,-444.123565,76.609550
809.017993,-9104.533087,-666.185348,-995.924147
809.018314,-8734.430116,-740.205942,-1378.971896
809.018635,-9178.553681,-888.247130,-1302.362347
809.018955,-9474.636058,-1184.329507,-1149.143247
809.019276,-9548.656652,-1258.350101,-229.828649
809.019597,-9918.759623,-1480.411884,0.000000
809.019918,-9918.759623,-740.205942,-306.438199
809.020238,-9548.656652,-1332.370696,612.876398
809.020559,-9622.677246,-962.267725,1608.800546
809.020880,-9622.677246,-1110.308913,1149.143247
809.021200,-8956.491898,-444.123565,-153.219100
809.021521,-9030.512492,-518.144159,459.657299
809.021842,-8956.491898,0.000000,1072.533697
809.022163,-9178.553681,222.061783,1149.143247
809.022483,-9474.636058,444.123565,1762.019645
809.022804,-9918.759623,148.041188,1455.581446
809.023125,-9474.636058,0.000000,1455.581446
809.023445,-9770.718434,-592.164754,995.924147
809.023766,-9770.718434,-296.082377,1072.533697
809.024087,-10955.047942,222.061783,-306.438199
809.024408,-9844.739029,-148.041188,536.266849
809.024728,-9696.697840,0.000000,0.000000
809.025049,-10066.800811,-148.041188,153.219100
809.025370,-10214.842000,888.247130,2374.896044
809.025690,-10510.924376,-296.082377,1455.581446
809.026011,-10510.924376,-666.185348,1991.848295
809.026332,-10066.800811,-592.164754,2068.457845
809.026653,-9770.718434,-592.164754,2068.457845
809.026973,-9918.759623,-148.041188,2911.162892
809.027294,-9770.718434,0.000000,1838.629195
809.027615,-9622.677246,444.123565,2374.896044
809.027935,-9326.594869,370.102971,1838.629195
809.028256,-9178.553681,222.061783,1685.410096
809.028577,-9696.697840,518.144159,2681.334243
809.028898,-9622.677246,0.000000,2528.115143
809.029218,-9548.656652,-296.082377,1991.848295
809.029539,-9474.636058,-592.164754,1378.971896
809.029860,-9474.636058,-1258.350101,1149.143247
809.030180,-9474.636058,-1036.288319,766.095498
809.030501,-9474.636058,-888.247130,383.047749
809.030822,-9252.574275,-518.144159,229.828649
809.031143,-9326.594869,-962.267725,-306.438199
809.031463,-9474.636058,-1036.288319,0.000000
809.031784,-9770.718434,-1184.329507,536.266849
809.032105,-9770.718434,-1036.288319,919.314598
809.032425,-9326.594869,-740.205942,689.485948
809.032746,-9474.636058,-962.267725,1149.143247
809.033067,-9326.594869,-814.226536,995.924147
809.033388,-9178.553681,148.041188,919.314598
809.033708,-9030.512492,518.144159,153.219100
809.034029,-9178.553681,888.247130,1072.533697
809.034350,-9400.615463,592.164754,1149.143247
809.034670,-9474.636058,888.247130,1072.533697
809.034991,-9770.718434,296.082377,1302.362347
809.035312,-9992.780217,0.000000,919.314598
809.035632,-9770.718434,-148.041188,689.485948
809.035953,-9622.677246,0.000000,229.828649
809.036274,-9548.656652,0.000000,0.000000
809.036595,-8734.430116,-592.164754,-689.485948
809.036915,-9622.677246,-370.102971,-766.095498
809.037236,-10066.800811,-296.082377,-459.657299
809.037557,-10140.821405,-444.123565,-383.047749
809.037877,-10436.903782,-1110.308913,459.657299
809.038198,-10140.821405,-518.144159,919.314598
809.038519,-10288.862594,-888.247130,919.314598
809.038840,-9770.718434,-888.247130,842.705048
809.039160,-10066.800811,-888.247130,1378.971896
809.039481,-9474.636058,-814.226536,1455.581446
809.039802,-9474.636058,-370.102971,1455.581446
809.040122,-9326.594869,148.041188,1762.019645
809.040443,-9474.636058,666.185348,2298.286494
809.040764,-9622.677246,666.185348,3370.820191
809.041085,-9770.718434,370.102971,2681.334243
809.041405,-9474.636058,74.020594,2528.115143
809.041726,-9474.636058,-740.205942,2528.115143
809.042047,-9104.533087,-962.267725,2911.162892
809.042367,-9178.553681,-1332.370696,995.924147
809.042688,-8808.450710,-1036.288319,153.219100
809.043009,-8808.450710,-814.226536,-229.828649
809.043330,-9104.533087,-1110.308913,76.609550
809.043650,-9474.636058,-592.164754,0.000000
809.043971,-9770.718434,-888.247130,766.095498
809.044292,-9844.739029,-1036.288319,995.924147
809.044612,-9992.780217,-1184.329507,1532.190996
809.044933,-9548.656652,-1776.494261,1072.533697
809.045254,-9696.697840,-592.164754,2068.457845
809.045575,-9474.636058,-148.041188,1455.581446
809.045895,-9252.574275,296.082377,1608.800546
809.046216,-9030.512492,296.082377,919.314598
809.046537,-9326.594869,0.000000,1149.143247
809.046857,-9252.574275,222.061783,995.924147
809.047178,-9474.636058,148.041188,1378.971896
809.047499,-9696.697840,0.000000,1608.800546
809.047820,-9770.718434,-222.061783,919.314598
809.048140,-9844.739029,-222.061783,459.657299
809.048461,-9622.677246,-444.123565,459.657299
809.048782,-9770.718434,-814.226536,-306.438199
809.049102,-10140.821405,-518.144159,0.000000
809.049423,-9548.656652,-740.205942,-612.876398
809.049744,-9918.759623,-740.205942,-229.828649
809.050065,-10288.862594,-666.185348,612.876398
809.050385,-10214.842000,-1258.350101,4136.915689
809.050706,-10066.800811,-888.247130,995.924147
809.051027,-9844.739029,-444.123565,1149.143247
809.051347,-9992.780217,0.000000,1762.019645
809.051668,-9696.697840,0.000000,2221.676944
809.051989,-9770.718434,74.020594,1455.581446
809.052309,-9326.594869,148.041188,1455.581446
809.052630,-9400.615463,148.041188,1378.971896
809.052951,-9548.656652,296.082377,2604.724693
809.053272,-9400.615463,0.000000,1838.629195
809.053592,-9696.697840,370.102971,2068.457845
809.053913,-9474.636058,0.000000,2068.457845
809.054234,-9474.636058,-370.102971,1991.848295
809.054554,-8882.471304,-962.267725,1378.971896
809.054875,-9400.615463,-1110.308913,76.609550
809.055196,-9252.574275,-888.247130,-536.266849
809.055517,-9030.512492,-962.267725,-536.266849
809.055837,-9326.594869,-1036.288319,-229.828649
809.056158,-9474.636058,-888.247130,0.000000
809.056479,-9992.780217,-1332.370696,689.485948
809.056799,-9770.718434,-1332.370696,1149.143247
809.057120,-10214.842000,-1258.350101,1378.971896
809.057441,-9622.677246,-814.226536,2451.505594
809.057762,-9844.739029,-444.123565,1838.629195
809.058082,-9326.594869,0.000000,1991.848295
809.058403,-9030.512492,0.000000,1532.190996
809.058724,-9178.553681,1406.391290,2604.724693
809.059044,-9252.574275,740.205942,1532.190996
809.059365,-9548.656652,666.185348,2068.457845
809.059686,-9622.677246,592.164754,2221.676944
809.060007,-9844.739029,296.082377,1685.410096
809.060327,-9622.677246,0.000000,1532.190996
809.060648,-9696.697840,-444.123565,1072.533697
809.060969,-9474.636058,-740.205942,383.047749
809.061289,-9474.636058,-1110.308913,-153.219100
809.061610,-9400.615463,-666.185348,-383.047749
809.061931,-9622.677246,-666.185348,-306.438199
809.062252,-9992.780217,-592.164754,229.828649
809.062572,-9992.780217,-740.205942,612.876398
809.062893,-10436.903782,-592.164754,459.657299
809.063214,-9844.739029,0.000000,842.705048
809.063534,-9918.759623,-518.144159,1149.143247
809.063855,-9696.697840,-296.082377,1455.581446
809.064176,-9622.677246,-370.102971,1149.143247
809.064497,-9474.636058,592.164754,995.924147
809.064817,-9400.615463,518.144159,1149.143247
809.065138,-9474.636058,888.247130,1838.629195
809.065459,-9622.677246,222.061783,1532.190996
809.065779,-8882.471304,0.000000,1991.848295
809.066100,-9548.656652,0.000000,1685.410096
809.066421,-9252.574275,-370.102971,1455.581446
809.066742,-9770.718434,-666.185348,1455.581446
809.067062,-8660.409521,-888.247130,153.219100
809.067383,-9030.512492,-1184.329507,-536.266849
809.067704,-9178.553681,-1110.308913,-536.266849
809.068024,-9326.594869,-1184.329507,-383.047749
809.068345,-9622.677246,-1110.308913,229.828649
809.068666,-9770.718434,-1480.411884,612.876398
809.068986,-9622.677246,-1628.453072,689.485948
809.069307,-9696.697840,-1332.370696,1378.971896
809.069628,-9918.759623,-1110.308913,1991.848295
809.069949,-9104.533087,-1036.288319,2221.676944
809.070269,-9622.677246,0.000000,2145.067394
809.070590,-9474.636058,592.164754,1991.848295
809.070911,-9474.636058,740.205942,1991.848295
809.071231,-9252.574275,888.247130,4060.306139
809.071552,-9548.656652,296.082377,2221.676944
809.071873,-9474.636058,888.247130,2145.067394
809.072194,-9844.739029,148.041188,1915.238745
809.072514,-9548.656652,74.020594,1915.238745
809.072835,-9770.718434,-296.082377,1455.581446
809.073156,-9474.636058,-296.082377,1149.143247
809.073476,-9696.697840,-740.205942,383.047749
809.073797,-9770.718434,-444.123565,-306.438199
809.074118,-9770.718434,0.000000,383.047749
809.074439,-9844.739029,-296.082377,459.657299
809.074759,-10066.800811,-592.164754,689.485948
809.075080,-10066.800811,-814.226536,536.266849
809.075401,-9548.656652,-1258.350101,-306.438199
809.075721,-9474.636058,-222.061783,919.314598
809.076042,-9622.677246,0.000000,1838.629195
809.076363,-9548.656652,0.000000,1685.410096
809.076684,-9548.656652,-296.082377,1378.971896
809.077004,-9178.553681,222.061783,1072.533697
809.077325,-9400.615463,0.000000,1378.971896
809.077646,-9548.656652,148.041188,1838.629195
809.077966,-9696.697840,296.082377,2068.457845
809.078287,-9400.615463,518.144159,1302.362347
809.078608,-9474.636058,518.144159,1532.190996
809.078929,-9400.615463,-222.061783,919.314598
809.079249,-9400.615463,-1036.288319,229.828649
809.079570,-8660.409521,-148.041188,1225.752797
809.079891,-8882.471304,-740.205942,-459.657299
809.080211,-9030.512492,-1184.329507,-383.047749
809.080532,-9326.594869,-1110.308913,-383.047749
809.080853,-9548.656652,-1036.288319,0.000000
809.081174,-9918.759623,-1184.329507,689.485948
809.081494,-9696.697840,-666.185348,1455.581446
809.081815,-9992.780217,-1036.288319,1532.190996
809.082136,-9770.718434,-296.082377,1302.362347
809.082456,-9918.759623,222.061783,2298.286494
809.082777,-9252.574275,296.082377,1455.581446
809.083098,-9474.636058,814.226536,1685.410096
809.083419,-9548.656652,740.205942,1608.800546
809.083739,-9992.780217,1184.329507,2528.115143
809.084060,-9844.739029,296.082377,1608.800546
809.084381,-9770.718434,222.061783,1838.629195
809.084701,-9918.759623,-148.041188,1762.019645
809.085022,-9696.697840,-370.102971,1149.143247
809.085343,-9770.718434,-592.164754,1149.143247
809.085664,-9770.718434,-740.205942,536.266849
809.085984,-9696.697840,-962.267725,229.828649
809.086305,-9770.718434,-1110.308913,76.609550
809.086626,-10288.862594,-592.164754,919.314598
809.086946,-10362.883188,-888.247130,459.657299
809.087267,-10066.800811,-1110.308913,1378.971896
809.087588,-10362.883188,-1036.288319,1455.581446
809.087908,-9770.718434,-1184.329507,2221.676944
809.088229,-9622.677246,-1036.288319,2068.457845
809.088550,-9548.656652,-518.144159,2068.457845
809.088871,-9326.594869,-296.082377,1532.190996
809.089191,-9178.553681,74.020594,1685.410096
809.089512,-9030.512492,148.041188,1991.848295
809.089833,-9474.636058,444.123565,2068.457845
809.090153,-9622.677246,222.061783,2221.676944
809.090474,-9474.636058,296.082377,2145.067394
809.090795,-9400.615463,148.041188,1685.410096
809.091116,-9474.636058,-370.102971,1225.752797
809.091436,-9474.636058,-370.102971,995.924147
809.091757,-9104.533087,-740.205942,0.000000
809.092078,-9474.636058,-222.061783,-1225.752797
809.092398,-9178.553681,-888.247130,-612.876398
809.092719,-9252.574275,-1036.288319,-612.876398
809.093040,-9474.636058,-592.164754,0.000000
809.093361,-9992.780217,-666.185348,459.657299
809.093681,-9918.759623,-370.102971,1072.533697
809.094002,-10140.821405,-1110.308913,1455.581446
809.094323,-9474.636058,-962.267725,1608.800546
809.094643,-9696.697840,-592.164754,1302.362347
809.094964,-9252.574275,-222.061783,1608.800546
809.095285,-9326.594869,148.041188,1072.533697
809.095606,-9178.553681,444.123565,1072.533697
809.095926,-9622.677246,518.144159,1302.362347
809.096247,-9474.636058,1480.411884,1302.362347
809.096568,-10066.800811,0.000000,2068.457845
809.096888,-9770.718434,0.000000,1608.800546
809.097209,-9918.759623,-370.102971,919.314598
809.097530,-9622.677246,-592.164754,1149.143247
809.097851,-9844.739029,-814.226536,536.266849
809.098171,-9548.656652,-962.267725,76.609550
809.098492,-9474.636058,-666.185348,0.000000
809.098813,-9622.677246,-296.082377,0.000000
809.099133,-9622.677246,-74.020594,536.266849
809.099454,-10510.924376,-666.185348,1072.533697
809.099775,-9844.739029,-592.164754,1532.190996
809.100096,-9770.718434,-666.185348,1302.362347
809.100416,-9622.677246,0.000000,2298.286494
809.100737,-9770.718434,-592.164754,2221.676944
809.101058,-9474.636058,-296.082377,1838.629195
809.101378,-9030.512492,0.000000,1225.752797
809.101699,-9030.512492,444.123565,1762.019645
809.102020,-9474.636058,666.185348,2451.505594
809.102341,-9844.739029,740.205942,2221.676944
809.102661,-9622.677246,444.123565,2145.067394
809.102982,-9326.594869,222.061783,2221.676944
809.103303,-9918.759623,-74.020594,2374.896044
809.103623,-9548.656652,-444.123565,2068.457845
809.103944,-9474.636058,-666.185348,919.314598
809.104265,-9178.553681,-1110.308913,0.000000
809.104586,-8956.491898,0.000000,-306.438199
809.104906,-9252.574275,-592.164754,-536.266849
809.105227,-9474.636058,-592.164754,-229.828649
809.105548,-9622.677246,-666.185348,306.438199
809.105869,-9696.697840,-1036.288319,459.657299
809.106190,-9770.718434,-1480.411884,1149.143247
809.106510,-9622.677246,-1406.391290,1072.533697
809.106831,-9918.759623,-888.247130,1762.019645
809.107152,-9474.636058,-296.082377,1532.190996
809.107473,-9622.677246,0.000000,1915.238745
809.107794,-9178.553681,148.041188,689.485948
809.108114,-9326.594869,0.000000,995.924147
809.108435,-9474.636058,296.082377,1685.410096
809.108756,-10140.821405,740.205942,995.924147
809.109077,-9696.697840,0.000000,1838.629195
809.109398,-9992.780217,-222.061783,995.924147
809.109718,-9548.656652,0.000000,1072.533697
809.110039,-9548.656652,-296.082377,459.657299
809.110360,-9548.656652,-296.082377,0.000000
809.110681,-9696.697840,-296.082377,-383.047749
809.111002,-9696.697840,0.000000,-229.828649
809.111322,-10140.821405,-222.061783,0.000000
809.111643,-10140.821405,-444.123565,1608.800546
809.111964,-10362.883188,-666.185348,536.266849
809.112285,-10066.800811,-592.164754,1149.143247
809.112606,-9918.759623,-740.205942,1455.581446
809.112926,-9548.656652,-740.205942,1532.190996
809.113247,-9770.718434,-740.205942,1532.190996
809.113568,-9474.636058,-222.061783,1455.581446
809.113889,-9474.636058,222.061783,1455.581446
809.114210,-9326.594869,444.123565,1838.629195
809.114530,-9474.636058,518.144159,1915.238745
809.114851,-9696.697840,444.123565,2451.505594
809.115172,-9548.656652,-222.061783,2298.286494
809.115493,-9474.636058,-518.144159,1838.629195
809.115814,-9474.636058,-444.123565,1762.019645
809.116134,-9474.636058,-814.226536,1072.533697
809.116455,-9252.574275,-1036.288319,689.485948
809.116776,-9252.574275,-1110.308913,-306.438199
809.117097,-8882.471304,-1480.411884,-536.266849
809.117418,-9252.574275,-1332.370696,0.000000
809.117738,-9622.677246,-1036.288319,383.047749
809.118059,-9992.780217,-1036.288319,1149.143247
809.118380,-9844.739029,-814.226536,1762.019645
809.118701,-10214.842000,-518.144159,2298.286494
809.119021,-9622.677246,-518.144159,2298.286494
809.119342,-9622.677246,-444.123565,1991.848295
809.119663,-9474.636058,148.041188,1838.629195
809.119984,-8512.368333,740.205942,2451.505594
809.120305,-9252.574275,444.123565,1685.410096
809.120625,-9400.615463,370.102971,1302.362347
809.120946,-9474.636058,74.020594,1762.019645
809.121267,-9992.780217,-296.082377,3600.648841
809.121588,-9770.718434,0.000000,2068.457845
809.121909,-9844.739029,-370.102971,1302.362347
809.122229,-9622.677246,-518.144159,842.705048
809.122550,-9844.739029,-518.144159,0.000000
809.122871,-9326.594869,-370.102971,229.828649
809.123192,-9844.739029,-592.164754,-459.657299
809.123513,-9918.759623,0.000000,76.609550
809.123833,-10066.800811,-296.082377,536.266849
809.124154,-10362.883188,-444.123565,1455.581446
809.124475,-9918.759623,-222.061783,612.876398
809.124796,-9548.656652,-296.082377,459.657299
809.125117,-9770.718434,0.000000,1072.533697
809.125437,-9622.677246,222.061783,1378.971896
809.125758,-9474.636058,0.000000,1225.752797
809.126079,-9252.574275,296.082377,919.314598
809.126400,-9326.594869,518.144159,919.314598
809.126721,-9548.656652,666.185348,1991.848295
809.127041,-9622.677246,74.020594,1302.362347
809.127362,-9696.697840,444.123565,2374.896044
809.127683,-9548.656652,74.020594,1991.848295
809.128004,-9548.656652,-370.102971,1838.629195
809.128325,-9548.656652,-740.205942,1302.362347
809.128645,-8882.471304,-740.205942,383.047749
809.128966,-9030.512492,-740.205942,0.000000
809.129287,-8808.450710,-666.185348,-306.438199
809.129608,-9252.574275,-888.247130,0.000000
809.129929,-9252.574275,-1184.329507,0.000000
809.130249,-9992.780217,-1184.329507,612.876398
809.130570,-9770.718434,-1110.308913,1072.533697
809.130891,-10140.821405,-1184.329507,1838.629195
809.131212,-8808.450710,-740.205942,1455.581446
809.131533,-9548.656652,-592.164754,1915.238745
809.131853,-9400.615463,-296.082377,1685.410096
809.132174,-9252.574275,0.000000,1608.800546
809.132495,-9326.594869,148.041188,2451.505594
809.132816,-9178.553681,222.061783,1455.581446
809.133137,-9548.656652,370.102971,1685.410096
809.133457,-9548.656652,0.000000,2145.067394
809.133778,-9696.697840,74.020594,1915.238745
809.134099,-9844.739029,-222.061783,1838.629195
809.134420,-9548.656652,-296.082377,1072.533697
809.134741,-9770.718434,-740.205942,842.705048
809.135061,-9696.697840,-740.205942,306.438199
809.135382,-10436.903782,0.000000,-229.828649
809.135703,-9918.759623,-370.102971,76.609550
809.136024,-9918.759623,-370.102971,689.485948
809.136345,-10140.821405,-888.247130,766.095498
809.136665,-10362.883188,-592.164754,-306.438199
809.136986,-9844.739029,-740.205942,766.095498
809.137307,-9844.739029,-740.205942,1838.629195
809.137628,-9770.718434,-370.102971,2068.457845
809.137949,-9622.677246,-222.061783,1685.410096
809.138269,-9622.677246,74.020594,1149.143247
809.138590,-9474.636058,370.102971,1685.410096
809.138911,-9548.656652,148.041188,1762.019645
809.139232,-9622.677246,0.000000,1991.848295
809.139553,-9844.739029,-592.164754,766.095498
809.139873,-9474.636058,-222.061783,1302.362347
809.140194,-9622.677246,-592.164754,995.924147
809.140515,-9400.615463,-888.247130,306.438199
809.140836,-9326.594869,-740.205942,1072.533697
809.141157,-9030.512492,-666.185348,-995.924147
809.141477,-9104.533087,-740.205942,-1532.190996
809.141798,-9252.574275,-296.082377,-1378.971896
809.142119,-9548.656652,-444.123565,-689.485948
809.142440,-9770.718434,0.000000,0.000000
809.142761,-10066.800811,0.000000,459.657299
809.143081,-9992.780217,0.000000,1225.752797
809.143402,-9918.759623,74.020594,1455.581446
809.143723,-9474.636058,0.000000,995.924147
809.144044,-9252.574275,-296.082377,1532.190996
809.144365,-9030.512492,0.000000,1608.800546
809.144685,-8956.491898,-296.082377,1608.800546
809.145006,-8882.471304,370.102971,1608.800546
809.145327,-9474.636058,222.061783,2451.505594
809.145648,-9474.636058,148.041188,2834.553343
809.145969,-9770.718434,74.020594,3217.601092
809.146289,-9918.759623,0.000000,2757.943793
809.146610,-9770.718434,0.000000,2221.676944
809.146931,-9770.718434,-370.102971,2145.067394
809.147252,-9696.697840,-518.144159,1378.971896
809.147573,-9474.636058,-518.144159,689.485948
809.147893,-9252.574275,-1110.308913,1072.533697
809.148214,-9696.697840,-444.123565,1072.533697
809.148535,-10066.800811,-740.205942,995.924147
809.148856,-10140.821405,-592.164754,1378.971896
809.149177,-9770.718434,-740.205942,2068.457845
809.149497,-9918.759623,-592.164754,1991.848295
809.149818,-9918.759623,-444.123565,1991.848295
809.150139,-9770.718434,-444.123565,1915.238745
809.150460,-9548.656652,-222.061783,1532.190996
809.150780,-9548.656652,148.041188,1685.410096
809.151101,-9622.677246,518.144159,1378.971896
809.151422,-9696.697840,592.164754,1838.629195
809.151743,-9696.697840,814.226536,1838.629195
809.152064,-8956.491898,814.226536,2068.457845
809.152384,-9474.636058,666.185348,1685.410096
809.152705,-9696.697840,74.020594,1302.362347
809.153026,-9474.636058,0.000000,612.876398
809.153347,-9252.574275,0.000000,689.485948
809.153668,-8734.430116,-518.144159,-995.924147
809.153988,-8956.491898,-518.144159,-1532.190996
809.154309,-9326.594869,-814.226536,-1149.143247
809.154630,-9548.656652,-666.185348,-536.266849
809.154951,-9548.656652,-962.267725,-536.266849
809.155272,-9696.697840,-740.205942,536.266849
809.155592,-9992.780217,-1332.370696,995.924147
809.155913,-9548.656652,-814.226536,1225.752797
809.156234,-9474.636058,-1258.350101,459.657299
809.156555,-9252.574275,-148.041188,536.266849
809.156876,-9178.553681,-296.082377,612.876398
809.157196,-9400.615463,-148.041188,842.705048
809.157517,-9474.636058,296.082377,2374.896044
809.157838,-9400.615463,0.000000,1685.410096
809.158159,-9548.656652,-296.082377,1149.143247
809.158480,-9400.615463,-592.164754,1149.143247
809.158800,-9622.677246,-370.102971,842.705048
809.159121,-9252.574275,-592.164754,536.266849
809.159442,-9326.594869,-814.226536,229.828649
809.159763,-9622.677246,-962.267725,-306.438199
809.160084,-9696.697840,-740.205942,0.000000
809.160404,-9474.636058,-888.247130,842.705048
809.160725,-10288.862594,-592.164754,995.924147
809.161046,-10436.903782,-444.123565,1838.629195
809.161367,-10214.842000,-814.226536,1991.848295
809.161688,-9770.718434,-592.164754,229.828649
809.162008,-9622.677246,-666.185348,2145.067394
809.162329,-9770.718434,-518.144159,2298.286494
809.162650,-9400.615463,-296.082377,1762.019645
809.162971,-9474.636058,148.041188,1685.410096
809.163292,-9030.512492,148.041188,1838.629195
809.163612,-9548.656652,148.041188,2374.896044
809.163933,-9770.718434,0.000000,2528.115143
809.164254,-9992.780217,0.000000,2757.943793
809.164575,-9844.739029,-444.123565,2528.115143
809.164896,-9770.718434,-740.205942,2298.286494
809.165216,-9400.615463,-1184.329507,1915.238745
809.165537,-9326.594869,-1332.370696,536.266849
809.165858,-8882.471304,-1628.453072,0.000000
809.166179,-8660.409521,-1480.411884,-153.219100
809.166500,-9178.553681,-1110.308913,0.000000
809.166820,-9696.697840,-518.144159,0.000000
809.167141,-9844.739029,-740.205942,306.438199
809.167462,-9770.718434,-518.144159,842.705048
809.167783,-9992.780217,-592.164754,1532.190996
809.168104,-9622.677246,-518.144159,1455.581446
809.168424,-9548.656652,-74.020594,1608.800546
809.168745,-9104.533087,0.000000,1915.238745
809.169066,-9104.533087,444.123565,919.314598
809.169387,-8882.471304,592.164754,612.876398
809.169708,-9104.533087,1110.308913,842.705048
809.170028,-9252.574275,148.041188,1532.190996
809.170349,-9474.636058,222.061783,1532.190996
809.170670,-9622.677246,-148.041188,1225.752797
809.170991,-9474.636058,-370.102971,1225.752797
809.171312,-9548.656652,-518.144159,612.876398
809.171632,-9622.677246,-666.185348,459.657299
809.171953,-9696.697840,-1036.288319,-153.219100
809.172274,-9696.697840,-666.185348,-612.876398
809.172595,-9770.718434,-592.164754,-689.485948
809.172916,-10214.842000,-888.247130,229.828649
809.173236,-10288.862594,-592.164754,689.485948
809.173557,-10066.800811,-592.164754,306.438199
809.173878,-9992.780217,-518.144159,919.314598
809.174199,-9844.739029,-370.102971,1302.362347
809.174520,-10066.800811,-666.185348,1838.629195
809.174840,-9696.697840,-296.082377,1991.848295
809.175161,-9622.677246,0.000000,1608.800546
809.175482,-9474.636058,814.226536,2145.067394
809.175803,-9696.697840,1332.370696,2757.943793
809.176124,-9770.718434,1036.288319,2451.505594
809.176444,-9770.718434,666.185348,2528.115143
809.176765,-9548.656652,296.082377,2374.896044
809.177086,-10362.883188,-370.102971,1149.143247
809.177407,-9696.697840,-666.185348,1608.800546
809.177728,-9474.636058,-592.164754,689.485948
809.178048,-9104.533087,-592.164754,0.000000
809.178369,-9178.553681,-222.061783,612.876398
809.178690,-8956.491898,-444.123565,-459.657299
809.179011,-9400.615463,-814.226536,0.000000
809.179332,-9548.656652,-1184.329507,689.485948
809.179652,-9622.677246,-1554.432478,1072.533697
809.179973,-9548.656652,-1702.473667,2451.505594
809.180294,-10066.800811,-1554.432478,2221.676944
809.180615,-9548.656652,-1332.370696,2374.896044
809.180936,-9400.615463,-888.247130,1991.848295
809.181256,-8882.471304,0.000000,2911.162892
809.181577,-9178.553681,0.000000,1378.971896
809.181898,-9252.574275,444.123565,1378.971896
809.182219,-9400.615463,518.144159,1532.190996
809.182540,-9400.615463,592.164754,1608.800546
809.182860,-9548.656652,222.061783,1685.410096
809.183181,-9770.718434,-148.041188,1378.971896
809.183502,-9548.656652,-592.164754,842.705048
809.183823,-9770.718434,-370.102971,612.876398
809.184143,-9326.594869,-666.185348,459.657299
809.184464,-9770.718434,-518.144159,-306.438199
809.184785,-9548.656652,-370.102971,-459.657299
809.185106,-9918.759623,-296.082377,-306.438199
809.185427,-9770.718434,-814.226536,536.266849
809.185747,-9992.780217,-666.185348,536.266849
809.186068,-9770.718434,-740.205942,459.657299
809.186389,-9992.780217,-592.164754,1072.533697
809.186710,-9770.718434,-666.185348,306.438199
809.187031,-9696.697840,-666.185348,1378.971896
809.187351,-9474.636058,-518.144159,995.924147
809.187672,-9548.656652,0.000000,842.705048
809.187993,-9548.656652,296.082377,1149.143247
809.188314,-9548.656652,592.164754,1762.019645
809.188635,-10066.800811,74.020594,1915.238745
809.188955,-9474.636058,296.082377,1685.410096
809.189276,-9548.656652,-296.082377,1532.190996
809.189597,-8808.450710,-592.164754,1685.410096
809.189918,-9548.656652,-814.226536,689.485948
809.190239,-9178.553681,-1110.308913,306.438199
809.190559,-9400.615463,-740.205942,-229.828649
809.190880,-8808.450710,-740.205942,153.219100
809.191201,-9548.656652,-666.185348,0.000000
809.191522,-9622.677246,-888.247130,919.314598
809.191843,-9918.759623,-740.205942,919.314598
809.192163,-9918.759623,-888.247130,1838.629195
809.192484,-9622.677246,-962.267725,1915.238745
809.192805,-9770.718434,-814.226536,2374.896044
809.193126,-9474.636058,-1036.288319,1838.629195
809.193447,-9030.512492,-296.082377,1991.848295
809.193767,-8956.491898,0.000000,1838.629195
809.194088,-9030.512492,370.102971,1838.629195
809.194409,-9252.574275,592.164754,2451.505594
809.194730,-9400.615463,592.164754,2451.505594
809.195051,-9548.656652,148.041188,689.485948
809.195371,-9918.759623,74.020594,2221.676944
809.195692,-9400.615463,-296.082377,1838.629195
809.196013,-9548.656652,-1110.308913,1225.752797
809.196334,-9326.594869,-740.205942,536.266849
809.196655,-9326.594869,-1184.329507,0.000000
809.196975,-9474.636058,-740.205942,-306.438199
809.197296,-9992.780217,0.000000,0.000000
809.197617,-10288.862594,-296.082377,383.047749
809.197938,-10362.883188,0.000000,612.876398
809.198259,-10140.821405,-962.267725,689.485948
809.198579,-9918.759623,-592.164754,766.095498
809.198900,-9622.677246,-888.247130,1149.143247
809.199221,-9844.739029,-148.041188,1608.800546
809.199542,-9474.636058,-296.082377,1072.533697
809.199863,-9178.553681,0.000000,689.485948
809.200183,-9474.636058,222.061783,919.314598
809.200504,-9474.636058,592.164754,1455.581446
809.200825,-9918.759623,444.123565,1991.848295
809.201146,-10288.862594,222.061783,1838.629195
809.201467,-9844.739029,74.020594,1685.410096
809.201787,-9918.759623,-592.164754,1608.800546
809.202108,-8956.491898,-1110.308913,766.095498
809.202429,-9474.636058,-1110.308913,-229.828649
809.202750,-9178.553681,-666.185348,-842.705048
809.203071,-9030.512492,-518.144159,-1225.752797
809.203391,-9178.553681,-740.205942,153.219100
809.203712,-9548.656652,-592.164754,0.000000
809.204035,-9992.780217,-814.226536,153.219100
809.204355,-9770.718434,-1258.350101,1149.143247
809.204676,-9992.780217,-1258.350101,1532.190996
809.204997,-9770.718434,-666.185348,1838.629195
809.205318,-9844.739029,-74.020594,2298.286494
809.205639,-9400.615463,222.061783,1915.238745
809.205959,-9178.553681,148.041188,1608.800546
809.206280,-9400.615463,518.144159,1149.143247
809.206601,-9178.553681,296.082377,2451.505594
809.206922,-9178.553681,148.041188,1378.971896
809.207243,-9252.574275,518.144159,1838.629195
809.207563,-9622.677246,1110.308913,2145.067394
809.207884,-9474.636058,-222.061783,1149.143247
809.208205,-9844.739029,-296.082377,1072.533697
809.208526,-9548.656652,-518.144159,306.438199
809.208847,-9770.718434,-518.144159,459.657299
809.209167,-9326.594869,-740.205942,306.438199
809.209488,-9548.656652,-518.144159,0.000000
809.209809,-9918.759623,-518.144159,229.828649
809.210130,-10066.800811,-518.144159,612.876398
809.210451,-9400.615463,0.000000,153.219100
809.210771,-9844.739029,-518.144159,1149.143247
809.211092,-9622.677246,-296.082377,1302.362347
809.211413,-9548.656652,0.000000,1762.019645
809.211734,-9548.656652,0.000000,1838.629195
809.212055,-9474.636058,370.102971,2068.457845
809.212375,-9474.636058,814.226536,2145.067394
809.212696,-9474.636058,518.144159,2221.676944
809.213017,-9844.739029,370.102971,2451.505594
809.213338,-9474.636058,592.164754,1762.019645
809.213659,-9770.718434,0.000000,1838.629195
809.213979,-9622.677246,74.020594,1838.629195
809.214300,-9622.677246,-296.082377,1149.143247
809.214621,-9400.615463,-370.102971,-995.924147
809.214942,-9252.574275,-962.267725,0.000000
809.215263,-9178.553681,-1036.288319,-536.266849
809.215583,-9400.615463,-1332.370696,-612.876398
809.215904,-9400.615463,-1110.308913,-383.047749
809.216225,-9770.718434,-888.247130,306.438199
809.216546,-9474.636058,-962.267725,689.485948
809.216867,-9844.739029,-740.205942,1225.752797
809.217187,-9548.656652,-888.247130,1455.581446
809.217508,-9622.677246,-222.061783,1915.238745
809.217829,-9548.656652,-518.144159,1915.238745
809.218150,-9326.594869,0.000000,1685.410096
809.218471,-9178.553681,0.000000,1532.190996
809.218791,-9400.615463,444.123565,1455.581446
809.219112,-9326.594869,222.061783,1608.800546
809.219433,-9474.636058,74.020594,1991.848295
809.219754,-9622.677246,0.000000,1838.629195
809.220075,-9770.718434,0.000000,1302.362347
809.220395,-9178.553681,0.000000,766.095498
809.220716,-9622.677246,-222.061783,689.485948
809.221037,-9474.636058,-592.164754,306.438199
809.221358,-9474.636058,-1258.350101,-229.828649
809.221679,-8808.450710,-444.123565,-459.657299
809.221999,-9696.697840,-1184.329507,0.000000
809.222320,-9992.780217,-1184.329507,306.438199
809.222641,-9992.780217,-962.267725,919.314598
809.222962,-10140.821405,-444.123565,689.485948
809.223283,-9548.656652,0.000000,919.314598
809.223603,-9918.759623,-518.144159,1378.971896
809.223924,-9992.780217,-370.102971,1378.971896
809.224245,-9770.718434,-444.123565,1149.143247
809.224566,-9474.636058,-740.205942,1455.581446
809.224887,-9178.553681,0.000000,1608.800546
809.225207,-9844.739029,148.041188,2068.457845
809.225528,-9622.677246,370.102971,2451.505594
809.225849,-9918.759623,-370.102971,2681.334243
809.226170,-9326.594869,-148.041188,1532.190996
809.226491,-9474.636058,-148.041188,1149.143247
809.226811,-9622.677246,-518.144159,612.876398
809.227132,-9474.636058,-740.205942,76.609550
809.227453,-8956.491898,-1036.288319,-689.485948
809.227774,-9474.636058,-888.247130,-766.095498
809.228095,-9548.656652,-740.205942,-842.705048
809.228415,-9770.718434,-814.226536,153.219100
809.228736,-9918.759623,-888.247130,995.924147
809.229057,-10066.800811,-666.185348,1149.143247
809.229378,-10140.821405,-1036.288319,1532.190996
809.229699,-9844.739029,-666.185348,1991.848295
809.230019,-9770.718434,-518.144159,1915.238745
809.230340,-8956.491898,0.000000,1915.238745
809.230661,-9252.574275,148.041188,1762.019645
809.230982,-9104.533087,222.061783,1838.629195
809.231303,-9326.594869,444.123565,2068.457845
809.231623,-9326.594869,592.164754,2374.896044
809.231944,-9474.636058,222.061783,2298.286494
809.232265,-9474.636058,148.041188,2221.676944
809.232586,-9622.677246,74.020594,1915.238745
809.232907,-9474.636058,-222.061783,1378.971896
809.233227,-9548.656652,888.247130,1225.752797
809.233548,-9474.636058,-518.144159,153.219100
809.233869,-9474.636058,-296.082377,153.219100
809.234190,-9770.718434,-518.144159,306.438199
809.234511,-9918.759623,-296.082377,689.485948
809.234831,-10066.800811,-814.226536,1072.533697
809.235152,-9696.697840,-1036.288319,306.438199
809.235473,-9622.677246,-888.247130,842.705048
809.235794,-9770.718434,-740.205942,1302.362347
809.236115,-9770.718434,-592.164754,1608.800546
809.236435,-9474.636058,-888.247130,3294.210641
809.236756,-9326.594869,0.000000,1072.533697
809.237077,-9474.636058,518.144159,995.924147
809.237398,-9474.636058,592.164754,1685.410096
809.237719,-9770.718434,592.164754,1991.848295
809.238039,-9474.636058,148.041188,1378.971896
809.238360,-9622.677246,222.061783,1378.971896
809.238681,-9548.656652,-444.123565,1378.971896
809.239002,-9622.677246,-518.144159,766.095498
809.239323,-9992.780217,-592.164754,-689.485948
809.239643,-9252.574275,-888.247130,-612.876398
809.239964,-9104.533087,-666.185348,-689.485948
809.240285,-9474.636058,-518.144159,-383.047749
809.240606,-9770.718434,-518.144159,383.047749
809.240927,-9844.739029,-740.205942,689.485948
809.241247,-9844.739029,-814.226536,919.314598
809.241568,-10140.821405,-962.267725,1685.410096
809.241889,-9770.718434,-370.102971,1302.362347
809.242210,-10140.821405,-444.123565,1762.019645
809.242531,-9474.636058,0.000000,1685.410096
809.242851,-9252.574275,-148.041188,1378.971896
809.243172,-8956.491898,0.000000,1225.752797
809.243493,-9178.553681,74.020594,229.828649
809.243814,-9622.677246,222.061783,1838.629195
809.244135,-9622.677246,74.020594,2298.286494
809.244455,-9844.739029,-444.123565,2068.457845
809.244776,-9474.636058,-518.144159,1225.752797
809.245097,-9918.759623,-814.226536,842.705048
809.245418,-9622.677246,-592.164754,842.705048
809.245739,-9474.636058,-666.185348,0.000000
809.246059,-9622.677246,-814.226536,-306.438199
809.246380,-8660.409521,-1184.329507,-306.438199
809.246701,-9918.759623,-740.205942,383.047749
809.247022,-10362.883188,-962.267725,689.485948
809.247343,-10066.800811,-592.164754,612.876398
809.247663,-9622.677246,-444.123565,536.266849
809.247984,-9770.718434,-222.061783,1149.143247
809.248305,-9696.697840,0.000000,1608.800546
809.248626,-9844.739029,0.000000,1149.143247
809.248947,-9474.636058,444.123565,1149.143247
809.249267,-9474.636058,1110.308913,1532.190996
809.249588,-9696.697840,888.247130,2068.457845
809.249909,-9918.759623,814.226536,2451.505594
809.250230,-9696.697840,370.102971,2451.505594
809.250550,-9844.739029,0.000000,842.705048
809.250871,-9400.615463,-444.123565,1991.848295
809.251192,-9548.656652,-814.226536,1149.143247
809.251513,-9326.594869,-888.247130,536.266849
809.251834,-8956.491898,-1110.308913,-306.438199
809.252154,-9030.512492,-888.247130,-919.314598
809.252475,-9178.553681,-1036.288319,-919.314598
809.252796,-9622.677246,-814.226536,-153.219100
809.253117,-10066.800811,-1036.288319,383.047749
809.253438,-10066.800811,-962.267725,842.705048
809.253758,-9992.780217,-1480.411884,1225.752797
809.254079,-9918.759623,-1184.329507,1915.238745
809.254400,-9770.718434,-1036.288319,1991.848295
809.254721,-9326.594869,-222.061783,2374.896044
809.255042,-9030.512492,74.020594,1532.190996
809.255362,-8882.471304,296.082377,1608.800546
809.255683,-9104.533087,592.164754,1608.800546
809.256004,-9326.594869,296.082377,2221.676944
809.256325,-9474.636058,0.000000,2911.162892
809.256646,-9770.718434,-592.164754,1991.848295
809.256966,-9696.697840,-740.205942,2145.067394
809.257287,-9474.636058,-962.267725,1532.190996
809.257608,-9548.656652,-518.144159,1991.848295
809.257929,-9548.656652,-888.247130,612.876398
809.258250,-9622.677246,0.000000,153.219100
809.258570,-9918.759623,-518.144159,0.000000
809.258891,-9992.780217,-370.102971,1608.800546
809.259212,-10362.883188,-444.123565,842.705048
809.259533,-9918.759623,-888.247130,1072.533697
809.259854,-9918.759623,-1110.308913,766.095498
809.260174,-9770.718434,-666.185348,1225.752797
809.260495,-9548.656652,-444.123565,1455.581446
809.260816,-9918.759623,222.061783,1685.410096
809.261137,-9474.636058,370.102971,1302.362347
809.261458,-9474.636058,444.123565,919.314598
809.261778,-9474.636058,666.185348,1225.752797
809.262099,-9918.759623,296.082377,1685.410096
809.262420,-10066.800811,296.082377,1838.629195
809.262741,-9844.739029,-296.082377,1762.019645
809.263062,-9918.759623,222.061783,153.219100
809.263382,-9622.677246,-962.267725,1225.752797
809.263703,-9400.615463,-888.247130,459.657299
809.264024,-9030.512492,-666.185348,-459.657299
809.264345,-9104.533087,-74.020594,-842.705048
809.264666,-8956.491898,-666.185348,-1378.971896
809.264986,-9178.553681,-1036.288319,-689.485948
809.265307,-9622.677246,-1036.288319,0.000000
809.265628,-9992.780217,-1332.370696,153.219100
809.265949,-10214.842000,-740.205942,1149.143247
809.266270,-10288.862594,-592.164754,1762.019645
809.266590,-9992.780217,0.000000,1608.800546
809.266911,-9548.656652,296.082377,1455.581446
809.267232,-9474.636058,148.041188,1455.581446
809.267553,-9252.574275,444.123565,1149.143247
809.267874,-9030.512492,74.020594,1455.581446
809.268194,-9178.553681,222.061783,1455.581446
809.268515,-9400.615463,74.020594,1915.238745
809.268836,-9622.677246,0.000000,2451.505594
809.269157,-9548.656652,0.000000,2374.896044
809.269478,-9696.697840,-296.082377,1915.238745
809.269798,-9992.780217,0.000000,1378.971896
809.270119,-9474.636058,-592.164754,536.266849
809.270440,-9474.636058,-518.144159,536.266849
809.270761,-9474.636058,-518.144159,153.219100
809.271082,-9992.780217,-370.102971,689.485948
809.271402,-9770.718434,-296.082377,1991.848295
809.271723,-9992.780217,-666.185348,1608.800546
809.272044,-10066.800811,-888.247130,1302.362347
809.272365,-9770.718434,-370.102971,1455.581446
809.272686,-9992.780217,-222.061783,1838.629195
809.273006,-9548.656652,0.000000,1838.629195
809.273327,-9474.636058,0.000000,1991.848295
809.273648,-9326.594869,-74.020594,1608.800546
809.273969,-9326.594869,-222.061783,1685.410096
809.274290,-9548.656652,74.020594,1302.362347
809.274610,-9622.677246,0.000000,2145.067394
809.274931,-9696.697840,74.020594,2068.457845
809.275252,-9548.656652,222.061783,1915.238745
809.275573,-9696.697840,0.000000,1608.800546
809.275894,-9548.656652,-222.061783,459.657299
809.276214,-9252.574275,-888.247130,-612.876398
809.276535,-9252.574275,-666.185348,-1455.581446
809.276856,-9104.533087,-370.102971,-2145.067394
809.277177,-9474.636058,-518.144159,-2145.067394
809.277498,-9622.677246,0.000000,-1378.971896
809.277818,-9992.780217,-666.185348,-536.266849
809.278139,-10066.800811,-1258.350101,-612.876398
809.278460,-10214.842000,-1184.329507,76.609550
809.278781,-9918.759623,-1036.288319,459.657299
809.279102,-9844.739029,-666.185348,1072.533697
809.279422,-9474.636058,0.000000,1225.752797
809.279743,-9178.553681,222.061783,995.924147
809.280064,-8808.450710,0.000000,842.705048
809.280385,-9474.636058,296.082377,1762.019645
809.280706,-9400.615463,74.020594,2451.505594
809.281026,-9474.636058,-222.061783,2451.505594
809.281347,-9400.615463,-1036.288319,2451.505594
809.281668,-9104.533087,-740.205942,2298.286494
809.281989,-9474.636058,-666.185348,1991.848295
809.282310,-9548.656652,-666.185348,2451.505594
809.282630,-9474.636058,-888.247130,1225.752797
809.282951,-9696.697840,-666.185348,1225.752797
809.283272,-10066.800811,-740.205942,1149.143247
809.283593,-9844.739029,-592.164754,1532.190996
809.283914,-10214.842000,-962.267725,1915.238745
809.284234,-9548.656652,-962.267725,1762.019645
809.284555,-9770.718434,-666.185348,1455.581446
809.284876,-9548.656652,-592.164754,1915.238745
809.285197,-9770.718434,-814.226536,1762.019645
809.285518,-10066.800811,0.000000,1302.362347
809.285838,-9918.759623,0.000000,1838.629195
809.286159,-9474.636058,518.144159,2068.457845
809.286480,-9770.718434,518.144159,2298.286494
809.286801,-9548.656652,-296.082377,1532.190996
809.287122,-9622.677246,148.041188,2374.896044
809.287442,-9696.697840,0.000000,2221.676944
809.287763,-9548.656652,0.000000,1455.581446
809.288084,-9326.594869,-222.061783,919.314598
809.288405,-9326.594869,-296.082377,0.000000
809.288726,-9030.512492,-370.102971,-612.876398
809.289046,-9104.533087,-592.164754,-1225.752797
809.289367,-9400.615463,-740.205942,-1225.752797
809.289688,-9770.718434,-1110.308913,-612.876398
809.290009,-9696.697840,-1184.329507,0.000000
809.290330,-9696.697840,-1480.411884,459.657299
809.290650,-9992.780217,-1554.432478,919.314598
809.290971,-9400.615463,-1110.308913,1225.752797
809.291292,-9474.636058,-592.164754,1072.533697
809.291613,-9548.656652,0.000000,842.705048
809.291934,-9252.574275,666.185348,1072.533697
809.292254,-9104.533087,518.144159,842.705048
809.292575,-9326.594869,0.000000,459.657299
809.292896,-8586.388927,444.123565,919.314598
809.293217,-9844.739029,148.041188,1149.143247
809.293538,-9474.636058,296.082377,1149.143247
809.293858,-8956.491898,0.000000,306.438199
809.294179,-9548.656652,-222.061783,1149.143247
809.294500,-9178.553681,-518.144159,229.828649
809.294821,-9844.739029,-518.144159,153.219100
809.295142,-8660.409521,-888.247130,76.609550
809.295462,-9400.615463,-592.164754,-76.609550
809.295783,-9918.759623,-518.144159,689.485948
809.296104,-10066.800811,-962.267725,995.924147
809.296425,-10214.842000,-814.226536,1378.971896
809.296746,-10658.965565,-1036.288319,1991.848295
809.297066,-9918.759623,-888.247130,2221.676944
809.297387,-9992.780217,-740.205942,2374.896044
809.297708,-9844.739029,-592.164754,2451.505594
809.298029,-9474.636058,-148.041188,1685.410096
809.298349,-9252.574275,0.000000,2145.067394
809.298670,-9326.594869,74.020594,2298.286494
809.298991,-9548.656652,444.123565,2528.115143
809.299312,-9400.615463,222.061783,3907.087040
809.299633,-9696.697840,222.061783,2451.505594
809.299953,-9918.759623,74.020594,2604.724693
809.300274,-9548.656652,-370.102971,2374.896044
809.300595,-9770.718434,-592.164754,1378.971896
809.300916,-9326.594869,-740.205942,612.876398
809.301237,-9326.594869,-962.267725,-153.219100
809.301557,-9178.553681,-814.226536,-612.876398
809.301878,-9326.594869,-814.226536,-383.047749
809.302199,-9104.533087,-1036.288319,-306.438199
809.302520,-9770.718434,-962.267725,459.657299
809.302841,-9622.677246,-1110.308913,995.924147
809.303161,-10140.821405,-1110.308913,1532.190996
809.303482,-7772.162391,-1036.288319,1302.362347
809.303803,-9622.677246,-592.164754,1378.971896
809.304124,-9252.574275,148.041188,1072.533697
809.304444,-9178.553681,222.061783,995.924147
809.304765,-8956.491898,370.102971,689.485948
809.305086,-9252.574275,592.164754,919.314598
809.305407,-9252.574275,296.082377,995.924147
809.305727,-9474.636058,-222.061783,1302.362347
809.306048,-9622.677246,-518.144159,1532.190996
809.306369,-9918.759623,-740.205942,1225.752797
809.306690,-9548.656652,-518.144159,612.876398
809.307010,-9548.656652,-370.102971,0.000000
809.307331,-9548.656652,-148.041188,229.828649
809.307652,-9696.697840,-888.247130,-842.705048
809.307973,-9844.739029,-518.144159,-153.219100
809.308293,-9918.759623,-148.041188,229.828649
809.308614,-10436.903782,-518.144159,689.485948
809.308935,-10066.800811,-666.185348,995.924147
809.309256,-9844.739029,-148.041188,995.924147
809.309576,-9918.759623,222.061783,1302.362347
809.309897,-9770.718434,148.041188,1532.190996
809.310218,-9696.697840,74.020594,1378.971896
809.310539,-9992.780217,592.164754,2145.067394
809.310859,-9622.677246,0.000000,1685.410096
809.311180,-9548.656652,296.082377,2221.676944
809.311501,-9770.718434,74.020594,2451.505594
809.311822,-9474.636058,148.041188,2451.505594
809.312142,-9622.677246,0.000000,2528.115143
809.312463,-9622.677246,-814.226536,1915.238745
809.312784,-9474.636058,-814.226536,1225.752797
809.313105,-9178.553681,-1184.329507,383.047749
809.313425,-8734.430116,-888.247130,0.000000
809.313746,-9030.512492,-962.267725,-306.438199
809.314067,-9178.553681,-814.226536,-536.266849
809.314388,-9474.636058,-1036.288319,0.000000
809.314708,-10436.903782,-1036.288319,0.000000
809.315029,-9696.697840,-1332.370696,766.095498
809.315350,-9770.718434,-1332.370696,1608.800546
809.315671,-9992.780217,-740.205942,1991.848295
809.315991,-9548.656652,-444.123565,1455.581446
809.316312,-9030.512492,-222.061783,1762.019645
809.316633,-9104.533087,0.000000,1608.800546
809.316954,-9178.553681,444.123565,1762.019645
809.317274,-9474.636058,666.185348,1838.629195
809.317595,-9548.656652,148.041188,2145.067394
809.317916,-9770.718434,74.020594,2298.286494
809.318237,-9992.780217,0.000000,2298.286494
809.318557,-9696.697840,-148.041188,2145.067394
809.318878,-10140.821405,370.102971,1532.190996
809.319199,-9474.636058,-444.123565,689.485948
809.319520,-9474.636058,-518.144159,0.000000
809.319840,-9622.677246,0.000000,-536.266849
809.320161,-9992.780217,74.020594,0.000000
809.320482,-10288.862594,0.000000,153.219100
809.320803,-10066.800811,-444.123565,0.000000
809.321123,-9992.780217,-592.164754,153.219100
809.321444,-9770.718434,-592.164754,842.705048
809.321765,-9992.780217,-592.164754,1149.143247
809.322086,-9992.780217,-444.123565,1302.362347
809.322406,-9326.594869,-592.164754,995.924147
809.322727,-9252.574275,0.000000,612.876398
809.323048,-9178.553681,370.102971,459.657299
809.323369,-9770.718434,888.247130,1608.800546
809.323689,-9474.636058,962.267725,1685.410096
809.324010,-9474.636058,222.061783,1915.238745
809.324331,-9400.615463,518.144159,1762.019645
809.324652,-9770.718434,-222.061783,1455.581446
809.324972,-9400.615463,-370.102971,919.314598
809.325293,-9400.615463,-962.267725,459.657299
809.325614,-8882.471304,-962.267725,-612.876398
809.325935,-9030.512492,-962.267725,-919.314598
809.326255,-9252.574275,-888.247130,-689.485948
809.326576,-9474.636058,-814.226536,0.000000
809.326897,-9548.656652,-1110.308913,306.438199
809.327218,-8734.430116,-1258.350101,1762.019645
809.327538,-10066.800811,-1628.453072,1378.971896
809.327859,-10140.821405,-1036.288319,2068.457845
809.328180,-9696.697840,-888.247130,2068.457845
809.328501,-9548.656652,-444.123565,2068.457845
809.328821,-8956.491898,0.000000,1685.410096
809.329142,-9104.533087,370.102971,1991.848295
809.329463,-9474.636058,444.123565,1915.238745
809.329784,-9474.636058,148.041188,2068.457845
809.330104,-8956.491898,0.000000,2681.334243
809.330425,-9696.697840,-222.061783,2221.676944
809.330746,-9844.739029,-222.061783,2145.067394
809.331067,-9844.739029,-148.041188,1915.238745
809.331387,-9844.739029,222.061783,1225.752797
809.331708,-9770.718434,-444.123565,766.095498
809.332029,-9548.656652,-518.144159,0.000000
809.332350,-10214.842000,-444.123565,229.828649
809.332670,-9696.697840,-518.144159,612.876398
809.332991,-10362.883188,-592.164754,766.095498
809.333312,-9918.759623,-962.267725,1532.190996
809.333633,-10214.842000,-1110.308913,995.924147
809.333953,-9770.718434,-666.185348,1455.581446
809.334274,-9992.780217,-74.020594,2451.505594
809.334595,-9548.656652,0.000000,2298.286494
809.334916,-9622.677246,0.000000,1302.362347
809.335236,-9326.594869,518.144159,995.924147
809.335557,-9770.718434,1184.329507,919.314598
809.335878,-9622.677246,592.164754,1915.238745
809.336199,-9844.739029,444.123565,2298.286494
809.336519,-9622.677246,148.041188,2145.067394
809.336840,-9622.677246,-222.061783,1991.848295
809.337161,-9622.677246,-370.102971,1455.581446
809.337482,-9474.636058,-888.247130,689.485948
809.337802,-9326.594869,-666.185348,-383.047749
809.338123,-8808.450710,-814.226536,-1225.752797
809.338444,-8290.306550,-666.185348,-1302.362347
809.338765,-9030.512492,-888.247130,-1455.581446
809.339085,-9474.636058,-666.185348,-612.876398
809.339406,-9696.697840,-962.267725,0.000000
809.339727,-9918.759623,-1110.308913,153.219100
809.340048,-10066.800811,-1258.350101,1149.143247
809.340368,-9992.780217,-1184.329507,1532.190996
809.340689,-9548.656652,-814.226536,1762.019645
809.341010,-9474.636058,-370.102971,1378.971896
809.341331,-9030.512492,0.000000,1302.362347
809.341651,-8660.409521,148.041188,842.705048
809.341972,-9030.512492,666.185348,1149.143247
809.342293,-9252.574275,518.144159,1378.971896
809.342614,-9770.718434,370.102971,2451.505594
809.342934,-9770.718434,0.000000,1685.410096
809.343255,-10066.800811,0.000000,1915.238745
809.343576,-10066.800811,-592.164754,1378.971896
809.343897,-9400.615463,-1110.308913,1149.143247
809.344217,-9548.656652,-740.205942,229.828649
809.344538,-9622.677246,-592.164754,0.000000
809.344859,-9770.718434,-666.185348,229.828649
809.345180,-10066.800811,-666.185348,1072.533697
809.345500,-10288.862594,-740.205942,1225.752797
809.345821,-10066.800811,-962.267725,1225.752797
809.346142,-9844.739029,-666.185348,1302.362347
809.346463,-9770.718434,-518.144159,1838.629195
809.346783,-10288.862594,0.000000,2145.067394
809.347104,-9622.677246,0.000000,2221.676944
809.347425,-9622.677246,148.041188,1915.238745
809.347746,-9474.636058,296.082377,2221.676944
809.348066,-9474.636058,592.164754,2374.896044
809.348387,-9844.739029,740.205942,2834.553343
809.348708,-9770.718434,666.185348,2604.724693
809.349029,-9696.697840,0.000000,2298.286494
809.349349,-9474.636058,666.185348,3064.381992
809.349670,-9474.636058,-518.144159,1685.410096
809.349991,-9474.636058,-518.144159,0.000000
809.350312,-8660.409521,-370.102971,-842.705048
809.350632,-9178.553681,-740.205942,-1455.581446
809.350953,-8808.450710,-222.061783,-919.314598
809.351274,-9622.677246,-814.226536,76.609550
809.351595,-9844.739029,-1924.535449,536.266849
809.351915,-9548.656652,-1480.411884,919.314598
809.352236,-9622.677246,-1998.556043,1149.143247
809.352557,-9622.677246,-1036.288319,1455.581446
809.352878,-9622.677246,-1036.288319,1685.410096
809.353198,-9252.574275,-148.041188,1378.971896
809.353519,-8438.347739,0.000000,1991.848295
809.353840,-8882.471304,0.000000,689.485948
809.354161,-9252.574275,296.082377,1149.143247
809.354481,-9326.594869,296.082377,1455.581446
809.354802,-9548.656652,222.061783,1532.190996
809.355123,-9770.718434,74.020594,1762.019645
809.355444,-9918.759623,0.000000,1838.629195
809.355764,-9992.780217,-296.082377,1302.362347
809.356085,-9844.739029,-74.020594,1149.143247
809.356406,-9696.697840,-148.041188,-229.828649
809.356727,-9548.656652,-296.082377,-536.266849
809.357047,-9696.697840,0.000000,-76.609550
809.357368,-9770.718434,0.000000,306.438199
809.357689,-10732.986159,370.102971,689.485948
809.358010,-10066.800811,-740.205942,1149.143247
809.358330,-9770.718434,-962.267725,995.924147
809.358651,-9770.718434,-814.226536,1838.629195
809.358972,-10066.800811,-888.247130,1991.848295
809.359293,-9474.636058,0.000000,2451.505594
809.359613,-9474.636058,222.061783,1915.238745
809.359934,-9474.636058,592.164754,1685.410096
809.360255,-9252.574275,740.205942,1762.019645
809.360576,-9918.759623,518.144159,2068.457845
809.360896,-9696.697840,444.123565,2374.896044
809.361217,-9770.718434,0.000000,1991.848295
809.361538,-9474.636058,-148.041188,2145.067394
809.361859,-9548.656652,-666.185348,1378.971896
809.362179,-9548.656652,-1480.411884,842.705048
809.362500,-9104.533087,-1628.453072,-306.438199
809.362821,-9104.533087,-1258.350101,-766.095498
809.363142,-9178.553681,-1110.308913,-842.705048
809.363462,-9400.615463,-1184.329507,-229.828649
809.363783,-9844.739029,-1258.350101,306.438199
809.364104,-9770.718434,-1480.411884,306.438199
809.364425,-9622.677246,-1184.329507,995.924147
809.364745,-10140.821405,-592.164754,1455.581446
809.365066,-9548.656652,-592.164754,1762.019645
809.365387,-9622.677246,-148.041188,1608.800546
809.365708,-9400.615463,148.041188,1762.019645
809.366028,-9474.636058,0.000000,1302.362347
809.366349,-9326.594869,222.061783,1455.581446
809.366670,-9400.615463,296.082377,1838.629195
809.366991,-9770.718434,148.041188,2145.067394
809.367311,-9770.718434,148.041188,1762.019645
809.367632,-9474.636058,222.061783,1532.190996
809.367953,-9770.718434,74.020594,1225.752797
809.368274,-9696.697840,-222.061783,995.924147
809.368594,-9548.656652,-814.226536,306.438199
809.368915,-9992.780217,-666.185348,-306.438199
809.369236,-9844.739029,-592.164754,0.000000
809.369557,-10140.821405,-888.247130,76.609550
809.369877,-10066.800811,-1184.329507,689.485948
809.370198,-9474.636058,-814.226536,1072.533697
809.370519,-9770.718434,-1184.329507,536.266849
809.370840,-9770.718434,-814.226536,766.095498
809.371160,-9622.677246,-666.185348,1225.752797
809.371481,-9622.677246,-444.123565,3217.601092
809.371802,-9918.759623,0.000000,1532.190996
809.372123,-9548.656652,370.102971,1608.800546
809.372443,-9548.656652,74.020594,1991.848295
809.372764,-9844.739029,518.144159,2221.676944
809.373085,-9474.636058,444.123565,1991.848295
809.373406,-9622.677246,370.102971,2298.286494
809.373726,-9474.636058,444.123565,1838.629195
809.374047,-9474.636058,74.020594,1302.362347
809.374368,-8290.306550,74.020594,766.095498
809.374689,-9326.594869,0.000000,0.000000
809.375009,-9178.553681,-148.041188,-612.876398
809.375330,-8956.491898,-370.102971,-689.485948
809.375651,-9474.636058,-148.041188,-153.219100
809.375972,-9770.718434,-666.185348,459.657299
809.376292,-10066.800811,-1110.308913,612.876398
809.376613,-9696.697840,-1332.370696,995.924147
809.376934,-10140.821405,-740.205942,1302.362347
809.377255,-9770.718434,-666.185348,1762.019645
809.377575,-9474.636058,0.000000,1455.581446
809.377896,-9178.553681,518.144159,1455.581446
809.378217,-9030.512492,1036.288319,1072.533697
809.378538,-8956.491898,296.082377,306.438199
809.378858,-9178.553681,370.102971,1532.190996
809.379179,-9474.636058,296.082377,2068.457845
809.379500,-9770.718434,0.000000,2145.067394
809.379821,-9474.636058,-74.020594,2221.676944
809.380141,-9548.656652,-592.164754,1225.752797
809.380462,-9622.677246,0.000000,1225.752797
809.380783,-9548.656652,-740.205942,766.095498
809.381104,-9400.615463,-1110.308913,0.000000
809.381424,-9474.636058,-1258.350101,76.609550
809.381745,-9474.636058,-962.267725,-306.438199
809.382066,-9992.780217,-1184.329507,612.876398
809.382387,-9770.718434,-1036.288319,1072.533697
809.382707,-9474.636058,-1258.350101,1455.581446
809.383028,-9400.615463,-592.164754,1225.752797
809.383349,-9992.780217,-1110.308913,1685.410096
809.383670,-9770.718434,-740.205942,2221.676944
809.383990,-9770.718434,-740.205942,1915.238745
809.384311,-9474.636058,74.020594,1685.410096
809.384632,-9474.636058,518.144159,1915.238745
809.384953,-9622.677246,666.185348,1915.238745
809.385273,-10066.800811,1332.370696,2145.067394
809.385594,-9844.739029,888.247130,2068.457845
809.385915,-9474.636058,740.205942,1762.019645
809.386236,-9622.677246,0.000000,1838.629195
809.386556,-9622.677246,-296.082377,1225.752797
809.386877,-9326.594869,-814.226536,306.438199
809.387198,-9326.594869,-666.185348,-689.485948
809.387519,-9104.533087,-962.267725,-995.924147
809.387839,-9400.615463,-518.144159,-842.705048
809.388160,-9696.697840,222.061783,-689.485948
809.388481,-10140.821405,-888.247130,536.266849
809.388802,-10140.821405,-1110.308913,612.876398
809.389122,-9992.780217,-962.267725,1378.971896
809.389443,-10066.800811,-1480.411884,1455.581446
809.389764,-9400.615463,-814.226536,1915.238745
809.390085,-9474.636058,-740.205942,1225.752797
809.390405,-9104.533087,-222.061783,995.924147
809.390726,-9030.512492,-222.061783,766.095498
