#time,accel_x,accel_y,accel_z
876.393686,-10140.821405,-2368.659014,-612.876398
876.394007,-10140.821405,-2146.597232,-689.485948
876.394328,-9844.739029,-1406.391290,-306.438199
876.394648,-10140.821405,-1184.329507,383.047749
876.394969,-10066.800811,-1258.350101,612.876398
876.395289,-9548.656652,-1406.391290,842.705048
876.395610,-9474.636058,-1258.350101,383.047749
876.395931,-9474.636058,0.000000,0.000000
876.396251,-8956.491898,-592.164754,766.095498
876.396572,-8956.491898,-518.144159,919.314598
876.396892,-9178.553681,-148.041188,612.876398
876.397213,-9696.697840,-814.226536,612.876398
876.397534,-9770.718434,-1036.288319,0.000000
876.397854,-10140.821405,-888.247130,76.609550
876.398175,-10436.903782,-296.082377,459.657299
876.398495,-10362.883188,0.000000,612.876398
876.398816,-9992.780217,-222.061783,612.876398
876.399136,-10214.842000,-814.226536,612.876398
876.399457,-9622.677246,-888.247130,459.657299
876.399778,-9474.636058,-1406.391290,76.609550
876.400098,-8956.491898,-962.267725,2068.457845
876.400419,-8882.471304,-1554.432478,0.000000
876.400739,-8660.409521,-1850.514855,-153.219100
876.401060,-9030.512492,-2220.617826,-459.657299
876.401381,-9104.533087,-2368.659014,-766.095498
876.401701,-8808.450710,-2516.700203,-1225.752797
876.402022,-9474.636058,-2590.720797,-1838.629195
876.402342,-9770.718434,-2664.741391,-1685.410096
876.402663,-9844.739029,-2960.823768,-2451.505594
876.402984,-10066.800811,-2220.617826,-3064.381992
876.403304,-9770.718434,-2886.803174,-3600.648841
876.403625,-9992.780217,-3478.967927,-3907.087040
876.403945,-9474.636058,-3182.885551,-4290.134789
876.404266,-9548.656652,-3478.967927,-4903.011187
876.404587,-8956.491898,-4071.132681,-4136.915689
876.404907,-8734.430116,-4367.215058,-4290.134789
876.405228,-8808.450710,-4367.215058,-3830.477490
876.405548,-9252.574275,-4515.256246,-3524.039291
876.405869,-9252.574275,-4663.297435,-3140.991542
876.406190,-9400.615463,-4515.256246,-3600.648841
876.406510,-9474.636058,-4663.297435,-3447.429741
876.406831,-9326.594869,-4293.194464,-3370.820191
876.407151,-9622.677246,-3627.009116,-3830.477490
876.407472,-9326.594869,-3701.029710,-3907.087040
876.407793,-9622.677246,-3552.988522,-3830.477490
876.408113,-9474.636058,-3034.844362,-3294.210641
876.408434,-10066.800811,-3182.885551,-2451.505594
876.408754,-10214.842000,-2812.782580,-1225.752797
876.409075,-10362.883188,-3182.885551,-689.485948
876.409395,-10214.842000,-3478.967927,0.000000
876.409716,-9844.739029,-3552.988522,229.828649
876.410037,-9770.718434,-3849.070898,76.609550
876.410357,-9548.656652,-3923.091493,229.828649
876.410678,-9400.615463,-4293.194464,-689.485948
876.410998,-8956.491898,-4515.256246,-1455.581446
876.411319,-9030.512492,-4589.276840,-1302.362347
876.411640,-9400.615463,-4293.194464,-1532.190996
876.411960,-9770.718434,-4367.215058,-995.924147
876.412281,-10214.842000,-4589.276840,-919.314598
876.412601,-9770.718434,-4663.297435,-689.485948
876.412922,-10510.924376,-4737.318029,-306.438199
876.413243,-10807.006753,-4589.276840,383.047749
876.413563,-10510.924376,-3849.070898,766.095498
876.413884,-9918.759623,-3256.906145,1302.362347
876.414204,-9548.656652,-2886.803174,1685.410096
876.414525,-9474.636058,-2294.638420,1991.848295
876.414846,-9474.636058,-1998.556043,2451.505594
876.415166,-8956.491898,-1850.514855,2145.067394
876.415487,-8216.285956,-1110.308913,1838.629195
876.415807,-8660.409521,-1850.514855,0.000000
876.416128,-8290.306550,-2294.638420,-459.657299
876.416449,-8364.327145,-2812.782580,-1302.362347
876.416769,-7920.203579,-3923.091493,-1532.190996
876.417090,-9474.636058,-3256.906145,-1915.238745
876.417410,-10362.883188,-2146.597232,-2374.896044
876.417731,-10807.006753,-962.267725,-2221.676944
876.418052,-10732.986159,74.020594,-1762.019645
876.418372,-10658.965565,1110.308913,-766.095498
876.418693,-10955.047942,1554.432478,0.000000
876.419014,-10288.862594,1258.350101,306.438199
876.419334,-10066.800811,-296.082377,-459.657299
876.419655,-8956.491898,-740.205942,-1532.190996
876.419976,-8216.285956,-814.226536,-2298.286494
876.420296,-7698.141797,0.000000,-2298.286494
876.420617,-8290.306550,-148.041188,-2604.724693
876.420938,-7772.162391,222.061783,-1302.362347
876.421258,-9030.512492,-814.226536,-3447.429741
876.421579,-9622.677246,-1480.411884,-3447.429741
876.421900,-10436.903782,-1776.494261,-2757.943793
876.422220,-10807.006753,-1258.350101,-1608.800546
876.422541,-11029.068536,-740.205942,-536.266849
876.422862,-10881.027347,444.123565,612.876398
876.423182,-11399.171507,-666.185348,766.095498
876.423503,-9992.780217,-444.123565,-306.438199
876.423824,-8438.347739,-148.041188,153.219100
876.424144,-8512.368333,370.102971,306.438199
876.424465,-8512.368333,0.000000,153.219100
876.424786,-7846.182985,-592.164754,-612.876398
876.425106,-7550.100608,-370.102971,-2068.457845
876.425427,-7772.162391,222.061783,-1532.190996
876.425748,-9326.594869,740.205942,383.047749
876.426068,-10288.862594,74.020594,2221.676944
876.426389,-11177.109724,-222.061783,2451.505594
876.426710,-11325.150913,-666.185348,2528.115143
876.427030,-11843.295072,-962.267725,2374.896044
876.427351,-10955.047942,-1110.308913,2451.505594
876.427672,-10881.027347,-1554.432478,2528.115143
876.427992,-9474.636058,-1184.329507,1302.362347
876.428313,-8660.409521,-2442.679609,306.438199
876.428634,-7846.182985,-2368.659014,0.000000
876.428954,-8364.327145,-962.267725,1378.971896
876.429275,-9252.574275,-370.102971,2451.505594
876.429596,-9696.697840,-296.082377,4979.620737
876.429917,-9696.697840,-1480.411884,4519.963438
876.430237,-9326.594869,-2442.679609,3294.210641
876.430558,-9622.677246,-2368.659014,2681.334243
876.430879,-9696.697840,-1406.391290,2757.943793
876.431199,-9918.759623,-1406.391290,2298.286494
876.431520,-9326.594869,-2146.597232,229.828649
876.431841,-8956.491898,-2590.720797,-1762.019645
876.432161,-8438.347739,-2812.782580,-3140.991542
876.432482,-10066.800811,-1184.329507,-536.266849
876.432803,-11103.089130,-888.247130,842.705048
876.433123,-10362.883188,-1480.411884,842.705048
876.433444,-9474.636058,-2072.576638,-766.095498
876.433765,-9030.512492,-1702.473667,-459.657299
876.434085,-9622.677246,-888.247130,306.438199
876.434406,-9400.615463,-296.082377,995.924147
876.434727,-8734.430116,-1036.288319,-689.485948
876.435047,-8364.327145,-814.226536,-2911.162892
876.435368,-8586.388927,-814.226536,-2145.067394
876.435689,-9474.636058,74.020594,-229.828649
876.436009,-10066.800811,1258.350101,1225.752797
876.436330,-9030.512492,666.185348,2068.457845
876.436651,-9844.739029,-370.102971,-229.828649
876.436971,-9992.780217,-740.205942,0.000000
876.437292,-10436.903782,-222.061783,1225.752797
876.437613,-10658.965565,-222.061783,1762.019645
876.437933,-9548.656652,-296.082377,919.314598
876.438254,-9252.574275,148.041188,-153.219100
876.438575,-9178.553681,1184.329507,0.000000
876.438895,-9844.739029,1258.350101,2374.896044
876.439216,-9696.697840,740.205942,4213.525239
876.439537,-9770.718434,-148.041188,2911.162892
876.439857,-9104.533087,-1332.370696,1455.581446
876.440178,-8364.327145,-666.185348,1762.019645
876.440499,-9104.533087,444.123565,2145.067394
876.440819,-9474.636058,148.041188,2681.334243
876.441140,-9400.615463,-518.144159,995.924147
876.441461,-9400.615463,-1184.329507,-306.438199
876.441781,-9326.594869,-296.082377,-459.657299
876.442102,-9992.780217,1184.329507,1838.629195
876.442423,-11917.315666,1332.370696,4290.134789
876.442743,-10436.903782,962.267725,3217.601092
876.443064,-9326.594869,0.000000,1915.238745
876.443385,-9770.718434,666.185348,2145.067394
876.443705,-9104.533087,1110.308913,2987.772442
876.444026,-9918.759623,1036.288319,3677.258390
876.444347,-9770.718434,592.164754,2528.115143
876.444667,-7105.977043,0.000000,0.000000
876.444988,-9104.533087,222.061783,229.828649
876.445309,-9178.553681,1406.391290,2221.676944
876.445629,-10881.027347,2294.638420,3447.429741
876.445950,-11251.130318,1998.556043,3447.429741
876.446271,-9622.677246,666.185348,919.314598
876.446592,-9696.697840,-370.102971,153.219100
876.446912,-10732.986159,-518.144159,1608.800546
876.447233,-9992.780217,-148.041188,919.314598
876.447554,-9770.718434,0.000000,0.000000
876.447874,-9030.512492,-148.041188,-919.314598
876.448195,-8586.388927,0.000000,-1225.752797
876.448516,-9844.739029,-222.061783,842.705048
876.448836,-9548.656652,0.000000,2604.724693
876.449157,-10066.800811,-1036.288319,2145.067394
876.449478,-9326.594869,-1258.350101,612.876398
876.449798,-8882.471304,-1776.494261,153.219100
876.450119,-9474.636058,-222.061783,459.657299
876.450440,-9326.594869,-444.123565,0.000000
876.450760,-8290.306550,296.082377,-1532.190996
876.451081,-7698.141797,0.000000,-4213.525239
876.451402,-8290.306550,-444.123565,-3753.867940
876.451722,-9474.636058,-74.020594,-1455.581446
876.452043,-10436.903782,-666.185348,689.485948
876.452364,-10732.986159,-1628.453072,1072.533697
876.452684,-9696.697840,-2368.659014,536.266849
876.453005,-9918.759623,-2220.617826,689.485948
876.453326,-10510.924376,-1110.308913,2451.505594
876.453646,-10214.842000,-814.226536,2681.334243
876.453967,-9400.615463,-1702.473667,1608.800546
876.454288,-8142.265362,-2664.741391,-229.828649
876.454608,-8290.306550,-2590.720797,-383.047749
876.454929,-9252.574275,-888.247130,3064.381992
876.455250,-10510.924376,-370.102971,3677.258390
876.455570,-10214.842000,0.000000,3524.039291
876.455891,-9548.656652,-814.226536,2451.505594
876.456212,-9770.718434,-518.144159,1991.848295
876.456532,-10288.862594,-518.144159,2987.772442
876.456853,-10362.883188,-444.123565,2834.553343
876.457174,-9622.677246,-666.185348,1915.238745
876.457494,-8660.409521,-888.247130,0.000000
876.457815,-10140.821405,222.061783,842.705048
876.458136,-9622.677246,148.041188,2451.505594
876.458456,-10214.842000,-370.102971,3677.258390
876.458777,-10362.883188,-1036.288319,3447.429741
876.459098,-9474.636058,-1554.432478,1838.629195
876.459418,-9844.739029,-1702.473667,1991.848295
876.459739,-9474.636058,-666.185348,2451.505594
876.460060,-9548.656652,0.000000,2451.505594
876.460380,-9252.574275,0.000000,842.705048
876.460701,-8660.409521,-740.205942,-1378.971896
876.461022,-8956.491898,-888.247130,-1378.971896
876.461342,-9696.697840,-370.102971,0.000000
876.461663,-10288.862594,0.000000,1378.971896
876.461984,-10288.862594,148.041188,2911.162892
876.462304,-9918.759623,-222.061783,919.314598
876.462625,-9622.677246,-148.041188,612.876398
876.462946,-9622.677246,0.000000,1225.752797
876.463267,-9474.636058,-296.082377,459.657299
876.463587,-8882.471304,-518.144159,-229.828649
876.463908,-8290.306550,148.041188,-1608.800546
876.464229,-8956.491898,592.164754,-1378.971896
876.464549,-9400.615463,1184.329507,612.876398
876.464870,-10436.903782,1184.329507,2451.505594
876.465191,-10288.862594,-814.226536,2374.896044
876.465511,-9992.780217,-2146.597232,306.438199
876.465832,-9622.677246,-1628.453072,229.828649
876.466153,-9326.594869,-444.123565,0.000000
876.466473,-10066.800811,1036.288319,995.924147
876.466794,-9326.594869,1110.308913,76.609550
876.467115,-8734.430116,518.144159,-1838.629195
876.467435,-9326.594869,518.144159,-2451.505594
876.467756,-9696.697840,370.102971,0.000000
876.468077,-10807.006753,666.185348,2374.896044
876.468397,-10807.006753,-370.102971,2374.896044
876.468718,-9696.697840,-1036.288319,1378.971896
876.469039,-9400.615463,-740.205942,459.657299
876.469359,-9548.656652,296.082377,1685.410096
876.469680,-10510.924376,740.205942,3217.601092
876.470001,-9474.636058,518.144159,1991.848295
876.470321,-8438.347739,-740.205942,0.000000
876.470642,-8882.471304,-814.226536,-306.438199
876.470963,-9474.636058,-370.102971,766.095498
876.471283,-10066.800811,222.061783,2681.334243
876.471604,-10732.986159,-814.226536,3140.991542
876.471925,-9696.697840,-1332.370696,995.924147
876.472245,-9622.677246,-1036.288319,919.314598
876.472566,-9252.574275,-962.267725,1225.752797
876.472887,-9918.759623,-222.061783,1838.629195
876.473207,-9696.697840,74.020594,1685.410096
876.473528,-8586.388927,-1184.329507,-229.828649
876.473849,-8216.285956,-1036.288319,-612.876398
876.474169,-9474.636058,-740.205942,919.314598
876.474490,-9474.636058,-740.205942,2604.724693
876.474811,-10066.800811,-888.247130,3064.381992
876.475131,-9548.656652,-1332.370696,2068.457845
876.475452,-8956.491898,-1110.308913,1455.581446
876.475773,-8956.491898,370.102971,3370.820191
876.476093,-9918.759623,0.000000,2221.676944
876.476414,-9178.553681,296.082377,1302.362347
876.476735,-8512.368333,-1036.288319,-842.705048
876.477055,-8438.347739,-1184.329507,-1455.581446
876.477376,-9400.615463,-148.041188,229.828649
876.477697,-10584.944971,-148.041188,1915.238745
876.478017,-10436.903782,0.000000,2757.943793
876.478338,-9770.718434,-296.082377,1072.533697
876.478659,-9178.553681,-814.226536,689.485948
876.478979,-9696.697840,0.000000,1149.143247
876.479300,-10066.800811,-148.041188,1532.190996
876.479621,-9548.656652,-444.123565,919.314598
876.479941,-8808.450710,-888.247130,-2298.286494
876.480262,-8660.409521,-962.267725,-1991.848295
876.480583,-9622.677246,222.061783,-766.095498
876.480904,-10807.006753,1406.391290,1532.190996
876.481224,-10732.986159,962.267725,1915.238745
876.481545,-10510.924376,370.102971,995.924147
876.481866,-10066.800811,0.000000,536.266849
876.482186,-10658.965565,0.000000,1302.362347
876.482507,-10732.986159,-222.061783,1838.629195
876.482828,-7994.224174,-666.185348,1762.019645
876.483148,-8956.491898,-592.164754,-689.485948
876.483469,-8586.388927,0.000000,-919.314598
876.483790,-9400.615463,296.082377,919.314598
876.484110,-9400.615463,1110.308913,1608.800546
876.484431,-10066.800811,-814.226536,2681.334243
876.484752,-9474.636058,-1702.473667,1302.362347
876.485072,-9474.636058,-1850.514855,919.314598
876.485393,-9474.636058,-1110.308913,1378.971896
876.485714,-9474.636058,-444.123565,2451.505594
876.486034,-9474.636058,-518.144159,1838.629195
876.486355,-8438.347739,-666.185348,-612.876398
876.486676,-9326.594869,-370.102971,0.000000
876.486996,-9696.697840,74.020594,1532.190996
876.487317,-9844.739029,0.000000,3064.381992
876.487638,-10066.800811,-370.102971,3907.087040
876.487958,-9548.656652,-888.247130,2757.943793
876.488279,-9474.636058,148.041188,1455.581446
876.488600,-9178.553681,0.000000,2681.334243
876.488920,-9474.636058,0.000000,3064.381992
876.489241,-8956.491898,296.082377,1838.629195
876.489562,-8882.471304,-370.102971,153.219100
876.489882,-8882.471304,0.000000,0.000000
876.490203,-9622.677246,740.205942,1149.143247
876.490524,-11029.068536,740.205942,3294.210641
876.490844,-10658.965565,-222.061783,3370.820191
876.491165,-10288.862594,-1258.350101,1991.848295
876.491486,-10214.842000,-1184.329507,536.266849
876.491806,-9548.656652,-740.205942,919.314598
876.492127,-10066.800811,0.000000,1072.533697
876.492448,-9622.677246,518.144159,1378.971896
876.492768,-8364.327145,0.000000,-2068.457845
876.493089,-8512.368333,-148.041188,-2374.896044
876.493410,-9326.594869,-148.041188,-383.047749
876.493730,-10881.027347,-296.082377,3064.381992
876.494051,-10732.986159,-296.082377,1685.410096
876.494372,-10362.883188,-666.185348,1378.971896
876.494692,-9918.759623,-666.185348,459.657299
876.495013,-9918.759623,0.000000,842.705048
876.495334,-9844.739029,296.082377,1455.581446
876.495654,-9400.615463,-296.082377,229.828649
876.495975,-8216.285956,-740.205942,-1991.848295
876.496296,-8512.368333,-888.247130,-1991.848295
876.496616,-8364.327145,518.144159,-383.047749
876.496937,-10584.944971,444.123565,2298.286494
876.497258,-10510.924376,148.041188,3064.381992
876.497579,-9548.656652,-740.205942,1915.238745
876.497899,-9918.759623,-1554.432478,1302.362347
876.498220,-9770.718434,-1036.288319,1685.410096
876.498541,-9474.636058,-296.082377,1608.800546
876.498861,-9252.574275,-296.082377,1072.533697
876.499182,-7550.100608,-592.164754,-842.705048
876.499503,-8216.285956,-1480.411884,-1838.629195
876.499823,-8882.471304,-1110.308913,-383.047749
876.500144,-10436.903782,-518.144159,1838.629195
876.500465,-10066.800811,-444.123565,2834.553343
876.500785,-9474.636058,-1628.453072,2451.505594
876.501106,-9696.697840,-1406.391290,1608.800546
876.501427,-9474.636058,-1258.350101,1608.800546
876.501747,-9992.780217,-370.102971,2604.724693
876.502068,-9622.677246,-666.185348,1838.629195
876.502389,-8882.471304,-962.267725,0.000000
876.502709,-9474.636058,-1184.329507,-229.828649
876.503030,-9326.594869,-222.061783,842.705048
876.503351,-10362.883188,0.000000,2681.334243
876.503671,-10881.027347,444.123565,4290.134789
876.503992,-10288.862594,-814.226536,2604.724693
876.504313,-9992.780217,-518.144159,1915.238745
876.504633,-10140.821405,0.000000,1838.629195
876.504954,-10066.800811,1036.288319,2221.676944
876.505275,-9326.594869,-370.102971,76.609550
876.505595,-7994.224174,0.000000,-1225.752797
876.505916,-8586.388927,370.102971,-2145.067394
876.506237,-9548.656652,962.267725,1149.143247
876.506557,-11029.068536,962.267725,2911.162892
876.506878,-11547.212695,296.082377,4136.915689
876.507199,-11103.089130,-814.226536,2834.553343
876.507519,-9918.759623,-814.226536,2145.067394
876.507840,-9178.553681,0.000000,1915.238745
876.508161,-9844.739029,518.144159,2221.676944
876.508481,-8956.491898,888.247130,1149.143247
876.508802,-8364.327145,0.000000,-995.924147
876.509123,-8290.306550,-370.102971,-1608.800546
876.509443,-8956.491898,296.082377,-383.047749
876.509764,-9918.759623,740.205942,2221.676944
876.510085,-11177.109724,-666.185348,3064.381992
876.510405,-9696.697840,-888.247130,2068.457845
876.510726,-9548.656652,-74.020594,612.876398
876.511047,-9918.759623,444.123565,1608.800546
876.511367,-9992.780217,296.082377,766.095498
876.511688,-8216.285956,962.267725,306.438199
876.512009,-8956.491898,296.082377,-1302.362347
876.512329,-7624.121203,-370.102971,-2298.286494
876.512650,-9030.512492,-1036.288319,-1072.533697
876.512971,-10732.986159,-370.102971,1991.848295
876.513291,-9844.739029,-962.267725,2068.457845
876.513612,-10140.821405,-1480.411884,1685.410096
876.513933,-9326.594869,-592.164754,1302.362347
876.514254,-9474.636058,-296.082377,1149.143247
876.514574,-11103.089130,1184.329507,1762.019645
876.514895,-9326.594869,-222.061783,1685.410096
876.515216,-8290.306550,-666.185348,-1225.752797
876.515536,-9252.574275,-740.205942,-919.314598
876.515857,-9030.512492,74.020594,459.657299
876.516178,-10362.883188,740.205942,2757.943793
876.516498,-11325.150913,296.082377,3830.477490
876.516819,-10066.800811,-518.144159,2298.286494
876.517140,-9992.780217,-962.267725,1225.752797
876.517460,-10362.883188,-1110.308913,1149.143247
876.517781,-9622.677246,0.000000,1915.238745
876.518102,-9474.636058,-444.123565,1149.143247
876.518423,-8512.368333,-1036.288319,-689.485948
876.518744,-8290.306550,-740.205942,-1685.410096
876.519064,-9622.677246,-1258.350101,0.000000
876.519385,-10510.924376,-370.102971,2451.505594
876.519706,-11103.089130,-592.164754,3140.991542
876.520027,-10807.006753,-1480.411884,2451.505594
876.520348,-9918.759623,-1924.535449,1455.581446
876.520668,-9770.718434,-1628.453072,995.924147
876.520989,-9622.677246,-1110.308913,1149.143247
876.521310,-8734.430116,-222.061783,459.657299
876.521631,-8364.327145,-296.082377,-1225.752797
876.521952,-8068.244768,-666.185348,-2298.286494
876.522272,-8438.347739,0.000000,-612.876398
876.522593,-9326.594869,222.061783,1455.581446
876.522914,-10510.924376,74.020594,2451.505594
876.523235,-9696.697840,-518.144159,2681.334243
876.523556,-9844.739029,-888.247130,1838.629195
876.523876,-10066.800811,0.000000,2068.457845
876.524197,-10510.924376,148.041188,2987.772442
876.524518,-9844.739029,0.000000,1762.019645
876.524839,-8586.388927,-518.144159,0.000000
876.525160,-8364.327145,-1036.288319,-1608.800546
876.525480,-8956.491898,-962.267725,-459.657299
876.525801,-9252.574275,-148.041188,1608.800546
876.526122,-9770.718434,0.000000,2298.286494
876.526443,-9696.697840,-296.082377,1608.800546
876.526764,-9696.697840,-666.185348,1225.752797
876.527084,-9844.739029,0.000000,459.657299
876.527405,-10732.986159,74.020594,2298.286494
876.527726,-9844.739029,-296.082377,2298.286494
876.528047,-9252.574275,-666.185348,383.047749
876.528368,-8956.491898,-740.205942,-995.924147
876.528689,-8808.450710,0.000000,459.657299
876.529009,-9770.718434,592.164754,1685.410096
876.529330,-10066.800811,74.020594,2221.676944
876.529651,-10140.821405,-1184.329507,1149.143247
876.529972,-8808.450710,-1554.432478,0.000000
876.530293,-9992.780217,-888.247130,536.266849
876.530613,-10214.842000,148.041188,1685.410096
876.530934,-10362.883188,0.000000,1685.410096
876.531255,-9992.780217,518.144159,76.609550
876.531576,-9400.615463,-1036.288319,-1225.752797
876.531897,-9474.636058,-888.247130,-689.485948
876.532217,-10436.903782,222.061783,1149.143247
876.532538,-10807.006753,222.061783,2987.772442
876.532859,-9918.759623,370.102971,1455.581446
876.533180,-9548.656652,-370.102971,612.876398
876.533501,-9030.512492,-666.185348,919.314598
876.533821,-9474.636058,370.102971,1685.410096
876.534142,-10362.883188,74.020594,2374.896044
876.534463,-8882.471304,-592.164754,306.438199
876.534784,-9104.533087,0.000000,-383.047749
876.535105,-9178.553681,0.000000,306.438199
876.535425,-9918.759623,148.041188,1838.629195
876.535746,-10584.944971,0.000000,3447.429741
876.536067,-9992.780217,-888.247130,2298.286494
876.536388,-9252.574275,-1258.350101,536.266849
876.536709,-9400.615463,-814.226536,995.924147
876.537029,-9770.718434,-370.102971,1302.362347
876.537350,-9326.594869,0.000000,1378.971896
876.537671,-8808.450710,-444.123565,-306.438199
876.537992,-8438.347739,-814.226536,-995.924147
876.538313,-9696.697840,0.000000,-306.438199
876.538633,-10584.944971,-518.144159,2451.505594
876.538954,-10584.944971,-296.082377,3600.648841
876.539275,-9844.739029,-592.164754,2681.334243
876.539596,-9548.656652,-518.144159,766.095498
876.539917,-9326.594869,0.000000,1149.143247
876.540237,-9400.615463,962.267725,1149.143247
876.540558,-9326.594869,1628.453072,1072.533697
876.540879,-8216.285956,1184.329507,-383.047749
876.541200,-8660.409521,592.164754,-2451.505594
876.541521,-9252.574275,962.267725,-842.705048
876.541841,-10362.883188,1036.288319,1302.362347
876.542162,-10807.006753,518.144159,3294.210641
876.542483,-9622.677246,-1184.329507,2145.067394
876.542804,-10510.924376,-1332.370696,1455.581446
876.543125,-10362.883188,-962.267725,1455.581446
876.543445,-10510.924376,296.082377,2145.067394
876.543766,-10066.800811,814.226536,383.047749
876.544087,-9548.656652,296.082377,229.828649
876.544408,-8882.471304,-592.164754,-1302.362347
876.544729,-8734.430116,-740.205942,-1455.581446
876.545050,-9400.615463,-1332.370696,383.047749
876.545370,-9770.718434,-1406.391290,2068.457845
876.545691,-9770.718434,-1924.535449,1532.190996
876.546012,-9622.677246,-1628.453072,689.485948
876.546333,-9548.656652,-962.267725,1225.752797
876.546654,-9548.656652,0.000000,1149.143247
876.546974,-9844.739029,-296.082377,2068.457845
876.547295,-8660.409521,-666.185348,612.876398
876.547616,-8438.347739,-962.267725,-766.095498
876.547937,-8808.450710,-592.164754,0.000000
876.548258,-9548.656652,-296.082377,1838.629195
876.548578,-10436.903782,-444.123565,3447.429741
876.548899,-10214.842000,-888.247130,2604.724693
876.549220,-9696.697840,-1184.329507,1455.581446
876.549541,-9252.574275,-888.247130,1455.581446
876.549862,-9400.615463,-518.144159,1225.752797
876.550182,-9696.697840,-148.041188,1608.800546
876.550503,-9030.512492,-518.144159,76.609550
876.550824,-8734.430116,-592.164754,-383.047749
876.551145,-8956.491898,-296.082377,-689.485948
876.551466,-10214.842000,0.000000,1149.143247
876.551786,-11029.068536,148.041188,3064.381992
876.552107,-10436.903782,0.000000,2451.505594
876.552428,-9696.697840,-814.226536,1455.581446
876.552749,-9770.718434,-148.041188,1685.410096
876.553070,-10140.821405,0.000000,2451.505594
876.553390,-10362.883188,74.020594,2451.505594
876.553711,-8956.491898,-740.205942,842.705048
876.554032,-8216.285956,-888.247130,-1149.143247
876.554353,-8808.450710,-444.123565,-153.219100
876.554674,-9844.739029,222.061783,2068.457845
876.554994,-10584.944971,0.000000,1685.410096
876.555315,-10658.965565,-370.102971,2528.115143
876.555636,-9622.677246,-1036.288319,995.924147
876.555957,-10140.821405,-740.205942,842.705048
876.556278,-9918.759623,0.000000,1838.629195
876.556598,-9992.780217,222.061783,1915.238745
876.556919,-8660.409521,0.000000,153.219100
876.557240,-8438.347739,-1036.288319,-1685.410096
876.557561,-8808.450710,-666.185348,-842.705048
876.557882,-10436.903782,-370.102971,536.266849
876.558202,-10436.903782,370.102971,2528.115143
876.558523,-9770.718434,-370.102971,1991.848295
876.558844,-9548.656652,-592.164754,536.266849
876.559165,-9252.574275,-1554.432478,306.438199
876.559486,-9770.718434,0.000000,1149.143247
876.559806,-9844.739029,-148.041188,1302.362347
876.560127,-8882.471304,0.000000,-612.876398
876.560448,-8512.368333,-888.247130,-2221.676944
876.560769,-8808.450710,0.000000,-1532.190996
876.561090,-9696.697840,296.082377,995.924147
876.561411,-10288.862594,814.226536,2681.334243
876.561731,-10362.883188,-148.041188,2068.457845
876.562052,-9252.574275,-814.226536,1455.581446
876.562373,-9918.759623,-962.267725,919.314598
876.562694,-9400.615463,-370.102971,1685.410096
876.563015,-9622.677246,-296.082377,1608.800546
876.563335,-8586.388927,0.000000,76.609550
876.563656,-8512.368333,-444.123565,-1149.143247
876.563977,-8438.347739,-592.164754,-1072.533697
876.564298,-10140.821405,370.102971,1225.752797
876.564619,-10658.965565,814.226536,2834.553343
876.564939,-10732.986159,222.061783,2374.896044
876.565260,-9844.739029,-962.267725,1838.629195
876.565581,-9844.739029,-1332.370696,1455.581446
876.565902,-9548.656652,-1184.329507,1838.629195
876.566223,-10584.944971,-888.247130,229.828649
876.566543,-8882.471304,-740.205942,536.266849
876.566864,-8808.450710,-1036.288319,-1149.143247
876.567185,-9178.553681,0.000000,153.219100
876.567506,-9844.739029,296.082377,2298.286494
876.567827,-10732.986159,444.123565,3294.210641
876.568147,-10732.986159,0.000000,3064.381992
876.568468,-9770.718434,-518.144159,1838.629195
876.568789,-9844.739029,-1036.288319,1608.800546
876.569110,-9622.677246,-370.102971,1838.629195
876.569431,-9770.718434,-148.041188,1762.019645
876.569751,-9104.533087,-370.102971,612.876398
876.570072,-8364.327145,-518.144159,-1072.533697
876.570393,-9104.533087,-296.082377,-612.876398
876.570714,-9844.739029,0.000000,689.485948
876.571035,-10362.883188,0.000000,1915.238745
876.571355,-9844.739029,-370.102971,2221.676944
876.571676,-9400.615463,-1924.535449,1838.629195
876.571997,-9474.636058,-1036.288319,1762.019645
876.572318,-9844.739029,-444.123565,2221.676944
876.572639,-10140.821405,296.082377,2374.896044
876.572959,-8438.347739,1184.329507,919.314598
876.573280,-9178.553681,148.041188,-995.924147
876.573601,-8512.368333,666.185348,-229.828649
876.573922,-9622.677246,518.144159,1378.971896
876.574243,-10288.862594,0.000000,2451.505594
876.574563,-9622.677246,-444.123565,3217.601092
876.574884,-10140.821405,-740.205942,995.924147
876.575205,-9696.697840,-666.185348,919.314598
876.575526,-9918.759623,74.020594,1378.971896
876.575847,-9030.512492,1110.308913,383.047749
876.576168,-9178.553681,0.000000,0.000000
876.576488,-8808.450710,-296.082377,-1762.019645
876.576809,-9030.512492,-592.164754,-995.924147
876.577130,-10066.800811,-148.041188,766.095498
876.577451,-10584.944971,296.082377,2451.505594
876.577772,-10881.027347,-592.164754,2374.896044
876.578092,-10288.862594,-518.144159,1149.143247
876.578413,-9918.759623,-296.082377,1302.362347
876.578734,-10288.862594,444.123565,2298.286494
876.579055,-10140.821405,370.102971,1991.848295
876.579376,-9030.512492,0.000000,229.828649
876.579696,-8290.306550,-1110.308913,-1685.410096
876.580017,-7772.162391,-444.123565,-1532.190996
876.580338,-9400.615463,-592.164754,536.266849
876.580659,-9844.739029,-444.123565,3294.210641
876.580980,-10362.883188,-1332.370696,2221.676944
876.581300,-10140.821405,-1628.453072,1455.581446
876.581621,-9474.636058,-1554.432478,1072.533697
876.581942,-10214.842000,-370.102971,2757.943793
876.582263,-10214.842000,-444.123565,3140.991542
876.582584,-9178.553681,-814.226536,1455.581446
876.582904,-8512.368333,-1332.370696,-1149.143247
876.583225,-8364.327145,-1776.494261,-919.314598
876.583546,-9548.656652,-1036.288319,1455.581446
876.583867,-10362.883188,-518.144159,2757.943793
876.584188,-9696.697840,-222.061783,4826.401637
876.584508,-9770.718434,-222.061783,1838.629195
876.584829,-9474.636058,-222.061783,1532.190996
876.585150,-10066.800811,222.061783,1915.238745
876.585471,-9844.739029,370.102971,2528.115143
876.585792,-8734.430116,-296.082377,842.705048
876.586112,-8364.327145,-592.164754,-1225.752797
876.586433,-8882.471304,-592.164754,-842.705048
876.586754,-9548.656652,518.144159,1149.143247
876.587075,-10214.842000,814.226536,2987.772442
876.587396,-10362.883188,0.000000,2451.505594
876.587716,-9992.780217,-814.226536,1225.752797
876.588037,-9696.697840,-1406.391290,766.095498
876.588358,-9696.697840,-1258.350101,2145.067394
876.588679,-9548.656652,-444.123565,1762.019645
876.589000,-9104.533087,-740.205942,0.000000
876.589320,-8364.327145,-740.205942,-1838.629195
876.589641,-8660.409521,-518.144159,-1225.752797
876.589962,-9770.718434,444.123565,766.095498
876.590283,-10732.986159,444.123565,2145.067394
876.590604,-10658.965565,0.000000,2604.724693
876.590924,-9844.739029,-888.247130,1225.752797
876.591245,-9770.718434,-1332.370696,0.000000
876.591566,-9474.636058,-888.247130,995.924147
876.591887,-9474.636058,-222.061783,612.876398
876.592208,-8734.430116,148.041188,-612.876398
876.592529,-8290.306550,-222.061783,-2298.286494
876.592849,-8438.347739,592.164754,-2528.115143
876.593170,-9474.636058,814.226536,-153.219100
876.593491,-10066.800811,222.061783,2068.457845
876.593812,-10288.862594,-814.226536,2451.505594
876.594133,-9844.739029,-1776.494261,1532.190996
876.594453,-10066.800811,-888.247130,1532.190996
876.594774,-10807.006753,0.000000,2757.943793
876.595095,-10510.924376,518.144159,2681.334243
876.595416,-9770.718434,444.123565,1685.410096
876.595737,-8586.388927,-370.102971,-919.314598
876.596057,-8586.388927,-296.082377,-1225.752797
876.596378,-9474.636058,0.000000,536.266849
876.596699,-10214.842000,370.102971,1762.019645
876.597020,-9548.656652,-592.164754,2528.115143
876.597341,-9474.636058,-1036.288319,1915.238745
876.597661,-9622.677246,-888.247130,1532.190996
876.597982,-10140.821405,0.000000,2987.772442
876.598303,-10510.924376,-518.144159,3140.991542
876.598624,-9696.697840,-666.185348,2145.067394
876.598945,-9104.533087,-1332.370696,-459.657299
876.599265,-8734.430116,-296.082377,-229.828649
876.599586,-9474.636058,-148.041188,1072.533697
876.599907,-10584.944971,1406.391290,3064.381992
876.600228,-10510.924376,592.164754,2681.334243
876.600549,-9696.697840,74.020594,689.485948
876.600869,-9770.718434,-148.041188,76.609550
876.601190,-9992.780217,-296.082377,1225.752797
876.601511,-9622.677246,-518.144159,1838.629195
876.601832,-9548.656652,-814.226536,612.876398
876.602153,-8216.285956,-592.164754,-689.485948
876.602473,-9178.553681,-962.267725,-842.705048
876.602794,-9474.636058,74.020594,842.705048
876.603115,-11177.109724,444.123565,3370.820191
876.603436,-10288.862594,-370.102971,3064.381992
876.603757,-9992.780217,-666.185348,995.924147
876.604077,-9178.553681,-148.041188,1149.143247
876.604398,-9474.636058,-222.061783,1608.800546
876.604719,-9326.594869,518.144159,1991.848295
876.605040,-9400.615463,0.000000,766.095498
876.605361,-7994.224174,-740.205942,-2221.676944
876.605681,-8586.388927,0.000000,-1838.629195
876.606002,-9252.574275,814.226536,612.876398
876.606323,-10584.944971,222.061783,2528.115143
876.606644,-10214.842000,-296.082377,2911.162892
876.606965,-9474.636058,-1924.535449,1149.143247
876.607285,-9474.636058,-1924.535449,612.876398
876.607606,-9400.615463,-1110.308913,1225.752797
876.607927,-8956.491898,-222.061783,1685.410096
876.608248,-9030.512492,0.000000,689.485948
876.608569,-8512.368333,-222.061783,-1302.362347
876.608890,-9104.533087,0.000000,-1149.143247
876.609210,-9770.718434,-518.144159,689.485948
876.609531,-10732.986159,-370.102971,2451.505594
876.609852,-10881.027347,-814.226536,3217.601092
876.610173,-9992.780217,-1258.350101,2145.067394
876.610494,-10288.862594,-740.205942,2528.115143
876.610814,-10214.842000,-666.185348,2374.896044
876.611135,-9696.697840,-296.082377,1838.629195
876.611456,-9548.656652,-222.061783,766.095498
876.611777,-8586.388927,-444.123565,-1378.971896
876.612098,-7179.997637,74.020594,-1302.362347
876.612418,-9326.594869,518.144159,229.828649
876.612739,-9770.718434,222.061783,1455.581446
876.613060,-10140.821405,-1110.308913,1838.629195
876.613381,-10066.800811,-2220.617826,1302.362347
876.613702,-9178.553681,-2072.576638,459.657299
876.614022,-10288.862594,-1184.329507,1685.410096
876.614343,-10436.903782,-296.082377,2911.162892
876.614664,-9770.718434,0.000000,1532.190996
876.614985,-9474.636058,-888.247130,-536.266849
876.615306,-9400.615463,-666.185348,-612.876398
876.615626,-9770.718434,-518.144159,612.876398
876.615947,-10807.006753,-222.061783,2145.067394
876.616268,-9696.697840,0.000000,3677.258390
876.616589,-9474.636058,-1036.288319,1149.143247
876.616910,-8956.491898,-1406.391290,0.000000
876.617230,-9030.512492,-740.205942,766.095498
876.617551,-9400.615463,148.041188,1378.971896
876.617872,-9030.512492,592.164754,536.266849
876.618193,-8216.285956,148.041188,-1072.533697
876.618514,-8364.327145,222.061783,-1149.143247
876.618834,-9696.697840,518.144159,766.095498
876.619155,-10510.924376,296.082377,3294.210641
876.619476,-10362.883188,-296.082377,2834.553343
876.619797,-9918.759623,-1184.329507,2068.457845
876.620118,-9400.615463,-666.185348,1072.533697
876.620438,-9770.718434,740.205942,306.438199
876.620759,-9992.780217,518.144159,1915.238745
876.621079,-9474.636058,888.247130,689.485948
876.621400,-8364.327145,-222.061783,-1302.362347
876.621721,-8660.409521,-444.123565,-1608.800546
876.622041,-9400.615463,0.000000,0.000000
876.622362,-10584.944971,-222.061783,2451.505594
876.622683,-10510.924376,-592.164754,2757.943793
876.623003,-9696.697840,-814.226536,1991.848295
876.623324,-9400.615463,0.000000,842.705048
876.623645,-10140.821405,222.061783,2298.286494
876.623965,-10510.924376,1036.288319,2451.505594
876.624286,-9474.636058,148.041188,1225.752797
876.624607,-8364.327145,-222.061783,-229.828649
876.624927,-8882.471304,-592.164754,-1302.362347
876.625248,-9030.512492,0.000000,766.095498
876.625569,-10288.862594,-740.205942,2604.724693
876.625889,-9696.697840,-370.102971,2604.724693
876.626210,-10362.883188,-1850.514855,1455.581446
876.626531,-9548.656652,-888.247130,842.705048
876.626851,-10288.862594,74.020594,1685.410096
876.627172,-10362.883188,222.061783,2374.896044
876.627492,-9400.615463,1110.308913,766.095498
876.627813,-8734.430116,-740.205942,-995.924147
876.628134,-8660.409521,-814.226536,-1455.581446
876.628454,-9548.656652,0.000000,0.000000
876.628775,-10584.944971,370.102971,2068.457845
876.629096,-10436.903782,1184.329507,2911.162892
876.629416,-10362.883188,518.144159,1991.848295
876.629737,-9474.636058,296.082377,1072.533697
876.630058,-9548.656652,-148.041188,1455.581446
876.630378,-9622.677246,-444.123565,1608.800546
876.630699,-9474.636058,-666.185348,536.266849
876.631020,-8882.471304,-1184.329507,-612.876398
876.631340,-8438.347739,-1332.370696,-1685.410096
876.631661,-9474.636058,-444.123565,0.000000
876.631982,-9918.759623,148.041188,2604.724693
876.632302,-10584.944971,-296.082377,2528.115143
876.632623,-9992.780217,-666.185348,1838.629195
876.632944,-9770.718434,-1406.391290,919.314598
876.633264,-8956.491898,-1184.329507,766.095498
876.633585,-9326.594869,-666.185348,1378.971896
876.633905,-8808.450710,-740.205942,689.485948
876.634226,-8216.285956,-888.247130,-1302.362347
876.634547,-8512.368333,-592.164754,-1838.629195
876.634867,-9178.553681,-222.061783,-76.609550
876.635188,-10584.944971,0.000000,1915.238745
876.635509,-10732.986159,0.000000,3447.429741
876.635829,-9326.594869,-296.082377,2145.067394
876.636150,-9326.594869,-740.205942,1072.533697
876.636471,-9696.697840,222.061783,1838.629195
876.636791,-9622.677246,962.267725,2681.334243
876.637112,-9844.739029,666.185348,2757.943793
876.637433,-8068.244768,296.082377,0.000000
876.637753,-8512.368333,0.000000,-1149.143247
876.638074,-9326.594869,0.000000,0.000000
876.638395,-10658.965565,814.226536,3294.210641
876.638715,-11251.130318,444.123565,3447.429741
876.639036,-9992.780217,-666.185348,1991.848295
876.639357,-10362.883188,-1332.370696,995.924147
876.639677,-9548.656652,-740.205942,1455.581446
876.639998,-10584.944971,-296.082377,1455.581446
876.640318,-9696.697840,74.020594,1378.971896
876.640639,-8660.409521,-592.164754,-995.924147
876.640960,-9030.512492,-666.185348,-1455.581446
876.641280,-9548.656652,0.000000,536.266849
876.641601,-10510.924376,0.000000,2757.943793
876.641922,-10955.047942,-222.061783,3677.258390
876.642242,-9918.759623,-888.247130,2451.505594
876.642563,-9770.718434,-1184.329507,1608.800546
876.642884,-9474.636058,-74.020594,1762.019645
876.643204,-9622.677246,0.000000,2221.676944
876.643525,-9030.512492,148.041188,1225.752797
876.643846,-8068.244768,-666.185348,-842.705048
876.644166,-8438.347739,-370.102971,-383.047749
876.644487,-9326.594869,-444.123565,76.609550
876.644808,-9992.780217,148.041188,2145.067394
876.645128,-10732.986159,0.000000,3140.991542
876.645449,-9770.718434,-740.205942,2987.772442
876.645770,-9474.636058,-1110.308913,383.047749
876.646090,-9474.636058,-888.247130,995.924147
876.646411,-9400.615463,-370.102971,1532.190996
876.646731,-9326.594869,-370.102971,995.924147
876.647052,-8068.244768,-1110.308913,-459.657299
876.647373,-8808.450710,-962.267725,-1455.581446
876.647693,-9400.615463,-592.164754,0.000000
876.648014,-9918.759623,-444.123565,1762.019645
876.648335,-10066.800811,0.000000,2604.724693
876.648655,-10214.842000,-740.205942,1838.629195
876.648976,-10140.821405,-296.082377,1378.971896
876.649297,-9992.780217,0.000000,1455.581446
876.649617,-10362.883188,814.226536,1455.581446
876.649938,-9696.697840,666.185348,1455.581446
876.650259,-9030.512492,518.144159,-612.876398
876.650579,-8956.491898,370.102971,-1072.533697
876.650900,-9400.615463,592.164754,536.266849
876.651221,-10807.006753,-444.123565,2374.896044
876.651541,-9992.780217,0.000000,2911.162892
876.651862,-9622.677246,-1850.514855,689.485948
876.652183,-8956.491898,-148.041188,-153.219100
876.652503,-9474.636058,0.000000,0.000000
876.652824,-9844.739029,666.185348,1762.019645
876.653144,-9622.677246,370.102971,1378.971896
876.653465,-9474.636058,-740.205942,0.000000
876.653786,-9252.574275,-1480.411884,-306.438199
876.654106,-9474.636058,-1184.329507,612.876398
876.654427,-10732.986159,-370.102971,3064.381992
876.654748,-10140.821405,0.000000,3830.477490
876.655068,-9474.636058,-592.164754,2298.286494
876.655389,-9474.636058,-814.226536,1685.410096
876.655710,-8734.430116,-1110.308913,1378.971896
876.656030,-9474.636058,-666.185348,1915.238745
876.656351,-9400.615463,-962.267725,1302.362347
876.656672,-7698.141797,-1110.308913,76.609550
876.656992,-8290.306550,-666.185348,-766.095498
876.657313,-9030.512492,-518.144159,306.438199
876.657634,-9918.759623,0.000000,2451.505594
876.657954,-10732.986159,-222.061783,3294.210641
876.658275,-9918.759623,-1554.432478,1608.800546
876.658596,-9400.615463,-1924.535449,612.876398
876.658916,-9474.636058,-1258.350101,766.095498
876.659237,-9992.780217,0.000000,1378.971896
876.659557,-9918.759623,370.102971,1302.362347
876.659878,-9104.533087,-148.041188,-536.266849
876.660199,-8364.327145,-888.247130,-1991.848295
876.660519,-9400.615463,-962.267725,-995.924147
876.660840,-10510.924376,666.185348,612.876398
876.661161,-11103.089130,296.082377,3370.820191
876.661481,-10066.800811,0.000000,2298.286494
876.661802,-9622.677246,-370.102971,1378.971896
876.662123,-9548.656652,0.000000,919.314598
876.662443,-10436.903782,-148.041188,1455.581446
876.662764,-9992.780217,-444.123565,1225.752797
876.663085,-8882.471304,-740.205942,-536.266849
876.663405,-8660.409521,-814.226536,-1838.629195
876.663726,-9474.636058,0.000000,-689.485948
876.664047,-10140.821405,1036.288319,1685.410096
876.664367,-10288.862594,740.205942,2451.505594
876.664688,-9622.677246,74.020594,766.095498
876.665009,-9400.615463,-962.267725,-1149.143247
876.665329,-9474.636058,-666.185348,0.000000
876.665650,-9548.656652,-296.082377,1225.752797
876.665970,-9326.594869,0.000000,1149.143247
876.666291,-8512.368333,-518.144159,0.000000
876.666612,-9252.574275,-1110.308913,-995.924147
876.666932,-9844.739029,-592.164754,919.314598
876.667253,-10362.883188,-370.102971,3064.381992
876.667574,-10955.047942,-444.123565,3983.696590
876.667894,-9474.636058,-1332.370696,3217.601092
876.668215,-9252.574275,-962.267725,1532.190996
876.668536,-9178.553681,-444.123565,2374.896044
876.668856,-9252.574275,370.102971,2068.457845
876.669177,-8290.306550,0.000000,1532.190996
876.669498,-8882.471304,0.000000,0.000000
876.669818,-8142.265362,0.000000,-766.095498
876.670139,-9400.615463,518.144159,919.314598
876.670460,-10584.944971,1110.308913,3524.039291
876.670780,-11177.109724,518.144159,4290.134789
876.671101,-10584.944971,-518.144159,3217.601092
876.671422,-9548.656652,-1036.288319,1378.971896
876.671742,-9622.677246,-370.102971,1532.190996
876.672063,-9474.636058,740.205942,995.924147
876.672383,-8956.491898,1258.350101,1378.971896
876.672704,-9400.615463,-1184.329507,-306.438199
876.673025,-7698.141797,-1332.370696,-2221.676944
876.673345,-9030.512492,-1110.308913,-995.924147
876.673666,-11103.089130,-148.041188,1455.581446
876.673987,-10881.027347,296.082377,3294.210641
876.674307,-10881.027347,-444.123565,2528.115143
876.674628,-10510.924376,-370.102971,2145.067394
876.674949,-9178.553681,-666.185348,1149.143247
876.675269,-11251.130318,370.102971,2834.553343
876.675590,-9474.636058,0.000000,1455.581446
876.675911,-8734.430116,0.000000,-1072.533697
876.676231,-7772.162391,222.061783,-2298.286494
876.676552,-7624.121203,592.164754,-1225.752797
876.676873,-9622.677246,888.247130,1608.800546
876.677193,-11325.150913,444.123565,3294.210641
876.677514,-9622.677246,-370.102971,2145.067394
876.677835,-10436.903782,-1554.432478,842.705048
876.678155,-10066.800811,-962.267725,1608.800546
876.678476,-9622.677246,-74.020594,1685.410096
876.678796,-9622.677246,-370.102971,1302.362347
876.679117,-8808.450710,-888.247130,-1149.143247
876.679438,-7994.224174,-1258.350101,-2221.676944
876.679758,-8882.471304,-1554.432478,-1608.800546
876.680079,-10362.883188,0.000000,1455.581446
876.680400,-10955.047942,666.185348,3753.867940
876.680720,-10066.800811,-888.247130,1685.410096
876.681041,-9696.697840,-888.247130,1608.800546
876.681362,-9474.636058,-1406.391290,1532.190996
876.681682,-10436.903782,-814.226536,2528.115143
876.682003,-9918.759623,-444.123565,2451.505594
876.682324,-8660.409521,-1110.308913,0.000000
876.682644,-8660.409521,-666.185348,-766.095498
876.682965,-9252.574275,370.102971,536.266849
876.683286,-10510.924376,148.041188,1608.800546
876.683606,-10807.006753,148.041188,3140.991542
876.683927,-9474.636058,-1036.288319,1608.800546
876.684248,-9400.615463,-1554.432478,229.828649
876.684568,-9918.759623,-888.247130,-383.047749
876.684889,-9474.636058,444.123565,1685.410096
876.685209,-9622.677246,0.000000,1532.190996
876.685530,-8734.430116,-74.020594,0.000000
876.685851,-8512.368333,-1036.288319,-1532.190996
876.686171,-9326.594869,-1258.350101,-459.657299
876.686492,-10362.883188,-666.185348,2374.896044
876.686813,-11399.171507,0.000000,3983.696590
876.687133,-11029.068536,-444.123565,3064.381992
876.687454,-10732.986159,-296.082377,1378.971896
876.687775,-10436.903782,0.000000,1915.238745
876.688095,-10140.821405,370.102971,2374.896044
876.688416,-9696.697840,296.082377,1532.190996
876.688737,-9104.533087,-148.041188,-383.047749
876.689057,-8142.265362,-888.247130,-2221.676944
876.689378,-8438.347739,-370.102971,-612.876398
876.689699,-9326.594869,-296.082377,1455.581446
876.690019,-10214.842000,74.020594,2528.115143
876.690340,-9918.759623,-740.205942,2757.943793
876.690661,-9992.780217,-1110.308913,766.095498
876.690981,-9844.739029,-1036.288319,995.924147
876.691302,-10214.842000,-814.226536,1455.581446
876.691622,-8808.450710,-2368.659014,0.000000
876.691943,-8808.450710,-1184.329507,-1149.143247
876.692264,-7994.224174,-1776.494261,-2451.505594
876.692584,-8216.285956,-1184.329507,-2221.676944
876.692905,-9696.697840,0.000000,306.438199
876.693226,-10436.903782,370.102971,1991.848295
876.693546,-10140.821405,148.041188,2145.067394
876.693867,-9474.636058,-592.164754,1225.752797
876.694188,-9696.697840,222.061783,1915.238745
876.694508,-10362.883188,518.144159,2451.505594
876.694829,-10214.842000,814.226536,2528.115143
876.695150,-9400.615463,444.123565,612.876398
876.695470,-8068.244768,0.000000,-1225.752797
876.695791,-9030.512492,1036.288319,-1608.800546
876.696112,-9918.759623,1332.370696,1762.019645
876.696432,-10436.903782,888.247130,2757.943793
876.696753,-10066.800811,296.082377,2451.505594
876.697074,-9548.656652,-1110.308913,1149.143247
876.697394,-9548.656652,-740.205942,1302.362347
876.697715,-10214.842000,-148.041188,2374.896044
876.698035,-9918.759623,222.061783,2681.334243
876.698356,-9030.512492,0.000000,689.485948
876.698677,-8586.388927,-296.082377,-2145.067394
876.698997,-8808.450710,-740.205942,-689.485948
876.699318,-9992.780217,74.020594,2068.457845
876.699639,-10807.006753,296.082377,4060.306139
876.699959,-9992.780217,-814.226536,3140.991542
876.700280,-9400.615463,-1406.391290,1532.190996
876.700601,-9178.553681,-222.061783,1532.190996
876.700921,-9844.739029,296.082377,2528.115143
876.701242,-9474.636058,592.164754,2145.067394
876.701563,-9030.512492,444.123565,919.314598
876.701883,-8068.244768,-222.061783,-612.876398
876.702204,-8956.491898,-296.082377,0.000000
876.702525,-10214.842000,0.000000,2528.115143
876.702845,-10807.006753,0.000000,3524.039291
876.703166,-9548.656652,148.041188,3217.601092
876.703487,-9918.759623,-518.144159,1378.971896
876.703807,-8586.388927,0.000000,1302.362347
876.704128,-10066.800811,444.123565,1915.238745
876.704448,-9548.656652,222.061783,1302.362347
876.704769,-8734.430116,0.000000,-383.047749
876.705090,-8216.285956,-1036.288319,-1915.238745
876.705410,-8586.388927,-666.185348,-1762.019645
876.705731,-9918.759623,0.000000,612.876398
876.706052,-10510.924376,148.041188,2604.724693
876.706372,-10214.842000,-444.123565,2528.115143
876.706693,-9770.718434,-1480.411884,766.095498
876.707014,-9696.697840,-1628.453072,536.266849
876.707334,-10140.821405,-592.164754,1532.190996
876.707655,-10066.800811,-740.205942,0.000000
876.707976,-8660.409521,0.000000,-459.657299
876.708296,-8290.306550,-296.082377,-2221.676944
876.708617,-8956.491898,0.000000,-1378.971896
876.708938,-10066.800811,370.102971,1225.752797
876.709258,-10658.965565,0.000000,2757.943793
876.709579,-10436.903782,-1480.411884,2374.896044
876.709900,-10066.800811,-2072.576638,842.705048
876.710220,-9326.594869,-1628.453072,1149.143247
876.710541,-9992.780217,-444.123565,1685.410096
876.710861,-9844.739029,0.000000,1915.238745
876.711182,-8882.471304,-592.164754,229.828649
876.711503,-8512.368333,-1110.308913,-1532.190996
876.711823,-9178.553681,-740.205942,-229.828649
876.712144,-10510.924376,-296.082377,1378.971896
876.712465,-10881.027347,444.123565,3907.087040
876.712785,-10510.924376,-666.185348,3217.601092
876.713106,-9770.718434,-1776.494261,1532.190996
876.713427,-9252.574275,-2146.597232,995.924147
876.713747,-9844.739029,-1110.308913,1915.238745
876.714068,-9474.636058,0.000000,2068.457845
876.714389,-9178.553681,-296.082377,689.485948
876.714709,-8216.285956,-370.102971,-919.314598
876.715030,-8660.409521,148.041188,-536.266849
876.715351,-9844.739029,148.041188,1532.190996
876.715671,-10732.986159,592.164754,3677.258390
876.715992,-10510.924376,-1554.432478,2451.505594
876.716313,-9548.656652,-1036.288319,1455.581446
876.716633,-9548.656652,-666.185348,1072.533697
876.716954,-9622.677246,222.061783,2221.676944
876.717274,-9622.677246,296.082377,2068.457845
876.717595,-8808.450710,518.144159,153.219100
876.717916,-8364.327145,-296.082377,-1455.581446
876.718236,-8660.409521,0.000000,-1225.752797
876.718557,-9918.759623,814.226536,766.095498
876.718878,-10881.027347,444.123565,2987.772442
876.719198,-9844.739029,0.000000,1991.848295
876.719519,-9918.759623,-962.267725,1685.410096
876.719840,-9252.574275,-1184.329507,1072.533697
876.720160,-9622.677246,-592.164754,2987.772442
876.720481,-10362.883188,-74.020594,2068.457845
876.720801,-9030.512492,74.020594,0.000000
876.721122,-8586.388927,-740.205942,-1838.629195
876.721443,-8364.327145,-222.061783,-1378.971896
876.721763,-9326.594869,222.061783,306.438199
876.722084,-10584.944971,-444.123565,2451.505594
876.722405,-9992.780217,-962.267725,1838.629195
876.722725,-10066.800811,-1702.473667,689.485948
876.723046,-9326.594869,-962.267725,1608.800546
876.723366,-9992.780217,0.000000,1455.581446
876.723687,-10066.800811,444.123565,1838.629195
876.724008,-9326.594869,0.000000,383.047749
876.724328,-8512.368333,-370.102971,-383.047749
876.724649,-9030.512492,-888.247130,-1378.971896
876.724969,-9992.780217,-518.144159,459.657299
876.725290,-10584.944971,518.144159,2451.505594
876.725611,-10436.903782,296.082377,2451.505594
876.725931,-9622.677246,-518.144159,1149.143247
876.726252,-9622.677246,222.061783,1225.752797
876.726572,-10510.924376,222.061783,1608.800546
876.726893,-9918.759623,222.061783,1838.629195
876.727214,-8956.491898,-222.061783,306.438199
876.727534,-8586.388927,-1554.432478,-1378.971896
876.727855,-8586.388927,-666.185348,-536.266849
876.728176,-9918.759623,370.102971,1991.848295
876.728496,-10881.027347,0.000000,4290.134789
876.728817,-10510.924376,-666.185348,3370.820191
876.729137,-9992.780217,-1480.411884,1532.190996
876.729458,-9474.636058,-1036.288319,1302.362347
876.729779,-9622.677246,74.020594,1762.019645
876.730099,-9770.718434,74.020594,2374.896044
876.730420,-8660.409521,-444.123565,229.828649
876.730740,-7402.059420,-962.267725,-1838.629195
876.731061,-9030.512492,-888.247130,-689.485948
876.731382,-10214.842000,0.000000,1838.629195
876.731702,-10584.944971,370.102971,3217.601092
876.732023,-10510.924376,0.000000,2911.162892
876.732344,-9474.636058,-518.144159,1149.143247
876.732664,-9326.594869,-1110.308913,1072.533697
876.732985,-9548.656652,-814.226536,1838.629195
876.733305,-9400.615463,-962.267725,1685.410096
876.733626,-8586.388927,-1184.329507,0.000000
876.733947,-8142.265362,-740.205942,-1378.971896
876.734267,-9104.533087,0.000000,-1225.752797
876.734588,-10288.862594,666.185348,1991.848295
876.734908,-10510.924376,444.123565,3447.429741
876.735229,-10510.924376,-444.123565,2451.505594
876.735550,-9992.780217,-1554.432478,612.876398
876.735870,-9400.615463,-666.185348,306.438199
876.736191,-9326.594869,0.000000,383.047749
876.736511,-9252.574275,666.185348,0.000000
876.736832,-8142.265362,1036.288319,-1685.410096
876.737153,-7550.100608,814.226536,-2911.162892
876.737473,-9252.574275,592.164754,-2221.676944
876.737794,-10066.800811,888.247130,153.219100
876.738115,-11251.130318,296.082377,2911.162892
876.738435,-11029.068536,-740.205942,3753.867940
876.738756,-10732.986159,-1554.432478,3064.381992
876.739076,-10362.883188,-1998.556043,2451.505594
876.739397,-10066.800811,-1554.432478,2834.553343
876.739718,-9844.739029,-962.267725,4213.525239
876.740038,-9178.553681,0.000000,919.314598
876.740359,-8438.347739,0.000000,-919.314598
876.740679,-8438.347739,148.041188,-1072.533697
876.741000,-9474.636058,0.000000,1378.971896
876.741321,-11103.089130,-444.123565,3524.039291
876.741641,-11029.068536,-592.164754,3524.039291
876.741962,-10510.924376,-1184.329507,2374.896044
876.742283,-10288.862594,-740.205942,2528.115143
876.742603,-9844.739029,518.144159,2298.286494
876.742924,-9992.780217,814.226536,2221.676944
876.743244,-8586.388927,370.102971,153.219100
876.743565,-7550.100608,-74.020594,-1991.848295
876.743886,-8882.471304,740.205942,-3064.381992
876.744206,-9770.718434,-296.082377,229.828649
876.744527,-9844.739029,74.020594,2834.553343
876.744847,-10955.047942,-222.061783,3600.648841
876.745168,-9622.677246,-1184.329507,2374.896044
876.745489,-10066.800811,-1406.391290,2528.115143
876.745809,-10807.006753,-740.205942,3830.477490
876.746130,-9844.739029,-592.164754,2374.896044
876.746451,-9252.574275,-592.164754,919.314598
876.746771,-8660.409521,-740.205942,-1072.533697
876.747092,-7772.162391,-518.144159,-1149.143247
876.747412,-9252.574275,148.041188,766.095498
876.747733,-9992.780217,296.082377,2451.505594
876.748054,-9770.718434,-370.102971,3600.648841
876.748374,-10214.842000,-1776.494261,766.095498
876.748695,-9326.594869,-888.247130,995.924147
876.749015,-10066.800811,-444.123565,1455.581446
876.749336,-10066.800811,0.000000,1532.190996
876.749657,-9030.512492,0.000000,536.266849
876.749977,-8290.306550,-444.123565,-1991.848295
876.750298,-8882.471304,-666.185348,-1838.629195
876.750618,-9918.759623,148.041188,306.438199
876.750939,-10807.006753,74.020594,1838.629195
876.751260,-10510.924376,-370.102971,2298.286494
876.751580,-9918.759623,-518.144159,1455.581446
876.751901,-9844.739029,-888.247130,919.314598
876.752222,-9844.739029,-370.102971,2374.896044
876.752542,-9696.697840,0.000000,1455.581446
876.752863,-9178.553681,-518.144159,-153.219100
876.753183,-8734.430116,-962.267725,-2068.457845
876.753504,-8734.430116,0.000000,-2145.067394
876.753825,-9474.636058,666.185348,536.266849
876.754145,-10658.965565,740.205942,2757.943793
876.754466,-10658.965565,-888.247130,2757.943793
876.754786,-10362.883188,-2220.617826,1378.971896
876.755107,-10288.862594,-1554.432478,306.438199
876.755428,-9844.739029,-444.123565,1685.410096
876.755748,-10066.800811,-148.041188,1762.019645
876.756069,-9104.533087,0.000000,459.657299
876.756390,-8512.368333,-1480.411884,-1455.581446
876.756710,-8512.368333,-1554.432478,-1685.410096
876.757031,-9474.636058,-592.164754,612.876398
876.757351,-10732.986159,-592.164754,2757.943793
876.757672,-9992.780217,0.000000,3064.381992
876.757993,-9622.677246,-370.102971,1838.629195
876.758313,-9030.512492,0.000000,1532.190996
876.758634,-9770.718434,-296.082377,2451.505594
876.758954,-9992.780217,0.000000,2604.724693
876.759275,-8660.409521,-444.123565,1455.581446
876.759596,-8660.409521,-1184.329507,-459.657299
876.759916,-8956.491898,-592.164754,-153.219100
876.760237,-9844.739029,-148.041188,1685.410096
876.760558,-10658.965565,222.061783,5056.230287
876.760878,-10436.903782,0.000000,3064.381992
876.761199,-9474.636058,-222.061783,1225.752797
876.761519,-9474.636058,0.000000,612.876398
876.761840,-9474.636058,666.185348,1149.143247
876.762161,-9252.574275,740.205942,1838.629195
876.762481,-9252.574275,0.000000,383.047749
876.762802,-8216.285956,0.000000,-1608.800546
876.763122,-9030.512492,-148.041188,-1072.533697
876.763443,-10066.800811,0.000000,842.705048
876.763764,-10807.006753,222.061783,3370.820191
876.764084,-10955.047942,0.000000,3447.429741
876.764405,-9844.739029,-740.205942,1762.019645
876.764725,-9252.574275,-1258.350101,1302.362347
876.765046,-9474.636058,-296.082377,1302.362347
876.765367,-9548.656652,74.020594,1378.971896
876.765687,-8956.491898,518.144159,536.266849
876.766008,-8438.347739,-148.041188,-1149.143247
876.766329,-8808.450710,-148.041188,-1532.190996
876.766649,-9474.636058,592.164754,919.314598
876.766970,-11399.171507,-444.123565,2451.505594
876.767290,-10584.944971,222.061783,2911.162892
876.767611,-10214.842000,-1184.329507,2145.067394
876.767932,-9622.677246,-1628.453072,689.485948
876.768252,-9548.656652,0.000000,1532.190996
876.768573,-10066.800811,444.123565,1302.362347
876.768893,-8660.409521,148.041188,2604.724693
876.769214,-8660.409521,444.123565,-1608.800546
876.769535,-8586.388927,0.000000,-1608.800546
876.769855,-9696.697840,0.000000,459.657299
876.770176,-11029.068536,74.020594,2681.334243
876.770497,-10732.986159,-444.123565,2987.772442
876.770817,-9992.780217,-1406.391290,1991.848295
876.771138,-9844.739029,-1184.329507,1608.800546
876.771458,-9696.697840,0.000000,1685.410096
876.771779,-9696.697840,444.123565,1915.238745
876.772100,-9178.553681,666.185348,919.314598
876.772420,-8586.388927,-296.082377,-1072.533697
876.772741,-8660.409521,-1184.329507,-995.924147
876.773061,-10066.800811,-592.164754,766.095498
876.773382,-10584.944971,-740.205942,3447.429741
876.773703,-10732.986159,-1036.288319,3524.039291
876.774023,-10362.883188,-1036.288319,2604.724693
876.774344,-10066.800811,-962.267725,1532.190996
876.774665,-9400.615463,-222.061783,1915.238745
876.774985,-9770.718434,-148.041188,1455.581446
876.775306,-8290.306550,-370.102971,0.000000
876.775626,-8142.265362,-1554.432478,-1915.238745
876.775947,-8290.306550,-814.226536,-1608.800546
876.776268,-9030.512492,-1110.308913,-229.828649
876.776588,-10214.842000,-666.185348,2451.505594
876.776909,-10436.903782,-592.164754,2834.553343
876.777229,-10288.862594,-1332.370696,2757.943793
876.777550,-9622.677246,-518.144159,1455.581446
876.777871,-9918.759623,-222.061783,1991.848295
876.778191,-9844.739029,0.000000,2298.286494
876.778512,-9326.594869,-740.205942,1302.362347
876.778832,-8290.306550,-1110.308913,-1532.190996
876.779153,-8438.347739,-740.205942,-1302.362347
876.779474,-9548.656652,888.247130,153.219100
876.779794,-10288.862594,1036.288319,2451.505594
876.780115,-10140.821405,296.082377,2145.067394
876.780436,-10214.842000,-518.144159,1455.581446
876.780756,-9696.697840,-592.164754,919.314598
876.781077,-10214.842000,-740.205942,1302.362347
876.781397,-8956.491898,-148.041188,1378.971896
876.781718,-9252.574275,-222.061783,76.609550
876.782039,-8512.368333,-740.205942,-1378.971896
876.782359,-8438.347739,-296.082377,-1915.238745
876.782680,-9400.615463,0.000000,-153.219100
876.783000,-10584.944971,444.123565,1838.629195
876.783321,-11029.068536,518.144159,2987.772442
876.783642,-10510.924376,296.082377,2145.067394
876.783962,-10066.800811,-518.144159,1455.581446
876.784283,-9622.677246,-666.185348,995.924147
876.784604,-10214.842000,-296.082377,2298.286494
876.784924,-8290.306550,-370.102971,153.219100
876.785245,-8660.409521,-1258.350101,-1149.143247
876.785565,-7920.203579,-740.205942,-1378.971896
876.785886,-9252.574275,0.000000,76.609550
876.786207,-10436.903782,74.020594,2451.505594
876.786527,-10288.862594,74.020594,2911.162892
876.786848,-10362.883188,-888.247130,2068.457845
876.787168,-10066.800811,-1554.432478,1685.410096
876.787489,-9474.636058,-1406.391290,1225.752797
876.787810,-9696.697840,-1184.329507,1915.238745
876.788130,-8882.471304,-1480.411884,766.095498
876.788451,-8290.306550,-592.164754,-766.095498
876.788771,-8512.368333,-518.144159,-1149.143247
876.789092,-9474.636058,444.123565,0.000000
876.789413,-10362.883188,1184.329507,2145.067394
876.789733,-10881.027347,1776.494261,4903.011187
876.790054,-10066.800811,-740.205942,2451.505594
876.790375,-9770.718434,-1036.288319,1838.629195
876.790695,-9992.780217,-888.247130,2221.676944
876.791016,-9844.739029,0.000000,2681.334243
876.791336,-9178.553681,518.144159,1532.190996
876.791657,-8586.388927,296.082377,0.000000
876.791978,-8660.409521,-370.102971,-1225.752797
876.792298,-9030.512492,74.020594,229.828649
876.792619,-10732.986159,-518.144159,1608.800546
876.792939,-10807.006753,-296.082377,3370.820191
876.793260,-10436.903782,-1184.329507,2145.067394
876.793581,-10362.883188,-814.226536,1378.971896
876.793901,-10584.944971,666.185348,536.266849
876.794222,-9992.780217,740.205942,1991.848295
876.794543,-9770.718434,518.144159,919.314598
876.794863,-8586.388927,-296.082377,-1532.190996
876.795184,-8512.368333,-518.144159,-2068.457845
876.795504,-8734.430116,-148.041188,-612.876398
876.795825,-10066.800811,-296.082377,1915.238745
876.796146,-10658.965565,0.000000,3370.820191
876.796466,-10214.842000,-1184.329507,2374.896044
876.796787,-10066.800811,-1406.391290,1378.971896
876.797107,-9696.697840,-1258.350101,1762.019645
876.797428,-9622.677246,-518.144159,2221.676944
876.797749,-9474.636058,-148.041188,1685.410096
876.798069,-8586.388927,222.061783,1072.533697
876.798390,-7846.182985,0.000000,-1225.752797
876.798711,-9030.512492,666.185348,459.657299
876.799031,-10584.944971,888.247130,2757.943793
876.799352,-10658.965565,148.041188,3217.601092
876.799672,-9992.780217,-1110.308913,1838.629195
876.799993,-9252.574275,-1110.308913,459.657299
876.800314,-9474.636058,-370.102971,536.266849
876.800634,-9622.677246,592.164754,1532.190996
876.800955,-9770.718434,1406.391290,1149.143247
876.801275,-8290.306550,0.000000,-995.924147
876.801596,-8290.306550,-814.226536,-1915.238745
876.801917,-9474.636058,-592.164754,-459.657299
876.802237,-10658.965565,-740.205942,1072.533697
876.802558,-10807.006753,0.000000,3064.381992
876.802878,-10214.842000,-444.123565,2221.676944
876.803199,-9474.636058,-814.226536,1685.410096
876.803520,-10066.800811,-296.082377,2145.067394
876.803840,-10066.800811,-148.041188,2987.772442
876.804161,-9400.615463,-148.041188,1302.362347
876.804482,-8364.327145,-370.102971,-1225.752797
876.804802,-8438.347739,-518.144159,-1991.848295
876.805123,-8216.285956,444.123565,612.876398
876.805443,-10658.965565,592.164754,2451.505594
876.805764,-10658.965565,222.061783,3294.210641
876.806085,-10066.800811,-1480.411884,2145.067394
876.806405,-9992.780217,-1036.288319,612.876398
876.806726,-10214.842000,-888.247130,1455.581446
876.807046,-10066.800811,0.000000,1838.629195
876.807367,-9696.697840,148.041188,1072.533697
876.807688,-8216.285956,-740.205942,-1225.752797
876.808008,-8068.244768,-666.185348,-1991.848295
876.808329,-9178.553681,-666.185348,-76.609550
876.808650,-9770.718434,0.000000,1838.629195
876.808970,-10510.924376,0.000000,2528.115143
876.809291,-9326.594869,-740.205942,1762.019645
876.809611,-9400.615463,-740.205942,766.095498
876.809932,-9548.656652,-222.061783,1455.581446
876.810253,-9696.697840,222.061783,2221.676944
876.810573,-9326.594869,222.061783,1762.019645
876.810894,-8734.430116,-518.144159,0.000000
876.811214,-8734.430116,-1110.308913,-383.047749
876.811535,-9548.656652,-962.267725,612.876398
876.811856,-10066.800811,-1036.288319,2528.115143
876.812176,-10436.903782,-740.205942,3370.820191
876.812497,-10214.842000,-1924.535449,2068.457845
876.812818,-9770.718434,-1850.514855,1072.533697
876.813138,-9844.739029,-814.226536,1532.190996
876.813459,-10140.821405,814.226536,1685.410096
876.813779,-9844.739029,296.082377,1455.581446
876.814100,-9030.512492,296.082377,0.000000
876.814421,-8512.368333,-518.144159,-1149.143247
876.814741,-9770.718434,370.102971,0.000000
876.815062,-10140.821405,-1184.329507,1302.362347
876.815382,-9918.759623,-740.205942,2451.505594
876.815703,-9770.718434,-888.247130,1455.581446
876.816024,-9178.553681,296.082377,1072.533697
876.816344,-9622.677246,740.205942,1302.362347
876.816665,-10140.821405,814.226536,2451.505594
876.816985,-10066.800811,518.144159,1455.581446
876.817306,-9696.697840,-1036.288319,459.657299
876.817627,-8586.388927,-1628.453072,-766.095498
876.817947,-8438.347739,0.000000,0.000000
876.818268,-11399.171507,0.000000,1991.848295
876.818589,-9770.718434,962.267725,3983.696590
876.818909,-9992.780217,-1184.329507,1225.752797
876.819230,-10066.800811,-222.061783,1532.190996
876.819551,-9400.615463,-1036.288319,306.438199
876.819872,-10584.944971,222.061783,1915.238745
876.820192,-9548.656652,-370.102971,1302.362347
876.820513,-8512.368333,-1184.329507,-1149.143247
876.820834,-8068.244768,-2072.576638,-1838.629195
876.821155,-8660.409521,-1998.556043,-995.924147
876.821476,-9992.780217,-592.164754,919.314598
876.821796,-11547.212695,370.102971,3447.429741
876.822117,-10140.821405,518.144159,2374.896044
876.822438,-10066.800811,-296.082377,1532.190996
876.822759,-9918.759623,-592.164754,1532.190996
876.823080,-9104.533087,-592.164754,1532.190996
876.823400,-9326.594869,0.000000,1225.752797
876.823721,-8660.409521,-592.164754,-689.485948
876.824042,-7994.224174,222.061783,-1838.629195
876.824363,-8956.491898,518.144159,-459.657299
876.824683,-10214.842000,1776.494261,1838.629195
876.825004,-11029.068536,1776.494261,3140.991542
876.825325,-10140.821405,296.082377,1838.629195
876.825646,-10140.821405,-592.164754,995.924147
876.825967,-9548.656652,0.000000,1838.629195
876.826287,-9918.759623,-370.102971,1762.019645
876.826608,-9326.594869,-370.102971,1225.752797
876.826929,-8512.368333,-592.164754,-1072.533697
876.827250,-8956.491898,0.000000,-2451.505594
876.827570,-9474.636058,74.020594,-536.266849
876.827891,-10288.862594,888.247130,2068.457845
876.828212,-11103.089130,222.061783,3217.601092
876.828533,-9770.718434,-518.144159,2145.067394
876.828854,-9104.533087,-1480.411884,1072.533697
876.829174,-9400.615463,-1184.329507,1532.190996
876.829495,-9474.636058,-518.144159,2068.457845
876.829816,-9178.553681,222.061783,1838.629195
876.830137,-8586.388927,592.164754,689.485948
876.830458,-8808.450710,-296.082377,-919.314598
876.830778,-8586.388927,962.267725,612.876398
876.831099,-10658.965565,0.000000,3217.601092
876.831420,-11177.109724,666.185348,4749.792088
876.831741,-10881.027347,-1332.370696,3140.991542
876.832061,-10066.800811,-1332.370696,1225.752797
876.832382,-9622.677246,-814.226536,1532.190996
876.832703,-9474.636058,-370.102971,1532.190996
876.833024,-9030.512492,148.041188,383.047749
876.833345,-8586.388927,-222.061783,-1762.019645
876.833665,-8216.285956,-1036.288319,-2757.943793
876.833986,-8808.450710,-814.226536,-1608.800546
876.834307,-10436.903782,-74.020594,1225.752797
876.834628,-11103.089130,0.000000,3370.820191
876.834948,-10658.965565,-740.205942,2681.334243
876.835269,-9770.718434,-1184.329507,1838.629195
876.835590,-10140.821405,-592.164754,1378.971896
876.835911,-10066.800811,-370.102971,1685.410096
876.836232,-9474.636058,0.000000,1225.752797
876.836552,-7920.203579,-370.102971,-1072.533697
876.836873,-7698.141797,-296.082377,-2145.067394
876.837194,-8808.450710,-74.020594,-383.047749
876.837515,-10288.862594,74.020594,2528.115143
876.837836,-11103.089130,-518.144159,3600.648841
876.838156,-10881.027347,-1480.411884,2834.553343
876.838477,-10288.862594,-2146.597232,1532.190996
876.838798,-9844.739029,-1184.329507,1685.410096
876.839119,-10288.862594,-444.123565,2221.676944
876.839439,-9252.574275,222.061783,1915.238745
876.839760,-8216.285956,-888.247130,536.266849
876.840081,-7846.182985,-1332.370696,-2298.286494
876.840402,-8882.471304,-518.144159,-1225.752797
876.840723,-10362.883188,0.000000,1302.362347
876.841043,-10658.965565,0.000000,2834.553343
876.841364,-10362.883188,-444.123565,2374.896044
876.841685,-9770.718434,-1110.308913,1608.800546
876.842006,-9844.739029,-592.164754,1532.190996
876.842326,-10140.821405,-222.061783,2298.286494
876.842647,-9770.718434,-370.102971,1915.238745
876.842968,-8808.450710,-518.144159,306.438199
876.843289,-8734.430116,-222.061783,-1302.362347
876.843610,-9326.594869,888.247130,383.047749
876.843930,-9770.718434,1184.329507,4673.182538
876.844251,-10807.006753,1110.308913,4366.744339
876.844572,-10584.944971,0.000000,2757.943793
876.844893,-9770.718434,-740.205942,1072.533697
876.845214,-9474.636058,-222.061783,995.924147
876.845534,-9178.553681,0.000000,1762.019645
876.845855,-8808.450710,-444.123565,766.095498
876.846176,-7698.141797,-1258.350101,-1532.190996
876.846497,-7846.182985,-1776.494261,-2911.162892
876.846817,-8734.430116,-444.123565,-1378.971896
876.847138,-10362.883188,0.000000,1302.362347
876.847459,-11251.130318,-148.041188,3294.210641
876.847780,-10288.862594,-888.247130,2374.896044
876.848101,-9474.636058,-518.144159,766.095498
876.848421,-9770.718434,-962.267725,1225.752797
876.848742,-9548.656652,74.020594,2298.286494
876.849063,-10066.800811,0.000000,1838.629195
876.849384,-8660.409521,0.000000,-689.485948
876.849705,-7994.224174,0.000000,-1991.848295
876.850025,-8290.306550,0.000000,-536.266849
876.850346,-9474.636058,296.082377,1455.581446
876.850667,-10658.965565,518.144159,3064.381992
876.850988,-9918.759623,740.205942,2451.505594
876.851308,-10288.862594,-592.164754,995.924147
876.851629,-9696.697840,-740.205942,919.314598
876.851950,-9548.656652,-592.164754,1455.581446
876.852271,-9696.697840,-888.247130,2834.553343
876.852592,-8142.265362,-296.082377,-1455.581446
876.852912,-9104.533087,-1110.308913,-1532.190996
876.853233,-9030.512492,-814.226536,-1302.362347
876.853554,-10658.965565,-148.041188,1838.629195
876.853875,-11325.150913,-370.102971,3677.258390
876.854195,-10881.027347,-592.164754,2911.162892
876.854516,-10288.862594,-814.226536,1915.238745
876.854837,-10288.862594,-148.041188,2374.896044
876.855158,-10140.821405,888.247130,2068.457845
876.855479,-10066.800811,74.020594,1532.190996
876.855799,-8586.388927,-296.082377,-459.657299
876.856120,-7994.224174,-666.185348,-1532.190996
876.856441,-8512.368333,-222.061783,2145.067394
876.856762,-10066.800811,0.000000,2298.286494
876.857083,-11029.068536,0.000000,3294.210641
876.857403,-10510.924376,-370.102971,2528.115143
876.857724,-10362.883188,0.000000,1685.410096
876.858045,-10362.883188,0.000000,1838.629195
876.858366,-10140.821405,222.061783,2451.505594
876.858686,-9696.697840,0.000000,2145.067394
876.859007,-8364.327145,-1480.411884,-536.266849
876.859328,-7624.121203,-2072.576638,-1072.533697
876.859649,-8882.471304,-1850.514855,-1072.533697
876.859970,-9326.594869,-296.082377,1225.752797
876.860290,-10732.986159,370.102971,2834.553343
876.860611,-9104.533087,148.041188,3753.867940
876.860932,-9474.636058,-1258.350101,1455.581446
876.861253,-9696.697840,-814.226536,1685.410096
876.861573,-9548.656652,0.000000,2374.896044
876.861894,-9548.656652,0.000000,1991.848295
876.862215,-8586.388927,0.000000,0.000000
876.862536,-8068.244768,-296.082377,-1225.752797
876.862857,-8660.409521,148.041188,-536.266849
876.863177,-9770.718434,666.185348,1838.629195
876.863498,-10955.047942,666.185348,3064.381992
876.863819,-10807.006753,148.041188,2834.553343
876.864140,-9844.739029,-370.102971,1455.581446
876.864461,-9548.656652,-222.061783,1149.143247
876.864781,-9918.759623,148.041188,3830.477490
876.865102,-9770.718434,444.123565,2221.676944
876.865423,-8734.430116,-444.123565,-383.047749
876.865744,-8364.327145,-1110.308913,-2451.505594
876.866064,-8734.430116,-222.061783,-1532.190996
876.866385,-9622.677246,740.205942,1072.533697
876.866706,-11251.130318,814.226536,2987.772442
876.867027,-10807.006753,-148.041188,2911.162892
876.867348,-10140.821405,-1776.494261,995.924147
876.867668,-9918.759623,-2220.617826,1762.019645
876.867989,-9992.780217,-1110.308913,1762.019645
876.868310,-9918.759623,0.000000,1762.019645
876.868631,-9178.553681,148.041188,0.000000
876.868951,-8142.265362,296.082377,-1762.019645
876.869272,-9178.553681,296.082377,-383.047749
876.869593,-10140.821405,740.205942,2068.457845
876.869914,-11029.068536,222.061783,3907.087040
876.870235,-10658.965565,-888.247130,3064.381992
876.870555,-9770.718434,-1554.432478,1532.190996
876.870876,-9474.636058,-1628.453072,1225.752797
876.871197,-9622.677246,-740.205942,1532.190996
876.871518,-9474.636058,0.000000,1838.629195
876.871839,-8142.265362,0.000000,0.000000
876.872159,-8216.285956,-222.061783,-1455.581446
876.872480,-9104.533087,-222.061783,-995.924147
876.872801,-9918.759623,740.205942,1685.410096
876.873122,-10955.047942,0.000000,3370.820191
876.873442,-10362.883188,-444.123565,2834.553343
876.873763,-9918.759623,-1924.535449,1532.190996
876.874084,-9326.594869,-1554.432478,1378.971896
876.874405,-9844.739029,-296.082377,1838.629195
876.874726,-9474.636058,370.102971,1685.410096
876.875046,-8068.244768,-74.020594,0.000000
876.875367,-7772.162391,-370.102971,-1915.238745
876.875688,-8512.368333,-296.082377,-1302.362347
876.876009,-9474.636058,-814.226536,919.314598
876.876329,-10881.027347,-444.123565,3830.477490
876.876650,-10362.883188,-1258.350101,3140.991542
876.876971,-9770.718434,-1480.411884,1378.971896
876.877292,-10658.965565,0.000000,995.924147
876.877613,-10066.800811,0.000000,2528.115143
876.877933,-10140.821405,222.061783,1915.238745
876.878254,-8956.491898,-222.061783,306.438199
876.878575,-8142.265362,-1702.473667,-2298.286494
876.878896,-8808.450710,-1332.370696,-1608.800546
876.879217,-9696.697840,-592.164754,153.219100
876.879537,-10066.800811,-296.082377,1991.848295
876.879858,-10362.883188,-222.061783,2221.676944
876.880179,-9548.656652,-666.185348,306.438199
876.880500,-9844.739029,-148.041188,536.266849
876.880820,-9844.739029,296.082377,1532.190996
876.881141,-10140.821405,370.102971,1302.362347
876.881462,-9104.533087,370.102971,306.438199
876.881783,-8882.471304,-444.123565,-1378.971896
876.882104,-9104.533087,0.000000,-229.828649
876.882424,-10288.862594,-518.144159,1685.410096
876.882745,-10584.944971,-1036.288319,3677.258390
876.883066,-10584.944971,-2220.617826,2757.943793
876.883387,-9474.636058,-1332.370696,1685.410096
876.883708,-9622.677246,-518.144159,1608.800546
876.884028,-9474.636058,296.082377,2068.457845
876.884349,-9474.636058,518.144159,2068.457845
876.884670,-9030.512492,-444.123565,-459.657299
876.884991,-7846.182985,-1332.370696,-2221.676944
876.885311,-9104.533087,-1554.432478,-1455.581446
876.885632,-10214.842000,-148.041188,3064.381992
876.885953,-11695.253884,74.020594,3447.429741
876.886274,-11177.109724,74.020594,3064.381992
876.886595,-10584.944971,-74.020594,2068.457845
876.886915,-9770.718434,0.000000,919.314598
876.887236,-9548.656652,370.102971,1532.190996
876.887557,-9474.636058,740.205942,919.314598
876.887878,-8734.430116,222.061783,-1149.143247
876.888198,-7402.059420,-148.041188,-2834.553343
876.888519,-9030.512492,0.000000,-2451.505594
876.888840,-9474.636058,888.247130,766.095498
876.889161,-11177.109724,592.164754,3217.601092
876.889482,-11325.150913,444.123565,4443.353888
876.889802,-10584.944971,0.000000,2068.457845
876.890123,-10658.965565,-444.123565,2604.724693
876.890444,-10362.883188,-296.082377,2987.772442
876.890765,-9326.594869,-370.102971,2298.286494
876.891086,-8512.368333,-370.102971,306.438199
876.891406,-7476.080014,-888.247130,-1685.410096
876.891727,-7994.224174,-888.247130,-1532.190996
876.892048,-9474.636058,0.000000,1225.752797
876.892369,-10510.924376,222.061783,2528.115143
876.892689,-10955.047942,740.205942,3600.648841
876.893010,-10362.883188,-666.185348,2451.505594
876.893331,-9622.677246,-666.185348,1915.238745
876.893652,-10288.862594,0.000000,3064.381992
876.893973,-9992.780217,-518.144159,5515.887586
876.894293,-8290.306550,0.000000,919.314598
876.894614,-7846.182985,-666.185348,-1378.971896
876.894935,-7624.121203,444.123565,-1072.533697
876.895256,-9548.656652,814.226536,1072.533697
876.895576,-10288.862594,1406.391290,3064.381992
876.895897,-10214.842000,962.267725,3140.991542
876.896218,-10436.903782,-888.247130,1762.019645
876.896539,-9474.636058,-444.123565,1455.581446
876.896860,-11251.130318,0.000000,1072.533697
876.897180,-9474.636058,518.144159,1532.190996
876.897501,-9178.553681,148.041188,0.000000
876.897822,-8142.265362,-296.082377,-2221.676944
876.898143,-8216.285956,-296.082377,-1378.971896
876.898464,-10066.800811,-814.226536,0.000000
876.898784,-10510.924376,-222.061783,2068.457845
876.899105,-11029.068536,-1036.288319,2374.896044
876.899426,-10436.903782,-1406.391290,1991.848295
876.899747,-10214.842000,-962.267725,1608.800546
876.900067,-10658.965565,-370.102971,1762.019645
876.900388,-9622.677246,296.082377,1838.629195
876.900709,-8660.409521,-148.041188,-612.876398
876.901030,-7846.182985,-1110.308913,-1762.019645
876.901351,-8438.347739,-370.102971,-1838.629195
876.901671,-9622.677246,0.000000,459.657299
876.901992,-10510.924376,0.000000,2681.334243
876.902313,-10955.047942,-444.123565,3677.258390
876.902634,-11029.068536,-1628.453072,2451.505594
876.902954,-10436.903782,-1554.432478,1225.752797
876.903275,-10436.903782,-888.247130,2374.896044
876.903596,-9770.718434,-148.041188,2374.896044
876.903917,-8808.450710,-814.226536,459.657299
876.904238,-7920.203579,-518.144159,-1685.410096
876.904558,-7698.141797,-1036.288319,-2451.505594
876.904879,-8734.430116,-444.123565,-536.266849
876.905200,-9918.759623,444.123565,1838.629195
876.905521,-10214.842000,-592.164754,2374.896044
876.905842,-10140.821405,-1110.308913,2145.067394
876.906162,-10066.800811,-962.267725,2374.896044
876.906483,-9918.759623,-888.247130,2221.676944
876.906804,-10288.862594,-444.123565,2911.162892
876.907125,-9252.574275,-814.226536,1072.533697
876.907445,-7846.182985,-1332.370696,-1378.971896
876.907766,-8068.244768,-518.144159,-1608.800546
876.908087,-9178.553681,666.185348,612.876398
876.908408,-10066.800811,444.123565,2374.896044
876.908729,-10510.924376,-592.164754,3064.381992
876.909049,-10288.862594,-1332.370696,1915.238745
876.909370,-10362.883188,-1776.494261,1762.019645
876.909691,-10436.903782,-296.082377,2451.505594
876.910012,-10584.944971,592.164754,2757.943793
876.910332,-9548.656652,74.020594,1378.971896
876.910653,-8364.327145,-296.082377,-842.705048
876.910974,-8438.347739,-740.205942,-1608.800546
876.911295,-9178.553681,0.000000,229.828649
876.911616,-10362.883188,148.041188,2221.676944
876.911936,-10732.986159,0.000000,2681.334243
876.912257,-9474.636058,-370.102971,1149.143247
876.912578,-9548.656652,-444.123565,919.314598
876.912899,-10066.800811,0.000000,2068.457845
876.913220,-10214.842000,148.041188,2221.676944
876.913540,-9474.636058,74.020594,536.266849
876.913861,-8660.409521,-296.082377,-919.314598
876.914182,-8290.306550,-814.226536,-2221.676944
876.914503,-9252.574275,0.000000,153.219100
876.914823,-10288.862594,888.247130,2757.943793
876.915144,-10066.800811,0.000000,2528.115143
876.915465,-9548.656652,-1258.350101,1072.533697
876.915786,-9326.594869,-1480.411884,229.828649
876.916107,-9696.697840,-814.226536,1378.971896
876.916427,-9992.780217,-518.144159,1685.410096
876.916748,-9252.574275,296.082377,842.705048
876.917069,-8734.430116,-888.247130,-612.876398
876.917390,-7994.224174,-888.247130,-1225.752797
876.917711,-9992.780217,148.041188,1149.143247
876.918031,-10881.027347,-370.102971,2987.772442
876.918352,-10510.924376,74.020594,3140.991542
876.918673,-9918.759623,-592.164754,2145.067394
876.918994,-8882.471304,666.185348,1838.629195
876.919314,-9474.636058,888.247130,1455.581446
876.919635,-9992.780217,1036.288319,1838.629195
876.919956,-9030.512492,222.061783,76.609550
876.920277,-8586.388927,-518.144159,-1302.362347
876.920598,-8808.450710,-888.247130,-1991.848295
876.920918,-9844.739029,-592.164754,0.000000
876.921239,-10807.006753,0.000000,2987.772442
876.921560,-10362.883188,-148.041188,3294.210641
876.921881,-9844.739029,-666.185348,1455.581446
876.922201,-9770.718434,-888.247130,1072.533697
876.922522,-10140.821405,-740.205942,1685.410096
876.922843,-9918.759623,-814.226536,2604.724693
876.923164,-9326.594869,-666.185348,459.657299
876.923484,-8364.327145,-1184.329507,-1302.362347
876.923805,-8290.306550,-962.267725,-1991.848295
876.924126,-9696.697840,148.041188,76.609550
876.924447,-10436.903782,518.144159,2528.115143
876.924768,-10140.821405,-148.041188,2451.505594
876.925088,-9844.739029,-1258.350101,1532.190996
876.925409,-9548.656652,-1258.350101,612.876398
876.925730,-9622.677246,-444.123565,1302.362347
876.926051,-9474.636058,-296.082377,2374.896044
876.926371,-9252.574275,0.000000,1149.143247
876.926692,-8364.327145,-740.205942,-995.924147
876.927013,-8512.368333,-370.102971,-1072.533697
876.927334,-9622.677246,74.020594,689.485948
876.927654,-10658.965565,74.020594,2987.772442
876.927975,-10436.903782,0.000000,3677.258390
876.928296,-9770.718434,-888.247130,1991.848295
876.928617,-9622.677246,-1110.308913,766.095498
876.928938,-9548.656652,-296.082377,1378.971896
876.929258,-9622.677246,370.102971,1762.019645
876.929579,-9030.512492,518.144159,459.657299
876.929900,-8660.409521,222.061783,-995.924147
876.930221,-8660.409521,74.020594,-995.924147
876.930541,-9474.636058,296.082377,689.485948
876.930862,-10658.965565,444.123565,2681.334243
876.931183,-10658.965565,0.000000,3370.820191
876.931504,-10362.883188,-1332.370696,2145.067394
876.931824,-9918.759623,-370.102971,2604.724693
876.932145,-9696.697840,-222.061783,1608.800546
876.932466,-9474.636058,222.061783,1685.410096
876.932787,-9252.574275,74.020594,766.095498
876.933108,-8364.327145,-296.082377,-1072.533697
876.933428,-8216.285956,-592.164754,-1762.019645
876.933749,-9548.656652,-444.123565,689.485948
876.934070,-10584.944971,-370.102971,3294.210641
876.934391,-10807.006753,-962.267725,3217.601092
876.934711,-10140.821405,-1850.514855,1302.362347
876.935032,-9622.677246,-1332.370696,919.314598
876.935353,-9696.697840,0.000000,1455.581446
876.935674,-9770.718434,148.041188,2068.457845
876.935994,-8956.491898,222.061783,1072.533697
876.936315,-8068.244768,0.000000,-995.924147
876.936636,-8586.388927,-962.267725,-1378.971896
876.936957,-9178.553681,-592.164754,153.219100
876.937278,-10362.883188,-814.226536,2681.334243
876.937598,-10510.924376,-1480.411884,2911.162892
876.937919,-9622.677246,-1110.308913,1991.848295
876.938240,-10214.842000,-1110.308913,1455.581446
876.938561,-9474.636058,0.000000,1608.800546
876.938881,-10288.862594,666.185348,842.705048
876.939202,-9770.718434,74.020594,1225.752797
876.939523,-8068.244768,-444.123565,-1149.143247
876.939844,-8512.368333,-1258.350101,-2145.067394
876.940164,-8882.471304,0.000000,0.000000
876.940485,-10214.842000,444.123565,1532.190996
876.940806,-10881.027347,296.082377,2987.772442
876.941127,-9770.718434,-740.205942,1455.581446
876.941448,-9918.759623,-814.226536,689.485948
876.941768,-9770.718434,-1406.391290,689.485948
876.942089,-9992.780217,0.000000,1532.190996
876.942410,-9474.636058,74.020594,919.314598
876.942731,-8438.347739,-1258.350101,-1149.143247
876.943051,-8290.306550,-1628.453072,-1991.848295
876.943372,-9474.636058,-814.226536,0.000000
876.943693,-10807.006753,74.020594,2068.457845
876.944014,-10881.027347,296.082377,3217.601092
876.944334,-10214.842000,-148.041188,2298.286494
876.944655,-10214.842000,-518.144159,1685.410096
876.944976,-9992.780217,-148.041188,1455.581446
876.945297,-9918.759623,-222.061783,1762.019645
876.945618,-8956.491898,-518.144159,536.266849
876.945938,-8290.306550,-1036.288319,-995.924147
876.946259,-8586.388927,-1258.350101,-1608.800546
876.946580,-9326.594869,-592.164754,459.657299
876.946901,-10436.903782,-222.061783,1991.848295
876.947221,-10584.944971,-1036.288319,3217.601092
876.947542,-10066.800811,-1258.350101,1608.800546
876.947863,-9992.780217,-1258.350101,1378.971896
876.948184,-9992.780217,-296.082377,1915.238745
876.948504,-9770.718434,222.061783,2451.505594
876.948825,-9474.636058,-740.205942,919.314598
876.949146,-8216.285956,-1332.370696,-842.705048
876.949467,-8512.368333,-1702.473667,-1378.971896
876.949788,-9178.553681,-740.205942,0.000000
876.950108,-9992.780217,148.041188,2298.286494
876.950429,-10510.924376,0.000000,2451.505594
876.950750,-9474.636058,-518.144159,1302.362347
876.951071,-9400.615463,-444.123565,306.438199
876.951391,-9548.656652,-74.020594,1225.752797
876.951712,-8882.471304,-148.041188,1455.581446
876.952033,-9178.553681,0.000000,766.095498
876.952354,-8586.388927,-592.164754,-1378.971896
876.952674,-8512.368333,148.041188,-1762.019645
876.952995,-9548.656652,1110.308913,612.876398
876.953316,-11325.150913,1480.411884,3370.820191
876.953637,-11621.233289,444.123565,3983.696590
876.953958,-10732.986159,-592.164754,2451.505594
876.954278,-10510.924376,-1036.288319,1072.533697
876.954599,-9696.697840,74.020594,1225.752797
876.954920,-9918.759623,592.164754,2068.457845
876.955241,-9252.574275,814.226536,842.705048
876.955561,-8068.244768,-148.041188,-1608.800546
876.955882,-7994.224174,-740.205942,-2451.505594
876.956203,-9252.574275,74.020594,76.609550
876.956524,-10436.903782,74.020594,2451.505594
876.956844,-11547.212695,0.000000,4290.134789
876.957165,-10732.986159,-296.082377,2911.162892
876.957486,-9770.718434,-814.226536,2374.896044
876.957807,-10066.800811,-222.061783,2681.334243
876.958128,-10214.842000,148.041188,3294.210641
876.958448,-9622.677246,370.102971,1608.800546
876.958769,-8216.285956,-148.041188,-689.485948
876.959090,-7179.997637,-370.102971,-1915.238745
876.959411,-8216.285956,-592.164754,-1532.190996
876.959731,-9030.512492,74.020594,1225.752797
876.960052,-10214.842000,296.082377,2451.505594
876.960373,-10214.842000,-592.164754,1838.629195
876.960694,-9474.636058,-592.164754,1302.362347
876.961014,-10732.986159,-740.205942,1991.848295
876.961335,-9992.780217,444.123565,2911.162892
876.961656,-9918.759623,0.000000,2298.286494
876.961977,-7994.224174,0.000000,-612.876398
876.962298,-8512.368333,-666.185348,-1455.581446
876.962618,-8364.327145,148.041188,0.000000
876.962939,-10510.924376,-1998.556043,1378.971896
876.963260,-8882.471304,296.082377,2221.676944
876.963581,-10214.842000,-1406.391290,1149.143247
876.963901,-9696.697840,-518.144159,1685.410096
876.964222,-9770.718434,-148.041188,2145.067394
876.964543,-11843.295072,814.226536,4519.963438
876.964864,-9844.739029,0.000000,2221.676944
876.965184,-8216.285956,-962.267725,-612.876398
876.965505,-9400.615463,-592.164754,-459.657299
876.965826,-8438.347739,-592.164754,-536.266849
876.966147,-10362.883188,444.123565,2068.457845
876.966468,-10510.924376,148.041188,2834.553343
876.966788,-8956.491898,-740.205942,306.438199
876.967109,-10584.944971,-740.205942,383.047749
876.967430,-10140.821405,-740.205942,919.314598
876.967751,-9992.780217,-148.041188,1685.410096
876.968071,-10362.883188,-296.082377,1378.971896
876.968392,-8956.491898,-1258.350101,-536.266849
876.968713,-8734.430116,-1110.308913,-2757.943793
876.969034,-9844.739029,-814.226536,-153.219100
876.969354,-10140.821405,0.000000,1532.190996
876.969675,-10140.821405,-222.061783,2604.724693
876.969996,-10288.862594,-888.247130,2604.724693
876.970317,-9548.656652,-962.267725,1915.238745
876.970638,-10214.842000,-1184.329507,1762.019645
876.970958,-9918.759623,-148.041188,2451.505594
876.971279,-9326.594869,-666.185348,2068.457845
876.971600,-8290.306550,-1924.535449,-995.924147
876.971921,-8364.327145,-962.267725,-1225.752797
876.972241,-8956.491898,222.061783,0.000000
876.972562,-10066.800811,370.102971,1838.629195
876.972883,-10658.965565,-296.082377,2757.943793
876.973204,-10066.800811,-1184.329507,1838.629195
876.973524,-9844.739029,-1628.453072,383.047749
876.973845,-9844.739029,-444.123565,1149.143247
876.974166,-9622.677246,518.144159,1762.019645
876.974487,-9178.553681,148.041188,1149.143247
876.974808,-8438.347739,0.000000,-919.314598
876.975128,-8216.285956,-370.102971,-1685.410096
876.975449,-9178.553681,-148.041188,-153.219100
876.975770,-10436.903782,148.041188,2451.505594
876.976091,-11177.109724,148.041188,3600.648841
876.976411,-10732.986159,-666.185348,2834.553343
876.976732,-9918.759623,-888.247130,1685.410096
876.977053,-10214.842000,-444.123565,2604.724693
876.977374,-9844.739029,0.000000,2068.457845
876.977694,-9252.574275,222.061783,842.705048
876.978015,-8142.265362,-740.205942,-1302.362347
876.978336,-8142.265362,-370.102971,-2528.115143
876.978657,-8882.471304,740.205942,-459.657299
876.978978,-10066.800811,0.000000,1455.581446
876.979298,-10288.862594,-296.082377,2528.115143
876.979619,-10214.842000,-1776.494261,1838.629195
876.979940,-9548.656652,-2590.720797,689.485948
876.980261,-9992.780217,-1702.473667,1532.190996
876.980581,-10140.821405,-592.164754,1991.848295
876.980902,-9474.636058,0.000000,1378.971896
876.981223,-7476.080014,0.000000,1685.410096
876.981544,-7698.141797,-1036.288319,-1455.581446
876.981864,-8882.471304,-962.267725,-995.924147
876.982185,-9696.697840,-444.123565,1225.752797
876.982506,-10658.965565,74.020594,3064.381992
876.982827,-10436.903782,222.061783,2451.505594
876.983148,-10140.821405,222.061783,1915.238745
876.983468,-10066.800811,518.144159,2374.896044
876.983789,-10214.842000,518.144159,2068.457845
876.984110,-9844.739029,0.000000,1762.019645
876.984431,-9104.533087,-740.205942,-536.266849
876.984751,-8068.244768,0.000000,-1991.848295
876.985072,-9178.553681,0.000000,-306.438199
876.985393,-9400.615463,1702.473667,3294.210641
876.985714,-11103.089130,518.144159,3524.039291
876.986034,-10140.821405,-1036.288319,1685.410096
876.986355,-10066.800811,-1258.350101,1149.143247
876.986676,-9696.697840,-1110.308913,1072.533697
876.986997,-10288.862594,-370.102971,1991.848295
876.987318,-9696.697840,0.000000,1762.019645
876.987638,-8734.430116,-592.164754,0.000000
876.987959,-8586.388927,-592.164754,-1225.752797
876.988280,-9252.574275,-148.041188,0.000000
876.988601,-10510.924376,444.123565,2068.457845
876.988921,-11029.068536,666.185348,3294.210641
876.989242,-9844.739029,-296.082377,2528.115143
876.989563,-9474.636058,-592.164754,1378.971896
876.989884,-9400.615463,-444.123565,1762.019645
876.990204,-9474.636058,-296.082377,2068.457845
876.990525,-9252.574275,-370.102971,1838.629195
876.990846,-7920.203579,-1332.370696,-919.314598
876.991167,-7994.224174,-1036.288319,-2068.457845
876.991488,-8734.430116,0.000000,-536.266849
876.991808,-10140.821405,444.123565,2145.067394
876.992129,-10288.862594,592.164754,3753.867940
876.992450,-9918.759623,-1554.432478,2145.067394
876.992771,-10066.800811,-1554.432478,919.314598
876.993091,-9548.656652,-370.102971,612.876398
876.993412,-9844.739029,518.144159,1762.019645
876.993733,-8808.450710,222.061783,2374.896044
876.994054,-8068.244768,74.020594,-1149.143247
876.994374,-8586.388927,-1110.308913,-2451.505594
876.994695,-8956.491898,-666.185348,-1532.190996
876.995016,-10362.883188,-148.041188,766.095498
876.995337,-10807.006753,370.102971,2834.553343
876.995657,-10510.924376,-296.082377,1991.848295
876.995978,-9918.759623,-1110.308913,1455.581446
876.996299,-9622.677246,-1184.329507,919.314598
876.996620,-9992.780217,0.000000,2298.286494
876.996941,-9770.718434,-444.123565,1532.190996
876.997261,-8808.450710,-518.144159,-76.609550
876.997582,-8586.388927,-592.164754,-1149.143247
876.997903,-9474.636058,-222.061783,383.047749
876.998224,-10584.944971,370.102971,2451.505594
876.998544,-11103.089130,222.061783,4060.306139
876.998865,-10881.027347,-518.144159,3140.991542
876.999186,-10140.821405,-888.247130,1608.800546
876.999507,-9992.780217,-814.226536,919.314598
876.999827,-9696.697840,0.000000,1991.848295
877.000148,-9252.574275,74.020594,1915.238745
877.000469,-8364.327145,-814.226536,-536.266849
877.000790,-7402.059420,-740.205942,-1149.143247
877.001111,-8586.388927,-666.185348,-1149.143247
877.001431,-10140.821405,-370.102971,1608.800546
877.001752,-10732.986159,74.020594,3600.648841
877.002073,-10807.006753,-740.205942,3447.429741
877.002394,-10214.842000,-1776.494261,1991.848295
877.002714,-9474.636058,-1036.288319,2145.067394
877.003035,-10214.842000,-518.144159,2451.505594
877.003356,-9178.553681,592.164754,1762.019645
877.003677,-8882.471304,0.000000,0.000000
877.003997,-7624.121203,148.041188,-1608.800546
877.004318,-8512.368333,74.020594,-612.876398
877.004639,-9770.718434,74.020594,2145.067394
877.004960,-10881.027347,-74.020594,3600.648841
877.005281,-10436.903782,-518.144159,2681.334243
877.005601,-10066.800811,-962.267725,1302.362347
877.005922,-9622.677246,-222.061783,1455.581446
877.006243,-10066.800811,518.144159,1455.581446
877.006564,-9400.615463,0.000000,1149.143247
877.006884,-8808.450710,-444.123565,-459.657299
877.007205,-8142.265362,-1184.329507,-2451.505594
877.007526,-8882.471304,-740.205942,-1532.190996
877.007847,-10066.800811,-592.164754,919.314598
877.008167,-10510.924376,0.000000,2604.724693
877.008488,-10658.965565,-666.185348,2374.896044
877.008809,-9844.739029,-1110.308913,1302.362347
877.009130,-9622.677246,-888.247130,1302.362347
877.009451,-10584.944971,444.123565,2221.676944
877.009771,-9844.739029,592.164754,1532.190996
877.010092,-8808.450710,222.061783,-229.828649
877.010413,-7994.224174,-296.082377,-919.314598
877.010734,-8364.327145,0.000000,-1302.362347
877.011054,-10066.800811,0.000000,1225.752797
877.011375,-10066.800811,0.000000,2757.943793
877.011696,-10436.903782,-1110.308913,1915.238745
877.012017,-10140.821405,-888.247130,1378.971896
877.012337,-10140.821405,-666.185348,1225.752797
877.012658,-10214.842000,222.061783,1991.848295
877.012979,-9474.636058,370.102971,1378.971896
877.013300,-9030.512492,74.020594,-536.266849
877.013621,-8290.306550,-666.185348,-1915.238745
877.013941,-8734.430116,-1184.329507,-1225.752797
877.014262,-9622.677246,-888.247130,842.705048
877.014583,-11325.150913,148.041188,2681.334243
877.014904,-10510.924376,-1702.473667,2604.724693
877.015224,-9918.759623,-1110.308913,2068.457845
877.015545,-10066.800811,-962.267725,2068.457845
877.015866,-9474.636058,0.000000,2604.724693
877.016187,-9474.636058,74.020594,2221.676944
877.016507,-8808.450710,-888.247130,153.219100
877.016828,-7920.203579,-962.267725,-1378.971896
877.017149,-8956.491898,-518.144159,-229.828649
877.017470,-9400.615463,-592.164754,2451.505594
877.017791,-10732.986159,74.020594,3370.820191
877.018111,-10955.047942,-296.082377,3217.601092
877.018432,-10214.842000,-592.164754,1225.752797
877.018753,-9104.533087,444.123565,689.485948
877.019074,-10066.800811,370.102971,2068.457845
877.019394,-9844.739029,1110.308913,919.314598
877.019715,-8956.491898,444.123565,-229.828649
877.020036,-8290.306550,-740.205942,-1762.019645
877.020357,-8882.471304,-962.267725,-1302.362347
877.020677,-10140.821405,-370.102971,919.314598
877.020998,-10807.006753,-444.123565,3064.381992
877.021319,-10584.944971,-592.164754,2987.772442
877.021640,-9770.718434,-1554.432478,1915.238745
877.021960,-9474.636058,-666.185348,459.657299
877.022281,-9622.677246,-148.041188,612.876398
877.022602,-9030.512492,148.041188,689.485948
877.022923,-7402.059420,0.000000,536.266849
877.023243,-7476.080014,-518.144159,-2451.505594
877.023564,-8364.327145,0.000000,-2068.457845
877.023885,-9474.636058,814.226536,766.095498
877.024206,-10881.027347,962.267725,2834.553343
877.024526,-10288.862594,1036.288319,3600.648841
877.024847,-11325.150913,-1258.350101,2374.896044
877.025168,-8808.450710,-444.123565,1915.238745
877.025488,-10066.800811,-962.267725,2221.676944
877.025809,-9326.594869,888.247130,3447.429741
877.026130,-8438.347739,222.061783,306.438199
877.026451,-8290.306550,-518.144159,-1608.800546
877.026771,-7698.141797,0.000000,-1378.971896
877.027092,-9622.677246,-444.123565,306.438199
877.027413,-10066.800811,0.000000,2604.724693
877.027734,-10658.965565,-814.226536,2451.505594
877.028054,-9992.780217,-592.164754,1762.019645
877.028375,-9770.718434,0.000000,2145.067394
877.028696,-9918.759623,888.247130,2374.896044
877.029017,-10436.903782,592.164754,3294.210641
877.029337,-9474.636058,-148.041188,919.314598
877.029658,-8586.388927,-444.123565,-1149.143247
877.029979,-8438.347739,-444.123565,-2221.676944
877.030300,-10288.862594,74.020594,1225.752797
877.030620,-10584.944971,370.102971,3140.991542
877.030941,-10807.006753,-592.164754,2451.505594
877.031262,-10362.883188,-888.247130,1072.533697
877.031582,-10436.903782,-962.267725,842.705048
877.031903,-10807.006753,-222.061783,2145.067394
877.032224,-10732.986159,0.000000,2298.286494
877.032545,-9400.615463,-444.123565,766.095498
877.032865,-8586.388927,-1406.391290,-2298.286494
877.033186,-8142.265362,-1776.494261,-2298.286494
877.033507,-9178.553681,-518.144159,0.000000
877.033828,-10214.842000,0.000000,2298.286494
877.034148,-9622.677246,-74.020594,1608.800546
877.034469,-9030.512492,-1258.350101,766.095498
877.034790,-9400.615463,-740.205942,1072.533697
877.035111,-10436.903782,-444.123565,2528.115143
877.035431,-10584.944971,-1110.308913,2834.553343
877.035752,-8660.409521,-962.267725,2068.457845
877.036073,-8882.471304,-2072.576638,-383.047749
877.036393,-8586.388927,-740.205942,-306.438199
877.036714,-9474.636058,-222.061783,1762.019645
877.037035,-9992.780217,222.061783,3524.039291
877.037356,-9844.739029,0.000000,1838.629195
877.037676,-9770.718434,-888.247130,919.314598
877.037997,-9474.636058,-444.123565,919.314598
877.038318,-9696.697840,-888.247130,1225.752797
877.038639,-9918.759623,74.020594,1838.629195
877.038959,-9104.533087,0.000000,-153.219100
877.039280,-8216.285956,-370.102971,-2528.115143
877.039601,-9326.594869,0.000000,-1532.190996
877.039922,-9770.718434,296.082377,766.095498
877.040242,-10436.903782,148.041188,2451.505594
877.040563,-10658.965565,-592.164754,2374.896044
877.040884,-9474.636058,-1110.308913,1072.533697
877.041204,-9474.636058,-1924.535449,1302.362347
877.041525,-10066.800811,-962.267725,1991.848295
877.041846,-9992.780217,-370.102971,1685.410096
877.042167,-9252.574275,-148.041188,0.000000
877.042487,-8512.368333,-370.102971,-1225.752797
877.042808,-8882.471304,222.061783,-1378.971896
877.043129,-9844.739029,370.102971,995.924147
877.043450,-10584.944971,296.082377,2911.162892
877.043770,-10214.842000,-296.082377,2451.505594
877.044091,-9770.718434,-814.226536,1991.848295
877.044412,-9770.718434,-740.205942,1149.143247
877.044733,-9548.656652,222.061783,1838.629195
877.045053,-9918.759623,666.185348,1838.629195
877.045374,-7994.224174,962.267725,612.876398
877.045695,-8586.388927,-518.144159,-1378.971896
877.046016,-8216.285956,-1480.411884,-1225.752797
877.046336,-9474.636058,-814.226536,689.485948
877.046657,-10288.862594,-296.082377,3677.258390
877.046978,-10436.903782,-888.247130,3447.429741
877.047298,-10140.821405,-1258.350101,2451.505594
877.047619,-9992.780217,-1406.391290,1991.848295
877.047940,-10288.862594,-222.061783,1838.629195
877.048261,-10510.924376,370.102971,2068.457845
877.048581,-9178.553681,666.185348,0.000000
877.048902,-8586.388927,888.247130,-1378.971896
877.049223,-8512.368333,592.164754,-1225.752797
877.049544,-9104.533087,0.000000,0.000000
877.049864,-10510.924376,-666.185348,2221.676944
877.050185,-9770.718434,-962.267725,2451.505594
877.050506,-10066.800811,-1554.432478,1455.581446
877.050827,-9918.759623,-666.185348,1378.971896
877.051147,-9918.759623,814.226536,2298.286494
877.051468,-10214.842000,1184.329507,2068.457845
877.051789,-9104.533087,444.123565,689.485948
877.052109,-8290.306550,-296.082377,-1302.362347
877.052430,-8586.388927,-1036.288319,-1685.410096
877.052751,-9474.636058,-444.123565,76.609550
877.053072,-10658.965565,370.102971,2528.115143
877.053392,-10362.883188,222.061783,2911.162892
877.053713,-10955.047942,0.000000,2145.067394
877.054034,-9696.697840,-592.164754,1225.752797
877.054355,-9992.780217,-222.061783,1915.238745
877.054675,-10066.800811,-518.144159,2068.457845
877.054996,-9178.553681,-740.205942,2451.505594
877.055317,-8068.244768,-1258.350101,-1072.533697
877.055638,-8586.388927,-370.102971,-842.705048
877.055958,-9326.594869,444.123565,1225.752797
877.056279,-10584.944971,444.123565,2987.772442
877.056600,-10436.903782,0.000000,3217.601092
877.056920,-9918.759623,-814.226536,1608.800546
877.057241,-9770.718434,-666.185348,1149.143247
877.057562,-10066.800811,148.041188,1991.848295
877.057883,-9252.574275,1776.494261,1991.848295
877.058203,-9030.512492,-74.020594,229.828649
877.058524,-8290.306550,-518.144159,-1762.019645
877.058845,-8734.430116,-962.267725,-1302.362347
877.059166,-9622.677246,74.020594,-459.657299
877.059486,-10584.944971,222.061783,2911.162892
877.059807,-10362.883188,0.000000,3064.381992
877.060128,-9844.739029,-740.205942,1378.971896
877.060449,-9474.636058,-592.164754,1302.362347
877.060769,-10140.821405,-518.144159,2145.067394
877.061090,-9696.697840,-1110.308913,2298.286494
877.061411,-8882.471304,-1628.453072,995.924147
877.061732,-8364.327145,-2368.659014,-995.924147
877.062052,-8290.306550,-1406.391290,-1762.019645
877.062373,-9474.636058,0.000000,766.095498
877.062694,-10584.944971,444.123565,3140.991542
877.063014,-10732.986159,-148.041188,3217.601092
877.063335,-10510.924376,-962.267725,2528.115143
877.063656,-10066.800811,-1628.453072,1608.800546
877.063977,-9770.718434,-1332.370696,2068.457845
877.064297,-9622.677246,-222.061783,1685.410096
877.064618,-9030.512492,-148.041188,842.705048
877.064939,-7624.121203,74.020594,-995.924147
877.065260,-8734.430116,222.061783,-766.095498
877.065580,-9622.677246,444.123565,153.219100
877.065901,-9992.780217,222.061783,1915.238745
877.066222,-10732.986159,-296.082377,689.485948
877.066543,-9696.697840,-592.164754,766.095498
877.066863,-9696.697840,-962.267725,612.876398
877.067184,-9696.697840,0.000000,1225.752797
877.067505,-9992.780217,370.102971,1915.238745
877.067825,-9696.697840,-222.061783,459.657299
877.068146,-9030.512492,-222.061783,-919.314598
877.068467,-9104.533087,-370.102971,-1149.143247
877.068788,-9622.677246,0.000000,306.438199
877.069108,-11177.109724,888.247130,2757.943793
877.069429,-11103.089130,-740.205942,2604.724693
877.069750,-9696.697840,-1184.329507,995.924147
877.070071,-9326.594869,-962.267725,0.000000
877.070391,-8290.306550,-370.102971,459.657299
877.070712,-9992.780217,1036.288319,1915.238745
877.071033,-9400.615463,518.144159,1072.533697
877.071354,-7994.224174,-222.061783,-1225.752797
877.071674,-8882.471304,-666.185348,-1455.581446
877.071995,-9474.636058,-592.164754,689.485948
877.072316,-10584.944971,-444.123565,2681.334243
877.072636,-10658.965565,-1406.391290,3600.648841
877.072957,-9622.677246,-1554.432478,1915.238745
877.073278,-10066.800811,-962.267725,76.609550
877.073599,-9770.718434,0.000000,1685.410096
877.073919,-9918.759623,222.061783,2068.457845
877.074240,-9030.512492,444.123565,842.705048
877.074561,-8142.265362,-592.164754,919.314598
877.074882,-8734.430116,-666.185348,-919.314598
877.075202,-9474.636058,-740.205942,842.705048
877.075523,-10362.883188,-444.123565,3217.601092
877.075844,-10584.944971,-444.123565,4673.182538
877.076165,-9844.739029,-1184.329507,1762.019645
877.076485,-9178.553681,-444.123565,766.095498
877.076806,-9622.677246,-370.102971,1455.581446
877.077127,-9622.677246,-222.061783,1532.190996
877.077448,-8660.409521,-592.164754,1455.581446
877.077768,-8586.388927,-1554.432478,-1225.752797
877.078089,-8438.347739,-1554.432478,-1455.581446
877.078410,-9474.636058,-1036.288319,536.266849
877.078730,-10362.883188,-148.041188,4136.915689
877.079051,-10955.047942,0.000000,3524.039291
877.079372,-10362.883188,-740.205942,2374.896044
877.079693,-9548.656652,-962.267725,1149.143247
877.080013,-9770.718434,-666.185348,1685.410096
877.080334,-9918.759623,-814.226536,1915.238745
877.080655,-9030.512492,-592.164754,459.657299
877.080976,-8364.327145,-666.185348,-1302.362347
877.081296,-8438.347739,296.082377,-1378.971896
877.081617,-9844.739029,1332.370696,1149.143247
877.081938,-10881.027347,1036.288319,3294.210641
877.082259,-11547.212695,444.123565,2604.724693
877.082579,-10436.903782,0.000000,919.314598
877.082900,-10066.800811,-370.102971,-1149.143247
877.083221,-9918.759623,296.082377,1302.362347
877.083541,-9918.759623,296.082377,1225.752797
877.083862,-9474.636058,148.041188,0.000000
877.084183,-8068.244768,-444.123565,-1149.143247
877.084504,-9030.512492,-740.205942,-1225.752797
877.084824,-9918.759623,0.000000,919.314598
877.085145,-11177.109724,222.061783,3217.601092
877.085466,-10362.883188,0.000000,3217.601092
877.085787,-9770.718434,-740.205942,1685.410096
877.086107,-9030.512492,-888.247130,1072.533697
877.086428,-9622.677246,0.000000,1608.800546
877.086749,-9622.677246,296.082377,2068.457845
877.087070,-8660.409521,0.000000,0.000000
877.087390,-8142.265362,-592.164754,-1302.362347
877.087711,-8142.265362,-962.267725,-1762.019645
877.088032,-8956.491898,74.020594,612.876398
877.088352,-10436.903782,666.185348,3217.601092
877.088673,-10658.965565,370.102971,3907.087040
877.088994,-10140.821405,-1184.329507,2374.896044
877.089315,-9474.636058,-1258.350101,689.485948
877.089635,-8956.491898,148.041188,1378.971896
877.089956,-10140.821405,518.144159,1532.190996
877.090277,-7772.162391,962.267725,1378.971896
877.090598,-7920.203579,-148.041188,-995.924147
877.090918,-8216.285956,0.000000,-995.924147
877.091239,-9400.615463,0.000000,2451.505594
877.091560,-11177.109724,296.082377,3677.258390
877.091881,-10584.944971,296.082377,4290.134789
877.092201,-10732.986159,-1036.288319,2757.943793
877.092522,-9474.636058,-444.123565,3294.210641
877.092843,-10510.924376,-740.205942,2145.067394
877.093163,-9696.697840,0.000000,1915.238745
877.093484,-9030.512492,-444.123565,383.047749
877.093805,-8438.347739,-1110.308913,-2221.676944
877.094126,-8364.327145,-370.102971,-2374.896044
877.094446,-9178.553681,0.000000,-919.314598
877.094767,-10362.883188,740.205942,1991.848295
877.095088,-10658.965565,222.061783,2451.505594
877.095409,-10955.047942,-740.205942,3677.258390
877.095729,-10066.800811,-1184.329507,995.924147
877.096050,-10140.821405,-370.102971,1685.410096
877.096371,-10362.883188,148.041188,2757.943793
877.096692,-9696.697840,-518.144159,1915.238745
877.097012,-8438.347739,-1332.370696,-459.657299
877.097333,-8882.471304,-1924.535449,-2145.067394
877.097654,-9400.615463,-888.247130,-153.219100
877.097975,-10436.903782,0.000000,2374.896044
877.098295,-10214.842000,0.000000,3294.210641
877.098616,-9844.739029,-666.185348,1915.238745
877.098937,-9400.615463,-1110.308913,1072.533697
877.099257,-9474.636058,-740.205942,1532.190996
877.099578,-10140.821405,-888.247130,2145.067394
877.099899,-9400.615463,-296.082377,1149.143247
877.100220,-8586.388927,-1258.350101,-612.876398
877.100540,-8290.306550,-740.205942,-766.095498
877.100861,-9474.636058,-740.205942,306.438199
877.101182,-10288.862594,-444.123565,2604.724693
877.101503,-10658.965565,-666.185348,2911.162892
877.101823,-10066.800811,-1406.391290,1225.752797
877.102144,-9548.656652,-888.247130,229.828649
877.102465,-9474.636058,-222.061783,459.657299
877.102786,-10066.800811,148.041188,1455.581446
877.103106,-9548.656652,-370.102971,919.314598
877.103427,-8808.450710,-1258.350101,-766.095498
877.103748,-8956.491898,-1776.494261,-2298.286494
877.104068,-10140.821405,-592.164754,612.876398
877.104389,-10436.903782,148.041188,2911.162892
877.104710,-10066.800811,0.000000,2834.553343
877.105031,-9474.636058,-592.164754,1149.143247
877.105351,-8586.388927,0.000000,-153.219100
877.105672,-8882.471304,-296.082377,383.047749
877.105993,-8882.471304,444.123565,1915.238745
877.106314,-9326.594869,222.061783,1455.581446
877.106634,-8660.409521,0.000000,-919.314598
877.106955,-8808.450710,0.000000,-383.047749
877.107276,-9696.697840,222.061783,1532.190996
877.107597,-11695.253884,370.102971,3983.696590
877.107917,-9104.533087,-888.247130,3294.210641
877.108238,-10066.800811,-1036.288319,2145.067394
877.108559,-9474.636058,-1258.350101,689.485948
877.108879,-8956.491898,0.000000,1149.143247
877.109200,-9622.677246,222.061783,1378.971896
877.109521,-8660.409521,0.000000,383.047749
877.109842,-8068.244768,-370.102971,-995.924147
877.110162,-8586.388927,-1184.329507,-1915.238745
877.110483,-9474.636058,-222.061783,229.828649
877.110804,-10732.986159,74.020594,2604.724693
877.111125,-11029.068536,-370.102971,3753.867940
877.111445,-10140.821405,-1258.350101,2451.505594
877.111766,-9474.636058,-1480.411884,1378.971896
877.112087,-9622.677246,-1110.308913,3447.429741
877.112408,-9696.697840,222.061783,1455.581446
877.112728,-9030.512492,962.267725,383.047749
877.113049,-8438.347739,0.000000,-1225.752797
877.113370,-8216.285956,74.020594,-2068.457845
877.113691,-9400.615463,592.164754,153.219100
877.114011,-10955.047942,1110.308913,3064.381992
877.114332,-11029.068536,0.000000,3830.477490
877.114653,-10436.903782,-1480.411884,1838.629195
877.114973,-9548.656652,-1036.288319,612.876398
877.115294,-9918.759623,-222.061783,1225.752797
877.115615,-9844.739029,1258.350101,1991.848295
877.115936,-9622.677246,740.205942,995.924147
877.116256,-7920.203579,0.000000,-536.266849
877.116577,-8660.409521,0.000000,-2068.457845
877.116898,-9400.615463,0.000000,-536.266849
877.117219,-10732.986159,444.123565,2681.334243
877.117539,-10955.047942,-444.123565,3370.820191
877.117860,-9770.718434,-962.267725,2374.896044
877.118181,-9548.656652,-1332.370696,1149.143247
877.118502,-9252.574275,-74.020594,2451.505594
877.118822,-10140.821405,0.000000,3064.381992
877.119143,-8808.450710,-518.144159,1991.848295
877.119464,-7846.182985,-1406.391290,-536.266849
877.119784,-8364.327145,-962.267725,-1302.362347
877.120105,-9474.636058,0.000000,1149.143247
877.120426,-10436.903782,518.144159,2451.505594
877.120747,-10955.047942,0.000000,4290.134789
877.121067,-10362.883188,-962.267725,2451.505594
877.121388,-10140.821405,-888.247130,1685.410096
877.121709,-9770.718434,-296.082377,842.705048
877.122030,-9030.512492,148.041188,689.485948
877.122350,-9030.512492,296.082377,0.000000
877.122671,-7772.162391,-222.061783,-2451.505594
877.122992,-7772.162391,-666.185348,-2757.943793
877.123313,-9474.636058,-592.164754,-1532.190996
877.123633,-10362.883188,222.061783,1838.629195
877.123954,-11177.109724,222.061783,3217.601092
877.124275,-10658.965565,-888.247130,2834.553343
877.124596,-9770.718434,-1776.494261,306.438199
877.124917,-10066.800811,-962.267725,1838.629195
877.125237,-9622.677246,-370.102971,2681.334243
877.125558,-8956.491898,-518.144159,1225.752797
877.125879,-8142.265362,-1258.350101,-842.705048
877.126200,-7994.224174,-740.205942,-2221.676944
877.126521,-8734.430116,-296.082377,-459.657299
877.126841,-9918.759623,-296.082377,2068.457845
877.127162,-10881.027347,-444.123565,3217.601092
877.127483,-10066.800811,-1924.535449,2374.896044
877.127804,-10288.862594,-1406.391290,995.924147
877.128125,-10066.800811,-518.144159,1149.143247
877.128445,-10140.821405,-222.061783,1991.848295
877.128766,-9252.574275,-444.123565,1302.362347
877.129087,-8364.327145,-740.205942,-1532.190996
877.129408,-8216.285956,-962.267725,-2451.505594
877.129729,-9326.594869,148.041188,-383.047749
877.130049,-10881.027347,296.082377,2221.676944
877.130370,-11251.130318,-148.041188,3140.991542
877.130691,-10288.862594,-888.247130,2145.067394
877.131012,-9548.656652,-1924.535449,1225.752797
877.131333,-9622.677246,-592.164754,1532.190996
877.131653,-9918.759623,0.000000,2451.505594
877.131974,-9252.574275,370.102971,1915.238745
877.132295,-8438.347739,444.123565,-306.438199
877.132616,-8660.409521,-592.164754,-1072.533697
877.132937,-8734.430116,-222.061783,229.828649
877.133257,-10732.986159,0.000000,2528.115143
877.133578,-10955.047942,-518.144159,3983.696590
877.133899,-10066.800811,-1258.350101,2757.943793
877.134220,-9770.718434,-1850.514855,1532.190996
877.134541,-9474.636058,-888.247130,2145.067394
877.134861,-9770.718434,222.061783,2221.676944
877.135182,-9326.594869,740.205942,1685.410096
877.135503,-8512.368333,0.000000,-612.876398
877.135824,-8956.491898,-444.123565,-1838.629195
877.136145,-9252.574275,-148.041188,-536.266849
877.136466,-10214.842000,74.020594,1915.238745
877.136786,-10140.821405,222.061783,2757.943793
877.137107,-9918.759623,-222.061783,2298.286494
877.137428,-9474.636058,-592.164754,1378.971896
877.137749,-9474.636058,-444.123565,1149.143247
877.138070,-10214.842000,74.020594,1685.410096
877.138390,-9400.615463,296.082377,1072.533697
877.138711,-8660.409521,-518.144159,-1225.752797
877.139032,-8290.306550,-222.061783,-1532.190996
877.139353,-8956.491898,0.000000,-459.657299
877.139674,-10510.924376,0.000000,1685.410096
877.139994,-11029.068536,-222.061783,3140.991542
877.140315,-10140.821405,-1480.411884,1608.800546
877.140636,-9992.780217,-1110.308913,306.438199
877.140957,-10214.842000,148.041188,459.657299
877.141278,-9326.594869,814.226536,2681.334243
877.141598,-9326.594869,592.164754,919.314598
877.141919,-8956.491898,-1036.288319,-1378.971896
877.142240,-7994.224174,-1036.288319,-2374.896044
877.142561,-9622.677246,-1332.370696,-1378.971896
877.142882,-10066.800811,-222.061783,1225.752797
877.143202,-10955.047942,-222.061783,2987.772442
877.143523,-10732.986159,-1406.391290,2528.115143
877.143844,-9844.739029,-1036.288319,1838.629195
877.144165,-11103.089130,1036.288319,3370.820191
877.144486,-11177.109724,-814.226536,3370.820191
877.144806,-8660.409521,-1036.288319,1225.752797
877.145127,-7550.100608,-1258.350101,-766.095498
877.145448,-8364.327145,-814.226536,-2221.676944
877.145769,-8438.347739,444.123565,229.828649
877.146090,-10066.800811,370.102971,2068.457845
877.146410,-11621.233289,1554.432478,4060.306139
877.146731,-10066.800811,0.000000,1608.800546
877.147052,-11325.150913,518.144159,2987.772442
877.147373,-9696.697840,222.061783,1762.019645
877.147694,-9844.739029,962.267725,1532.190996
877.148014,-9622.677246,-222.061783,995.924147
877.148335,-7402.059420,-444.123565,-612.876398
877.148656,-8216.285956,-1184.329507,-1991.848295
877.148977,-9326.594869,-444.123565,-612.876398
877.149298,-9474.636058,814.226536,1762.019645
877.149618,-11251.130318,666.185348,4826.401637
877.149939,-10510.924376,-740.205942,3370.820191
877.150260,-9326.594869,-1406.391290,1915.238745
877.150581,-9844.739029,-1850.514855,1685.410096
877.150902,-9770.718434,-666.185348,2298.286494
877.151222,-9326.594869,0.000000,1685.410096
877.151543,-7994.224174,-370.102971,0.000000
877.151864,-8216.285956,-222.061783,-1455.581446
877.152185,-8586.388927,296.082377,-153.219100
877.152506,-9326.594869,-148.041188,1378.971896
877.152826,-10881.027347,592.164754,3600.648841
877.153147,-10288.862594,-370.102971,2528.115143
877.153468,-10066.800811,-666.185348,1455.581446
877.153789,-9474.636058,-740.205942,1915.238745
877.154110,-9030.512492,1036.288319,1762.019645
877.154431,-10436.903782,0.000000,1455.581446
877.154751,-8364.327145,-296.082377,-689.485948
877.155072,-8734.430116,-1258.350101,-2451.505594
877.155393,-9474.636058,-1628.453072,-1915.238745
877.155714,-9474.636058,148.041188,842.705048
877.156035,-11325.150913,0.000000,3064.381992
877.156355,-10288.862594,74.020594,2451.505594
877.156676,-10140.821405,-370.102971,1532.190996
877.156997,-10214.842000,-148.041188,1378.971896
877.157318,-9918.759623,962.267725,2068.457845
877.157639,-10362.883188,370.102971,1608.800546
877.157959,-8068.244768,0.000000,536.266849
877.158280,-8216.285956,-1036.288319,-1762.019645
877.158601,-8660.409521,-296.082377,-842.705048
877.158922,-10066.800811,296.082377,1762.019645
877.159243,-10955.047942,74.020594,3830.477490
877.159563,-10510.924376,-814.226536,2987.772442
877.159884,-10658.965565,-1406.391290,1608.800546
877.160205,-10140.821405,-962.267725,1149.143247
877.160526,-10362.883188,74.020594,2374.896044
877.160847,-10510.924376,370.102971,2298.286494
877.161167,-8512.368333,-814.226536,0.000000
877.161488,-8438.347739,-1702.473667,-1838.629195
877.161809,-8808.450710,-1628.453072,-1225.752797
877.162130,-9844.739029,-1184.329507,1378.971896
877.162451,-10807.006753,-444.123565,2987.772442
877.162771,-10362.883188,-592.164754,2757.943793
877.163092,-9696.697840,-1036.288319,1762.019645
877.163413,-9326.594869,-518.144159,1608.800546
877.163734,-9622.677246,-444.123565,2451.505594
877.164055,-9474.636058,-666.185348,2068.457845
877.164375,-8660.409521,-1406.391290,536.266849
877.164696,-8142.265362,-1628.453072,-1685.410096
877.165017,-7994.224174,-296.082377,-612.876398
877.165338,-9770.718434,592.164754,1685.410096
877.165659,-10732.986159,740.205942,3753.867940
877.165979,-9844.739029,-592.164754,2298.286494
877.166300,-9400.615463,-1480.411884,-459.657299
877.166621,-9474.636058,-592.164754,0.000000
877.166942,-9622.677246,0.000000,919.314598
877.167263,-9252.574275,666.185348,1225.752797
877.167583,-8734.430116,0.000000,-459.657299
877.167904,-8290.306550,-592.164754,-1762.019645
877.168225,-9252.574275,-1036.288319,-1072.533697
877.168546,-10658.965565,-370.102971,1838.629195
877.168867,-11399.171507,370.102971,3600.648841
877.169187,-11103.089130,0.000000,3753.867940
877.169508,-9918.759623,0.000000,1838.629195
877.169829,-9696.697840,-518.144159,1072.533697
877.170150,-9622.677246,-444.123565,1378.971896
877.170471,-9474.636058,-148.041188,689.485948
877.170791,-8364.327145,-666.185348,-306.438199
877.171112,-7994.224174,-222.061783,-1915.238745
877.171433,-8512.368333,518.144159,-766.095498
877.171754,-10436.903782,666.185348,2451.505594
877.172075,-10881.027347,592.164754,4443.353888
877.172396,-11251.130318,-888.247130,3447.429741
877.172716,-10066.800811,-1776.494261,1532.190996
877.173037,-9844.739029,-1406.391290,995.924147
877.173358,-9770.718434,-444.123565,2374.896044
877.173679,-9474.636058,296.082377,1302.362347
877.174000,-8438.347739,518.144159,-306.438199
877.174320,-8216.285956,-1184.329507,-2145.067394
877.174641,-8438.347739,-1702.473667,-1762.019645
877.174962,-9992.780217,-1184.329507,1072.533697
877.175283,-11325.150913,-592.164754,3140.991542
877.175604,-10881.027347,-592.164754,3140.991542
877.175924,-9992.780217,-1110.308913,2528.115143
877.176245,-9622.677246,-814.226536,1532.190996
877.176566,-10066.800811,148.041188,2221.676944
877.176887,-10140.821405,0.000000,2068.457845
877.177208,-8586.388927,0.000000,76.609550
877.177528,-7105.977043,-740.205942,-2451.505594
877.177849,-8290.306550,0.000000,-1302.362347
877.178170,-9622.677246,518.144159,1532.190996
877.178491,-10288.862594,592.164754,3370.820191
877.178812,-11251.130318,0.000000,2451.505594
877.179132,-9770.718434,-1258.350101,1685.410096
877.179453,-9622.677246,-1702.473667,1225.752797
877.179774,-9918.759623,-296.082377,1762.019645
877.180095,-9918.759623,0.000000,1838.629195
877.180416,-8586.388927,-222.061783,-306.438199
877.180736,-8068.244768,-592.164754,-1685.410096
877.181057,-9104.533087,-592.164754,-1455.581446
877.181378,-10066.800811,296.082377,1149.143247
877.181699,-10732.986159,0.000000,2528.115143
877.182020,-10658.965565,0.000000,2911.162892
877.182340,-9844.739029,-962.267725,1378.971896
877.182661,-9622.677246,-888.247130,919.314598
877.182982,-9770.718434,-222.061783,1838.629195
877.183303,-9548.656652,74.020594,1685.410096
877.183624,-8660.409521,0.000000,0.000000
877.183944,-7994.224174,-222.061783,-1762.019645
877.184265,-8882.471304,-148.041188,-1532.190996
877.184586,-9844.739029,888.247130,1072.533697
877.184907,-11177.109724,1258.350101,3524.039291
877.185228,-10732.986159,296.082377,2681.334243
877.185548,-9918.759623,0.000000,1915.238745
877.185869,-10807.006753,-518.144159,1225.752797
877.186190,-9770.718434,74.020594,1838.629195
877.186511,-9992.780217,148.041188,1608.800546
877.186832,-8808.450710,148.041188,-306.438199
877.187152,-7994.224174,444.123565,-2604.724693
877.187473,-8734.430116,222.061783,-1225.752797
877.187794,-9696.697840,962.267725,842.705048
877.188115,-10807.006753,814.226536,3217.601092
877.188436,-10362.883188,-370.102971,3064.381992
877.188757,-9400.615463,-1480.411884,1608.800546
877.189077,-9622.677246,-1332.370696,1455.581446
877.189398,-9474.636058,-296.082377,1991.848295
877.189719,-9104.533087,-592.164754,2068.457845
877.190040,-8364.327145,-444.123565,-229.828649
877.190361,-7920.203579,-1332.370696,-1378.971896
877.190681,-9030.512492,-962.267725,-612.876398
877.191002,-10066.800811,-444.123565,2068.457845
877.191323,-10584.944971,222.061783,5132.839837
877.191644,-10955.047942,-518.144159,3983.696590
877.191965,-10214.842000,-1332.370696,2298.286494
877.192285,-9622.677246,-814.226536,919.314598
877.192606,-9548.656652,-518.144159,919.314598
877.192927,-9030.512492,0.000000,1455.581446
877.193248,-8142.265362,0.000000,-689.485948
877.193569,-7624.121203,-962.267725,-2681.334243
877.193889,-8068.244768,-740.205942,-2451.505594
877.194210,-10140.821405,-296.082377,0.000000
877.194531,-11103.089130,444.123565,2757.943793
877.194852,-11399.171507,0.000000,2987.772442
877.195173,-10436.903782,-740.205942,2145.067394
877.195493,-10362.883188,-666.185348,229.828649
877.195814,-10066.800811,-518.144159,2145.067394
877.196135,-9770.718434,-296.082377,1991.848295
877.196456,-8882.471304,-592.164754,153.219100
877.196777,-7550.100608,-814.226536,-2068.457845
877.197097,-8290.306550,-740.205942,-1378.971896
877.197418,-9400.615463,74.020594,995.924147
877.197739,-10955.047942,-148.041188,3370.820191
877.198060,-10807.006753,-814.226536,3140.991542
877.198381,-10140.821405,-1480.411884,2451.505594
877.198701,-10140.821405,-1110.308913,1685.410096
877.199022,-10214.842000,0.000000,2298.286494
