#time,accel_x,accel_y,accel_z
1377.315596,-9474.636058,-222.061783,842.705048
1377.315917,-9548.656652,-518.144159,1302.362347
1377.316238,-9622.677246,-296.082377,919.314598
1377.316559,-9548.656652,-370.102971,766.095498
1377.316880,-9622.677246,-444.123565,1072.533697
1377.317201,-9548.656652,-518.144159,1149.143247
1377.317522,-9844.739029,-444.123565,1072.533697
1377.317843,-9770.718434,370.102971,995.924147
1377.318164,-9548.656652,-296.082377,1302.362347
1377.318485,-9622.677246,-444.123565,1302.362347
1377.318806,-9400.615463,-296.082377,1149.143247
1377.319127,-9474.636058,0.000000,383.047749
1377.319448,-9474.636058,-518.144159,919.314598
1377.319769,-9474.636058,-148.041188,1149.143247
1377.320090,-9770.718434,-444.123565,1072.533697
1377.320411,-9474.636058,-148.041188,995.924147
1377.320732,-9548.656652,0.000000,1378.971896
1377.321052,-10140.821405,-370.102971,1455.581446
1377.321373,-9474.636058,-814.226536,1225.752797
1377.321694,-9474.636058,-888.247130,1302.362347
1377.322015,-9992.780217,-444.123565,1915.238745
1377.322336,-9622.677246,-592.164754,1608.800546
1377.322657,-9622.677246,-1184.329507,1225.752797
1377.322978,-8956.491898,-888.247130,995.924147
1377.323299,-9548.656652,-888.247130,536.266849
1377.323620,-9474.636058,-740.205942,919.314598
1377.323941,-9548.656652,-370.102971,1072.533697
1377.324262,-9548.656652,-740.205942,383.047749
1377.324583,-9474.636058,-740.205942,383.047749
1377.324904,-9548.656652,-370.102971,612.876398
1377.325225,-9918.759623,-814.226536,919.314598
1377.325546,-9622.677246,-592.164754,1532.190996
1377.325867,-9844.739029,-1332.370696,1608.800546
1377.326188,-9696.697840,-1110.308913,1915.238745
1377.326509,-9770.718434,-1480.411884,1915.238745
1377.326830,-9622.677246,-1406.391290,2298.286494
1377.327151,-9474.636058,-1184.329507,2451.505594
1377.327472,-10288.862594,-222.061783,3447.429741
1377.327793,-9326.594869,-1036.288319,1532.190996
1377.328114,-9474.636058,-1184.329507,1838.629195
1377.328435,-9474.636058,-1110.308913,1915.238745
1377.328756,-9474.636058,-814.226536,2221.676944
1377.329077,-9548.656652,-740.205942,2451.505594
1377.329398,-9622.677246,-740.205942,2604.724693
1377.329719,-9770.718434,-962.267725,3064.381992
1377.330040,-10066.800811,-1406.391290,3524.039291
1377.330361,-10066.800811,-962.267725,5975.544884
1377.330682,-10066.800811,-1480.411884,4596.572988
1377.331003,-9918.759623,-1702.473667,4673.182538
1377.331324,-9622.677246,-1554.432478,4903.011187
1377.331645,-9474.636058,-1998.556043,5515.887586
1377.331966,-9400.615463,-2220.617826,5132.839837
1377.332287,-9252.574275,-2146.597232,5362.668486
1377.332608,-9178.553681,-2072.576638,5132.839837
1377.332929,-8956.491898,-1998.556043,5286.058936
1377.333250,-9178.553681,-2590.720797,5286.058936
1377.333571,-9400.615463,-3330.926739,4903.011187
1377.333892,-9474.636058,-4071.132681,5132.839837
1377.334213,-9474.636058,-4293.194464,5132.839837
1377.334534,-9474.636058,-4515.256246,4673.182538
1377.334855,-9622.677246,-3849.070898,4903.011187
1377.335176,-9622.677246,-3849.070898,4749.792088
1377.335497,-9252.574275,-3330.926739,4826.401637
1377.335818,-9252.574275,-3775.050304,3983.696590
1377.336139,-9252.574275,-4293.194464,4443.353888
1377.336460,-9474.636058,-4885.359217,4290.134789
1377.336781,-8956.491898,-5107.421000,3983.696590
1377.337102,-9178.553681,-5403.503377,4366.744339
1377.337423,-8734.430116,-5551.544565,4213.525239
1377.337744,-8956.491898,-6143.709319,3600.648841
1377.338065,-8882.471304,-6661.853478,3140.991542
1377.338386,-8660.409521,-6291.750507,2221.676944
1377.338707,-8882.471304,-5181.441594,1225.752797
1377.339028,-9030.512492,-4441.235652,1302.362347
1377.339349,-9104.533087,-3034.844362,1149.143247
1377.339670,-9474.636058,-2220.617826,919.314598
1377.339991,-8808.450710,-2220.617826,2145.067394
1377.340312,-10214.842000,-1702.473667,1302.362347
1377.340633,-10584.944971,-2146.597232,2298.286494
1377.340954,-10140.821405,-2812.782580,2834.553343
1377.341274,-10436.903782,-4293.194464,3370.820191
1377.341595,-9918.759623,-5329.482782,3064.381992
1377.341916,-9252.574275,-5921.647536,2757.943793
1377.342237,-9326.594869,-5699.585753,2681.334243
1377.342558,-9474.636058,-5255.462188,3370.820191
1377.342879,-9474.636058,-4737.318029,2834.553343
1377.343200,-9400.615463,-4589.276840,2681.334243
1377.343521,-9400.615463,-4071.132681,1915.238745
1377.343842,-9770.718434,-3034.844362,1532.190996
1377.344163,-9844.739029,-1406.391290,0.000000
1377.344484,-10288.862594,296.082377,612.876398
1377.344805,-10214.842000,1776.494261,689.485948
1377.345126,-10658.965565,2590.720797,1455.581446
1377.345447,-11029.068536,1776.494261,2298.286494
1377.345768,-10732.986159,814.226536,2757.943793
1377.346089,-10881.027347,-1184.329507,3524.039291
1377.346410,-10214.842000,-2590.720797,4136.915689
1377.346731,-9844.739029,-3775.050304,4673.182538
1377.347052,-8956.491898,-4515.256246,5975.544884
1377.347373,-8660.409521,-4885.359217,6358.592633
1377.347694,-8660.409521,-5477.523971,6052.154434
1377.348015,-7920.203579,-5773.606348,4979.620737
1377.348336,-7920.203579,-4959.379811,2068.457845
1377.348657,-8068.244768,-2368.659014,2451.505594
1377.348978,-8512.368333,592.164754,2834.553343
1377.349299,-9104.533087,2294.638420,2911.162892
1377.349620,-9548.656652,2664.741391,3294.210641
1377.349941,-9992.780217,2072.576638,3447.429741
1377.350262,-10658.965565,888.247130,3370.820191
1377.350583,-10584.944971,-222.061783,4136.915689
1377.350904,-10214.842000,-740.205942,5286.058936
1377.351225,-9326.594869,-2146.597232,6052.154434
1377.351546,-8956.491898,-3849.070898,5362.668486
1377.351867,-8216.285956,-5773.606348,4213.525239
1377.352188,-7920.203579,-6217.729913,3370.820191
1377.352509,-8142.265362,-4737.318029,3907.087040
1377.352830,-8290.306550,-2738.761985,4136.915689
1377.353151,-8660.409521,-1036.288319,4366.744339
1377.353472,-9326.594869,-888.247130,3830.477490
1377.353793,-8882.471304,-148.041188,2757.943793
1377.354114,-9992.780217,222.061783,2451.505594
1377.354435,-10881.027347,296.082377,2987.772442
1377.354756,-10807.006753,74.020594,2987.772442
1377.355077,-10362.883188,-1406.391290,1608.800546
1377.355398,-9622.677246,-1554.432478,0.000000
1377.355719,-9770.718434,-888.247130,689.485948
1377.356040,-10955.047942,-518.144159,1991.848295
1377.356361,-10584.944971,-1036.288319,3064.381992
1377.356682,-10510.924376,-3256.906145,1685.410096
1377.357003,-8808.450710,-2220.617826,2068.457845
1377.357324,-11103.089130,-3701.029710,3294.210641
1377.357645,-9918.759623,-3701.029710,5209.449386
1377.357966,-9918.759623,-5995.668130,4290.134789
1377.358287,-9104.533087,-6291.750507,1838.629195
1377.358608,-8068.244768,-3849.070898,459.657299
1377.358929,-9696.697840,-2590.720797,1915.238745
1377.359250,-9770.718434,-1332.370696,4213.525239
1377.359571,-8734.430116,-2294.638420,2757.943793
1377.359892,-9992.780217,-1776.494261,1302.362347
1377.360213,-10140.821405,-1776.494261,1838.629195
1377.360534,-10288.862594,-2590.720797,3370.820191
1377.360855,-11103.089130,-5329.482782,4060.306139
1377.361176,-8364.327145,-5403.503377,2068.457845
1377.361497,-8216.285956,-4441.235652,1455.581446
1377.361817,-9178.553681,-2294.638420,3524.039291
1377.362138,-9030.512492,-3404.947333,4749.792088
1377.362459,-8660.409521,-3923.091493,4903.011187
1377.362780,-8734.430116,-5699.585753,3677.258390
1377.363101,-8142.265362,-5107.421000,2911.162892
1377.363422,-8438.347739,-5329.482782,3907.087040
1377.363743,-7920.203579,-5033.400406,3830.477490
1377.364064,-9252.574275,-3256.906145,4060.306139
1377.364385,-9178.553681,-1776.494261,3370.820191
1377.364706,-9030.512492,-1036.288319,3677.258390
1377.365027,-8586.388927,-444.123565,4979.620737
1377.365348,-10807.006753,-2368.659014,4213.525239
1377.365669,-9992.780217,-3034.844362,3370.820191
1377.365990,-8586.388927,-2960.823768,1915.238745
1377.366311,-9548.656652,-2220.617826,2604.724693
1377.366632,-10140.821405,-1702.473667,5132.839837
1377.366953,-9770.718434,-3478.967927,5439.278036
1377.367274,-9400.615463,-4737.318029,4826.401637
1377.367595,-9030.512492,-4885.359217,4060.306139
1377.367916,-9474.636058,-4737.318029,2681.334243
1377.368237,-8438.347739,-3627.009116,3983.696590
1377.368558,-9474.636058,-3478.967927,3830.477490
1377.368879,-9030.512492,-1628.453072,3447.429741
1377.369200,-9326.594869,-1406.391290,2221.676944
1377.369521,-10362.883188,-1850.514855,3140.991542
1377.369842,-11029.068536,-1924.535449,2604.724693
1377.370163,-11029.068536,-1702.473667,1915.238745
1377.370484,-10214.842000,1036.288319,2145.067394
1377.370805,-10658.965565,1332.370696,2068.457845
1377.371126,-10732.986159,1258.350101,3600.648841
1377.371447,-9178.553681,-1184.329507,2987.772442
1377.371768,-9770.718434,-2590.720797,1762.019645
1377.372089,-9770.718434,-3627.009116,2221.676944
1377.372410,-8882.471304,-2960.823768,2757.943793
1377.372731,-9400.615463,-3182.885551,3217.601092
1377.373052,-8142.265362,-3552.988522,2681.334243
1377.373373,-8068.244768,-1850.514855,2451.505594
1377.373694,-9326.594869,-2368.659014,3217.601092
1377.374015,-9178.553681,-1850.514855,1532.190996
1377.374336,-8734.430116,74.020594,1608.800546
1377.374657,-9992.780217,-518.144159,2068.457845
1377.374978,-9548.656652,1184.329507,2757.943793
1377.375299,-10807.006753,74.020594,2451.505594
1377.375620,-9474.636058,-1036.288319,2451.505594
1377.375941,-8882.471304,-2590.720797,1302.362347
1377.376262,-10066.800811,-2516.700203,2528.115143
1377.376583,-10214.842000,-1628.453072,3830.477490
1377.376904,-9474.636058,-1406.391290,3907.087040
1377.377225,-9030.512492,-3330.926739,3677.258390
1377.377546,-8660.409521,-5403.503377,2987.772442
1377.377866,-7179.997637,-5181.441594,1455.581446
1377.378187,-8808.450710,-4663.297435,2681.334243
1377.378508,-9400.615463,-2590.720797,4213.525239
1377.378829,-8290.306550,-2960.823768,3370.820191
1377.379150,-9474.636058,-4441.235652,1762.019645
1377.379471,-8364.327145,-1776.494261,919.314598
1377.379792,-9326.594869,814.226536,919.314598
1377.380113,-12287.418637,2220.617826,4673.182538
1377.380434,-10584.944971,1998.556043,5975.544884
1377.380755,-11177.109724,74.020594,3140.991542
1377.381076,-12731.542202,-2442.679609,2451.505594
1377.381397,-9474.636058,-1406.391290,3217.601092
1377.381718,-10955.047942,-2368.659014,1838.629195
1377.382039,-8956.491898,-740.205942,4443.353888
1377.382360,-8660.409521,-1628.453072,1762.019645
1377.382681,-9178.553681,-1702.473667,2374.896044
1377.383002,-10955.047942,-1332.370696,3370.820191
1377.383323,-8364.327145,-1924.535449,3907.087040
1377.383644,-11399.171507,-3923.091493,4366.744339
1377.383965,-9400.615463,-1998.556043,4290.134789
1377.384286,-10436.903782,-4071.132681,1991.848295
1377.384607,-9030.512492,-2368.659014,-153.219100
1377.384928,-8216.285956,1924.535449,766.095498
1377.385249,-9548.656652,1850.514855,612.876398
1377.385570,-10214.842000,592.164754,-306.438199
1377.385891,-9104.533087,444.123565,-612.876398
1377.386212,-10362.883188,-2516.700203,-1915.238745
1377.386533,-7846.182985,222.061783,-229.828649
1377.386854,-12361.439231,-2590.720797,2221.676944
1377.387175,-9918.759623,-1110.308913,2834.553343
1377.387496,-10214.842000,-3182.885551,2374.896044
1377.387817,-9030.512492,-4811.338623,995.924147
1377.388138,-7846.182985,-3256.906145,842.705048
1377.388459,-9770.718434,-2220.617826,1991.848295
1377.388780,-9400.615463,-740.205942,3294.210641
1377.389101,-7698.141797,-2368.659014,1455.581446
1377.389422,-8068.244768,-4367.215058,-2068.457845
1377.389743,-6587.832884,-2146.597232,-3983.696590
1377.390064,-9474.636058,2442.679609,-2221.676944
1377.390385,-9178.553681,3849.070898,0.000000
1377.390706,-8660.409521,3330.926739,0.000000
1377.391027,-10436.903782,1776.494261,-1225.752797
1377.391348,-9178.553681,1184.329507,-1762.019645
1377.391669,-11473.192101,1406.391290,2068.457845
1377.391989,-12657.521608,666.185348,5056.230287
1377.392310,-9696.697840,-1406.391290,3830.477490
1377.392631,-9622.677246,-2368.659014,1762.019645
1377.392952,-8956.491898,-2886.803174,1532.190996
1377.393273,-9400.615463,-814.226536,2298.286494
1377.393594,-10214.842000,-1406.391290,2528.115143
1377.393915,-7920.203579,-296.082377,689.485948
1377.394236,-9548.656652,-1036.288319,-1685.410096
1377.394557,-8734.430116,1184.329507,-1532.190996
1377.394878,-10510.924376,2886.803174,1149.143247
1377.395199,-11843.295072,2442.679609,2911.162892
1377.395520,-11029.068536,74.020594,1762.019645
1377.395841,-9030.512492,2960.823768,-1072.533697
1377.396162,-12213.398043,1702.473667,459.657299
1377.396483,-10510.924376,3108.864956,3524.039291
1377.396804,-11177.109724,444.123565,4060.306139
1377.397125,-9030.512492,222.061783,2987.772442
1377.397446,-9770.718434,-2590.720797,229.828649
1377.397767,-6069.688724,-3034.844362,-1838.629195
1377.398088,-9474.636058,-1406.391290,2145.067394
1377.398409,-8734.430116,-888.247130,2068.457845
1377.398730,-9622.677246,148.041188,3064.381992
1377.399051,-8068.244768,-1924.535449,2145.067394
1377.399372,-9252.574275,-740.205942,1532.190996
1377.399693,-10510.924376,-592.164754,1838.629195
1377.400014,-11251.130318,1036.288319,3830.477490
1377.400335,-7402.059420,1776.494261,1762.019645
1377.400656,-10658.965565,518.144159,0.000000
1377.400977,-10066.800811,1036.288319,536.266849
1377.401298,-7772.162391,1776.494261,842.705048
1377.401619,-11843.295072,888.247130,2298.286494
1377.401940,-9178.553681,2072.576638,995.924147
1377.402261,-8956.491898,-1406.391290,1378.971896
1377.402582,-7846.182985,-3849.070898,-2757.943793
1377.402903,-7031.956449,-2294.638420,-1838.629195
1377.403224,-8290.306550,-1036.288319,-306.438199
1377.403545,-7698.141797,-666.185348,689.485948
1377.403866,-8734.430116,-1850.514855,229.828649
1377.404187,-9104.533087,-2368.659014,-842.705048
1377.404508,-9252.574275,-296.082377,459.657299
1377.404829,-12435.459826,1702.473667,2987.772442
1377.405150,-11843.295072,2294.638420,3294.210641
1377.405471,-11325.150913,1036.288319,3294.210641
1377.405792,-9548.656652,-296.082377,-689.485948
1377.406112,-8956.491898,-888.247130,-2145.067394
1377.406433,-10066.800811,0.000000,-306.438199
1377.406754,-9030.512492,222.061783,536.266849
1377.407075,-9474.636058,-2368.659014,-229.828649
1377.407396,-9326.594869,-2516.700203,-1378.971896
1377.407717,-6439.791695,-1554.432478,-2374.896044
1377.408038,-11029.068536,-296.082377,919.314598
1377.408359,-11251.130318,1554.432478,3753.867940
1377.408680,-10584.944971,0.000000,4443.353888
1377.409001,-9918.759623,-1184.329507,2987.772442
1377.409322,-10658.965565,-1110.308913,3370.820191
1377.409643,-12065.356855,-2220.617826,3524.039291
1377.409964,-10658.965565,-1184.329507,4060.306139
1377.410285,-8068.244768,-1332.370696,1072.533697
1377.410606,-8660.409521,-666.185348,-1532.190996
1377.410927,-7254.018232,1110.308913,-1608.800546
1377.411248,-9696.697840,2072.576638,612.876398
1377.411569,-9918.759623,1628.453072,2221.676944
1377.411890,-9770.718434,-1036.288319,2068.457845
1377.412211,-10288.862594,-1850.514855,1762.019645
1377.412532,-10732.986159,-1998.556043,2068.457845
1377.412853,-10510.924376,-962.267725,4826.401637
1377.413174,-10584.944971,-2664.741391,4979.620737
1377.413495,-7031.956449,-1258.350101,2451.505594
1377.413816,-10362.883188,-3997.112087,-689.485948
1377.414137,-6439.791695,888.247130,-766.095498
1377.414458,-9474.636058,1110.308913,689.485948
1377.414779,-9770.718434,-148.041188,1302.362347
1377.415100,-8068.244768,1184.329507,919.314598
1377.415421,-10881.027347,-1998.556043,0.000000
1377.415742,-8586.388927,0.000000,76.609550
1377.416063,-11843.295072,-148.041188,2451.505594
1377.416384,-11621.233289,222.061783,3983.696590
1377.416705,-9548.656652,0.000000,2681.334243
1377.417026,-11251.130318,-1480.411884,76.609550
1377.417347,-7402.059420,0.000000,-383.047749
1377.417668,-9918.759623,-222.061783,229.828649
1377.417989,-9918.759623,1036.288319,2451.505594
1377.418310,-8956.491898,0.000000,1149.143247
1377.418631,-9474.636058,-1628.453072,-383.047749
1377.418952,-7772.162391,-1776.494261,-1455.581446
1377.419273,-10066.800811,0.000000,-306.438199
1377.419594,-11251.130318,1480.411884,2681.334243
1377.419915,-9326.594869,666.185348,1302.362347
1377.420235,-9918.759623,222.061783,-766.095498
1377.420556,-9918.759623,148.041188,-1915.238745
1377.420877,-8956.491898,2220.617826,-612.876398
1377.421198,-12213.398043,2442.679609,1838.629195
1377.421519,-10362.883188,2294.638420,2298.286494
1377.421840,-10288.862594,0.000000,76.609550
1377.422161,-9104.533087,0.000000,-919.314598
1377.422482,-8660.409521,-1110.308913,-459.657299
1377.422803,-10807.006753,-740.205942,1378.971896
1377.423124,-8438.347739,370.102971,1378.971896
1377.423445,-10140.821405,-1258.350101,0.000000
1377.423766,-7402.059420,0.000000,-153.219100
1377.424087,-8438.347739,-222.061783,-229.828649
1377.424408,-11843.295072,74.020594,2451.505594
1377.424729,-9252.574275,74.020594,1762.019645
1377.425050,-9474.636058,-592.164754,1762.019645
1377.425371,-9696.697840,-444.123565,1378.971896
1377.425692,-9622.677246,296.082377,2528.115143
1377.426013,-12583.501014,74.020594,4366.744339
1377.426334,-8956.491898,-814.226536,3753.867940
1377.426655,-8660.409521,-3552.988522,76.609550
1377.426976,-7698.141797,-2960.823768,-1838.629195
1377.427297,-7031.956449,-1184.329507,-2221.676944
1377.427618,-9770.718434,1406.391290,1762.019645
1377.427939,-9326.594869,1480.411884,2451.505594
1377.428260,-9030.512492,-1036.288319,1225.752797
1377.428581,-9252.574275,-2294.638420,536.266849
1377.428902,-9844.739029,-1850.514855,1532.190996
1377.429223,-12213.398043,-666.185348,5439.278036
1377.429544,-10140.821405,-888.247130,4443.353888
1377.429865,-9992.780217,-1480.411884,2834.553343
1377.430186,-9770.718434,-1480.411884,842.705048
1377.430507,-8512.368333,-370.102971,1455.581446
1377.430828,-10732.986159,1258.350101,2911.162892
1377.431149,-9622.677246,1110.308913,2221.676944
1377.431470,-8216.285956,-444.123565,766.095498
1377.431791,-9474.636058,-2294.638420,0.000000
1377.432112,-8586.388927,-1850.514855,842.705048
1377.432433,-11473.192101,-1406.391290,3140.991542
1377.432754,-10807.006753,-1184.329507,4290.134789
1377.433075,-9252.574275,-1776.494261,2374.896044
1377.433396,-10510.924376,-2516.700203,689.485948
1377.433717,-8142.265362,-740.205942,0.000000
1377.434038,-9918.759623,666.185348,1532.190996
1377.434358,-9918.759623,888.247130,2298.286494
1377.434679,-9104.533087,-1850.514855,1225.752797
1377.435000,-9178.553681,-2368.659014,-383.047749
1377.435321,-7994.224174,-1998.556043,-536.266849
1377.435642,-10881.027347,-1036.288319,1838.629195
1377.435963,-11029.068536,-814.226536,2451.505594
1377.436284,-8142.265362,-370.102971,459.657299
1377.436605,-11251.130318,-740.205942,-1072.533697
1377.436926,-9030.512492,666.185348,-536.266849
1377.437247,-10510.924376,666.185348,383.047749
1377.437568,-12657.521608,1332.370696,2681.334243
1377.437889,-8660.409521,-1850.514855,229.828649
1377.438210,-9474.636058,-2738.761985,-1072.533697
1377.438531,-8216.285956,-2072.576638,-919.314598
1377.438852,-8660.409521,148.041188,-1455.581446
1377.439173,-9400.615463,2886.803174,1149.143247
1377.439494,-7624.121203,1332.370696,-306.438199
1377.439815,-8660.409521,-518.144159,-1225.752797
1377.440136,-8734.430116,-1480.411884,-1532.190996
1377.440457,-10658.965565,74.020594,1149.143247
1377.440778,-12583.501014,74.020594,3677.258390
1377.441099,-9400.615463,-1110.308913,2757.943793
1377.441420,-9992.780217,-1850.514855,1072.533697
1377.441741,-9326.594869,-666.185348,153.219100
1377.442062,-10510.924376,1258.350101,1455.581446
1377.442383,-10732.986159,2590.720797,3447.429741
1377.442704,-8142.265362,2072.576638,1378.971896
1377.443025,-9622.677246,666.185348,-229.828649
1377.443346,-9400.615463,444.123565,-229.828649
1377.443667,-7698.141797,666.185348,-612.876398
1377.443988,-10288.862594,1258.350101,1915.238745
1377.444309,-9178.553681,370.102971,1455.581446
1377.444630,-9104.533087,-148.041188,1072.533697
1377.444951,-9992.780217,0.000000,1838.629195
1377.445272,-10732.986159,1776.494261,3907.087040
1377.445593,-13841.851115,-962.267725,5132.839837
1377.445914,-8512.368333,-888.247130,3983.696590
1377.446235,-10881.027347,-2220.617826,1378.971896
1377.446556,-7994.224174,-1258.350101,-766.095498
1377.446877,-8290.306550,444.123565,-229.828649
1377.447198,-10510.924376,814.226536,2068.457845
1377.447519,-8068.244768,444.123565,1072.533697
1377.447840,-9844.739029,-1924.535449,153.219100
1377.448161,-9474.636058,-1184.329507,612.876398
1377.448482,-9770.718434,-370.102971,1378.971896
1377.448802,-12435.459826,0.000000,4366.744339
1377.449123,-8438.347739,740.205942,3907.087040
1377.449444,-10066.800811,-2294.638420,459.657299
1377.449765,-8956.491898,-1332.370696,0.000000
1377.450086,-7920.203579,666.185348,-919.314598
1377.450407,-10881.027347,962.267725,1762.019645
1377.450728,-8808.450710,-444.123565,919.314598
1377.451049,-8808.450710,-1406.391290,-1225.752797
1377.451370,-9030.512492,-1110.308913,-1838.629195
1377.451691,-9400.615463,0.000000,-306.438199
1377.452012,-11251.130318,518.144159,2911.162892
1377.452333,-9844.739029,-592.164754,1762.019645
1377.452654,-9474.636058,148.041188,459.657299
1377.452975,-10288.862594,-518.144159,0.000000
1377.453296,-7624.121203,888.247130,-383.047749
1377.453617,-10214.842000,370.102971,1225.752797
1377.453938,-9030.512492,888.247130,612.876398
1377.454259,-9104.533087,-370.102971,-842.705048
1377.454580,-9474.636058,-1628.453072,-612.876398
1377.454901,-7550.100608,-1258.350101,-766.095498
1377.455222,-10881.027347,-962.267725,766.095498
1377.455543,-10214.842000,296.082377,2604.724693
1377.455864,-9252.574275,-962.267725,1685.410096
1377.456185,-10510.924376,-2368.659014,153.219100
1377.456506,-7772.162391,-814.226536,-459.657299
1377.456827,-10436.903782,-74.020594,1378.971896
1377.457148,-10732.986159,74.020594,3217.601092
1377.457469,-9178.553681,-1036.288319,2145.067394
1377.457790,-9844.739029,-2664.741391,536.266849
1377.458111,-9104.533087,-1480.411884,766.095498
1377.458432,-10881.027347,-1628.453072,2145.067394
1377.458753,-9474.636058,-518.144159,2528.115143
1377.459074,-9548.656652,-518.144159,1225.752797
1377.459395,-9696.697840,-592.164754,459.657299
1377.459716,-9030.512492,222.061783,-229.828649
1377.460037,-9696.697840,962.267725,1302.362347
1377.460358,-9770.718434,1332.370696,2374.896044
1377.460679,-10288.862594,-962.267725,1608.800546
1377.461000,-9030.512492,-1776.494261,383.047749
1377.461321,-9104.533087,-1184.329507,459.657299
1377.461642,-10732.986159,1850.514855,4060.306139
1377.461963,-12065.356855,1480.411884,5898.935335
1377.462284,-10658.965565,222.061783,5286.058936
1377.462605,-11547.212695,-3108.864956,2068.457845
1377.462925,-7105.977043,-2442.679609,-2298.286494
1377.463246,-9326.594869,592.164754,383.047749
1377.463567,-9474.636058,2294.638420,1455.581446
1377.463888,-6883.915261,1258.350101,536.266849
1377.464209,-7624.121203,-1110.308913,-1608.800546
1377.464530,-6809.894666,-888.247130,-2374.896044
1377.464851,-9474.636058,-888.247130,0.000000
1377.465172,-12731.542202,444.123565,4749.792088
1377.465493,-11251.130318,222.061783,4673.182538
1377.465814,-9400.615463,-1480.411884,2604.724693
1377.466135,-9992.780217,-1184.329507,2068.457845
1377.466456,-11177.109724,-888.247130,1378.971896
1377.466777,-11029.068536,-370.102971,2528.115143
1377.467098,-8216.285956,74.020594,383.047749
1377.467419,-9104.533087,0.000000,-2221.676944
1377.467740,-6957.935855,-148.041188,-2451.505594
1377.468061,-9178.553681,592.164754,-1455.581446
1377.468382,-11251.130318,740.205942,1762.019645
1377.468703,-8586.388927,-2146.597232,459.657299
1377.469024,-10881.027347,-3330.926739,229.828649
1377.469345,-8882.471304,-2442.679609,-2145.067394
1377.469666,-9918.759623,1110.308913,-383.047749
1377.469987,-12657.521608,3256.906145,2757.943793
1377.470308,-8660.409521,2960.823768,1302.362347
1377.470629,-9844.739029,444.123565,-1149.143247
1377.470950,-9030.512492,-444.123565,-1915.238745
1377.471271,-8734.430116,814.226536,153.219100
1377.471591,-11547.212695,-814.226536,1838.629195
1377.471912,-8808.450710,-888.247130,2068.457845
1377.472233,-9400.615463,-1406.391290,2145.067394
1377.472554,-9992.780217,-962.267725,76.609550
1377.472875,-9252.574275,148.041188,1378.971896
1377.473195,-12879.583391,148.041188,3677.258390
1377.473516,-10807.006753,0.000000,3217.601092
1377.473837,-10584.944971,-1258.350101,2298.286494
1377.474158,-9474.636058,-888.247130,1072.533697
1377.474478,-8216.285956,962.267725,766.095498
1377.474799,-10066.800811,592.164754,1608.800546
1377.475120,-7328.038826,1184.329507,459.657299
1377.475441,-8290.306550,-370.102971,-383.047749
1377.475762,-8216.285956,-1184.329507,-1838.629195
1377.476082,-7772.162391,0.000000,-153.219100
1377.476403,-11769.274478,814.226536,3753.867940
1377.476724,-10955.047942,222.061783,4826.401637
1377.477045,-10955.047942,-1702.473667,3983.696590
1377.477366,-10140.821405,-3330.926739,3140.991542
1377.477686,-8290.306550,-2442.679609,2451.505594
1377.478007,-10807.006753,-1406.391290,3294.210641
1377.478328,-8438.347739,0.000000,3753.867940
1377.478649,-8808.450710,0.000000,919.314598
1377.478970,-7031.956449,962.267725,-306.438199
1377.479290,-8882.471304,-888.247130,0.000000
1377.479611,-8956.491898,1110.308913,1991.848295
1377.479932,-10214.842000,-888.247130,919.314598
1377.480253,-8068.244768,-1924.535449,-229.828649
1377.480574,-8586.388927,-1332.370696,-766.095498
1377.480894,-9400.615463,-296.082377,612.876398
1377.481215,-11103.089130,666.185348,3830.477490
1377.481536,-11843.295072,888.247130,5822.325785
1377.481857,-10807.006753,-1554.432478,3677.258390
1377.482178,-11843.295072,-3701.029710,1532.190996
1377.482498,-8068.244768,-666.185348,76.609550
1377.482819,-11103.089130,-518.144159,1378.971896
1377.483140,-8882.471304,1628.453072,1838.629195
1377.483461,-7772.162391,-1258.350101,-1225.752797
1377.483782,-8142.265362,-2664.741391,-3294.210641
1377.484102,-8364.327145,-148.041188,-1991.848295
1377.484423,-11251.130318,148.041188,1072.533697
1377.484744,-10955.047942,1110.308913,3600.648841
1377.485065,-9548.656652,0.000000,842.705048
1377.485386,-11251.130318,-740.205942,-995.924147
1377.485706,-9400.615463,148.041188,-153.219100
1377.486027,-10510.924376,592.164754,612.876398
1377.486348,-10510.924376,1258.350101,995.924147
1377.486669,-8956.491898,222.061783,-612.876398
1377.486990,-9252.574275,-962.267725,-1838.629195
1377.487310,-8734.430116,-592.164754,-919.314598
1377.487631,-9770.718434,-888.247130,536.266849
1377.487952,-10436.903782,-666.185348,2604.724693
1377.488273,-9918.759623,-962.267725,2068.457845
1377.488594,-10214.842000,-3108.864956,306.438199
1377.488914,-8364.327145,-1702.473667,-153.219100
1377.489235,-9252.574275,888.247130,1225.752797
1377.489556,-11547.212695,1406.391290,2145.067394
1377.489877,-7920.203579,2590.720797,1608.800546
1377.490198,-9844.739029,-1184.329507,459.657299
1377.490518,-7476.080014,-1184.329507,-995.924147
1377.490839,-10066.800811,-666.185348,919.314598
1377.491160,-11399.171507,-1110.308913,3830.477490
1377.491481,-8290.306550,148.041188,2834.553343
1377.491801,-10436.903782,-2072.576638,1762.019645
1377.492122,-7846.182985,-1258.350101,459.657299
1377.492443,-9178.553681,-148.041188,842.705048
1377.492764,-11325.150913,1406.391290,3370.820191
1377.493085,-9252.574275,962.267725,3600.648841
1377.493405,-9770.718434,-1258.350101,1685.410096
1377.493726,-8142.265362,-1924.535449,0.000000
1377.494047,-9326.594869,-444.123565,766.095498
1377.494368,-11695.253884,0.000000,4136.915689
1377.494689,-9030.512492,0.000000,2987.772442
1377.495009,-10288.862594,-1406.391290,2145.067394
1377.495330,-9030.512492,-1184.329507,-1991.848295
1377.495651,-8882.471304,3034.844362,1225.752797
1377.495972,-12879.583391,2294.638420,3524.039291
1377.496293,-8364.327145,1998.556043,3907.087040
1377.496613,-10288.862594,-1628.453072,766.095498
1377.496934,-9326.594869,-2664.741391,-229.828649
1377.497255,-8586.388927,-1480.411884,-536.266849
1377.497576,-11917.315666,222.061783,3907.087040
1377.497897,-9474.636058,1110.308913,4519.963438
1377.498217,-10066.800811,-1110.308913,2068.457845
1377.498538,-10066.800811,-2368.659014,536.266849
1377.498859,-8586.388927,-1184.329507,-383.047749
1377.499180,-10584.944971,296.082377,459.657299
1377.499501,-9770.718434,1776.494261,995.924147
1377.499821,-7772.162391,814.226536,-1455.581446
1377.500142,-7846.182985,-888.247130,-2604.724693
1377.500463,-7920.203579,-666.185348,-2451.505594
1377.500784,-9548.656652,148.041188,612.876398
1377.501105,-10584.944971,-222.061783,1378.971896
1377.501425,-10066.800811,-962.267725,842.705048
1377.501746,-9400.615463,-962.267725,-153.219100
1377.502067,-9918.759623,0.000000,766.095498
1377.502388,-12139.377449,1776.494261,3294.210641
1377.502709,-11325.150913,0.000000,3140.991542
1377.503029,-9178.553681,-1184.329507,536.266849
1377.503350,-8734.430116,-1554.432478,-1532.190996
1377.503671,-7994.224174,-962.267725,-1915.238745
1377.503992,-10510.924376,1036.288319,536.266849
1377.504313,-9622.677246,814.226536,1838.629195
1377.504633,-8438.347739,-370.102971,-153.219100
1377.504954,-9844.739029,-1702.473667,-1378.971896
1377.505275,-9178.553681,-740.205942,-383.047749
1377.505596,-11843.295072,0.000000,1762.019645
1377.505917,-11473.192101,222.061783,3370.820191
1377.506237,-10066.800811,-1036.288319,2221.676944
1377.506558,-9178.553681,-2072.576638,0.000000
1377.506879,-9178.553681,-2294.638420,153.219100
1377.507200,-10214.842000,-814.226536,1838.629195
1377.507521,-9474.636058,-592.164754,1991.848295
1377.507841,-8216.285956,-222.061783,1302.362347
1377.508162,-9992.780217,-962.267725,76.609550
1377.508483,-8586.388927,0.000000,229.828649
1377.508804,-11399.171507,222.061783,2451.505594
1377.509124,-11399.171507,814.226536,4060.306139
1377.509445,-10214.842000,814.226536,2528.115143
1377.509766,-12139.377449,-1480.411884,2911.162892
1377.510087,-8808.450710,-296.082377,1455.581446
1377.510408,-10288.862594,518.144159,2451.505594
1377.510728,-10066.800811,518.144159,2757.943793
1377.511049,-7550.100608,0.000000,383.047749
1377.511370,-7772.162391,-1110.308913,-1838.629195
1377.511691,-7624.121203,222.061783,-1991.848295
1377.512012,-7624.121203,3775.050304,1608.800546
1377.512332,-12731.542202,666.185348,4213.525239
1377.512653,-9178.553681,1036.288319,4366.744339
1377.512974,-11399.171507,-3034.844362,2604.724693
1377.513295,-8808.450710,-2664.741391,1915.238745
1377.513616,-11251.130318,-1110.308913,4136.915689
1377.513936,-10881.027347,-1332.370696,3830.477490
1377.514257,-7031.956449,-222.061783,1532.190996
1377.514578,-8734.430116,-1850.514855,-383.047749
1377.514899,-6513.812290,0.000000,-2145.067394
1377.515220,-9474.636058,740.205942,-383.047749
1377.515540,-11251.130318,296.082377,2298.286494
1377.515861,-8586.388927,666.185348,1225.752797
1377.516182,-11103.089130,-2294.638420,459.657299
1377.516503,-9474.636058,-2442.679609,76.609550
1377.516824,-9178.553681,-518.144159,383.047749
1377.517144,-11843.295072,-222.061783,2528.115143
1377.517465,-7994.224174,148.041188,153.219100
1377.517786,-9178.553681,-222.061783,-995.924147
1377.518107,-8068.244768,-1184.329507,-2757.943793
1377.518428,-7920.203579,2590.720797,-995.924147
1377.518748,-11621.233289,2590.720797,1685.410096
1377.519069,-9030.512492,1332.370696,1608.800546
1377.519390,-9844.739029,-1036.288319,306.438199
1377.519711,-9622.677246,-1554.432478,-612.876398
1377.520032,-9474.636058,-666.185348,-1608.800546
1377.520352,-10510.924376,1702.473667,4136.915689
1377.520673,-11621.233289,1480.411884,1608.800546
1377.520994,-9178.553681,0.000000,76.609550
1377.521315,-8216.285956,-962.267725,-2528.115143
1377.521636,-8808.450710,740.205942,-306.438199
1377.521956,-10584.944971,-222.061783,229.828649
1377.522277,-9918.759623,1628.453072,3983.696590
1377.522598,-9918.759623,-1036.288319,995.924147
1377.522919,-9178.553681,-1702.473667,0.000000
1377.523240,-9326.594869,-1480.411884,153.219100
1377.523560,-11695.253884,-296.082377,2451.505594
1377.523881,-9918.759623,74.020594,3140.991542
1377.524202,-11251.130318,-1406.391290,2757.943793
1377.524523,-7179.997637,-1850.514855,-153.219100
1377.524844,-9252.574275,-1406.391290,-612.876398
1377.525164,-10658.965565,518.144159,2298.286494
1377.525485,-9474.636058,1110.308913,3064.381992
1377.525806,-10658.965565,0.000000,2757.943793
1377.526127,-9548.656652,-962.267725,1378.971896
1377.526447,-8586.388927,-1480.411884,383.047749
1377.526768,-11325.150913,-1480.411884,2298.286494
1377.527089,-9326.594869,74.020594,3524.039291
1377.527410,-9844.739029,444.123565,1072.533697
1377.527731,-8290.306550,-2072.576638,383.047749
1377.528051,-7846.182985,666.185348,306.438199
1377.528372,-10881.027347,1258.350101,3370.820191
1377.528693,-11103.089130,222.061783,3907.087040
1377.529014,-9104.533087,518.144159,3907.087040
1377.529335,-9770.718434,-3775.050304,995.924147
1377.529655,-7402.059420,-592.164754,153.219100
1377.529976,-11399.171507,-740.205942,3370.820191
1377.530297,-8882.471304,-296.082377,3140.991542
1377.530618,-9400.615463,-740.205942,1991.848295
1377.530939,-8882.471304,-2146.597232,459.657299
1377.531259,-7846.182985,-740.205942,-995.924147
1377.531580,-10288.862594,296.082377,2068.457845
1377.531901,-10436.903782,-74.020594,1532.190996
1377.532222,-7105.977043,222.061783,-612.876398
1377.532543,-9548.656652,-1184.329507,-1608.800546
1377.532863,-8882.471304,-148.041188,-995.924147
1377.533184,-11621.233289,-740.205942,2068.457845
1377.533505,-11621.233289,-444.123565,3753.867940
1377.533826,-10436.903782,-1036.288319,2451.505594
1377.534147,-11029.068536,-2590.720797,459.657299
1377.534467,-9030.512492,-740.205942,153.219100
1377.534788,-11399.171507,0.000000,1532.190996
1377.535109,-9622.677246,-296.082377,76.609550
1377.535430,-8216.285956,296.082377,-1455.581446
1377.535751,-7105.977043,-888.247130,-919.314598
1377.536071,-7105.977043,-962.267725,-3370.820191
1377.536392,-10658.965565,1184.329507,-842.705048
1377.536713,-9696.697840,1406.391290,1072.533697
1377.537034,-9474.636058,814.226536,0.000000
1377.537355,-11843.295072,0.000000,1072.533697
1377.537675,-9622.677246,0.000000,153.219100
1377.537996,-11251.130318,74.020594,2068.457845
1377.538317,-11103.089130,-592.164754,2757.943793
1377.538638,-8364.327145,-222.061783,842.705048
1377.538959,-10584.944971,-2146.597232,-919.314598
1377.539279,-7624.121203,-148.041188,-612.876398
1377.539600,-8586.388927,740.205942,306.438199
1377.539921,-10955.047942,1110.308913,1915.238745
1377.540242,-9474.636058,222.061783,2374.896044
1377.540563,-10658.965565,-2220.617826,1072.533697
1377.540883,-9104.533087,-2072.576638,0.000000
1377.541204,-9104.533087,444.123565,919.314598
1377.541525,-11991.336260,1406.391290,3140.991542
1377.541846,-9474.636058,2664.741391,2757.943793
1377.542167,-9918.759623,592.164754,1685.410096
1377.542487,-7846.182985,-1332.370696,-153.219100
1377.542808,-9474.636058,-666.185348,76.609550
1377.543129,-10732.986159,0.000000,2298.286494
1377.543450,-8586.388927,888.247130,1532.190996
1377.543770,-9548.656652,-518.144159,1378.971896
1377.544091,-7254.018232,-666.185348,1532.190996
1377.544412,-9474.636058,0.000000,1915.238745
1377.544733,-12509.480420,-1184.329507,4290.134789
1377.545054,-9030.512492,-888.247130,4673.182538
1377.545374,-10658.965565,-3330.926739,2298.286494
1377.545695,-8734.430116,0.000000,1225.752797
1377.546016,-9918.759623,666.185348,2911.162892
1377.546337,-9696.697840,1110.308913,2528.115143
1377.546658,-7254.018232,1924.535449,2374.896044
1377.546978,-9104.533087,-1776.494261,-459.657299
1377.547299,-7254.018232,-370.102971,-2145.067394
1377.547620,-9474.636058,814.226536,-689.485948
1377.547941,-10955.047942,1036.288319,2911.162892
1377.548262,-8734.430116,-1036.288319,2298.286494
1377.548582,-9770.718434,-2294.638420,1378.971896
1377.548903,-10362.883188,-2368.659014,842.705048
1377.549224,-9548.656652,-1332.370696,842.705048
1377.549545,-12139.377449,-444.123565,3447.429741
1377.549866,-9474.636058,-888.247130,1378.971896
1377.550186,-8068.244768,-1332.370696,-1378.971896
1377.550507,-9030.512492,-1332.370696,-2528.115143
1377.550828,-7550.100608,2294.638420,-2068.457845
1377.551149,-11695.253884,1776.494261,1072.533697
1377.551470,-10362.883188,666.185348,1608.800546
1377.551790,-9474.636058,-1332.370696,0.000000
1377.552111,-10658.965565,-2368.659014,-1302.362347
1377.552432,-9104.533087,148.041188,2451.505594
1377.552753,-10584.944971,1702.473667,1608.800546
1377.553074,-9474.636058,1850.514855,1532.190996
1377.553394,-8956.491898,888.247130,-766.095498
1377.553715,-9770.718434,0.000000,-612.876398
1377.554036,-9178.553681,-592.164754,-383.047749
1377.554357,-11917.315666,0.000000,2757.943793
1377.554678,-10584.944971,-1110.308913,3064.381992
1377.554998,-10066.800811,-518.144159,2987.772442
1377.555319,-10362.883188,-1850.514855,766.095498
1377.555640,-8586.388927,-148.041188,153.219100
1377.555961,-9696.697840,148.041188,1532.190996
1377.556282,-8882.471304,-444.123565,2374.896044
1377.556602,-8142.265362,-3034.844362,2374.896044
1377.556923,-8660.409521,-1850.514855,459.657299
1377.557244,-8438.347739,-1554.432478,-153.219100
1377.557565,-9474.636058,296.082377,1685.410096
1377.557886,-10288.862594,0.000000,3217.601092
1377.558206,-9252.574275,-444.123565,2604.724693
1377.558527,-10214.842000,-2072.576638,995.924147
1377.558848,-7994.224174,-1998.556043,0.000000
1377.559169,-9770.718434,-1702.473667,1685.410096
1377.559490,-9252.574275,-2146.597232,3753.867940
1377.559810,-8142.265362,-2368.659014,1378.971896
1377.560131,-9326.594869,-3182.885551,1225.752797
1377.560452,-7772.162391,-2146.597232,229.828649
1377.560773,-9622.677246,-148.041188,2145.067394
1377.561093,-11547.212695,370.102971,4366.744339
1377.561414,-9474.636058,148.041188,3907.087040
1377.561735,-9844.739029,-1480.411884,2068.457845
1377.562056,-8364.327145,-1554.432478,459.657299
1377.562377,-9474.636058,-962.267725,1532.190996
1377.562697,-10807.006753,-1184.329507,2681.334243
1377.563018,-8586.388927,296.082377,2374.896044
1377.563339,-9696.697840,-1258.350101,459.657299
1377.563660,-6957.935855,-962.267725,-1608.800546
1377.563981,-9992.780217,666.185348,842.705048
1377.564301,-11991.336260,592.164754,3524.039291
1377.564622,-9622.677246,370.102971,2911.162892
1377.564943,-11251.130318,-3108.864956,459.657299
1377.565264,-9252.574275,-3404.947333,0.000000
1377.565585,-9918.759623,-1258.350101,612.876398
1377.565905,-11917.315666,74.020594,2681.334243
1377.566226,-9474.636058,2072.576638,2374.896044
1377.566547,-10881.027347,-592.164754,-383.047749
1377.566868,-7846.182985,-222.061783,-3140.991542
1377.567189,-9104.533087,592.164754,-1685.410096
1377.567509,-11029.068536,2368.659014,689.485948
1377.567830,-8660.409521,2220.617826,76.609550
1377.568151,-9030.512492,444.123565,-1915.238745
1377.568472,-8512.368333,740.205942,-2374.896044
1377.568793,-9030.512492,962.267725,-995.924147
1377.569113,-12805.562797,1850.514855,4366.744339
1377.569434,-11103.089130,-962.267725,3677.258390
1377.569755,-9770.718434,-3108.864956,459.657299
1377.570076,-8956.491898,-1850.514855,-1225.752797
1377.570397,-8882.471304,2368.659014,1072.533697
1377.570717,-11917.315666,2738.761985,4673.182538
1377.571038,-9030.512492,1480.411884,4290.134789
1377.571359,-8438.347739,-2664.741391,-536.266849
1377.571680,-7698.141797,-3849.070898,-3447.429741
1377.572001,-8142.265362,-740.205942,-1072.533697
1377.572321,-9474.636058,1776.494261,1838.629195
1377.572642,-8808.450710,3108.864956,2068.457845
1377.572963,-9252.574275,1850.514855,0.000000
1377.573284,-7994.224174,370.102971,-612.876398
1377.573605,-9548.656652,-814.226536,76.609550
1377.573925,-12953.603985,0.000000,4596.572988
1377.574246,-10955.047942,74.020594,4519.963438
1377.574567,-9696.697840,0.000000,1685.410096
1377.574888,-8734.430116,-592.164754,1455.581446
1377.575209,-7698.141797,444.123565,306.438199
1377.575529,-10732.986159,814.226536,2451.505594
1377.575850,-9474.636058,592.164754,2298.286494
1377.576171,-8734.430116,-370.102971,0.000000
1377.576492,-8956.491898,-1702.473667,-919.314598
1377.576813,-9104.533087,888.247130,76.609550
1377.577134,-12287.418637,2072.576638,4443.353888
1377.577454,-12139.377449,888.247130,4366.744339
1377.577775,-9992.780217,1332.370696,3370.820191
1377.578096,-10807.006753,-3404.947333,919.314598
1377.578417,-7772.162391,-518.144159,689.485948
1377.578738,-12361.439231,-1036.288319,3217.601092
1377.579058,-9326.594869,148.041188,1532.190996
1377.579379,-7698.141797,740.205942,153.219100
1377.579700,-8660.409521,-518.144159,-459.657299
1377.580021,-7846.182985,-1184.329507,-459.657299
1377.580342,-10362.883188,-962.267725,842.705048
1377.580662,-10955.047942,-740.205942,4290.134789
1377.580983,-9474.636058,-2442.679609,1838.629195
1377.581304,-11991.336260,-3182.885551,2068.457845
1377.581625,-9178.553681,-666.185348,1455.581446
1377.581946,-10732.986159,-74.020594,2604.724693
1377.582266,-9400.615463,-962.267725,1991.848295
1377.582587,-7105.977043,-2072.576638,-459.657299
1377.582908,-8364.327145,-3182.885551,-3370.820191
1377.583229,-7846.182985,-666.185348,-5592.497135
1377.583550,-8734.430116,2072.576638,-995.924147
1377.583870,-10214.842000,1702.473667,1072.533697
1377.584191,-8586.388927,222.061783,153.219100
1377.584512,-10658.965565,-1998.556043,459.657299
1377.584833,-9622.677246,-2368.659014,76.609550
1377.585154,-11103.089130,-1110.308913,1762.019645
1377.585474,-11177.109724,-148.041188,3064.381992
1377.585795,-8216.285956,148.041188,612.876398
1377.586116,-9030.512492,-666.185348,-459.657299
1377.586437,-7772.162391,-222.061783,-1838.629195
1377.586758,-8068.244768,592.164754,-612.876398
1377.587078,-10732.986159,-222.061783,2987.772442
1377.587399,-11029.068536,-1776.494261,2451.505594
1377.587720,-10214.842000,-3256.906145,1225.752797
1377.588041,-9474.636058,-1924.535449,459.657299
1377.588362,-9178.553681,1036.288319,2451.505594
1377.588682,-10658.965565,592.164754,2911.162892
1377.589003,-9252.574275,666.185348,2528.115143
1377.589324,-8660.409521,-1776.494261,-612.876398
1377.589645,-9400.615463,-592.164754,-383.047749
1377.589966,-10510.924376,-148.041188,2068.457845
1377.590287,-11399.171507,0.000000,4366.744339
1377.590607,-10732.986159,740.205942,3217.601092
1377.590928,-10807.006753,-518.144159,1838.629195
1377.591249,-9474.636058,-962.267725,995.924147
1377.591570,-9400.615463,-1702.473667,1072.533697
1377.591891,-10807.006753,-592.164754,2987.772442
1377.592211,-8586.388927,-962.267725,2298.286494
1377.592532,-8956.491898,-1998.556043,153.219100
1377.592853,-7698.141797,-1702.473667,-995.924147
1377.593174,-8216.285956,222.061783,459.657299
1377.593495,-10436.903782,1258.350101,2451.505594
1377.593815,-10140.821405,2220.617826,3140.991542
1377.594136,-10584.944971,-666.185348,766.095498
1377.594457,-8438.347739,-814.226536,-459.657299
1377.594778,-9622.677246,0.000000,306.438199
1377.595099,-11103.089130,296.082377,1991.848295
1377.595419,-9252.574275,-148.041188,536.266849
1377.595740,-7698.141797,1332.370696,76.609550
1377.596061,-11843.295072,0.000000,-1302.362347
1377.596382,-5477.523971,-296.082377,229.828649
1377.596703,-11103.089130,-1036.288319,612.876398
1377.597023,-10214.842000,1036.288319,2604.724693
1377.597344,-7698.141797,-1184.329507,-689.485948
1377.597665,-10658.965565,-740.205942,1455.581446
1377.597986,-8068.244768,666.185348,383.047749
1377.598307,-10955.047942,148.041188,612.876398
1377.598627,-9178.553681,296.082377,3370.820191
1377.598948,-9104.533087,-1036.288319,-536.266849
1377.599269,-9474.636058,-1184.329507,-2528.115143
1377.599590,-8660.409521,1628.453072,-1302.362347
1377.599911,-9844.739029,3478.967927,-153.219100
1377.600231,-9918.759623,3034.844362,1915.238745
1377.600552,-10362.883188,0.000000,536.266849
1377.600873,-9548.656652,-1258.350101,-612.876398
1377.601194,-9548.656652,-518.144159,229.828649
1377.601515,-11991.336260,0.000000,3217.601092
1377.601836,-10658.965565,592.164754,3524.039291
1377.602156,-9696.697840,-1036.288319,1302.362347
1377.602477,-9104.533087,-1332.370696,-536.266849
1377.602798,-7698.141797,-518.144159,-766.095498
1377.603119,-9992.780217,296.082377,2145.067394
1377.603440,-10807.006753,518.144159,3753.867940
1377.603760,-9548.656652,-1702.473667,1072.533697
1377.604081,-9104.533087,-740.205942,1225.752797
1377.604402,-9030.512492,-2368.659014,1072.533697
1377.604723,-10362.883188,-740.205942,1915.238745
1377.605044,-10955.047942,370.102971,3677.258390
1377.605364,-9178.553681,-444.123565,1378.971896
1377.605685,-8142.265362,-222.061783,-1915.238745
1377.606006,-7254.018232,1184.329507,-1685.410096
1377.606327,-9992.780217,2442.679609,2604.724693
1377.606648,-12361.439231,888.247130,6128.763984
1377.606968,-10955.047942,-2146.597232,6052.154434
1377.607289,-9770.718434,-5699.585753,3677.258390
1377.607610,-9474.636058,-5181.441594,383.047749
1377.607931,-11843.295072,0.000000,2987.772442
1377.608252,-8956.491898,444.123565,4596.572988
1377.608572,-5107.421000,2220.617826,-306.438199
1377.608893,-7772.162391,-518.144159,-2834.553343
1377.609214,-5403.503377,1110.308913,-4136.915689
1377.609535,-8808.450710,1924.535449,-1302.362347
1377.609856,-13619.789333,-148.041188,3907.087040
1377.610176,-9770.718434,0.000000,3294.210641
1377.610497,-11917.315666,-2516.700203,2451.505594
1377.610818,-11399.171507,-3034.844362,2145.067394
1377.611139,-9474.636058,814.226536,3600.648841
1377.611460,-12657.521608,-1480.411884,4903.011187
1377.611780,-8216.285956,-592.164754,536.266849
1377.612101,-8142.265362,-1480.411884,-1915.238745
1377.612422,-6735.874072,-1998.556043,-4519.963438
1377.612743,-7402.059420,814.226536,-919.314598
1377.613064,-10510.924376,444.123565,2451.505594
1377.613384,-9474.636058,-1036.288319,2374.896044
1377.613705,-10140.821405,-2220.617826,1991.848295
1377.614026,-10436.903782,-3923.091493,842.705048
1377.614347,-11325.150913,-1702.473667,1225.752797
1377.614668,-12435.459826,1406.391290,3524.039291
1377.614989,-8734.430116,1776.494261,1072.533697
1377.615309,-10066.800811,592.164754,-229.828649
1377.615630,-7031.956449,1036.288319,-3753.867940
1377.615951,-8068.244768,1036.288319,-3217.601092
1377.616272,-11325.150913,666.185348,0.000000
1377.616593,-8734.430116,1628.453072,1762.019645
1377.616913,-11695.253884,-1480.411884,1149.143247
1377.617234,-10955.047942,-1406.391290,919.314598
1377.617555,-9178.553681,444.123565,1532.190996
1377.617876,-13101.645173,444.123565,3830.477490
1377.618197,-8660.409521,888.247130,2145.067394
1377.618517,-8882.471304,0.000000,0.000000
1377.618838,-7994.224174,-962.267725,-2834.553343
1377.619159,-5699.585753,1184.329507,-3370.820191
1377.619480,-8956.491898,1406.391290,842.705048
1377.619801,-8734.430116,666.185348,1302.362347
1377.620121,-9474.636058,-1036.288319,1762.019645
1377.620442,-9548.656652,-1998.556043,2068.457845
1377.620763,-10881.027347,-1406.391290,2221.676944
1377.621084,-12361.439231,-1776.494261,4596.572988
1377.621405,-10881.027347,222.061783,5286.058936
1377.621725,-10732.986159,-592.164754,2911.162892
1377.622046,-7994.224174,-1258.350101,-536.266849
1377.622367,-6365.771101,-518.144159,-689.485948
1377.622688,-9548.656652,-296.082377,766.095498
1377.623009,-8956.491898,518.144159,1378.971896
1377.623329,-10214.842000,666.185348,2451.505594
1377.623650,-10066.800811,-1702.473667,1608.800546
1377.623971,-8660.409521,-296.082377,766.095498
1377.624292,-12139.377449,0.000000,3753.867940
1377.624613,-9622.677246,-1258.350101,3294.210641
1377.624933,-8586.388927,-740.205942,383.047749
1377.625254,-9992.780217,-2072.576638,-383.047749
1377.625575,-6809.894666,814.226536,-1685.410096
1377.625896,-11399.171507,2220.617826,2145.067394
1377.626217,-10510.924376,1924.535449,3064.381992
1377.626538,-8068.244768,1702.473667,1072.533697
1377.626858,-10881.027347,-296.082377,1302.362347
1377.627179,-9252.574275,-1406.391290,1532.190996
1377.627500,-11251.130318,-1776.494261,3294.210641
1377.627821,-10066.800811,-1924.535449,3600.648841
1377.628142,-8586.388927,-1702.473667,995.924147
1377.628462,-8660.409521,-1184.329507,-612.876398
1377.628783,-7105.977043,0.000000,-1302.362347
1377.629104,-9104.533087,0.000000,612.876398
1377.629425,-9252.574275,1258.350101,1225.752797
1377.629746,-10436.903782,1036.288319,1991.848295
1377.630066,-11843.295072,-1258.350101,1838.629195
1377.630387,-10066.800811,-3330.926739,229.828649
1377.630708,-11177.109724,-1184.329507,2374.896044
1377.631029,-10436.903782,-888.247130,1838.629195
1377.631350,-8660.409521,-222.061783,153.219100
1377.631670,-10584.944971,-1554.432478,-766.095498
1377.631991,-6291.750507,-888.247130,-3907.087040
1377.632312,-9104.533087,-148.041188,-2604.724693
1377.632633,-10436.903782,1480.411884,842.705048
1377.632954,-8956.491898,740.205942,842.705048
1377.633274,-11103.089130,-2072.576638,-153.219100
1377.633595,-8290.306550,-1776.494261,383.047749
1377.633916,-10436.903782,-1184.329507,1072.533697
1377.634237,-11843.295072,-222.061783,3064.381992
1377.634558,-8734.430116,962.267725,1685.410096
1377.634878,-9400.615463,-222.061783,-459.657299
1377.635199,-7550.100608,0.000000,-2604.724693
1377.635520,-8660.409521,1998.556043,-766.095498
1377.635841,-11251.130318,444.123565,2374.896044
1377.636162,-8734.430116,-1332.370696,2298.286494
1377.636482,-10807.006753,-2812.782580,2298.286494
1377.636803,-9474.636058,-3478.967927,1072.533697
1377.637124,-10584.944971,-814.226536,2451.505594
1377.637445,-11769.274478,-740.205942,6511.811733
1377.637766,-8660.409521,296.082377,2681.334243
1377.638086,-10066.800811,-666.185348,-229.828649
1377.638407,-7328.038826,0.000000,-1991.848295
1377.638728,-7624.121203,1702.473667,-1378.971896
1377.639049,-11547.212695,1406.391290,2374.896044
1377.639370,-9326.594869,1110.308913,2528.115143
1377.639691,-10584.944971,-1554.432478,1685.410096
1377.640011,-9474.636058,-1998.556043,919.314598
1377.640332,-9770.718434,222.061783,2374.896044
1377.640653,-12139.377449,1406.391290,3600.648841
1377.640974,-9474.636058,1924.535449,3830.477490
1377.641295,-9918.759623,370.102971,766.095498
1377.641615,-7550.100608,-1110.308913,-1149.143247
1377.641936,-8586.388927,-148.041188,-995.924147
1377.642257,-11473.192101,740.205942,3217.601092
1377.642578,-9326.594869,-740.205942,2221.676944
1377.642899,-8660.409521,1110.308913,2911.162892
1377.643219,-9770.718434,-2516.700203,766.095498
1377.643540,-7402.059420,1332.370696,2221.676944
1377.643861,-12139.377449,-666.185348,4443.353888
1377.644182,-8364.327145,-1554.432478,842.705048
1377.644503,-7179.997637,-74.020594,-2145.067394
1377.644823,-8438.347739,-740.205942,-2221.676944
1377.645144,-5625.565159,2590.720797,-689.485948
1377.645465,-12139.377449,1184.329507,2757.943793
1377.645786,-10066.800811,-2072.576638,2528.115143
1377.646107,-8808.450710,-3404.947333,-536.266849
1377.646427,-10658.965565,-3330.926739,76.609550
1377.646748,-9770.718434,296.082377,1991.848295
1377.647069,-11695.253884,1110.308913,3524.039291
1377.647390,-9844.739029,2146.597232,2145.067394
1377.647711,-8142.265362,444.123565,-1225.752797
1377.648031,-9770.718434,-2072.576638,-2987.772442
1377.648352,-7402.059420,0.000000,-2374.896044
1377.648673,-10881.027347,0.000000,2221.676944
1377.648994,-8438.347739,1258.350101,-306.438199
1377.649315,-9844.739029,1036.288319,383.047749
1377.649635,-10140.821405,-592.164754,0.000000
1377.649956,-8586.388927,444.123565,0.000000
1377.650277,-12879.583391,296.082377,2681.334243
1377.650598,-10140.821405,518.144159,2451.505594
1377.650919,-8882.471304,-296.082377,76.609550
1377.651240,-10288.862594,-1702.473667,-536.266849
1377.651560,-5847.626942,444.123565,0.000000
1377.651881,-11621.233289,-592.164754,1455.581446
1377.652202,-9400.615463,-814.226536,2374.896044
1377.652523,-8364.327145,-1258.350101,689.485948
1377.652844,-11843.295072,-1850.514855,1225.752797
1377.653164,-9918.759623,-814.226536,2757.943793
1377.653485,-12435.459826,-222.061783,4290.134789
1377.653806,-10807.006753,0.000000,4596.572988
1377.654127,-9178.553681,-444.123565,1608.800546
1377.654448,-9474.636058,-1406.391290,766.095498
1377.654768,-7698.141797,-1998.556043,-1532.190996
1377.655089,-8512.368333,962.267725,153.219100
1377.655410,-9474.636058,1036.288319,2145.067394
1377.655731,-7550.100608,444.123565,1762.019645
1377.656052,-10288.862594,-1924.535449,2221.676944
1377.656372,-8956.491898,-2368.659014,766.095498
1377.656693,-11251.130318,-592.164754,2987.772442
1377.657014,-11769.274478,1332.370696,4596.572988
1377.657335,-9178.553681,-370.102971,3830.477490
1377.657656,-9622.677246,-2886.803174,1685.410096
1377.657976,-7254.018232,-2664.741391,-842.705048
1377.658297,-7624.121203,-518.144159,-995.924147
1377.658618,-10584.944971,0.000000,2298.286494
1377.658939,-7254.018232,2220.617826,1455.581446
1377.659260,-11251.130318,0.000000,2528.115143
1377.659580,-9252.574275,-1332.370696,153.219100
1377.659901,-8734.430116,1036.288319,1225.752797
1377.660222,-12805.562797,-2812.782580,4366.744339
1377.660543,-7698.141797,-740.205942,1915.238745
1377.660864,-10658.965565,-3182.885551,612.876398
1377.661184,-6513.812290,-2146.597232,-1991.848295
1377.661505,-7772.162391,1554.432478,-842.705048
1377.661826,-10436.903782,2368.659014,2298.286494
1377.662147,-9548.656652,1110.308913,1685.410096
1377.662468,-9770.718434,-1184.329507,-306.438199
1377.662788,-9622.677246,-888.247130,-766.095498
1377.663109,-9548.656652,-444.123565,-306.438199
1377.663430,-12583.501014,0.000000,3294.210641
1377.663751,-9696.697840,0.000000,2221.676944
1377.664072,-9992.780217,-1184.329507,383.047749
1377.664393,-7920.203579,0.000000,-2451.505594
1377.664713,-8734.430116,814.226536,-2221.676944
1377.665034,-10584.944971,2220.617826,153.219100
1377.665355,-9030.512492,3330.926739,459.657299
1377.665676,-11029.068536,370.102971,842.705048
1377.665997,-9992.780217,-962.267725,536.266849
1377.666317,-10066.800811,-1406.391290,1685.410096
1377.666638,-13175.665768,-1332.370696,4596.572988
1377.666959,-9474.636058,-1332.370696,2145.067394
1377.667280,-9548.656652,-1406.391290,689.485948
1377.667601,-8734.430116,-518.144159,-1762.019645
1377.667921,-7476.080014,1110.308913,-2221.676944
1377.668242,-9992.780217,1036.288319,919.314598
1377.668563,-8142.265362,74.020594,842.705048
1377.668884,-9178.553681,-148.041188,-995.924147
1377.669205,-9622.677246,1258.350101,1225.752797
1377.669525,-10658.965565,-740.205942,3064.381992
1377.669846,-9696.697840,-1998.556043,4673.182538
1377.670167,-9474.636058,-1702.473667,2987.772442
1377.670488,-9992.780217,-2072.576638,1455.581446
1377.670808,-7698.141797,-1924.535449,-383.047749
1377.671129,-9622.677246,814.226536,689.485948
1377.671450,-9918.759623,666.185348,2451.505594
1377.671771,-7994.224174,962.267725,689.485948
1377.672091,-10510.924376,74.020594,2451.505594
1377.672412,-9474.636058,-1628.453072,1455.581446
1377.672733,-8660.409521,-1110.308913,153.219100
1377.673054,-12361.439231,0.000000,4519.963438
1377.673374,-8808.450710,814.226536,3370.820191
1377.673695,-10288.862594,-370.102971,2068.457845
1377.674016,-9770.718434,-518.144159,612.876398
1377.674337,-6587.832884,74.020594,-1915.238745
1377.674657,-10658.965565,1184.329507,766.095498
1377.674978,-9622.677246,1110.308913,2911.162892
1377.675299,-8660.409521,1258.350101,1302.362347
1377.675620,-11695.253884,-3256.906145,1302.362347
1377.675940,-9252.574275,-1924.535449,919.314598
1377.676261,-10881.027347,222.061783,2987.772442
1377.676582,-11103.089130,-2368.659014,2451.505594
1377.676903,-8290.306550,1776.494261,3064.381992
1377.677223,-11621.233289,-3182.885551,995.924147
1377.677544,-6661.853478,-1406.391290,-2221.676944
1377.677865,-9844.739029,296.082377,766.095498
1377.678186,-9770.718434,-592.164754,1838.629195
1377.678506,-8956.491898,-296.082377,1378.971896
1377.678827,-10881.027347,-2516.700203,612.876398
1377.679148,-6809.894666,-1924.535449,-612.876398
1377.679469,-10436.903782,0.000000,1149.143247
1377.679789,-12361.439231,1332.370696,3294.210641
1377.680110,-8956.491898,1036.288319,1072.533697
1377.680431,-10658.965565,-2368.659014,229.828649
1377.680752,-5995.668130,-1702.473667,-2451.505594
1377.681072,-9548.656652,-148.041188,-1455.581446
1377.681393,-12139.377449,1332.370696,2068.457845
1377.681714,-9030.512492,1036.288319,1455.581446
1377.682035,-10732.986159,-518.144159,-153.219100
1377.682355,-7920.203579,-444.123565,-689.485948
1377.682676,-9622.677246,814.226536,-229.828649
1377.682997,-12361.439231,0.000000,2911.162892
1377.683318,-9252.574275,148.041188,1225.752797
1377.683638,-8882.471304,-1258.350101,-306.438199
1377.683959,-8068.244768,-1110.308913,-2221.676944
1377.684280,-8808.450710,444.123565,-459.657299
1377.684601,-11473.192101,0.000000,1991.848295
1377.684921,-9178.553681,222.061783,766.095498
1377.685242,-9252.574275,-518.144159,459.657299
1377.685563,-10066.800811,-1332.370696,919.314598
1377.685884,-9844.739029,370.102971,2145.067394
1377.686204,-12435.459826,0.000000,4749.792088
1377.686525,-8734.430116,-1258.350101,2451.505594
1377.686846,-8882.471304,-1776.494261,459.657299
1377.687167,-9178.553681,-2442.679609,-766.095498
1377.687487,-8808.450710,222.061783,612.876398
1377.687808,-10955.047942,1554.432478,4213.525239
1377.688129,-8956.491898,814.226536,3524.039291
1377.688450,-9548.656652,-1110.308913,1685.410096
1377.688770,-10066.800811,-1702.473667,842.705048
1377.689091,-9844.739029,592.164754,2298.286494
1377.689412,-12065.356855,0.000000,3907.087040
1377.689733,-9030.512492,370.102971,3370.820191
1377.690053,-9844.739029,-1258.350101,2145.067394
1377.690374,-8216.285956,-2072.576638,-1302.362347
1377.690695,-7772.162391,-148.041188,-306.438199
1377.691016,-10881.027347,0.000000,1532.190996
1377.691336,-7476.080014,1036.288319,919.314598
1377.691657,-9030.512492,-592.164754,459.657299
1377.691978,-9178.553681,-962.267725,766.095498
1377.692299,-8142.265362,-296.082377,1149.143247
1377.692619,-12139.377449,-1554.432478,3907.087040
1377.692940,-10066.800811,-814.226536,3983.696590
1377.693261,-10288.862594,-1554.432478,1378.971896
1377.693582,-10214.842000,-2442.679609,1685.410096
1377.693902,-7698.141797,-370.102971,-459.657299
1377.694223,-8956.491898,1258.350101,995.924147
1377.694544,-8882.471304,1036.288319,0.000000
1377.694865,-8216.285956,1332.370696,-153.219100
1377.695185,-9918.759623,-1480.411884,-1072.533697
1377.695506,-9030.512492,-370.102971,536.266849
1377.695827,-11917.315666,-1332.370696,2145.067394
1377.696148,-11103.089130,-592.164754,3830.477490
1377.696468,-10214.842000,-2294.638420,1608.800546
1377.696789,-9030.512492,-888.247130,-1225.752797
1377.697110,-7698.141797,592.164754,-2068.457845
1377.697431,-9474.636058,2442.679609,-1072.533697
1377.697751,-9696.697840,2886.803174,689.485948
1377.698072,-9548.656652,888.247130,0.000000
1377.698393,-9844.739029,-888.247130,-229.828649
1377.698714,-9178.553681,-1110.308913,-1072.533697
1377.699034,-11695.253884,0.000000,1532.190996
1377.699355,-11251.130318,0.000000,3140.991542
1377.699676,-9178.553681,222.061783,1302.362347
1377.699997,-10362.883188,-1406.391290,-153.219100
1377.700317,-8216.285956,1036.288319,-536.266849
1377.700638,-11177.109724,1110.308913,1685.410096
1377.700959,-10510.924376,-370.102971,2221.676944
1377.701280,-7994.224174,-296.082377,1149.143247
1377.701600,-11029.068536,-2442.679609,-1149.143247
1377.701921,-6735.874072,444.123565,-766.095498
1377.702242,-10881.027347,148.041188,1915.238745
1377.702563,-10362.883188,296.082377,3677.258390
1377.702883,-8290.306550,-592.164754,1991.848295
1377.703204,-11103.089130,-3478.967927,1532.190996
1377.703525,-9104.533087,0.000000,766.095498
1377.703846,-12213.398043,1554.432478,2604.724693
1377.704166,-11325.150913,1628.453072,3677.258390
1377.704487,-7846.182985,1628.453072,919.314598
1377.704808,-9548.656652,-1406.391290,459.657299
1377.705129,-7772.162391,-1332.370696,-306.438199
1377.705449,-8882.471304,-2220.617826,153.219100
1377.705770,-10288.862594,-888.247130,1149.143247
1377.706091,-8364.327145,888.247130,1225.752797
1377.706412,-10362.883188,1110.308913,1915.238745
1377.706732,-8660.409521,1184.329507,919.314598
1377.707053,-10288.862594,0.000000,2068.457845
1377.707374,-10732.986159,-1036.288319,2987.772442
1377.707695,-9104.533087,-962.267725,766.095498
1377.708015,-8882.471304,222.061783,1455.581446
1377.708336,-9770.718434,-814.226536,306.438199
1377.708657,-8512.368333,2664.741391,2681.334243
1377.708978,-10658.965565,370.102971,3524.039291
1377.709298,-8216.285956,-2072.576638,1532.190996
1377.709619,-9918.759623,-2368.659014,842.705048
1377.709940,-9104.533087,-3478.967927,229.828649
1377.710261,-7920.203579,-962.267725,-306.438199
1377.710581,-10362.883188,1258.350101,3064.381992
1377.710902,-9326.594869,-592.164754,3370.820191
1377.711223,-10140.821405,-2368.659014,1225.752797
1377.711544,-8956.491898,-2516.700203,-306.438199
1377.711864,-8364.327145,-592.164754,383.047749
1377.712185,-11917.315666,518.144159,2451.505594
1377.712506,-9178.553681,962.267725,1378.971896
1377.712827,-9770.718434,-592.164754,689.485948
1377.713147,-7920.203579,-962.267725,-2834.553343
1377.713468,-8290.306550,0.000000,-1608.800546
1377.713789,-11029.068536,592.164754,919.314598
1377.714110,-9400.615463,1480.411884,1532.190996
1377.714430,-11029.068536,-444.123565,919.314598
1377.714751,-8734.430116,-740.205942,0.000000
1377.715072,-8882.471304,-222.061783,-766.095498
1377.715393,-12065.356855,0.000000,2221.676944
1377.715713,-9474.636058,74.020594,1225.752797
1377.716034,-9326.594869,-1036.288319,229.828649
1377.716355,-8512.368333,-1406.391290,-306.438199
1377.716676,-8586.388927,518.144159,306.438199
1377.716996,-11917.315666,-666.185348,2681.334243
1377.717317,-8586.388927,-296.082377,842.705048
1377.717638,-8882.471304,-1036.288319,-2068.457845
1377.717959,-7994.224174,-370.102971,-995.924147
1377.718279,-8216.285956,0.000000,229.828649
1377.718600,-12065.356855,814.226536,3907.087040
1377.718921,-9400.615463,-740.205942,2987.772442
1377.719242,-9622.677246,-3256.906145,995.924147
1377.719562,-9844.739029,-2368.659014,612.876398
1377.719883,-9770.718434,296.082377,842.705048
1377.720204,-12139.377449,2664.741391,4826.401637
1377.720525,-9400.615463,1776.494261,3524.039291
1377.720845,-8364.327145,-1554.432478,689.485948
1377.721166,-9622.677246,-1850.514855,-995.924147
1377.721487,-9178.553681,-1036.288319,0.000000
1377.721808,-11325.150913,740.205942,2987.772442
1377.722128,-9252.574275,1628.453072,3524.039291
1377.722449,-8808.450710,518.144159,1915.238745
1377.722770,-9770.718434,-1702.473667,995.924147
1377.723091,-8734.430116,-1258.350101,306.438199
1377.723411,-11917.315666,-592.164754,2757.943793
1377.723732,-9326.594869,1110.308913,2834.553343
1377.724053,-9992.780217,1110.308913,2298.286494
1377.724374,-10436.903782,814.226536,1532.190996
1377.724694,-8438.347739,74.020594,536.266849
1377.725015,-10066.800811,0.000000,1225.752797
1377.725336,-9474.636058,-444.123565,2834.553343
1377.725657,-9770.718434,-1554.432478,1685.410096
1377.725977,-11325.150913,-3034.844362,2298.286494
1377.726298,-7476.080014,-1924.535449,0.000000
1377.726619,-10214.842000,0.000000,1608.800546
1377.726940,-9326.594869,518.144159,2145.067394
1377.727260,-9400.615463,1332.370696,689.485948
1377.727581,-9770.718434,-370.102971,0.000000
1377.727902,-6291.750507,-592.164754,-2681.334243
1377.728223,-8660.409521,1110.308913,-842.705048
1377.728543,-10955.047942,-444.123565,1685.410096
1377.728864,-9474.636058,-666.185348,995.924147
1377.729185,-10807.006753,-1480.411884,1378.971896
1377.729506,-7179.997637,-2442.679609,0.000000
1377.729826,-9992.780217,740.205942,459.657299
1377.730147,-12213.398043,1480.411884,2221.676944
1377.730468,-8586.388927,1480.411884,689.485948
1377.730789,-10066.800811,148.041188,0.000000
1377.731109,-7624.121203,-740.205942,-1685.410096
1377.731430,-9548.656652,-1702.473667,-919.314598
1377.731751,-10214.842000,-888.247130,1608.800546
1377.732072,-8808.450710,-1554.432478,536.266849
1377.732392,-9770.718434,-1998.556043,0.000000
1377.732713,-8438.347739,-1258.350101,-1378.971896
1377.733034,-9474.636058,1110.308913,0.000000
1377.733355,-11843.295072,2368.659014,2834.553343
1377.733675,-10288.862594,666.185348,3830.477490
1377.733996,-10214.842000,-3256.906145,995.924147
1377.734317,-7920.203579,-3256.906145,-995.924147
1377.734638,-9918.759623,-2516.700203,153.219100
1377.734958,-10510.924376,-2220.617826,2604.724693
1377.735279,-8142.265362,-518.144159,1991.848295
1377.735600,-10140.821405,-1628.453072,995.924147
1377.735921,-8216.285956,-518.144159,-1149.143247
1377.736241,-10288.862594,1110.308913,1149.143247
1377.736562,-11547.212695,2368.659014,4366.744339
1377.736883,-9918.759623,2590.720797,3140.991542
1377.737204,-10807.006753,296.082377,3294.210641
1377.737524,-8808.450710,-1110.308913,766.095498
1377.737845,-9474.636058,-370.102971,1532.190996
1377.738166,-10436.903782,-148.041188,3064.381992
1377.738487,-7698.141797,370.102971,1455.581446
1377.738807,-9918.759623,962.267725,1991.848295
1377.739128,-9992.780217,-222.061783,306.438199
1377.739449,-9474.636058,3034.844362,2451.505594
1377.739770,-12731.542202,0.000000,4596.572988
1377.740090,-9844.739029,-1036.288319,4443.353888
1377.740411,-11177.109724,-2664.741391,2374.896044
1377.740732,-6883.915261,-518.144159,1149.143247
1377.741053,-9178.553681,-1036.288319,383.047749
1377.741373,-8586.388927,888.247130,2451.505594
1377.741694,-7402.059420,962.267725,1455.581446
1377.742015,-9622.677246,0.000000,-229.828649
1377.742336,-8364.327145,-1702.473667,-612.876398
1377.742656,-8808.450710,-592.164754,-842.705048
1377.742977,-10436.903782,962.267725,2834.553343
1377.743298,-10066.800811,296.082377,2221.676944
1377.743619,-10510.924376,-222.061783,1838.629195
1377.743939,-8586.388927,-962.267725,153.219100
1377.744260,-8142.265362,-814.226536,-1378.971896
1377.744581,-10732.986159,-148.041188,2145.067394
1377.744902,-8512.368333,0.000000,2145.067394
1377.745222,-9252.574275,-1628.453072,-306.438199
1377.745543,-7698.141797,-1998.556043,-2757.943793
1377.745864,-8216.285956,370.102971,-2068.457845
1377.746185,-10955.047942,666.185348,536.266849
1377.746505,-9770.718434,2146.597232,1072.533697
1377.746826,-9992.780217,1776.494261,1072.533697
1377.747147,-10288.862594,-444.123565,-766.095498
1377.747468,-9326.594869,740.205942,-1225.752797
1377.747788,-11473.192101,222.061783,1225.752797
1377.748109,-8882.471304,0.000000,1378.971896
1377.748430,-8512.368333,1406.391290,-689.485948
1377.748751,-9548.656652,592.164754,-76.609550
1377.749071,-9178.553681,148.041188,-1608.800546
1377.749392,-9400.615463,0.000000,1225.752797
1377.749713,-10658.965565,148.041188,1608.800546
1377.750034,-11695.253884,74.020594,2451.505594
1377.750354,-8364.327145,-2368.659014,0.000000
1377.750675,-8956.491898,-370.102971,2298.286494
1377.750996,-10881.027347,-1258.350101,2528.115143
1377.751317,-9696.697840,-1332.370696,3524.039291
1377.751637,-9548.656652,-1406.391290,3064.381992
1377.751958,-9992.780217,-2368.659014,689.485948
1377.752279,-7328.038826,-1480.411884,-766.095498
1377.752600,-11103.089130,888.247130,3064.381992
1377.752920,-9622.677246,1258.350101,3524.039291
1377.753241,-10362.883188,296.082377,3294.210641
1377.753562,-10362.883188,-3034.844362,2298.286494
1377.753883,-6809.894666,-2442.679609,-1149.143247
1377.754203,-10214.842000,-148.041188,1455.581446
1377.754524,-10510.924376,740.205942,4979.620737
1377.754845,-7624.121203,814.226536,3370.820191
1377.755166,-10362.883188,-1924.535449,1455.581446
1377.755486,-7254.018232,-2220.617826,-612.876398
1377.755807,-8216.285956,-740.205942,689.485948
1377.756128,-10881.027347,-148.041188,3830.477490
1377.756449,-9178.553681,296.082377,3753.867940
1377.756769,-8956.491898,-1332.370696,1915.238745
1377.757090,-9474.636058,-2368.659014,76.609550
1377.757411,-9178.553681,-296.082377,842.705048
1377.757732,-11251.130318,0.000000,2451.505594
1377.758052,-9178.553681,740.205942,3447.429741
1377.758373,-9474.636058,-962.267725,1455.581446
1377.758694,-9400.615463,-1776.494261,-153.219100
1377.759015,-9696.697840,-740.205942,0.000000
1377.759335,-10510.924376,370.102971,1991.848295
1377.759656,-9548.656652,0.000000,1532.190996
1377.759977,-10584.944971,-962.267725,1225.752797
1377.760298,-8586.388927,-592.164754,-919.314598
1377.760618,-9474.636058,0.000000,-919.314598
1377.760939,-11547.212695,1406.391290,2068.457845
1377.761260,-9622.677246,0.000000,1072.533697
1377.761581,-12065.356855,-2590.720797,0.000000
1377.761901,-8734.430116,-888.247130,-2374.896044
1377.762222,-9252.574275,1036.288319,-1608.800546
1377.762543,-11917.315666,592.164754,1225.752797
1377.762864,-9474.636058,666.185348,842.705048
1377.763184,-10140.821405,-370.102971,-766.095498
1377.763505,-7105.977043,-296.082377,-3907.087040
1377.763826,-9252.574275,518.144159,-1225.752797
1377.764147,-10436.903782,888.247130,919.314598
1377.764467,-9252.574275,814.226536,766.095498
1377.764788,-9548.656652,-444.123565,-229.828649
1377.765109,-9770.718434,-1258.350101,-459.657299
1377.765430,-9178.553681,-370.102971,229.828649
1377.765750,-12361.439231,592.164754,3370.820191
1377.766071,-9474.636058,370.102971,2987.772442
1377.766392,-9548.656652,-222.061783,1762.019645
1377.766713,-8438.347739,-296.082377,229.828649
1377.767033,-8586.388927,0.000000,1378.971896
1377.767354,-10510.924376,148.041188,2451.505594
1377.767675,-7994.224174,148.041188,2298.286494
1377.767996,-8882.471304,-1110.308913,1838.629195
1377.768316,-9474.636058,-3108.864956,1225.752797
1377.768637,-7179.997637,-518.144159,1762.019645
1377.768958,-11325.150913,-1110.308913,3677.258390
1377.769279,-9326.594869,296.082377,3370.820191
1377.769599,-9770.718434,814.226536,3064.381992
1377.769920,-9326.594869,-370.102971,1149.143247
1377.770241,-8216.285956,888.247130,995.924147
1377.770562,-11399.171507,74.020594,2911.162892
1377.770882,-9030.512492,-148.041188,2298.286494
1377.771203,-9474.636058,-1110.308913,842.705048
1377.771524,-10140.821405,-1554.432478,689.485948
1377.771845,-7772.162391,-740.205942,0.000000
1377.772165,-11103.089130,370.102971,2221.676944
1377.772485,-9844.739029,740.205942,3064.381992
1377.772806,-10362.883188,-444.123565,2604.724693
1377.773126,-11473.192101,-3034.844362,1762.019645
1377.773447,-8068.244768,-666.185348,459.657299
1377.773768,-11695.253884,-1998.556043,1302.362347
1377.774088,-9474.636058,592.164754,3753.867940
1377.774409,-9474.636058,-444.123565,2374.896044
1377.774730,-10436.903782,-3701.029710,842.705048
1377.775050,-7105.977043,-2294.638420,-1608.800546
1377.775371,-10436.903782,-444.123565,0.000000
1377.775692,-9770.718434,666.185348,2451.505594
1377.776012,-10584.944971,1110.308913,1838.629195
1377.776333,-10362.883188,-814.226536,2451.505594
1377.776654,-6957.935855,-1184.329507,-1149.143247
1377.776974,-9918.759623,-518.144159,229.828649
1377.777295,-10140.821405,0.000000,1762.019645
1377.777616,-9548.656652,296.082377,229.828649
1377.777936,-10436.903782,-592.164754,-536.266849
1377.778257,-6661.853478,-148.041188,-3140.991542
1377.778578,-10955.047942,1406.391290,-1455.581446
1377.778898,-10066.800811,888.247130,2068.457845
1377.779219,-9992.780217,814.226536,919.314598
1377.779540,-11177.109724,-296.082377,-459.657299
1377.779860,-7254.018232,-1332.370696,-1225.752797
1377.780181,-9696.697840,222.061783,229.828649
1377.780502,-11473.192101,222.061783,2757.943793
1377.780822,-7105.977043,-814.226536,0.000000
1377.781143,-9104.533087,-1036.288319,-1915.238745
1377.781464,-7846.182985,222.061783,-2221.676944
1377.781784,-8734.430116,1776.494261,-612.876398
1377.782105,-11103.089130,2294.638420,3447.429741
1377.782426,-9622.677246,0.000000,2145.067394
1377.782746,-11473.192101,-1702.473667,2068.457845
1377.783067,-9992.780217,-2960.823768,995.924147
1377.783388,-10140.821405,-666.185348,2451.505594
1377.783708,-11473.192101,148.041188,5056.230287
1377.784029,-9696.697840,-148.041188,2911.162892
1377.784350,-8956.491898,-1110.308913,536.266849
1377.784670,-7846.182985,-888.247130,-1532.190996
1377.784991,-7846.182985,1036.288319,-229.828649
1377.785312,-10807.006753,1480.411884,3447.429741
1377.785632,-10066.800811,592.164754,3064.381992
1377.785953,-9696.697840,-740.205942,1378.971896
1377.786274,-9474.636058,-1332.370696,459.657299
1377.786594,-9992.780217,370.102971,1532.190996
1377.786915,-11547.212695,1628.453072,4136.915689
1377.787236,-9844.739029,1258.350101,2681.334243
1377.787556,-9252.574275,814.226536,1302.362347
1377.787877,-9252.574275,-592.164754,-229.828649
1377.788198,-8142.265362,-814.226536,536.266849
1377.788518,-10732.986159,-1554.432478,2298.286494
1377.788839,-8956.491898,-518.144159,2451.505594
1377.789160,-9770.718434,0.000000,2681.334243
1377.789480,-10584.944971,-666.185348,3677.258390
1377.789801,-10362.883188,-888.247130,3600.648841
1377.790122,-12509.480420,-1628.453072,4366.744339
1377.790442,-9548.656652,-2146.597232,1455.581446
1377.790763,-7402.059420,-962.267725,-1302.362347
1377.791084,-7179.997637,-1036.288319,-1915.238745
1377.791404,-4885.359217,1702.473667,-4136.915689
1377.791725,-8808.450710,1480.411884,-2911.162892
1377.792046,-6513.812290,1850.514855,-2528.115143
1377.792366,-8142.265362,0.000000,-1608.800546
1377.792687,-11843.295072,-1776.494261,1762.019645
1377.793008,-11251.130318,-1998.556043,3140.991542
1377.793328,-14211.954086,-2960.823768,5515.887586
1377.793649,-11843.295072,-1554.432478,5209.449386
1377.793970,-11769.274478,-2664.741391,2145.067394
1377.794290,-9770.718434,-2886.803174,0.000000
1377.794611,-5995.668130,444.123565,-2834.553343
1377.794932,-7698.141797,1258.350101,-2604.724693
1377.795252,-6809.894666,3627.009116,-1915.238745
1377.795573,-9696.697840,1554.432478,-1072.533697
1377.795894,-10214.842000,-1258.350101,-995.924147
1377.796214,-8808.450710,-592.164754,-306.438199
1377.796535,-12879.583391,-740.205942,2374.896044
1377.796856,-10658.965565,592.164754,4213.525239
1377.797176,-11399.171507,-222.061783,2834.553343
1377.797497,-10066.800811,370.102971,2145.067394
1377.797818,-8808.450710,-444.123565,-2221.676944
1377.798138,-10066.800811,1406.391290,0.000000
1377.798459,-10510.924376,2368.659014,2068.457845
1377.798780,-9844.739029,296.082377,1302.362347
1377.799100,-9178.553681,-2072.576638,1608.800546
1377.799421,-8734.430116,-3330.926739,-612.876398
1377.799742,-10214.842000,-1110.308913,1685.410096
1377.800062,-10807.006753,-2294.638420,3677.258390
1377.800383,-8068.244768,0.000000,2757.943793
1377.800704,-11621.233289,-2812.782580,1302.362347
1377.801024,-7624.121203,-296.082377,-383.047749
1377.801345,-10732.986159,2442.679609,2451.505594
1377.801666,-10658.965565,1628.453072,3753.867940
1377.801986,-9252.574275,740.205942,2987.772442
1377.802307,-10362.883188,148.041188,1915.238745
1377.802628,-7772.162391,296.082377,153.219100
1377.802948,-10362.883188,222.061783,1072.533697
1377.803269,-10140.821405,666.185348,3524.039291
1377.803590,-8216.285956,-518.144159,1302.362347
1377.803910,-10066.800811,-1480.411884,1149.143247
1377.804231,-7994.224174,-814.226536,0.000000
1377.804552,-9326.594869,148.041188,1302.362347
1377.804872,-10510.924376,0.000000,4060.306139
1377.805193,-9326.594869,-740.205942,3294.210641
1377.805514,-9992.780217,-3182.885551,1915.238745
1377.805834,-8956.491898,-2664.741391,76.609550
1377.806155,-8882.471304,2590.720797,1149.143247
1377.806476,-10955.047942,740.205942,3370.820191
1377.806796,-9252.574275,-740.205942,1378.971896
1377.807117,-9326.594869,-962.267725,-153.219100
1377.807438,-8290.306550,-3627.009116,-3064.381992
1377.807758,-7254.018232,-296.082377,-1838.629195
1377.808079,-11547.212695,-148.041188,2145.067394
1377.808400,-8438.347739,444.123565,1225.752797
1377.808720,-10658.965565,370.102971,1455.581446
1377.809041,-9696.697840,-962.267725,0.000000
1377.809362,-8808.450710,-592.164754,-306.438199
1377.809682,-12361.439231,-592.164754,2068.457845
1377.810003,-8586.388927,370.102971,1072.533697
1377.810324,-10732.986159,-962.267725,-306.438199
1377.810644,-8586.388927,-1036.288319,-3064.381992
1377.810965,-7328.038826,1184.329507,-3753.867940
1377.811286,-11029.068536,1480.411884,0.000000
1377.811606,-9992.780217,1702.473667,459.657299
1377.811927,-10066.800811,2072.576638,3294.210641
1377.812248,-10510.924376,-592.164754,-612.876398
1377.812568,-7994.224174,1184.329507,306.438199
1377.812889,-11991.336260,740.205942,3600.648841
1377.813210,-9622.677246,-592.164754,2374.896044
1377.813530,-9474.636058,-296.082377,-612.876398
1377.813851,-8216.285956,-370.102971,-1608.800546
1377.814172,-6957.935855,962.267725,-1608.800546
1377.814492,-11325.150913,1332.370696,2528.115143
1377.814813,-9918.759623,0.000000,2221.676944
1377.815134,-9622.677246,-1480.411884,1685.410096
1377.815454,-9918.759623,-2738.761985,842.705048
1377.815775,-8364.327145,-1776.494261,1685.410096
1377.816096,-11103.089130,-1480.411884,4213.525239
1377.816416,-8660.409521,-962.267725,3830.477490
1377.816737,-8216.285956,-370.102971,1532.190996
1377.817058,-8438.347739,-1480.411884,76.609550
1377.817378,-6217.729913,0.000000,-383.047749
1377.817699,-11177.109724,222.061783,2298.286494
1377.818020,-9400.615463,1406.391290,4366.744339
1377.818340,-10436.903782,-814.226536,3217.601092
1377.818661,-12287.418637,-1776.494261,3677.258390
1377.818982,-9252.574275,-2220.617826,3600.648841
1377.819302,-12065.356855,-1406.391290,5592.497135
1377.819623,-10807.006753,74.020594,4060.306139
1377.819944,-8438.347739,-1480.411884,1302.362347
1377.820264,-8216.285956,-1110.308913,-995.924147
1377.820585,-6735.874072,148.041188,-3140.991542
1377.820906,-10214.842000,1776.494261,0.000000
1377.821226,-9104.533087,740.205942,2451.505594
1377.821547,-10214.842000,-1332.370696,1532.190996
1377.821868,-10732.986159,-2812.782580,1225.752797
1377.822188,-9474.636058,-1258.350101,1072.533697
1377.822509,-12213.398043,1184.329507,3447.429741
1377.822830,-10955.047942,1702.473667,4290.134789
1377.823150,-8364.327145,1110.308913,1072.533697
1377.823471,-9104.533087,-1702.473667,-1072.533697
1377.823792,-6587.832884,-1776.494261,-2834.553343
1377.824112,-9474.636058,-1184.329507,76.609550
1377.824433,-9918.759623,-814.226536,689.485948
1377.824754,-9548.656652,-1776.494261,766.095498
1377.825074,-9400.615463,-2368.659014,229.828649
1377.825395,-9326.594869,-2146.597232,766.095498
1377.825716,-10955.047942,-962.267725,1915.238745
1377.826036,-10955.047942,-148.041188,2604.724693
1377.826357,-9548.656652,0.000000,459.657299
1377.826678,-9104.533087,-1332.370696,-2221.676944
1377.826998,-7476.080014,-296.082377,-3447.429741
1377.827319,-9918.759623,1702.473667,-995.924147
1377.827640,-9844.739029,1406.391290,1455.581446
1377.827960,-10436.903782,666.185348,1225.752797
1377.828281,-10732.986159,-2368.659014,1378.971896
1377.828602,-9178.553681,-3108.864956,-1532.190996
1377.828922,-10510.924376,444.123565,76.609550
1377.829243,-10362.883188,222.061783,2068.457845
1377.829564,-6513.812290,814.226536,536.266849
1377.829884,-10362.883188,-1924.535449,-153.219100
1377.830205,-5995.668130,-2368.659014,-2604.724693
1377.830526,-8290.306550,-962.267725,-919.314598
1377.830846,-12065.356855,1554.432478,2987.772442
1377.831167,-9918.759623,2368.659014,3447.429741
1377.831488,-11029.068536,0.000000,2451.505594
1377.831808,-9474.636058,-1332.370696,1685.410096
1377.832129,-9252.574275,0.000000,0.000000
1377.832450,-12435.459826,-222.061783,3600.648841
1377.832770,-9178.553681,-518.144159,1378.971896
1377.833091,-9178.553681,-888.247130,612.876398
1377.833412,-8290.306550,-2146.597232,-995.924147
1377.833732,-9400.615463,1036.288319,0.000000
1377.834053,-11843.295072,2516.700203,4596.572988
1377.834373,-10955.047942,888.247130,4903.011187
1377.834694,-10510.924376,-814.226536,3294.210641
1377.835015,-9252.574275,-1258.350101,612.876398
1377.835335,-9770.718434,-222.061783,-306.438199
1377.835656,-10658.965565,2072.576638,2221.676944
1377.835977,-7920.203579,3404.947333,1225.752797
1377.836297,-9474.636058,1258.350101,76.609550
1377.836618,-7402.059420,-296.082377,-2068.457845
1377.836939,-8068.244768,740.205942,-153.219100
1377.837259,-12731.542202,1480.411884,4290.134789
1377.837580,-10955.047942,370.102971,4136.915689
1377.837901,-10732.986159,222.061783,3370.820191
1377.838221,-11695.253884,-2812.782580,1991.848295
1377.838542,-6217.729913,74.020594,-612.876398
1377.838863,-11399.171507,-814.226536,2298.286494
1377.839183,-7476.080014,1480.411884,2451.505594
1377.839504,-9252.574275,0.000000,766.095498
1377.839825,-8734.430116,-3849.070898,229.828649
1377.840145,-6735.874072,-2368.659014,-2604.724693
1377.840466,-9992.780217,222.061783,1149.143247
1377.840787,-9992.780217,74.020594,3140.991542
1377.841107,-9178.553681,-2220.617826,2451.505594
1377.841428,-9104.533087,-2738.761985,459.657299
1377.841749,-8586.388927,-3701.029710,-1838.629195
1377.842069,-9474.636058,-740.205942,612.876398
1377.842390,-9844.739029,370.102971,2298.286494
1377.842711,-9844.739029,518.144159,842.705048
1377.843031,-8142.265362,1036.288319,-306.438199
1377.843352,-7328.038826,-2590.720797,-4213.525239
1377.843673,-7624.121203,2442.679609,-1302.362347
1377.843993,-11843.295072,814.226536,766.095498
1377.844314,-10066.800811,740.205942,2757.943793
1377.844635,-10510.924376,-1554.432478,1532.190996
1377.844955,-8882.471304,-148.041188,0.000000
1377.845276,-10362.883188,-518.144159,2604.724693
1377.845597,-9400.615463,74.020594,2068.457845
1377.845917,-11325.150913,444.123565,2528.115143
1377.846238,-8956.491898,-1776.494261,-1072.533697
1377.846559,-7698.141797,-148.041188,-2834.553343
1377.846879,-9548.656652,148.041188,1072.533697
1377.847200,-10881.027347,1480.411884,2068.457845
1377.847521,-10732.986159,1036.288319,2834.553343
1377.847841,-11029.068536,-962.267725,2298.286494
1377.848162,-7254.018232,-1184.329507,-995.924147
1377.848483,-12361.439231,-1924.535449,2681.334243
1377.848803,-10436.903782,-1480.411884,4826.401637
1377.849124,-8734.430116,-1480.411884,2757.943793
1377.849445,-9992.780217,-3108.864956,919.314598
1377.849765,-5699.585753,-2220.617826,-3447.429741
1377.850086,-8142.265362,888.247130,-459.657299
1377.850407,-9992.780217,1628.453072,2298.286494
1377.850727,-9178.553681,2516.700203,3677.258390
1377.851048,-12287.418637,-1258.350101,4136.915689
1377.851369,-10140.821405,-3775.050304,2681.334243
1377.851689,-12361.439231,-3330.926739,3370.820191
1377.852010,-11917.315666,-1850.514855,4596.572988
1377.852331,-7920.203579,148.041188,3983.696590
1377.852651,-9770.718434,814.226536,1225.752797
1377.852972,-5699.585753,1036.288319,-1608.800546
1377.853293,-7698.141797,1184.329507,-1378.971896
1377.853613,-9400.615463,1036.288319,2068.457845
1377.853934,-8882.471304,-296.082377,995.924147
1377.854255,-10807.006753,-1702.473667,2068.457845
1377.854575,-8364.327145,-1332.370696,1378.971896
1377.854896,-11251.130318,-1036.288319,2451.505594
1377.855217,-11251.130318,148.041188,5056.230287
1377.855537,-9400.615463,-296.082377,2145.067394
1377.855858,-10288.862594,-888.247130,0.000000
1377.856179,-7698.141797,0.000000,-2221.676944
1377.856499,-7846.182985,1184.329507,-1302.362347
1377.856820,-10510.924376,1776.494261,1378.971896
1377.857141,-9326.594869,1332.370696,1225.752797
1377.857461,-10288.862594,-1406.391290,-306.438199
1377.857782,-9400.615463,-1184.329507,-2374.896044
1377.858103,-10362.883188,-740.205942,-76.609550
1377.858423,-11843.295072,518.144159,2757.943793
1377.858744,-9326.594869,1554.432478,1455.581446
1377.859065,-10658.965565,296.082377,0.000000
1377.859385,-7920.203579,740.205942,-2681.334243
1377.859706,-9326.594869,0.000000,-2068.457845
1377.860027,-12361.439231,0.000000,1072.533697
1377.860347,-9030.512492,592.164754,766.095498
1377.860668,-9474.636058,-2072.576638,153.219100
1377.860989,-8364.327145,0.000000,-1225.752797
1377.861309,-9326.594869,1258.350101,383.047749
1377.861630,-11843.295072,814.226536,1838.629195
1377.861951,-7772.162391,1258.350101,1608.800546
1377.862271,-9770.718434,-370.102971,1072.533697
1377.862592,-8438.347739,-2516.700203,-153.219100
1377.862913,-9400.615463,-1850.514855,-153.219100
1377.863233,-10955.047942,-370.102971,2757.943793
1377.863554,-9326.594869,74.020594,3064.381992
1377.863875,-10066.800811,-1554.432478,2221.676944
1377.864195,-8808.450710,-1998.556043,995.924147
1377.864516,-9030.512492,-1036.288319,153.219100
1377.864837,-10584.944971,296.082377,2221.676944
1377.865157,-8956.491898,1184.329507,3140.991542
1377.865478,-10436.903782,-592.164754,1991.848295
1377.865799,-8956.491898,-1998.556043,459.657299
1377.866119,-6513.812290,-1406.391290,-612.876398
1377.866440,-10658.965565,444.123565,2604.724693
1377.866761,-9548.656652,148.041188,3064.381992
1377.867081,-10140.821405,222.061783,3830.477490
1377.867402,-10362.883188,-2738.761985,2604.724693
1377.867723,-7920.203579,-1554.432478,383.047749
1377.868043,-11177.109724,-1184.329507,2374.896044
1377.868364,-8586.388927,666.185348,1838.629195
1377.868685,-8882.471304,148.041188,1762.019645
1377.869005,-8956.491898,-666.185348,1225.752797
1377.869326,-7402.059420,-740.205942,-306.438199
1377.869647,-11251.130318,-222.061783,1608.800546
1377.869967,-9918.759623,592.164754,2451.505594
1377.870288,-9474.636058,-518.144159,2834.553343
1377.870609,-9992.780217,1406.391290,2987.772442
1377.870929,-10288.862594,0.000000,2757.943793
1377.871250,-10658.965565,1406.391290,3677.258390
1377.871571,-11917.315666,-888.247130,4749.792088
1377.871891,-9844.739029,-1184.329507,1378.971896
1377.872212,-9178.553681,-1776.494261,-842.705048
1377.872533,-7698.141797,-1480.411884,-1915.238745
1377.872853,-7698.141797,1332.370696,-1608.800546
1377.873174,-9844.739029,1628.453072,1072.533697
1377.873495,-9030.512492,-296.082377,919.314598
1377.873815,-9252.574275,-4219.173869,-1608.800546
1377.874136,-9770.718434,-2664.741391,-459.657299
1377.874456,-11399.171507,-962.267725,2374.896044
1377.874777,-10436.903782,1036.288319,3370.820191
1377.875098,-10955.047942,1184.329507,2374.896044
1377.875418,-9992.780217,-1776.494261,229.828649
1377.875739,-5921.647536,-2368.659014,-4903.011187
1377.876060,-8734.430116,-518.144159,-3140.991542
1377.876380,-9178.553681,148.041188,-995.924147
1377.876701,-8068.244768,1258.350101,-766.095498
1377.877021,-11325.150913,-814.226536,383.047749
1377.877342,-8216.285956,0.000000,-842.705048
1377.877663,-11177.109724,0.000000,1302.362347
1377.877983,-14285.974681,-1406.391290,5132.839837
1377.878304,-9770.718434,0.000000,3753.867940
1377.878624,-11473.192101,-592.164754,1915.238745
1377.878945,-9400.615463,444.123565,229.828649
1377.879266,-7624.121203,1850.514855,-1378.971896
1377.879586,-8956.491898,1406.391290,229.828649
1377.879907,-5773.606348,1036.288319,-766.095498
1377.880228,-7698.141797,-518.144159,-1532.190996
1377.880548,-8364.327145,-1628.453072,-459.657299
1377.880869,-9474.636058,-296.082377,1072.533697
1377.881189,-11399.171507,-148.041188,4136.915689
1377.881510,-10436.903782,0.000000,5056.230287
1377.881831,-11843.295072,-444.123565,3983.696590
1377.882151,-10362.883188,-296.082377,2681.334243
1377.882472,-9622.677246,592.164754,919.314598
1377.882793,-11103.089130,1036.288319,3753.867940
1377.883113,-8808.450710,222.061783,995.924147
1377.883434,-9474.636058,-962.267725,306.438199
1377.883754,-8438.347739,-2146.597232,-306.438199
1377.884075,-8364.327145,370.102971,459.657299
1377.884396,-10881.027347,-296.082377,4136.915689
1377.884716,-9474.636058,148.041188,4213.525239
1377.885037,-10140.821405,-1924.535449,2451.505594
1377.885358,-9918.759623,-2368.659014,919.314598
1377.885678,-7698.141797,-518.144159,-2145.067394
1377.885999,-10732.986159,3404.947333,2298.286494
1377.886319,-10436.903782,1776.494261,3677.258390
1377.886640,-8882.471304,518.144159,1762.019645
1377.886961,-10362.883188,-962.267725,1072.533697
1377.887281,-6883.915261,0.000000,-1532.190996
1377.887602,-11991.336260,222.061783,2451.505594
1377.887923,-10436.903782,1480.411884,3140.991542
1377.888243,-10214.842000,1110.308913,2298.286494
1377.888564,-8882.471304,-2294.638420,-766.095498
1377.888884,-7105.977043,-888.247130,-1685.410096
1377.889205,-10732.986159,-296.082377,1455.581446
1377.889526,-10140.821405,-444.123565,1685.410096
1377.889846,-8808.450710,148.041188,1685.410096
1377.890167,-9326.594869,-1628.453072,76.609550
1377.890487,-8068.244768,-1184.329507,-1685.410096
1377.890808,-9474.636058,0.000000,-76.609550
1377.891129,-9770.718434,0.000000,-383.047749
1377.891449,-6587.832884,0.000000,-1532.190996
1377.891770,-8660.409521,-1036.288319,-1991.848295
1377.892091,-8808.450710,-1628.453072,-2451.505594
1377.892411,-11917.315666,-296.082377,2451.505594
1377.892732,-12065.356855,-296.082377,3677.258390
1377.893052,-9696.697840,-1554.432478,1302.362347
1377.893373,-11917.315666,-2220.617826,1302.362347
1377.893694,-8438.347739,-1036.288319,-842.705048
1377.894014,-10510.924376,1480.411884,3217.601092
1377.894335,-9030.512492,74.020594,766.095498
1377.894656,-6513.812290,0.000000,-1915.238745
1377.894976,-9770.718434,-962.267725,-2757.943793
1377.895297,-7476.080014,592.164754,-3447.429741
1377.895617,-10140.821405,2516.700203,-536.266849
1377.895938,-11029.068536,2590.720797,2604.724693
1377.896259,-9844.739029,1406.391290,1532.190996
1377.896579,-11695.253884,-370.102971,2221.676944
1377.896900,-10362.883188,-592.164754,1149.143247
1377.897221,-10584.944971,0.000000,2221.676944
1377.897541,-11325.150913,-296.082377,3830.477490
1377.897862,-7920.203579,592.164754,1302.362347
1377.898182,-9474.636058,666.185348,919.314598
1377.898503,-8512.368333,74.020594,-1072.533697
1377.898824,-9178.553681,1184.329507,-383.047749
1377.899144,-10584.944971,1924.535449,1991.848295
1377.899465,-9622.677246,1776.494261,1685.410096
1377.899786,-11029.068536,740.205942,2528.115143
1377.900106,-9770.718434,-296.082377,1072.533697
1377.900427,-9474.636058,1480.411884,153.219100
1377.900747,-10881.027347,1850.514855,1072.533697
1377.901068,-8512.368333,2960.823768,459.657299
1377.901389,-9992.780217,1406.391290,0.000000
1377.901709,-8512.368333,-370.102971,-1532.190996
1377.902030,-7476.080014,222.061783,-1915.238745
1377.902350,-10140.821405,1036.288319,76.609550
1377.902671,-9844.739029,1702.473667,1072.533697
1377.902992,-10732.986159,1554.432478,1608.800546
1377.903312,-9992.780217,74.020594,1302.362347
1377.903633,-8512.368333,-1258.350101,-1072.533697
1377.903954,-9696.697840,740.205942,-229.828649
1377.904274,-9992.780217,740.205942,-536.266849
1377.904595,-8068.244768,3775.050304,-2221.676944
1377.904915,-9696.697840,4663.297435,-2451.505594
1377.905236,-8586.388927,4441.235652,-3983.696590
1377.905557,-9474.636058,5699.585753,-3370.820191
1377.905877,-9844.739029,3256.906145,-2681.334243
1377.906198,-10288.862594,3404.947333,-2451.505594
1377.906519,-11399.171507,2516.700203,-383.047749
1377.906839,-9992.780217,-666.185348,-1378.971896
1377.907160,-9548.656652,74.020594,-2298.286494
1377.907480,-10362.883188,2220.617826,-1225.752797
1377.907801,-10066.800811,3256.906145,536.266849
1377.908122,-10658.965565,2886.803174,1991.848295
1377.908442,-9622.677246,888.247130,229.828649
1377.908763,-9992.780217,-1184.329507,-1762.019645
1377.909084,-9104.533087,0.000000,-2911.162892
1377.909404,-7254.018232,1036.288319,-3447.429741
1377.909725,-9252.574275,3478.967927,-2911.162892
1377.910045,-8068.244768,5329.482782,-3294.210641
1377.910366,-8882.471304,4663.297435,-3447.429741
1377.910687,-9844.739029,3256.906145,-3447.429741
1377.911007,-10288.862594,1332.370696,-3447.429741
1377.911328,-11029.068536,1628.453072,-2298.286494
1377.911649,-11325.150913,2368.659014,-612.876398
1377.911969,-11029.068536,3034.844362,383.047749
1377.912290,-10214.842000,1850.514855,76.609550
1377.912610,-9622.677246,592.164754,-153.219100
1377.912931,-9030.512492,296.082377,-383.047749
1377.913252,-9178.553681,-518.144159,-1762.019645
1377.913572,-7698.141797,1184.329507,-2451.505594
1377.913893,-7994.224174,4071.132681,-1838.629195
1377.914213,-9030.512492,3701.029710,-1149.143247
1377.914534,-8586.388927,3182.885551,766.095498
1377.914855,-10510.924376,1332.370696,-383.047749
1377.915175,-10436.903782,1258.350101,1149.143247
1377.915496,-11769.274478,0.000000,919.314598
1377.915817,-10732.986159,1258.350101,2298.286494
1377.916137,-10584.944971,2294.638420,2451.505594
1377.916458,-10362.883188,1924.535449,1225.752797
1377.916778,-7994.224174,1480.411884,229.828649
1377.917099,-8438.347739,0.000000,-1225.752797
1377.917420,-9326.594869,0.000000,-1149.143247
1377.917740,-9474.636058,0.000000,-1532.190996
1377.918061,-8956.491898,1184.329507,-1378.971896
1377.918382,-9104.533087,2368.659014,-1915.238745
1377.918702,-10362.883188,3627.009116,-536.266849
1377.919023,-10584.944971,2294.638420,153.219100
1377.919343,-9622.677246,1554.432478,-766.095498
1377.919664,-10732.986159,1258.350101,-1302.362347
1377.919985,-10510.924376,1554.432478,-1302.362347
1377.920305,-9030.512492,1480.411884,-1915.238745
1377.920626,-9252.574275,1480.411884,-2068.457845
1377.920947,-9178.553681,2294.638420,-2145.067394
1377.921267,-9770.718434,2294.638420,-766.095498
1377.921588,-10140.821405,296.082377,0.000000
1377.921908,-9918.759623,1036.288319,-612.876398
1377.922229,-10658.965565,1702.473667,-383.047749
1377.922550,-10288.862594,1776.494261,229.828649
1377.922870,-9252.574275,1184.329507,-766.095498
1377.923191,-8808.450710,962.267725,-3294.210641
1377.923512,-8586.388927,1554.432478,-3907.087040
1377.923832,-9030.512492,3775.050304,-2604.724693
1377.924153,-10732.986159,4367.215058,-919.314598
1377.924473,-10066.800811,3775.050304,-919.314598
1377.924794,-10140.821405,3627.009116,-459.657299
1377.925115,-11473.192101,2220.617826,306.438199
1377.925435,-10436.903782,222.061783,536.266849
1377.925756,-9770.718434,-1332.370696,-1225.752797
1377.926076,-8364.327145,0.000000,-2834.553343
1377.926397,-8808.450710,3627.009116,-2528.115143
1377.926718,-9474.636058,4737.318029,-1455.581446
1377.927038,-9770.718434,3627.009116,-1149.143247
1377.927359,-9326.594869,2664.741391,-2145.067394
1377.927680,-9178.553681,2220.617826,-2987.772442
1377.928000,-9918.759623,2590.720797,-689.485948
1377.928321,-10732.986159,1702.473667,1225.752797
1377.928641,-10510.924376,0.000000,766.095498
1377.928962,-9252.574275,0.000000,-1072.533697
1377.929283,-8882.471304,962.267725,-2221.676944
1377.929603,-9548.656652,2738.761985,-1685.410096
1377.929924,-9622.677246,4515.256246,-153.219100
1377.930245,-9474.636058,3404.947333,612.876398
1377.930565,-9548.656652,1776.494261,0.000000
1377.930886,-9104.533087,0.000000,-612.876398
1377.931206,-9474.636058,-666.185348,0.000000
1377.931527,-10066.800811,0.000000,842.705048
1377.931848,-10214.842000,962.267725,1608.800546
1377.932168,-9622.677246,740.205942,459.657299
1377.932489,-8586.388927,1036.288319,-2298.286494
1377.932810,-8142.265362,1850.514855,-3370.820191
1377.933130,-9474.636058,3552.988522,-2757.943793
1377.933451,-9844.739029,4589.276840,-2068.457845
1377.933771,-10140.821405,4589.276840,-1378.971896
1377.934092,-9696.697840,3330.926739,-1378.971896
1377.934413,-10140.821405,888.247130,-1915.238745
1377.934733,-10658.965565,740.205942,-306.438199
1377.935054,-10658.965565,962.267725,-306.438199
1377.935375,-10066.800811,2368.659014,0.000000
1377.935695,-9770.718434,2738.761985,306.438199
1377.936016,-9326.594869,1776.494261,-153.219100
1377.936336,-9400.615463,-518.144159,-919.314598
1377.936657,-7994.224174,-592.164754,-2221.676944
1377.936978,-8512.368333,-148.041188,-3140.991542
1377.937298,-9104.533087,1702.473667,-2757.943793
1377.937619,-10066.800811,3182.885551,-1991.848295
1377.937939,-10732.986159,4293.194464,-1378.971896
1377.938260,-10584.944971,5551.544565,-1455.581446
1377.938581,-11103.089130,4663.297435,-1302.362347
1377.938901,-10881.027347,3404.947333,-1072.533697
1377.939222,-10732.986159,1628.453072,-842.705048
1377.939543,-10140.821405,518.144159,-842.705048
1377.939863,-9252.574275,-518.144159,0.000000
1377.940184,-9104.533087,-222.061783,-612.876398
1377.940504,-8882.471304,-518.144159,229.828649
1377.940825,-9326.594869,-370.102971,536.266849
1377.941146,-9696.697840,-296.082377,919.314598
1377.941466,-9548.656652,222.061783,383.047749
1377.941787,-9252.574275,592.164754,-612.876398
1377.942108,-9252.574275,1258.350101,-1608.800546
1377.942428,-9030.512492,2664.741391,-2451.505594
1377.942749,-9252.574275,3849.070898,-2911.162892
1377.943069,-9622.677246,4589.276840,-3370.820191
1377.943390,-9844.739029,4145.153275,-2834.553343
1377.943711,-10510.924376,3923.091493,-2145.067394
1377.944031,-11029.068536,3552.988522,-766.095498
1377.944352,-11029.068536,2516.700203,536.266849
1377.944673,-10066.800811,1332.370696,612.876398
1377.944993,-9918.759623,-444.123565,1532.190996
1377.945314,-9474.636058,-1924.535449,1685.410096
1377.945634,-8290.306550,-2590.720797,1302.362347
1377.945955,-8142.265362,-1850.514855,536.266849
1377.946276,-7994.224174,-814.226536,0.000000
1377.946596,-8364.327145,962.267725,-306.438199
1377.946917,-9326.594869,2664.741391,-919.314598
1377.947237,-9326.594869,2886.803174,-1072.533697
1377.947558,-9696.697840,3478.967927,-1762.019645
1377.947879,-10436.903782,3775.050304,-1762.019645
1377.948199,-10807.006753,3849.070898,-1302.362347
1377.948520,-11399.171507,3775.050304,-1149.143247
1377.948841,-10955.047942,3182.885551,-1149.143247
1377.949161,-10362.883188,2516.700203,-995.924147
1377.949482,-10066.800811,1184.329507,-1455.581446
1377.949802,-9474.636058,0.000000,-995.924147
1377.950123,-9474.636058,-518.144159,-842.705048
1377.950444,-9400.615463,-888.247130,-1072.533697
1377.950764,-8956.491898,-370.102971,-1378.971896
1377.951085,-9030.512492,592.164754,-1838.629195
1377.951406,-9474.636058,2146.597232,-2451.505594
1377.951726,-9696.697840,3404.947333,-2221.676944
1377.952047,-9992.780217,4367.215058,-2604.724693
1377.952367,-9992.780217,4959.379811,-3140.991542
1377.952688,-10658.965565,4959.379811,-2834.553343
1377.953009,-10584.944971,4737.318029,-2374.896044
1377.953329,-10362.883188,3849.070898,-1991.848295
1377.953650,-10658.965565,2886.803174,-1685.410096
1377.953971,-10510.924376,2072.576638,-842.705048
1377.954291,-9918.759623,888.247130,0.000000
1377.954612,-9770.718434,222.061783,459.657299
1377.954932,-9474.636058,148.041188,842.705048
1377.955253,-8956.491898,444.123565,76.609550
1377.955574,-8364.327145,296.082377,383.047749
1377.955894,-8438.347739,296.082377,-76.609550
1377.956215,-8290.306550,814.226536,-536.266849
1377.956536,-8734.430116,1702.473667,-229.828649
1377.956856,-9400.615463,2516.700203,995.924147
1377.957177,-10436.903782,1998.556043,1762.019645
1377.957497,-9992.780217,1480.411884,1378.971896
1377.957818,-9992.780217,518.144159,1225.752797
1377.958139,-10288.862594,962.267725,2221.676944
1377.958459,-9548.656652,0.000000,1685.410096
1377.958780,-9622.677246,-148.041188,2298.286494
1377.959100,-9030.512492,-814.226536,1532.190996
1377.959421,-8216.285956,-2146.597232,-153.219100
1377.959742,-9030.512492,-592.164754,1455.581446
1377.960062,-9030.512492,-592.164754,1378.971896
1377.960383,-9474.636058,74.020594,1838.629195
1377.960704,-9474.636058,666.185348,1685.410096
1377.961024,-9326.594869,1184.329507,995.924147
1377.961345,-9992.780217,1850.514855,689.485948
1377.961665,-10066.800811,2442.679609,612.876398
1377.961986,-10214.842000,3182.885551,306.438199
1377.962307,-10658.965565,3701.029710,0.000000
1377.962627,-10362.883188,3108.864956,-995.924147
1377.962948,-10214.842000,2738.761985,-842.705048
1377.963269,-10584.944971,1924.535449,-689.485948
1377.963589,-10658.965565,1702.473667,229.828649
1377.963910,-10807.006753,1406.391290,-306.438199
1377.964230,-10584.944971,370.102971,-919.314598
1377.964551,-10658.965565,370.102971,-1302.362347
1377.964872,-10214.842000,814.226536,-1991.848295
1377.965192,-9844.739029,1554.432478,-3064.381992
1377.965513,-9622.677246,2368.659014,-4060.306139
1377.965834,-9326.594869,2738.761985,-4903.011187
1377.966154,-9400.615463,2886.803174,-5515.887586
1377.966475,-9474.636058,3478.967927,-5822.325785
1377.966795,-9918.759623,3627.009116,-5592.497135
1377.967116,-10362.883188,3701.029710,-5286.058936
1377.967437,-10510.924376,3552.988522,-4903.011187
1377.967757,-11325.150913,4441.235652,-4903.011187
1377.968078,-10436.903782,3108.864956,-4366.744339
1377.968399,-10140.821405,2886.803174,-4443.353888
1377.968719,-9622.677246,2516.700203,-3830.477490
1377.969040,-9400.615463,2368.659014,-3370.820191
1377.969360,-9104.533087,1628.453072,-3677.258390
1377.969681,-8290.306550,1776.494261,-3370.820191
1377.970002,-8956.491898,1924.535449,-3140.991542
1377.970322,-8734.430116,2368.659014,-2451.505594
1377.970643,-8512.368333,2294.638420,-2374.896044
1377.970963,-8882.471304,3034.844362,-2068.457845
1377.971284,-8734.430116,3478.967927,-2298.286494
1377.971605,-9104.533087,3849.070898,-1532.190996
1377.971925,-9770.718434,4589.276840,-536.266849
1377.972246,-9770.718434,4885.359217,153.219100
1377.972567,-10436.903782,4071.132681,1838.629195
1377.972887,-10140.821405,2960.823768,2298.286494
1377.973208,-10288.862594,1554.432478,2987.772442
1377.973528,-10436.903782,222.061783,3447.429741
1377.973849,-9696.697840,-666.185348,3217.601092
1377.974170,-9104.533087,-888.247130,2298.286494
1377.974490,-8734.430116,74.020594,1608.800546
1377.974811,-8586.388927,1850.514855,1072.533697
1377.975132,-8956.491898,3404.947333,689.485948
1377.975453,-9474.636058,4145.153275,919.314598
1377.975773,-10288.862594,4145.153275,536.266849
1377.976094,-10214.842000,3701.029710,153.219100
1377.976415,-10658.965565,3256.906145,76.609550
1377.976736,-10881.027347,3849.070898,689.485948
1377.977056,-10881.027347,3552.988522,689.485948
1377.977377,-10436.903782,3404.947333,1225.752797
1377.977698,-10584.944971,1998.556043,1838.629195
1377.978019,-10214.842000,0.000000,1915.238745
1377.978339,-9918.759623,-1924.535449,1532.190996
1377.978660,-9400.615463,-2442.679609,766.095498
1377.978981,-9178.553681,-2516.700203,459.657299
1377.979302,-8660.409521,-2072.576638,-842.705048
1377.979622,-8290.306550,-518.144159,-1915.238745
1377.979943,-8586.388927,1184.329507,-2987.772442
1377.980264,-9326.594869,3108.864956,-3753.867940
1377.980585,-9474.636058,3627.009116,-4826.401637
1377.980905,-10362.883188,4737.318029,-5132.839837
1377.981226,-10658.965565,5329.482782,-4903.011187
1377.981547,-10881.027347,5329.482782,-3907.087040
1377.981868,-11029.068536,3552.988522,-1762.019645
1377.982188,-10807.006753,814.226536,-1532.190996
1377.982509,-9918.759623,-1998.556043,-2221.676944
1377.982830,-9622.677246,-3330.926739,-2221.676944
1377.983151,-8734.430116,-3330.926739,-1991.848295
1377.983471,-8142.265362,-2220.617826,-1838.629195
1377.983792,-8438.347739,-1702.473667,-1532.190996
1377.984113,-7920.203579,-740.205942,-2374.896044
1377.984434,-8438.347739,-148.041188,-3677.258390
1377.984754,-8512.368333,814.226536,-4213.525239
1377.985075,-8956.491898,2886.803174,-4060.306139
1377.985396,-10214.842000,4959.379811,-3064.381992
1377.985717,-11251.130318,6217.729913,-1915.238745
1377.986037,-11473.192101,5107.421000,-1762.019645
1377.986358,-11029.068536,3552.988522,-2681.334243
1377.986679,-10584.944971,2516.700203,-2528.115143
1377.987000,-10955.047942,2516.700203,-1149.143247
1377.987320,-10955.047942,1480.411884,153.219100
1377.987641,-9400.615463,592.164754,-76.609550
1377.987962,-8586.388927,0.000000,-1072.533697
1377.988283,-8808.450710,740.205942,536.266849
1377.988603,-9622.677246,1406.391290,2911.162892
1377.988924,-10066.800811,222.061783,4290.134789
1377.989245,-8956.491898,-370.102971,3064.381992
1377.989566,-9104.533087,-888.247130,1532.190996
1377.989886,-9104.533087,1480.411884,1455.581446
1377.990207,-9770.718434,3330.926739,4213.525239
1377.990528,-10510.924376,4145.153275,2068.457845
1377.990849,-9252.574275,4219.173869,-766.095498
1377.991169,-9474.636058,4367.215058,-2374.896044
1377.991490,-10584.944971,5921.647536,-459.657299
1377.991811,-11325.150913,4811.338623,1302.362347
1377.992132,-10955.047942,2590.720797,2068.457845
1377.992452,-9844.739029,444.123565,0.000000
1377.992773,-9474.636058,74.020594,-842.705048
1377.993094,-10807.006753,666.185348,612.876398
1377.993415,-9548.656652,1184.329507,1149.143247
1377.993735,-9252.574275,1776.494261,0.000000
1377.994056,-8438.347739,2368.659014,-1455.581446
1377.994377,-8660.409521,1776.494261,-1991.848295
1377.994698,-8216.285956,740.205942,-2221.676944
1377.995018,-8882.471304,-296.082377,-3064.381992
1377.995339,-8216.285956,1184.329507,-4366.744339
1377.995660,-9030.512492,2812.782580,-4060.306139
1377.995980,-9400.615463,4071.132681,-3600.648841
1377.996301,-10288.862594,5181.441594,-2528.115143
1377.996622,-11769.274478,5033.400406,-995.924147
1377.996943,-11695.253884,3701.029710,-306.438199
1377.997263,-11325.150913,-148.041188,-1149.143247
1377.997584,-9104.533087,-1702.473667,-3217.601092
1377.997905,-9992.780217,-740.205942,-3064.381992
1377.998226,-8956.491898,1184.329507,-2374.896044
1377.998546,-7402.059420,2812.782580,-4749.792088
1377.998867,-8142.265362,3404.947333,-3064.381992
1377.999188,-9104.533087,2886.803174,-2987.772442
1377.999509,-9474.636058,2072.576638,-2298.286494
1377.999829,-9770.718434,1850.514855,-842.705048
1378.000150,-10732.986159,2294.638420,-766.095498
1378.000471,-11843.295072,2294.638420,0.000000
1378.000792,-9474.636058,3108.864956,-383.047749
1378.001112,-10288.862594,3108.864956,-919.314598
1378.001433,-11991.336260,2516.700203,-689.485948
1378.001754,-9326.594869,2812.782580,-1532.190996
1378.002075,-10066.800811,2442.679609,-1762.019645
1378.002395,-9474.636058,2516.700203,-1532.190996
1378.002716,-7402.059420,2294.638420,-1532.190996
1378.003037,-9326.594869,2146.597232,1455.581446
1378.003358,-9400.615463,-148.041188,919.314598
1378.003678,-9548.656652,-1702.473667,766.095498
1378.003999,-9326.594869,-2590.720797,459.657299
1378.004320,-9030.512492,-296.082377,306.438199
1378.004641,-10140.821405,1776.494261,76.609550
1378.004961,-10140.821405,3923.091493,842.705048
1378.005282,-9178.553681,3775.050304,612.876398
1378.005603,-9474.636058,2368.659014,-229.828649
1378.005924,-10436.903782,-222.061783,0.000000
1378.006244,-10807.006753,-444.123565,459.657299
1378.006565,-11029.068536,-592.164754,-76.609550
1378.006886,-9992.780217,3034.844362,766.095498
1378.007207,-10807.006753,3849.070898,1991.848295
1378.007527,-9622.677246,296.082377,842.705048
1378.007848,-7772.162391,0.000000,-1455.581446
1378.008169,-9104.533087,-518.144159,-2068.457845
1378.008490,-7772.162391,-592.164754,-1685.410096
1378.008810,-8734.430116,962.267725,-459.657299
1378.009131,-9770.718434,814.226536,-306.438199
1378.009452,-8364.327145,1554.432478,-1762.019645
1378.009773,-9104.533087,2664.741391,-2528.115143
1378.010093,-10732.986159,2664.741391,-2145.067394
1378.010414,-9770.718434,3997.112087,-2068.457845
1378.010735,-11325.150913,4663.297435,-995.924147
1378.011056,-10362.883188,3108.864956,-1225.752797
1378.011376,-10214.842000,1702.473667,-2374.896044
1378.011697,-10214.842000,-592.164754,-2221.676944
1378.012018,-9622.677246,518.144159,-2451.505594
1378.012339,-10584.944971,1998.556043,-459.657299
1378.012659,-10955.047942,2294.638420,1608.800546
1378.012980,-9992.780217,296.082377,0.000000
1378.013301,-8660.409521,-296.082377,-919.314598
1378.013622,-9474.636058,-1110.308913,-1378.971896
1378.013942,-8660.409521,888.247130,-919.314598
1378.014263,-9992.780217,814.226536,229.828649
1378.014584,-9474.636058,-666.185348,-536.266849
1378.014905,-6957.935855,222.061783,-2451.505594
1378.015225,-9622.677246,-740.205942,-2757.943793
1378.015546,-9474.636058,1406.391290,-2068.457845
1378.015867,-10510.924376,3404.947333,-689.485948
1378.016188,-11621.233289,2960.823768,842.705048
1378.016508,-9104.533087,2294.638420,-229.828649
1378.016829,-10584.944971,666.185348,0.000000
1378.017150,-10584.944971,-740.205942,1072.533697
1378.017471,-9104.533087,740.205942,1225.752797
1378.017791,-10955.047942,0.000000,3600.648841
1378.018112,-8882.471304,-518.144159,3600.648841
1378.018433,-8364.327145,-592.164754,2451.505594
1378.018754,-9178.553681,-1332.370696,2374.896044
1378.019074,-7402.059420,444.123565,2221.676944
1378.019395,-8882.471304,1184.329507,3447.429741
1378.019716,-9178.553681,592.164754,1991.848295
1378.020037,-7994.224174,740.205942,536.266849
1378.020357,-9104.533087,0.000000,-229.828649
1378.020678,-8216.285956,2664.741391,459.657299
1378.020999,-11991.336260,740.205942,3677.258390
1378.021320,-12065.356855,592.164754,4443.353888
1378.021640,-12139.377449,-1332.370696,3753.867940
1378.021961,-11547.212695,-1924.535449,3677.258390
1378.022282,-10584.944971,-3478.967927,1838.629195
1378.022602,-8364.327145,-1258.350101,2911.162892
1378.022923,-10584.944971,-1924.535449,2221.676944
1378.023244,-7476.080014,-2590.720797,-842.705048
1378.023565,-8364.327145,-2590.720797,-612.876398
1378.023885,-6513.812290,-2812.782580,-1302.362347
1378.024206,-8660.409521,-888.247130,-766.095498
1378.024527,-11325.150913,-2072.576638,2298.286494
1378.024848,-8068.244768,-2220.617826,-1149.143247
1378.025168,-10732.986159,-1332.370696,-1762.019645
1378.025489,-9104.533087,2590.720797,-919.314598
1378.025810,-11769.274478,3034.844362,1225.752797
1378.026131,-12879.583391,2368.659014,2604.724693
1378.026451,-10658.965565,0.000000,689.485948
1378.026772,-8808.450710,-1628.453072,-306.438199
1378.027093,-9474.636058,-962.267725,0.000000
1378.027414,-10214.842000,-1480.411884,1378.971896
1378.027734,-10066.800811,-2886.803174,2528.115143
1378.028055,-8364.327145,-3997.112087,306.438199
1378.028376,-7254.018232,-3923.091493,-995.924147
1378.028697,-6217.729913,370.102971,1072.533697
1378.029017,-13249.686362,-4885.359217,1685.410096
1378.029338,-7105.977043,3849.070898,4366.744339
1378.029659,-11991.336260,-2442.679609,-76.609550
1378.029980,-8882.471304,148.041188,766.095498
1378.030300,-7920.203579,-370.102971,-1302.362347
1378.030621,-11991.336260,1480.411884,2528.115143
1378.030942,-11399.171507,444.123565,2451.505594
1378.031263,-6883.915261,222.061783,-1608.800546
1378.031583,-12509.480420,666.185348,1455.581446
1378.031904,-7476.080014,-1184.329507,-612.876398
1378.032225,-11399.171507,2368.659014,2987.772442
1378.032546,-12731.542202,-1480.411884,5362.668486
1378.032866,-6883.915261,-3330.926739,153.219100
1378.033187,-9548.656652,-2886.803174,0.000000
1378.033508,-9474.636058,-1406.391290,1532.190996
1378.033829,-6587.832884,296.082377,1991.848295
1378.034149,-11473.192101,-222.061783,2528.115143
1378.034470,-6809.894666,0.000000,-1685.410096
1378.034791,-7254.018232,1924.535449,-2757.943793
1378.035112,-11251.130318,1702.473667,1072.533697
1378.035432,-10510.924376,3478.967927,3370.820191
1378.035753,-13249.686362,2146.597232,6358.592633
1378.036074,-11399.171507,-2072.576638,3140.991542
1378.036395,-10066.800811,-296.082377,1762.019645
1378.036715,-11029.068536,0.000000,2221.676944
1378.037036,-10066.800811,2146.597232,3140.991542
1378.037357,-10658.965565,2812.782580,4519.963438
1378.037678,-7328.038826,-962.267725,383.047749
1378.037998,-9030.512492,-3849.070898,-1455.581446
1378.038319,-7550.100608,-1776.494261,0.000000
1378.038640,-9030.512492,-1036.288319,766.095498
1378.038961,-10881.027347,1554.432478,3677.258390
1378.039281,-8882.471304,1776.494261,3370.820191
1378.039602,-9992.780217,-1850.514855,1378.971896
1378.039923,-10510.924376,-2220.617826,1915.238745
1378.040244,-9326.594869,-370.102971,689.485948
1378.040564,-10881.027347,814.226536,919.314598
1378.040885,-9104.533087,1406.391290,-766.095498
1378.041206,-6069.688724,1406.391290,-2987.772442
1378.041527,-8512.368333,370.102971,-2221.676944
1378.041847,-9104.533087,-148.041188,-1762.019645
1378.042168,-10362.883188,-1258.350101,459.657299
1378.042489,-10436.903782,-3330.926739,612.876398
1378.042810,-8956.491898,-3256.906145,-689.485948
1378.043130,-10140.821405,-3775.050304,995.924147
1378.043451,-9622.677246,-740.205942,2068.457845
1378.043772,-11325.150913,1258.350101,3677.258390
1378.044093,-10658.965565,-1554.432478,2068.457845
1378.044413,-7994.224174,-222.061783,-842.705048
1378.044734,-10658.965565,814.226536,-919.314598
1378.045055,-8882.471304,1924.535449,153.219100
1378.045376,-10436.903782,962.267725,2068.457845
1378.045696,-10658.965565,296.082377,2298.286494
1378.046017,-7772.162391,-2220.617826,-1915.238745
1378.046338,-10955.047942,-2664.741391,-1608.800546
1378.046659,-9178.553681,888.247130,1225.752797
1378.046979,-11029.068536,592.164754,3294.210641
1378.047300,-12731.542202,-2294.638420,4060.306139
1378.047621,-6735.874072,-2516.700203,1378.971896
1378.047941,-11843.295072,-2442.679609,1455.581446
1378.048262,-10214.842000,-518.144159,1762.019645
1378.048583,-8808.450710,2368.659014,3447.429741
1378.048904,-12583.501014,74.020594,3370.820191
1378.049224,-6069.688724,888.247130,0.000000
1378.049545,-9326.594869,-2146.597232,-1532.190996
1378.049866,-9030.512492,222.061783,995.924147
1378.050187,-9474.636058,444.123565,919.314598
1378.050507,-13027.624579,0.000000,2451.505594
1378.050828,-7994.224174,-1406.391290,1072.533697
1378.051149,-9030.512492,-1184.329507,-306.438199
1378.051470,-10140.821405,-148.041188,2757.943793
1378.051790,-9622.677246,0.000000,2681.334243
1378.052111,-11103.089130,-888.247130,4366.744339
1378.052432,-9030.512492,-2664.741391,1532.190996
1378.052753,-8882.471304,-3034.844362,-612.876398
1378.053073,-7105.977043,-888.247130,842.705048
1378.053394,-9548.656652,-740.205942,1378.971896
1378.053715,-9622.677246,222.061783,2604.724693
1378.054036,-7328.038826,-1036.288319,536.266849
1378.054356,-9252.574275,-2368.659014,-689.485948
1378.054677,-8808.450710,-1776.494261,-229.828649
1378.054998,-9622.677246,666.185348,1302.362347
1378.055319,-10955.047942,740.205942,3600.648841
1378.055639,-9030.512492,-296.082377,1072.533697
1378.055960,-10362.883188,-1258.350101,842.705048
1378.056281,-9696.697840,-1110.308913,76.609550
1378.056602,-8956.491898,962.267725,459.657299
1378.056922,-13027.624579,0.000000,2681.334243
1378.057243,-8438.347739,518.144159,1378.971896
1378.057564,-9252.574275,-1110.308913,-1608.800546
1378.057885,-9918.759623,-370.102971,-306.438199
1378.058205,-9104.533087,1036.288319,459.657299
1378.058526,-10732.986159,1036.288319,2451.505594
1378.058847,-9474.636058,-1702.473667,612.876398
1378.059168,-8882.471304,-1480.411884,-1149.143247
1378.059488,-9474.636058,-1036.288319,0.000000
1378.059809,-9474.636058,222.061783,0.000000
1378.060130,-12065.356855,1258.350101,2681.334243
1378.060451,-10214.842000,222.061783,1225.752797
1378.060771,-8660.409521,-666.185348,-1225.752797
1378.061092,-10362.883188,-1850.514855,-306.438199
1378.061413,-9178.553681,296.082377,919.314598
1378.061734,-11621.233289,74.020594,3217.601092
1378.062054,-10066.800811,-740.205942,2068.457845
1378.062375,-8216.285956,-1850.514855,-229.828649
1378.062696,-10584.944971,-1776.494261,153.219100
1378.063017,-8956.491898,0.000000,1991.848295
1378.063337,-11547.212695,814.226536,3830.477490
1378.063658,-10881.027347,0.000000,4213.525239
1378.063979,-8660.409521,-1480.411884,229.828649
1378.064300,-10288.862594,-1332.370696,1072.533697
1378.064620,-6957.935855,222.061783,-1608.800546
1378.064941,-8956.491898,2442.679609,306.438199
1378.065262,-8438.347739,1702.473667,536.266849
1378.065583,-6661.853478,1184.329507,-1378.971896
1378.065903,-9474.636058,222.061783,612.876398
1378.066224,-9622.677246,1110.308913,1532.190996
1378.066545,-12361.439231,2220.617826,5515.887586
1378.066866,-11769.274478,-370.102971,5362.668486
1378.067186,-8290.306550,0.000000,2298.286494
1378.067507,-9992.780217,0.000000,1838.629195
1378.067828,-8068.244768,1258.350101,1378.971896
1378.068149,-9400.615463,1850.514855,2834.553343
1378.068469,-9400.615463,-888.247130,2374.896044
1378.068790,-6809.894666,-1850.514855,-1378.971896
1378.069111,-10436.903782,-1850.514855,-612.876398
1378.069432,-8808.450710,1776.494261,1608.800546
1378.069752,-10510.924376,2220.617826,3830.477490
1378.070073,-10955.047942,888.247130,4213.525239
1378.070394,-8438.347739,-1480.411884,0.000000
1378.070715,-10584.944971,-1702.473667,-612.876398
1378.071035,-9474.636058,-1258.350101,1149.143247
1378.071356,-7994.224174,-1110.308913,3294.210641
1378.071677,-10584.944971,-1332.370696,2451.505594
1378.071998,-7476.080014,-1258.350101,-1302.362347
1378.072318,-8586.388927,-592.164754,-1302.362347
1378.072639,-9326.594869,-814.226536,612.876398
1378.072960,-9770.718434,-444.123565,1685.410096
1378.073281,-11399.171507,-1628.453072,1915.238745
1378.073601,-8660.409521,-1924.535449,-689.485948
1378.073922,-9992.780217,-1184.329507,0.000000
1378.074243,-9918.759623,-962.267725,766.095498
1378.074563,-9770.718434,666.185348,1608.800546
1378.074884,-10807.006753,222.061783,1225.752797
1378.075205,-8290.306550,-518.144159,-689.485948
1378.075526,-9474.636058,-148.041188,459.657299
1378.075846,-10362.883188,-518.144159,383.047749
1378.076167,-9400.615463,1184.329507,1455.581446
1378.076488,-11399.171507,-370.102971,2221.676944
1378.076809,-7476.080014,-1406.391290,-153.219100
1378.077129,-9030.512492,-1628.453072,-536.266849
1378.077450,-10658.965565,-962.267725,1455.581446
1378.077771,-9474.636058,0.000000,2221.676944
1378.078092,-10658.965565,-1628.453072,1608.800546
1378.078412,-7402.059420,-1924.535449,-2451.505594
1378.078733,-7772.162391,-1110.308913,-3140.991542
1378.079054,-8956.491898,-814.226536,0.000000
1378.079375,-9992.780217,2590.720797,3370.820191
1378.079695,-13027.624579,0.000000,5822.325785
1378.080016,-9844.739029,-2220.617826,3370.820191
1378.080337,-11695.253884,-2960.823768,2681.334243
1378.080658,-10658.965565,-1332.370696,1608.800546
1378.080978,-9400.615463,-962.267725,1225.752797
1378.081299,-8216.285956,1184.329507,0.000000
1378.081620,-6587.832884,2146.597232,-1762.019645
1378.081941,-7031.956449,-592.164754,-2528.115143
1378.082261,-8290.306550,-592.164754,-995.924147
1378.082582,-8956.491898,296.082377,1149.143247
1378.082903,-12139.377449,518.144159,4519.963438
1378.083224,-10881.027347,0.000000,3907.087040
1378.083544,-9918.759623,814.226536,2374.896044
1378.083865,-11473.192101,0.000000,3064.381992
1378.084186,-7846.182985,1850.514855,1838.629195
1378.084507,-11029.068536,814.226536,2681.334243
1378.084827,-9992.780217,-740.205942,766.095498
1378.085148,-7550.100608,740.205942,-1149.143247
1378.085469,-10436.903782,0.000000,842.705048
1378.085790,-9474.636058,2738.761985,3064.381992
1378.086110,-12287.418637,1184.329507,4519.963438
1378.086431,-11103.089130,-1110.308913,2834.553343
1378.086752,-9104.533087,-2072.576638,1072.533697
1378.087073,-10288.862594,-2368.659014,153.219100
1378.087393,-9030.512492,444.123565,1532.190996
1378.087714,-10510.924376,1480.411884,2298.286494
1378.088035,-7698.141797,222.061783,919.314598
1378.088356,-7550.100608,-740.205942,-612.876398
1378.088676,-11473.192101,-4959.379811,-612.876398
1378.088997,-5773.606348,962.267725,306.438199
1378.089318,-14137.933492,-1406.391290,1225.752797
1378.089639,-10066.800811,1628.453072,4366.744339
1378.089959,-7772.162391,-1924.535449,-766.095498
1378.090280,-11399.171507,-2072.576638,153.219100
1378.090601,-8586.388927,-74.020594,459.657299
1378.090922,-9030.512492,-592.164754,459.657299
1378.091242,-11547.212695,-1036.288319,2834.553343
1378.091563,-6291.750507,-3478.967927,-2757.943793
1378.091884,-9548.656652,-370.102971,-1685.410096
1378.092204,-9548.656652,-222.061783,153.219100
1378.092525,-9770.718434,1850.514855,919.314598
1378.092846,-11621.233289,518.144159,2681.334243
1378.093167,-8512.368333,-1702.473667,-459.657299
1378.093487,-9030.512492,-1702.473667,-689.485948
1378.093808,-10732.986159,-2072.576638,2145.067394
1378.094129,-9844.739029,-222.061783,1378.971896
1378.094450,-10658.965565,444.123565,2298.286494
1378.094770,-7920.203579,-1184.329507,-842.705048
1378.095091,-9030.512492,-888.247130,0.000000
1378.095412,-9326.594869,0.000000,383.047749
1378.095733,-10140.821405,74.020594,2374.896044
1378.096053,-12065.356855,-1406.391290,3677.258390
1378.096374,-8290.306550,-1924.535449,766.095498
1378.096695,-10510.924376,-1776.494261,229.828649
1378.097016,-9918.759623,1110.308913,2221.676944
1378.097336,-9400.615463,1406.391290,2451.505594
1378.097657,-10288.862594,814.226536,3447.429741
1378.097978,-8586.388927,0.000000,306.438199
1378.098299,-9844.739029,-296.082377,-306.438199
