#time,accel_x,accel_y,accel_z
882.500663,-9770.718434,-1850.514855,-1532.190996
882.500984,-9770.718434,-2072.576638,-1302.362347
882.501305,-9548.656652,-1258.350101,0.000000
882.501626,-10140.821405,-1258.350101,842.705048
882.501947,-9474.636058,-888.247130,1608.800546
882.502268,-9548.656652,-1702.473667,1378.971896
882.502589,-9622.677246,-1628.453072,1302.362347
882.502910,-8660.409521,-1480.411884,383.047749
882.503231,-9104.533087,-1258.350101,306.438199
882.503552,-9030.512492,-444.123565,306.438199
882.503873,-8956.491898,-296.082377,153.219100
882.504194,-9918.759623,-296.082377,383.047749
882.504516,-9918.759623,-444.123565,459.657299
882.504837,-10436.903782,-518.144159,153.219100
882.505158,-10658.965565,0.000000,842.705048
882.505479,-10066.800811,-296.082377,612.876398
882.505800,-10436.903782,-518.144159,229.828649
882.506121,-10066.800811,-740.205942,153.219100
882.506442,-9400.615463,-740.205942,0.000000
882.506763,-9474.636058,-1258.350101,-306.438199
882.507084,-9178.553681,-222.061783,153.219100
882.507405,-9178.553681,-1702.473667,-766.095498
882.507726,-9178.553681,-1776.494261,-383.047749
882.508047,-9178.553681,-1554.432478,-1302.362347
882.508368,-9178.553681,-1924.535449,-1685.410096
882.508689,-9474.636058,-1628.453072,-1915.238745
882.509011,-9696.697840,-1406.391290,-2221.676944
882.509332,-9622.677246,-1184.329507,-2528.115143
882.509653,-9918.759623,-222.061783,-2757.943793
882.509974,-10140.821405,-296.082377,-2757.943793
882.510295,-10066.800811,-592.164754,-3217.601092
882.510616,-9992.780217,-1332.370696,-3677.258390
882.510937,-9474.636058,-2664.741391,-3830.477490
882.511258,-9178.553681,-3923.091493,-4903.011187
882.511579,-9252.574275,-3701.029710,-3907.087040
882.511900,-9326.594869,-3404.947333,-3370.820191
882.512221,-9252.574275,-3552.988522,-3140.991542
882.512542,-9030.512492,-3552.988522,-3064.381992
882.512863,-8734.430116,-4219.173869,-2757.943793
882.513184,-9326.594869,-4663.297435,-2221.676944
882.513506,-9474.636058,-5033.400406,-1915.238745
882.513827,-9474.636058,-5107.421000,-1685.410096
882.514148,-9474.636058,-4663.297435,-2145.067394
882.514469,-9326.594869,-4737.318029,-2145.067394
882.514790,-9326.594869,-4663.297435,-2604.724693
882.515111,-9030.512492,-4811.338623,-2911.162892
882.515432,-8882.471304,-4811.338623,-2757.943793
882.515753,-8808.450710,-4811.338623,-3370.820191
882.516074,-8956.491898,-5329.482782,-3447.429741
882.516395,-9104.533087,-4959.379811,-2911.162892
882.516716,-9548.656652,-4589.276840,-2145.067394
882.517037,-9918.759623,-4959.379811,-995.924147
882.517358,-9918.759623,-4811.338623,76.609550
882.517679,-10584.944971,-4737.318029,383.047749
882.518000,-10436.903782,-4663.297435,612.876398
882.518322,-9992.780217,-4515.256246,229.828649
882.518643,-9622.677246,-3923.091493,229.828649
882.518964,-9326.594869,-3701.029710,-306.438199
882.519285,-9252.574275,-3182.885551,0.000000
882.519606,-10288.862594,-3330.926739,229.828649
882.519927,-10214.842000,-2960.823768,842.705048
882.520248,-10288.862594,-3552.988522,1149.143247
882.520569,-10362.883188,-3849.070898,995.924147
882.520890,-10881.027347,-3701.029710,1072.533697
882.521211,-10288.862594,-3478.967927,689.485948
882.521532,-10066.800811,-3997.112087,536.266849
882.521853,-9474.636058,-4071.132681,-459.657299
882.522174,-9548.656652,-4071.132681,-1225.752797
882.522495,-9178.553681,-4145.153275,-1302.362347
882.522816,-9474.636058,-3478.967927,-1378.971896
882.523137,-9474.636058,-3108.864956,-1915.238745
882.523458,-9178.553681,-2886.803174,-1762.019645
882.523779,-9400.615463,-2442.679609,-1608.800546
882.524100,-9474.636058,-2442.679609,-306.438199
882.524421,-9918.759623,-2368.659014,229.828649
882.524742,-9252.574275,-2590.720797,689.485948
882.525063,-9992.780217,-2072.576638,689.485948
882.525384,-9548.656652,-1480.411884,-153.219100
882.525705,-9326.594869,-74.020594,-1302.362347
882.526026,-8734.430116,740.205942,-2374.896044
882.526347,-7846.182985,814.226536,-3064.381992
882.526668,-7846.182985,0.000000,-3064.381992
882.526989,-8512.368333,-962.267725,-4136.915689
882.527310,-9104.533087,-1850.514855,-4213.525239
882.527631,-9474.636058,-1554.432478,-3753.867940
882.527953,-9474.636058,-740.205942,-2451.505594
882.528274,-10362.883188,592.164754,-995.924147
882.528595,-10732.986159,740.205942,306.438199
882.528916,-10732.986159,0.000000,306.438199
882.529237,-10288.862594,-1110.308913,-612.876398
882.529558,-9474.636058,-1406.391290,-1455.581446
882.529879,-9030.512492,-296.082377,-1838.629195
882.530200,-8882.471304,296.082377,-1149.143247
882.530521,-8586.388927,0.000000,-1302.362347
882.530842,-8364.327145,-296.082377,-2604.724693
882.531163,-8956.491898,-370.102971,-2451.505594
882.531484,-9474.636058,0.000000,-842.705048
882.531805,-11103.089130,814.226536,1685.410096
882.532126,-11621.233289,518.144159,2911.162892
882.532447,-11251.130318,0.000000,3064.381992
882.532768,-10584.944971,-814.226536,2145.067394
882.533089,-10510.924376,-1258.350101,1455.581446
882.533410,-9474.636058,-444.123565,153.219100
882.533731,-9400.615463,148.041188,919.314598
882.534052,-8660.409521,592.164754,-229.828649
882.534373,-8438.347739,148.041188,-1225.752797
882.534694,-8660.409521,-148.041188,-995.924147
882.535015,-9252.574275,-444.123565,1225.752797
882.535336,-10288.862594,-962.267725,2221.676944
882.535657,-10436.903782,-1554.432478,3217.601092
882.535978,-10214.842000,-2368.659014,2528.115143
882.536299,-10436.903782,-1850.514855,2374.896044
882.536620,-10214.842000,-1258.350101,2451.505594
882.536941,-9918.759623,-1628.453072,2681.334243
882.537262,-9030.512492,-2516.700203,1302.362347
882.537583,-8586.388927,-2590.720797,-1532.190996
882.537904,-8364.327145,-962.267725,-612.876398
882.538225,-9178.553681,74.020594,1455.581446
882.538546,-9918.759623,592.164754,3294.210641
882.538867,-9844.739029,0.000000,2911.162892
882.539188,-9252.574275,-592.164754,1225.752797
882.539509,-9474.636058,-740.205942,842.705048
882.539830,-9474.636058,-962.267725,1532.190996
882.540151,-9474.636058,-1406.391290,1838.629195
882.540472,-8512.368333,-2072.576638,689.485948
882.540793,-8586.388927,-2368.659014,-1378.971896
882.541114,-8660.409521,-1702.473667,-1762.019645
882.541435,-9844.739029,-962.267725,-229.828649
882.541756,-10214.842000,444.123565,2451.505594
882.542077,-10362.883188,-1480.411884,689.485948
882.542398,-9548.656652,-1628.453072,-995.924147
882.542719,-9474.636058,-1406.391290,-1072.533697
882.543041,-9918.759623,-518.144159,536.266849
882.543362,-10140.821405,-592.164754,1455.581446
882.543683,-9252.574275,-888.247130,0.000000
882.544004,-8734.430116,-740.205942,-1838.629195
882.544325,-8808.450710,74.020594,-919.314598
882.544646,-9474.636058,74.020594,383.047749
882.544967,-10510.924376,-296.082377,2451.505594
882.545288,-10214.842000,-1258.350101,1302.362347
882.545609,-9252.574275,-1258.350101,0.000000
882.545930,-9474.636058,-962.267725,612.876398
882.546251,-9548.656652,-518.144159,1991.848295
882.546572,-10510.924376,-518.144159,2221.676944
882.546893,-9474.636058,-148.041188,306.438199
882.547214,-8882.471304,148.041188,-383.047749
882.547535,-9178.553681,518.144159,1532.190996
882.547856,-10807.006753,962.267725,3907.087040
882.548177,-11029.068536,-148.041188,4213.525239
882.548498,-9844.739029,-888.247130,2834.553343
882.548819,-8364.327145,-1036.288319,-306.438199
882.549140,-9030.512492,-592.164754,2451.505594
882.549461,-9992.780217,-518.144159,3370.820191
882.549782,-9326.594869,0.000000,1991.848295
882.550103,-9030.512492,0.000000,459.657299
882.550424,-8512.368333,740.205942,536.266849
882.550745,-10066.800811,1036.288319,2681.334243
882.551066,-11399.171507,370.102971,4596.572988
882.551387,-10658.965565,-148.041188,3294.210641
882.551708,-9770.718434,0.000000,1608.800546
882.552029,-8956.491898,-296.082377,229.828649
882.552350,-9326.594869,370.102971,1225.752797
882.552671,-9770.718434,370.102971,1532.190996
882.552992,-8734.430116,740.205942,1991.848295
882.553313,-8512.368333,814.226536,-995.924147
882.553634,-9178.553681,1480.411884,536.266849
882.553955,-11103.089130,592.164754,2451.505594
882.554276,-11103.089130,0.000000,3677.258390
882.554597,-10658.965565,-1110.308913,1838.629195
882.554918,-9104.533087,-444.123565,612.876398
882.555239,-8660.409521,888.247130,1225.752797
882.555560,-10732.986159,-1110.308913,766.095498
882.555881,-7846.182985,888.247130,-229.828649
882.556202,-9548.656652,-666.185348,-3064.381992
882.556523,-7772.162391,1628.453072,-2374.896044
882.556844,-9030.512492,888.247130,-842.705048
882.557165,-10658.965565,518.144159,2604.724693
882.557486,-10881.027347,-1036.288319,1915.238745
882.557808,-10066.800811,-1850.514855,229.828649
882.558129,-9844.739029,-1110.308913,459.657299
882.558450,-9030.512492,-1480.411884,536.266849
882.558771,-10658.965565,-444.123565,1378.971896
882.559092,-9104.533087,-518.144159,153.219100
882.559413,-7698.141797,-296.082377,-2911.162892
882.559734,-8290.306550,370.102971,-1762.019645
882.560055,-9696.697840,74.020594,76.609550
882.560376,-10732.986159,-370.102971,2298.286494
882.560697,-10658.965565,-962.267725,2145.067394
882.561018,-9400.615463,-962.267725,842.705048
882.561339,-9474.636058,-592.164754,1378.971896
882.561660,-10584.944971,-1036.288319,2528.115143
882.561981,-10436.903782,-1628.453072,2145.067394
882.562302,-9400.615463,-962.267725,76.609550
882.562623,-8290.306550,0.000000,-1072.533697
882.562944,-9770.718434,74.020594,536.266849
882.563265,-10214.842000,0.000000,2834.553343
882.563586,-11251.130318,-1110.308913,2987.772442
882.563907,-9474.636058,-1110.308913,1608.800546
882.564228,-8956.491898,-1406.391290,0.000000
882.564549,-9622.677246,-962.267725,2221.676944
882.564870,-9548.656652,-1480.411884,2451.505594
882.565191,-9400.615463,-2220.617826,1072.533697
882.565512,-7179.997637,-444.123565,995.924147
882.565833,-8438.347739,-370.102971,-995.924147
882.566154,-9252.574275,74.020594,1762.019645
882.566475,-10881.027347,0.000000,3677.258390
882.566796,-10510.924376,-518.144159,3830.477490
882.567117,-9622.677246,-1850.514855,1608.800546
882.567438,-9844.739029,-518.144159,2604.724693
882.567759,-9696.697840,-444.123565,2757.943793
882.568080,-10510.924376,-962.267725,2528.115143
882.568401,-8216.285956,74.020594,919.314598
882.568722,-7994.224174,592.164754,-1149.143247
882.569043,-8586.388927,1184.329507,-536.266849
882.569364,-10436.903782,740.205942,2374.896044
882.569685,-10584.944971,0.000000,2681.334243
882.570006,-10288.862594,-1406.391290,919.314598
882.570327,-9178.553681,0.000000,153.219100
882.570648,-9622.677246,-740.205942,689.485948
882.570969,-9918.759623,-740.205942,1378.971896
882.571290,-9474.636058,-740.205942,383.047749
882.571611,-8512.368333,-740.205942,-2451.505594
882.571932,-8438.347739,444.123565,-2987.772442
882.572253,-9104.533087,1332.370696,-1225.752797
882.572575,-10584.944971,1184.329507,459.657299
882.572896,-10066.800811,370.102971,1225.752797
882.573217,-9770.718434,0.000000,0.000000
882.573538,-9400.615463,74.020594,0.000000
882.573859,-10584.944971,0.000000,2145.067394
882.574180,-10955.047942,-740.205942,2987.772442
882.574501,-10510.924376,-1184.329507,1455.581446
882.574822,-9252.574275,0.000000,-612.876398
882.575143,-9622.677246,1628.453072,229.828649
882.575464,-9844.739029,1332.370696,2068.457845
882.575785,-10658.965565,592.164754,2911.162892
882.576106,-10066.800811,-740.205942,1225.752797
882.576427,-8290.306550,-1628.453072,-689.485948
882.576748,-9474.636058,-1036.288319,0.000000
882.577069,-9622.677246,-1036.288319,1991.848295
882.577390,-9992.780217,-1406.391290,2145.067394
882.577711,-9696.697840,-518.144159,1455.581446
882.578032,-8956.491898,0.000000,-1608.800546
882.578353,-9474.636058,148.041188,995.924147
882.578674,-10584.944971,-444.123565,3447.429741
882.578995,-10214.842000,-1036.288319,3140.991542
882.579316,-9178.553681,-1184.329507,1225.752797
882.579637,-8586.388927,-592.164754,919.314598
882.579958,-8882.471304,-740.205942,1532.190996
882.580279,-9696.697840,-1184.329507,2681.334243
882.580600,-9770.718434,-888.247130,1608.800546
882.580921,-7994.224174,-444.123565,842.705048
882.581242,-9326.594869,592.164754,459.657299
882.581563,-10140.821405,592.164754,2528.115143
882.581884,-10584.944971,-148.041188,3600.648841
882.582205,-9918.759623,-814.226536,2451.505594
882.582526,-9178.553681,-518.144159,1072.533697
882.582847,-8956.491898,-222.061783,612.876398
882.583168,-9474.636058,-518.144159,1915.238745
882.583489,-9548.656652,-592.164754,1915.238745
882.583810,-9474.636058,-296.082377,0.000000
882.584131,-8882.471304,296.082377,-995.924147
882.584452,-9474.636058,1036.288319,0.000000
882.584773,-10732.986159,148.041188,2451.505594
882.585094,-10658.965565,-222.061783,2451.505594
882.585415,-9992.780217,-1628.453072,689.485948
882.585736,-9030.512492,-814.226536,0.000000
882.586057,-9400.615463,-962.267725,383.047749
882.586378,-9918.759623,-592.164754,2681.334243
882.586699,-9770.718434,-296.082377,612.876398
882.587020,-8882.471304,74.020594,-1532.190996
882.587342,-8882.471304,1036.288319,-1378.971896
882.587663,-9844.739029,1628.453072,919.314598
882.587984,-10436.903782,74.020594,2451.505594
882.588305,-10214.842000,-1184.329507,1225.752797
882.588626,-9400.615463,-1110.308913,-766.095498
882.588947,-8660.409521,-666.185348,-1072.533697
882.589268,-9030.512492,-1036.288319,1378.971896
882.589589,-9770.718434,-1184.329507,1455.581446
882.589910,-9474.636058,-1258.350101,76.609550
882.590231,-8808.450710,-740.205942,-1302.362347
882.590552,-9252.574275,222.061783,-995.924147
882.590873,-10214.842000,74.020594,2145.067394
882.591194,-10362.883188,0.000000,2451.505594
882.591515,-9918.759623,-592.164754,1762.019645
882.591836,-8586.388927,-592.164754,306.438199
882.592157,-8956.491898,-370.102971,2145.067394
882.592478,-10658.965565,-740.205942,3983.696590
882.592799,-10881.027347,-444.123565,4136.915689
882.593120,-10510.924376,-518.144159,2145.067394
882.593441,-9104.533087,1036.288319,1072.533697
882.593762,-9770.718434,1406.391290,2451.505594
882.594083,-10584.944971,518.144159,3677.258390
882.594404,-9844.739029,-888.247130,2451.505594
882.594725,-8512.368333,-740.205942,-995.924147
882.595046,-8290.306550,-1110.308913,-1378.971896
882.595367,-8586.388927,-888.247130,-153.219100
882.595688,-9696.697840,-888.247130,1072.533697
882.596009,-9770.718434,0.000000,306.438199
882.596330,-8956.491898,296.082377,-842.705048
882.596651,-9474.636058,370.102971,459.657299
882.596972,-10436.903782,-222.061783,2451.505594
882.597293,-11103.089130,-1258.350101,3370.820191
882.597614,-10436.903782,-1554.432478,1991.848295
882.597935,-8734.430116,-1480.411884,0.000000
882.598256,-8438.347739,148.041188,229.828649
882.598577,-9474.636058,444.123565,1915.238745
882.598898,-9548.656652,0.000000,1455.581446
882.599219,-8882.471304,-444.123565,-383.047749
882.599540,-8882.471304,148.041188,-1455.581446
882.599861,-9474.636058,1184.329507,612.876398
882.600182,-10955.047942,888.247130,3294.210641
882.600503,-11251.130318,-296.082377,3294.210641
882.600824,-9326.594869,-370.102971,689.485948
882.601145,-8808.450710,-666.185348,-842.705048
882.601466,-8956.491898,-370.102971,0.000000
882.601787,-9918.759623,0.000000,2681.334243
882.602108,-9622.677246,-444.123565,689.485948
882.602430,-8882.471304,0.000000,-1072.533697
882.602751,-9030.512492,518.144159,-612.876398
882.603072,-9770.718434,0.000000,1915.238745
882.603393,-11029.068536,-148.041188,3064.381992
882.603714,-10288.862594,-740.205942,2834.553343
882.604035,-9326.594869,-962.267725,689.485948
882.604356,-9030.512492,-740.205942,689.485948
882.604677,-9474.636058,-296.082377,1915.238745
882.604998,-9918.759623,-592.164754,2298.286494
882.605319,-9326.594869,-296.082377,459.657299
882.605640,-8512.368333,296.082377,-1302.362347
882.605961,-9104.533087,1036.288319,0.000000
882.606282,-10066.800811,518.144159,2145.067394
882.606603,-10807.006753,-888.247130,2911.162892
882.606924,-9844.739029,-1702.473667,1302.362347
882.607245,-9844.739029,-592.164754,-536.266849
882.607566,-9326.594869,-740.205942,1072.533697
882.607887,-10066.800811,-740.205942,2298.286494
882.608208,-9844.739029,-518.144159,1685.410096
882.608529,-9030.512492,74.020594,459.657299
882.608850,-8586.388927,518.144159,0.000000
882.609171,-9696.697840,222.061783,1685.410096
882.609492,-10658.965565,-666.185348,3294.210641
882.609813,-10214.842000,-1480.411884,2987.772442
882.610134,-8882.471304,-740.205942,1455.581446
882.610455,-9030.512492,-444.123565,1302.362347
882.610776,-9474.636058,-740.205942,2145.067394
882.611097,-9474.636058,-962.267725,2068.457845
882.611418,-9030.512492,0.000000,0.000000
882.611739,-8586.388927,666.185348,-919.314598
882.612060,-8956.491898,1258.350101,229.828649
882.612381,-10807.006753,0.000000,2528.115143
882.612702,-10214.842000,-1258.350101,2604.724693
882.613023,-9696.697840,-1924.535449,1072.533697
882.613344,-9326.594869,-962.267725,0.000000
882.613665,-9252.574275,-222.061783,459.657299
882.613986,-10214.842000,-296.082377,1149.143247
882.614307,-9696.697840,-518.144159,1149.143247
882.614628,-9104.533087,-666.185348,-1072.533697
882.614949,-9326.594869,74.020594,-1532.190996
882.615270,-9696.697840,740.205942,383.047749
882.615591,-11251.130318,370.102971,1991.848295
882.615912,-10584.944971,0.000000,2528.115143
882.616233,-9844.739029,-370.102971,612.876398
882.616554,-8956.491898,370.102971,0.000000
882.616875,-9844.739029,740.205942,689.485948
882.617197,-10066.800811,740.205942,1685.410096
882.617518,-9548.656652,0.000000,689.485948
882.617839,-8956.491898,74.020594,-995.924147
882.618160,-8808.450710,148.041188,-612.876398
882.618481,-10362.883188,-296.082377,1532.190996
882.618802,-10732.986159,-1628.453072,2834.553343
882.619123,-10510.924376,-1332.370696,1532.190996
882.619444,-9400.615463,-592.164754,612.876398
882.619765,-9474.636058,0.000000,383.047749
882.620086,-9548.656652,-518.144159,1915.238745
882.620407,-9770.718434,-1998.556043,1762.019645
882.620728,-8734.430116,-2294.638420,-459.657299
882.621049,-8364.327145,-1406.391290,-1532.190996
882.621370,-8586.388927,-666.185348,0.000000
882.621691,-9992.780217,0.000000,2221.676944
882.622012,-10066.800811,-222.061783,2834.553343
882.622333,-9770.718434,-444.123565,1455.581446
882.622654,-9178.553681,666.185348,689.485948
882.622975,-9770.718434,-444.123565,1838.629195
882.623296,-9918.759623,-962.267725,2451.505594
882.623616,-9696.697840,-1480.411884,1915.238745
882.623937,-7698.141797,296.082377,0.000000
882.624258,-8882.471304,814.226536,-306.438199
882.624579,-9252.574275,1702.473667,1685.410096
882.624899,-10584.944971,444.123565,3217.601092
882.625220,-10362.883188,-740.205942,2374.896044
882.625541,-9474.636058,-1110.308913,766.095498
882.625862,-9252.574275,-962.267725,229.828649
882.626182,-9548.656652,-222.061783,1838.629195
882.626503,-10066.800811,-888.247130,1762.019645
882.626824,-9622.677246,0.000000,536.266849
882.627144,-8882.471304,74.020594,-1149.143247
882.627465,-9548.656652,1258.350101,0.000000
882.627786,-10436.903782,962.267725,2528.115143
882.628107,-11251.130318,74.020594,2757.943793
882.628427,-10066.800811,-666.185348,1915.238745
882.628748,-9548.656652,-1184.329507,919.314598
882.629069,-8882.471304,-814.226536,1225.752797
882.629390,-10066.800811,-666.185348,2221.676944
882.629710,-10066.800811,-518.144159,1838.629195
882.630031,-9548.656652,296.082377,0.000000
882.630352,-9400.615463,1776.494261,-76.609550
882.630673,-10066.800811,1998.556043,1532.190996
882.630993,-11843.295072,444.123565,3217.601092
882.631314,-11177.109724,-518.144159,2987.772442
882.631635,-9918.759623,-1110.308913,842.705048
882.631956,-8808.450710,-296.082377,0.000000
882.632276,-8734.430116,-296.082377,459.657299
882.632597,-9252.574275,-666.185348,1608.800546
882.632918,-9622.677246,444.123565,-1149.143247
882.633238,-7698.141797,-370.102971,-1991.848295
882.633559,-7476.080014,592.164754,-1532.190996
882.633880,-9844.739029,518.144159,1532.190996
882.634201,-10436.903782,-1258.350101,3064.381992
882.634521,-10436.903782,-1406.391290,2834.553343
882.634842,-9030.512492,-1406.391290,919.314598
882.635163,-8956.491898,-888.247130,2374.896044
882.635484,-9548.656652,-1258.350101,2911.162892
882.635804,-9770.718434,-888.247130,2068.457845
882.636125,-9178.553681,-370.102971,0.000000
882.636446,-8142.265362,518.144159,-1149.143247
882.636767,-8586.388927,1702.473667,612.876398
882.637087,-10436.903782,-148.041188,3370.820191
882.637408,-10214.842000,-2146.597232,2528.115143
882.637729,-8956.491898,-2368.659014,612.876398
882.638050,-8734.430116,-1776.494261,76.609550
882.638370,-9104.533087,-592.164754,689.485948
882.638691,-10288.862594,-370.102971,2374.896044
882.639012,-9992.780217,-444.123565,995.924147
882.639332,-8586.388927,0.000000,-1991.848295
882.639653,-9104.533087,0.000000,-1685.410096
882.639974,-9622.677246,-296.082377,-153.219100
882.640295,-10658.965565,-740.205942,1685.410096
882.640615,-10140.821405,-1184.329507,1225.752797
882.640936,-9326.594869,-518.144159,153.219100
882.641257,-9252.574275,148.041188,536.266849
882.641578,-10658.965565,-148.041188,2298.286494
882.641898,-10658.965565,-666.185348,2757.943793
882.642219,-9992.780217,-1184.329507,1072.533697
882.642540,-9400.615463,296.082377,0.000000
882.642861,-9770.718434,1184.329507,919.314598
882.643181,-10436.903782,666.185348,3217.601092
882.643502,-11029.068536,592.164754,3447.429741
882.643823,-9844.739029,-888.247130,919.314598
882.644144,-8660.409521,-962.267725,-459.657299
882.644464,-9400.615463,-814.226536,459.657299
882.644785,-9400.615463,148.041188,536.266849
882.645106,-9622.677246,-740.205942,995.924147
882.645426,-8956.491898,-296.082377,-842.705048
882.645747,-8660.409521,888.247130,-1225.752797
882.646068,-10066.800811,1110.308913,1608.800546
882.646389,-11399.171507,0.000000,3370.820191
882.646709,-10214.842000,-962.267725,2834.553343
882.647030,-8956.491898,-1628.453072,766.095498
882.647351,-8216.285956,-592.164754,689.485948
882.647672,-9326.594869,-518.144159,1915.238745
882.647992,-9548.656652,-962.267725,2451.505594
882.648313,-8586.388927,-962.267725,536.266849
882.648634,-8364.327145,-370.102971,-689.485948
882.648955,-7846.182985,0.000000,0.000000
882.649275,-10066.800811,0.000000,2068.457845
882.649596,-10732.986159,-370.102971,3677.258390
882.649917,-9696.697840,-888.247130,1685.410096
882.650238,-9178.553681,-962.267725,306.438199
882.650558,-8956.491898,-222.061783,306.438199
882.650879,-10066.800811,-222.061783,1455.581446
882.651200,-10140.821405,0.000000,1991.848295
882.651520,-9252.574275,-222.061783,-306.438199
882.651841,-8290.306550,222.061783,-919.314598
882.652162,-9474.636058,518.144159,0.000000
882.652483,-10436.903782,740.205942,2451.505594
882.652803,-10807.006753,-296.082377,2757.943793
882.653124,-10288.862594,-592.164754,689.485948
882.653445,-9104.533087,-962.267725,536.266849
882.653766,-9474.636058,-888.247130,995.924147
882.654086,-10214.842000,-814.226536,1608.800546
882.654407,-9992.780217,-370.102971,689.485948
882.654728,-9178.553681,148.041188,-766.095498
882.655049,-9474.636058,1184.329507,-76.609550
882.655369,-10066.800811,814.226536,1532.190996
882.655690,-10807.006753,-74.020594,2604.724693
882.656011,-11325.150913,-666.185348,2145.067394
882.656332,-9474.636058,-666.185348,306.438199
882.656652,-9474.636058,-518.144159,383.047749
882.656973,-9474.636058,-888.247130,1455.581446
882.657294,-9992.780217,-444.123565,1455.581446
882.657614,-9178.553681,-444.123565,0.000000
882.657935,-8956.491898,0.000000,-995.924147
882.658256,-9104.533087,1776.494261,-306.438199
882.658577,-10362.883188,666.185348,2451.505594
882.658897,-10288.862594,-1110.308913,2451.505594
882.659218,-9548.656652,-1406.391290,1149.143247
882.659539,-8956.491898,-1554.432478,0.000000
882.659860,-8734.430116,-666.185348,842.705048
882.660180,-10214.842000,0.000000,2987.772442
882.660501,-9548.656652,148.041188,2451.505594
882.660822,-9252.574275,-222.061783,383.047749
882.661143,-8660.409521,518.144159,76.609550
882.661463,-9030.512492,296.082377,2451.505594
882.661784,-10140.821405,222.061783,3447.429741
882.662105,-10362.883188,-740.205942,2987.772442
882.662426,-8586.388927,-296.082377,995.924147
882.662746,-8956.491898,0.000000,536.266849
882.663067,-9326.594869,0.000000,1762.019645
882.663388,-10288.862594,-666.185348,1838.629195
882.663708,-9252.574275,-814.226536,459.657299
882.664029,-9104.533087,148.041188,-1149.143247
882.664350,-8956.491898,1258.350101,536.266849
882.664671,-9992.780217,222.061783,1455.581446
882.664991,-10066.800811,-962.267725,1915.238745
882.665312,-9918.759623,-1702.473667,842.705048
882.665633,-9104.533087,-1258.350101,-306.438199
882.665954,-9030.512492,-444.123565,229.828649
882.666274,-10214.842000,-444.123565,1685.410096
882.666595,-10288.862594,-592.164754,1455.581446
882.666916,-9474.636058,-148.041188,-306.438199
882.667237,-9178.553681,666.185348,-1149.143247
882.667557,-9622.677246,814.226536,842.705048
882.667878,-10584.944971,-370.102971,2451.505594
882.668199,-10436.903782,-1332.370696,2528.115143
882.668520,-9548.656652,-1332.370696,0.000000
882.668840,-8882.471304,-296.082377,0.000000
882.669161,-9474.636058,148.041188,1302.362347
882.669482,-10214.842000,222.061783,2068.457845
882.669802,-10066.800811,-444.123565,1302.362347
882.670123,-9178.553681,-518.144159,-689.485948
882.670444,-9548.656652,-296.082377,-306.438199
882.670765,-10066.800811,-370.102971,1455.581446
882.671085,-10584.944971,-1110.308913,3064.381992
882.671406,-9844.739029,-1702.473667,2068.457845
882.671727,-9252.574275,-1258.350101,612.876398
882.672048,-9178.553681,-518.144159,1149.143247
882.672368,-9770.718434,-370.102971,2145.067394
882.672689,-9918.759623,-518.144159,1915.238745
882.673010,-9400.615463,-444.123565,612.876398
882.673331,-8734.430116,518.144159,-689.485948
882.673651,-9326.594869,888.247130,919.314598
882.673972,-10140.821405,518.144159,4826.401637
882.674293,-10584.944971,-666.185348,2911.162892
882.674614,-9696.697840,-666.185348,1302.362347
882.674934,-9178.553681,148.041188,76.609550
882.675255,-9474.636058,370.102971,1532.190996
882.675576,-9844.739029,-444.123565,2451.505594
882.675896,-9400.615463,-1036.288319,919.314598
882.676217,-9030.512492,-1258.350101,-766.095498
882.676538,-8734.430116,-444.123565,-919.314598
882.676859,-9252.574275,-222.061783,2145.067394
882.677179,-10510.924376,-962.267725,3217.601092
882.677500,-10288.862594,-1480.411884,2451.505594
882.677821,-9252.574275,-1110.308913,459.657299
882.678142,-9104.533087,-222.061783,536.266849
882.678462,-9622.677246,-222.061783,1991.848295
882.678783,-9992.780217,-1406.391290,1838.629195
882.679104,-8882.471304,-1480.411884,0.000000
882.679425,-8364.327145,-666.185348,-1991.848295
882.679745,-8586.388927,518.144159,76.609550
882.680066,-10214.842000,592.164754,2451.505594
882.680387,-10732.986159,0.000000,3447.429741
882.680707,-10066.800811,-296.082377,1378.971896
882.681028,-9400.615463,444.123565,-536.266849
882.681349,-9252.574275,-148.041188,919.314598
882.681670,-9844.739029,-444.123565,1915.238745
882.681990,-9844.739029,-1184.329507,1302.362347
882.682311,-9104.533087,-370.102971,-536.266849
882.682632,-8882.471304,0.000000,-1455.581446
882.682953,-9622.677246,888.247130,0.000000
882.683273,-10881.027347,518.144159,1838.629195
882.683594,-10584.944971,0.000000,1991.848295
882.683915,-9770.718434,0.000000,612.876398
882.684236,-9326.594869,-296.082377,0.000000
882.684556,-9178.553681,-444.123565,1072.533697
882.684877,-10436.903782,-1628.453072,1762.019645
882.685198,-9326.594869,-740.205942,1838.629195
882.685519,-9326.594869,74.020594,-459.657299
882.685839,-8956.491898,1332.370696,229.828649
882.686160,-10140.821405,1480.411884,2451.505594
882.686481,-11177.109724,0.000000,5439.278036
882.686801,-10140.821405,-370.102971,2145.067394
882.687122,-9474.636058,-296.082377,306.438199
882.687443,-9104.533087,-296.082377,919.314598
882.687764,-9474.636058,-888.247130,1915.238745
882.688084,-9474.636058,-1184.329507,1915.238745
882.688405,-9400.615463,-814.226536,-76.609550
882.688726,-8660.409521,148.041188,-766.095498
882.689047,-9326.594869,592.164754,766.095498
882.689367,-10436.903782,222.061783,2604.724693
882.689688,-10658.965565,-740.205942,3064.381992
882.690009,-9622.677246,-962.267725,1762.019645
882.690330,-8956.491898,-814.226536,1302.362347
882.690650,-9326.594869,-1184.329507,2221.676944
882.690971,-9548.656652,-1480.411884,2451.505594
882.691292,-9178.553681,-592.164754,995.924147
882.691613,-9104.533087,222.061783,76.609550
882.691933,-9178.553681,888.247130,383.047749
882.692254,-8660.409521,888.247130,1225.752797
882.692575,-10584.944971,-1036.288319,3140.991542
882.692895,-10214.842000,-1110.308913,1915.238745
882.693216,-9400.615463,-962.267725,1378.971896
882.693537,-9030.512492,-222.061783,306.438199
882.693858,-9844.739029,0.000000,1838.629195
882.694178,-10140.821405,0.000000,1915.238745
882.694499,-9474.636058,0.000000,306.438199
882.694820,-8882.471304,148.041188,-1225.752797
882.695141,-9252.574275,740.205942,0.000000
882.695461,-10288.862594,0.000000,2145.067394
882.695782,-10807.006753,-740.205942,2451.505594
882.696103,-9770.718434,-666.185348,1455.581446
882.696424,-10436.903782,-148.041188,0.000000
882.696744,-9252.574275,296.082377,1225.752797
882.697065,-10510.924376,0.000000,1838.629195
882.697386,-10362.883188,0.000000,1302.362347
882.697707,-9252.574275,0.000000,-1455.581446
882.698027,-8882.471304,666.185348,-995.924147
882.698348,-9770.718434,296.082377,612.876398
882.698669,-10881.027347,-592.164754,2298.286494
882.698989,-10658.965565,-1110.308913,2528.115143
882.699310,-9326.594869,-1110.308913,536.266849
882.699631,-9252.574275,-444.123565,689.485948
882.699952,-9992.780217,-370.102971,1838.629195
882.700272,-9770.718434,-518.144159,1915.238745
882.700593,-8660.409521,-1406.391290,383.047749
882.700914,-7920.203579,-592.164754,-1532.190996
882.701235,-8068.244768,-518.144159,-1072.533697
882.701555,-9474.636058,-592.164754,842.705048
882.701876,-10362.883188,-888.247130,4673.182538
882.702197,-9844.739029,-1184.329507,2528.115143
882.702518,-8956.491898,-1036.288319,1762.019645
882.702838,-9622.677246,-888.247130,1762.019645
882.703159,-10140.821405,-444.123565,2681.334243
882.703480,-9992.780217,-888.247130,2298.286494
882.703801,-9178.553681,-518.144159,612.876398
882.704121,-8216.285956,740.205942,-766.095498
882.704442,-9030.512492,1184.329507,1225.752797
882.704763,-10362.883188,518.144159,4366.744339
882.705083,-10362.883188,-888.247130,2681.334243
882.705404,-9474.636058,-1258.350101,766.095498
882.705725,-9178.553681,-666.185348,0.000000
882.706046,-9474.636058,-296.082377,1378.971896
882.706366,-10214.842000,-444.123565,1991.848295
882.706687,-9696.697840,-296.082377,1149.143247
882.707008,-9252.574275,-592.164754,-766.095498
882.707329,-9104.533087,0.000000,-536.266849
882.707649,-10214.842000,-370.102971,995.924147
882.707970,-11325.150913,-740.205942,3064.381992
882.708291,-10288.862594,-1110.308913,2221.676944
882.708612,-8734.430116,-666.185348,0.000000
882.708932,-8586.388927,0.000000,-995.924147
882.709253,-9548.656652,-370.102971,919.314598
882.709574,-9918.759623,-592.164754,1225.752797
882.709895,-9252.574275,-1332.370696,-689.485948
882.710215,-8142.265362,-518.144159,-3294.210641
882.710536,-8512.368333,74.020594,-995.924147
882.710857,-10214.842000,370.102971,1302.362347
882.711177,-10881.027347,-148.041188,2374.896044
882.711498,-9844.739029,-666.185348,1302.362347
882.711819,-9622.677246,-296.082377,0.000000
882.712140,-9918.759623,-962.267725,1225.752797
882.712460,-10436.903782,-592.164754,2145.067394
882.712781,-10658.965565,-740.205942,1685.410096
882.713102,-9326.594869,-74.020594,-536.266849
882.713423,-8364.327145,1036.288319,-919.314598
882.713743,-9548.656652,222.061783,842.705048
882.714064,-9992.780217,0.000000,2451.505594
882.714385,-10362.883188,-1036.288319,2068.457845
882.714706,-9104.533087,-1184.329507,0.000000
882.715026,-8438.347739,-518.144159,306.438199
882.715347,-9770.718434,-148.041188,1991.848295
882.715668,-10140.821405,-370.102971,2528.115143
882.715989,-9770.718434,-740.205942,1225.752797
882.716309,-9178.553681,-518.144159,-459.657299
882.716630,-9104.533087,222.061783,0.000000
882.716951,-10362.883188,74.020594,2451.505594
882.717271,-10732.986159,-592.164754,2987.772442
882.717592,-9474.636058,-1184.329507,1762.019645
882.717913,-8586.388927,-518.144159,-383.047749
882.718234,-9104.533087,-222.061783,536.266849
882.718554,-10066.800811,-518.144159,2834.553343
882.718875,-10140.821405,-1184.329507,2528.115143
882.719196,-9474.636058,-444.123565,766.095498
882.719517,-9030.512492,74.020594,76.609550
882.719837,-9474.636058,-148.041188,1762.019645
882.720158,-10510.924376,-666.185348,3753.867940
882.720479,-10584.944971,-1036.288319,3140.991542
882.720800,-9252.574275,-518.144159,1302.362347
882.721120,-8808.450710,0.000000,842.705048
882.721441,-9474.636058,740.205942,1838.629195
882.721762,-10436.903782,-222.061783,1915.238745
882.722083,-9474.636058,0.000000,842.705048
882.722403,-9030.512492,444.123565,-229.828649
882.722724,-8956.491898,1258.350101,0.000000
882.723044,-10214.842000,666.185348,2451.505594
882.723365,-11103.089130,444.123565,3447.429741
882.723686,-10436.903782,-740.205942,1915.238745
882.724006,-8956.491898,-740.205942,0.000000
882.724327,-8734.430116,74.020594,0.000000
882.724647,-9474.636058,0.000000,1532.190996
882.724968,-9770.718434,-296.082377,1762.019645
882.725289,-9400.615463,-518.144159,0.000000
882.725609,-7994.224174,370.102971,-1378.971896
882.725930,-9474.636058,74.020594,383.047749
882.726250,-9918.759623,0.000000,2068.457845
882.726571,-10955.047942,-666.185348,2834.553343
882.726891,-9918.759623,-962.267725,995.924147
882.727212,-8734.430116,-148.041188,-536.266849
882.727533,-9252.574275,-444.123565,919.314598
882.727853,-10140.821405,-1184.329507,1685.410096
882.728174,-9474.636058,-962.267725,612.876398
882.728494,-9030.512492,-666.185348,-1072.533697
882.728815,-7846.182985,1406.391290,-689.485948
882.729136,-10214.842000,1332.370696,1915.238745
882.729456,-10807.006753,518.144159,3600.648841
882.729777,-10510.924376,-1036.288319,2298.286494
882.730097,-9918.759623,-1258.350101,383.047749
882.730418,-9104.533087,-740.205942,306.438199
882.730738,-9844.739029,-518.144159,2068.457845
882.731059,-9918.759623,-592.164754,2221.676944
882.731380,-9474.636058,-1036.288319,689.485948
882.731700,-8734.430116,-740.205942,-1225.752797
882.732021,-9030.512492,-148.041188,-383.047749
882.732341,-10881.027347,0.000000,2298.286494
882.732662,-10955.047942,-518.144159,3217.601092
882.732983,-9622.677246,-740.205942,2757.943793
882.733303,-8882.471304,-962.267725,766.095498
882.733624,-8808.450710,-370.102971,306.438199
882.733944,-10288.862594,-814.226536,1838.629195
882.734265,-10362.883188,-1850.514855,1072.533697
882.734585,-8734.430116,-592.164754,-536.266849
882.734906,-8512.368333,444.123565,-689.485948
882.735227,-9474.636058,814.226536,306.438199
882.735547,-10584.944971,0.000000,3064.381992
882.735868,-10362.883188,-1184.329507,2145.067394
882.736188,-9474.636058,-1702.473667,459.657299
882.736509,-8808.450710,-518.144159,153.219100
882.736830,-9770.718434,-148.041188,1762.019645
882.737150,-9992.780217,-370.102971,2604.724693
882.737471,-9474.636058,-1036.288319,612.876398
882.737791,-9104.533087,-888.247130,-842.705048
882.738112,-8808.450710,-148.041188,-459.657299
882.738432,-9844.739029,148.041188,2681.334243
882.738753,-10510.924376,-666.185348,2834.553343
882.739074,-9918.759623,-888.247130,1532.190996
882.739394,-9326.594869,-518.144159,536.266849
882.739715,-8956.491898,0.000000,842.705048
882.740035,-9548.656652,-814.226536,2145.067394
882.740356,-9770.718434,-1184.329507,1685.410096
882.740677,-9622.677246,-592.164754,0.000000
882.740997,-8808.450710,444.123565,-995.924147
882.741318,-9844.739029,444.123565,459.657299
882.741638,-10436.903782,-592.164754,2604.724693
882.741959,-10140.821405,-1554.432478,1991.848295
882.742279,-9992.780217,-1998.556043,229.828649
882.742600,-7920.203579,-222.061783,689.485948
882.742921,-9400.615463,-222.061783,689.485948
882.743241,-10214.842000,-740.205942,2145.067394
882.743562,-9844.739029,-1110.308913,1149.143247
882.743882,-9104.533087,0.000000,-1225.752797
882.744203,-9252.574275,1184.329507,-536.266849
882.744524,-10140.821405,888.247130,1915.238745
882.744844,-10658.965565,-74.020594,3447.429741
882.745165,-10584.944971,-1036.288319,2145.067394
882.745485,-9104.533087,-1184.329507,689.485948
882.745806,-8882.471304,0.000000,536.266849
882.746126,-9844.739029,1258.350101,2451.505594
882.746447,-10288.862594,444.123565,2298.286494
882.746768,-9104.533087,962.267725,766.095498
882.747088,-8438.347739,1184.329507,-1225.752797
882.747409,-8882.471304,1258.350101,-383.047749
882.747729,-10658.965565,296.082377,2604.724693
882.748050,-10881.027347,-1110.308913,2604.724693
882.748371,-9844.739029,-1554.432478,1378.971896
882.748691,-8956.491898,-1332.370696,0.000000
882.749012,-9252.574275,-592.164754,995.924147
882.749332,-9770.718434,-444.123565,2451.505594
882.749653,-9844.739029,-740.205942,1378.971896
882.749974,-8660.409521,0.000000,-536.266849
882.750294,-8216.285956,370.102971,-1608.800546
882.750615,-9178.553681,148.041188,766.095498
882.750935,-10807.006753,0.000000,2145.067394
882.751256,-10362.883188,-296.082377,2681.334243
882.751576,-9104.533087,-74.020594,1455.581446
882.751897,-8882.471304,0.000000,1225.752797
882.752218,-9622.677246,-370.102971,4136.915689
882.752538,-10140.821405,-592.164754,2911.162892
882.752859,-9474.636058,-370.102971,919.314598
882.753179,-8660.409521,666.185348,-766.095498
882.753500,-8882.471304,1850.514855,0.000000
882.753821,-9474.636058,1998.556043,2451.505594
882.754141,-11325.150913,0.000000,2987.772442
882.754462,-9400.615463,-370.102971,1685.410096
882.754782,-9104.533087,-666.185348,0.000000
882.755103,-9474.636058,-592.164754,229.828649
882.755423,-10214.842000,0.000000,1991.848295
882.755744,-10436.903782,-296.082377,1838.629195
882.756065,-8882.471304,-444.123565,0.000000
882.756385,-8808.450710,1110.308913,306.438199
882.756706,-9548.656652,0.000000,536.266849
882.757026,-10510.924376,-370.102971,2451.505594
882.757347,-10436.903782,-888.247130,2604.724693
882.757668,-9474.636058,-592.164754,1608.800546
882.757988,-9326.594869,-222.061783,766.095498
882.758309,-9622.677246,-666.185348,2068.457845
882.758629,-10510.924376,-1554.432478,2374.896044
882.758950,-9844.739029,-1110.308913,1302.362347
882.759270,-9104.533087,0.000000,-995.924147
882.759591,-9030.512492,518.144159,-383.047749
882.759912,-9622.677246,592.164754,1532.190996
882.760232,-10066.800811,-962.267725,2451.505594
882.760553,-10066.800811,-1776.494261,-383.047749
882.760873,-9178.553681,-2368.659014,0.000000
882.761194,-8882.471304,-1480.411884,229.828649
882.761515,-9992.780217,-814.226536,1685.410096
882.761835,-9844.739029,-666.185348,1762.019645
882.762156,-9400.615463,-666.185348,229.828649
882.762476,-8882.471304,-222.061783,-919.314598
882.762797,-8808.450710,0.000000,-306.438199
882.763117,-9992.780217,-814.226536,1915.238745
882.763438,-9252.574275,-1332.370696,2834.553343
882.763759,-9252.574275,-1184.329507,1915.238745
882.764079,-9030.512492,-296.082377,1455.581446
882.764400,-9030.512492,-666.185348,1915.238745
882.764720,-9548.656652,-592.164754,3677.258390
882.765041,-9844.739029,-1406.391290,1302.362347
882.765362,-9400.615463,0.000000,-612.876398
882.765682,-8882.471304,1554.432478,-383.047749
882.766003,-9992.780217,1702.473667,1608.800546
882.766323,-11177.109724,518.144159,3064.381992
882.766644,-10955.047942,-740.205942,1838.629195
882.766964,-10214.842000,-962.267725,459.657299
882.767285,-9548.656652,-666.185348,153.219100
882.767606,-9992.780217,666.185348,2145.067394
882.767926,-10658.965565,0.000000,2681.334243
882.768247,-9622.677246,0.000000,459.657299
882.768567,-7772.162391,0.000000,-2221.676944
882.768888,-8586.388927,74.020594,-1302.362347
882.769209,-9548.656652,518.144159,229.828649
882.769529,-10362.883188,-1036.288319,2145.067394
882.769850,-9030.512492,-888.247130,1149.143247
882.770170,-9326.594869,-296.082377,612.876398
882.770491,-9252.574275,-518.144159,1302.362347
882.770811,-10362.883188,-592.164754,2451.505594
882.771132,-10288.862594,-222.061783,2145.067394
882.771453,-9770.718434,-148.041188,459.657299
882.771773,-8438.347739,148.041188,0.000000
882.772094,-8882.471304,-222.061783,1149.143247
882.772414,-9474.636058,-1332.370696,2451.505594
882.772735,-9918.759623,-1924.535449,1762.019645
882.773056,-7846.182985,-1184.329507,919.314598
882.773376,-8734.430116,222.061783,153.219100
882.773697,-9400.615463,296.082377,1762.019645
882.774017,-9696.697840,-518.144159,2374.896044
882.774338,-9918.759623,-1184.329507,2987.772442
882.774658,-9178.553681,-1110.308913,-766.095498
882.774979,-8882.471304,-148.041188,-459.657299
882.775300,-9992.780217,518.144159,1455.581446
882.775620,-10510.924376,444.123565,2987.772442
882.775941,-10066.800811,0.000000,1685.410096
882.776261,-8956.491898,0.000000,536.266849
882.776582,-9178.553681,-666.185348,919.314598
882.776903,-9918.759623,-1332.370696,1685.410096
882.777223,-10066.800811,-1480.411884,1608.800546
882.777544,-9548.656652,0.000000,459.657299
882.777864,-9104.533087,962.267725,-153.219100
882.778185,-9622.677246,1258.350101,1608.800546
882.778506,-10658.965565,296.082377,2757.943793
882.778826,-10955.047942,-1110.308913,2374.896044
882.779147,-9992.780217,-1258.350101,766.095498
882.779467,-9400.615463,-666.185348,-306.438199
882.779788,-9474.636058,-518.144159,306.438199
882.780108,-9992.780217,-296.082377,1302.362347
882.780429,-9992.780217,222.061783,842.705048
882.780750,-9474.636058,148.041188,-612.876398
882.781070,-9178.553681,296.082377,-919.314598
882.781391,-9992.780217,0.000000,1915.238745
882.781711,-11103.089130,-592.164754,3140.991542
882.782032,-10510.924376,-888.247130,2834.553343
882.782353,-9030.512492,-1332.370696,1302.362347
882.782673,-8512.368333,-1110.308913,76.609550
882.782994,-9104.533087,-962.267725,1762.019645
882.783314,-9400.615463,-1110.308913,1608.800546
882.783635,-8512.368333,-740.205942,-383.047749
882.783955,-7994.224174,1036.288319,-1762.019645
882.784276,-8290.306550,1924.535449,-229.828649
882.784597,-9474.636058,1036.288319,1838.629195
882.784917,-10362.883188,0.000000,2451.505594
882.785238,-9474.636058,-962.267725,1149.143247
882.785558,-7624.121203,-1184.329507,0.000000
882.785879,-9400.615463,-518.144159,1302.362347
882.786200,-10436.903782,-740.205942,2451.505594
882.786520,-10214.842000,-518.144159,2221.676944
882.786841,-9548.656652,-370.102971,229.828649
882.787161,-8586.388927,370.102971,-306.438199
882.787482,-9770.718434,222.061783,1225.752797
882.787802,-9992.780217,74.020594,3140.991542
882.788123,-10881.027347,-1480.411884,3753.867940
882.788444,-8808.450710,-1998.556043,229.828649
882.788764,-7402.059420,-518.144159,229.828649
882.789085,-10436.903782,-370.102971,1455.581446
882.789405,-9696.697840,518.144159,3064.381992
882.789726,-9474.636058,-370.102971,842.705048
882.790047,-10066.800811,370.102971,612.876398
882.790367,-8734.430116,0.000000,-766.095498
882.790688,-11843.295072,74.020594,3370.820191
882.791008,-10807.006753,-518.144159,4136.915689
882.791329,-10436.903782,-888.247130,1072.533697
882.791649,-9548.656652,-222.061783,306.438199
882.791970,-8438.347739,0.000000,-459.657299
882.792291,-9548.656652,-222.061783,995.924147
882.792611,-10955.047942,-444.123565,1915.238745
882.792932,-9030.512492,-814.226536,0.000000
882.793252,-9400.615463,-444.123565,-1225.752797
882.793573,-9918.759623,0.000000,536.266849
882.793894,-10436.903782,0.000000,2528.115143
882.794214,-11029.068536,-1036.288319,3064.381992
882.794535,-10066.800811,-1110.308913,1455.581446
882.794855,-8734.430116,370.102971,229.828649
882.795176,-9474.636058,444.123565,612.876398
882.795496,-9548.656652,296.082377,2374.896044
882.795817,-9622.677246,-148.041188,1072.533697
882.796138,-8290.306550,-296.082377,-1149.143247
882.796458,-8068.244768,444.123565,-766.095498
882.796779,-9252.574275,0.000000,1532.190996
882.797099,-10955.047942,-962.267725,3370.820191
882.797420,-10510.924376,-1110.308913,3370.820191
882.797741,-9474.636058,-1184.329507,1149.143247
882.798061,-8956.491898,-1036.288319,383.047749
882.798382,-9474.636058,-740.205942,1762.019645
882.798702,-10066.800811,-1110.308913,1378.971896
882.799023,-9030.512492,-740.205942,-459.657299
882.799343,-7624.121203,444.123565,-2374.896044
882.799664,-7994.224174,592.164754,-1685.410096
882.799985,-9622.677246,0.000000,689.485948
882.800305,-10140.821405,-666.185348,1991.848295
882.800626,-9400.615463,-1628.453072,995.924147
882.800946,-8808.450710,-1110.308913,0.000000
882.801267,-9770.718434,-1110.308913,1991.848295
882.801588,-10436.903782,-1554.432478,2757.943793
882.801908,-10658.965565,-1258.350101,2298.286494
882.802229,-9326.594869,0.000000,995.924147
882.802549,-9474.636058,1554.432478,76.609550
882.802870,-10658.965565,1480.411884,2374.896044
882.803190,-11473.192101,296.082377,3217.601092
882.803511,-10732.986159,-518.144159,2757.943793
882.803832,-9918.759623,-1480.411884,536.266849
882.804152,-8660.409521,-962.267725,-306.438199
882.804473,-9770.718434,-1110.308913,153.219100
882.804793,-9770.718434,-814.226536,2145.067394
882.805114,-9326.594869,-1184.329507,-229.828649
882.805435,-8660.409521,-740.205942,-1378.971896
882.805755,-9252.574275,-592.164754,-766.095498
882.806076,-10362.883188,-592.164754,1378.971896
882.806396,-10658.965565,-1332.370696,2757.943793
882.806717,-10288.862594,-1184.329507,2221.676944
882.807038,-9474.636058,0.000000,1302.362347
882.807358,-9178.553681,-296.082377,1685.410096
882.807679,-9918.759623,-296.082377,2604.724693
882.807999,-9622.677246,-1258.350101,1685.410096
882.808320,-8882.471304,-1110.308913,0.000000
882.808640,-8068.244768,666.185348,-766.095498
882.808961,-9178.553681,1406.391290,76.609550
882.809282,-9696.697840,1036.288319,2221.676944
882.809602,-10288.862594,296.082377,2451.505594
882.809923,-9252.574275,0.000000,766.095498
882.810243,-9252.574275,74.020594,76.609550
882.810564,-9104.533087,0.000000,842.705048
882.810885,-9918.759623,0.000000,1608.800546
882.811205,-9548.656652,-444.123565,919.314598
882.811526,-8808.450710,0.000000,-536.266849
882.811846,-8364.327145,0.000000,-1685.410096
882.812167,-9770.718434,0.000000,1378.971896
882.812487,-10510.924376,74.020594,2604.724693
882.812808,-10288.862594,-666.185348,2068.457845
882.813129,-8734.430116,-296.082377,76.609550
882.813449,-9326.594869,74.020594,2298.286494
882.813770,-9474.636058,0.000000,2298.286494
882.814090,-10288.862594,-740.205942,2987.772442
882.814411,-9400.615463,-296.082377,536.266849
882.814732,-9326.594869,1184.329507,-229.828649
882.815052,-9178.553681,1554.432478,1149.143247
882.815373,-10732.986159,1110.308913,3217.601092
882.815693,-10510.924376,-222.061783,3140.991542
882.816014,-10214.842000,-962.267725,459.657299
882.816334,-9104.533087,148.041188,0.000000
882.816655,-9622.677246,296.082377,1302.362347
882.816976,-9844.739029,666.185348,2145.067394
882.817296,-10362.883188,-814.226536,1455.581446
882.817617,-9474.636058,-592.164754,-766.095498
882.817937,-8956.491898,-222.061783,-1225.752797
882.818258,-10066.800811,-962.267725,919.314598
882.818579,-10732.986159,0.000000,2834.553343
882.818899,-10955.047942,-592.164754,2451.505594
882.819220,-9178.553681,-370.102971,612.876398
882.819540,-9252.574275,-148.041188,612.876398
882.819861,-9474.636058,-814.226536,1685.410096
882.820181,-9622.677246,-222.061783,1302.362347
882.820502,-9178.553681,-888.247130,-383.047749
882.820823,-8142.265362,0.000000,-1608.800546
882.821143,-8512.368333,888.247130,-306.438199
882.821464,-10066.800811,1702.473667,3294.210641
882.821784,-10807.006753,-888.247130,2911.162892
882.822105,-10066.800811,-2146.597232,1149.143247
882.822426,-8882.471304,-1998.556043,-229.828649
882.822746,-9474.636058,-1406.391290,153.219100
882.823067,-9474.636058,-1036.288319,1455.581446
882.823387,-9992.780217,-1110.308913,1762.019645
882.823708,-9252.574275,-814.226536,-306.438199
882.824028,-8512.368333,-370.102971,-1378.971896
882.824349,-9548.656652,-814.226536,1072.533697
882.824670,-10362.883188,-666.185348,2451.505594
882.824990,-10584.944971,-1406.391290,2298.286494
882.825311,-9548.656652,-1184.329507,1149.143247
882.825631,-8512.368333,-222.061783,0.000000
882.825952,-9474.636058,-666.185348,1072.533697
882.826272,-9844.739029,-518.144159,2374.896044
882.826593,-10140.821405,-814.226536,1302.362347
882.826914,-9030.512492,0.000000,-306.438199
882.827234,-8808.450710,592.164754,153.219100
882.827555,-10436.903782,148.041188,2068.457845
882.827875,-10584.944971,-1036.288319,3140.991542
882.828196,-10436.903782,-1776.494261,2145.067394
882.828516,-8586.388927,-1776.494261,689.485948
882.828837,-8882.471304,-1036.288319,306.438199
882.829157,-9474.636058,-222.061783,1762.019645
882.829478,-10288.862594,-444.123565,1838.629195
882.829799,-9770.718434,222.061783,153.219100
882.830119,-8882.471304,222.061783,-689.485948
882.830440,-9104.533087,222.061783,-153.219100
882.830760,-10881.027347,-518.144159,2145.067394
882.831081,-10584.944971,-518.144159,2451.505594
882.831401,-10214.842000,-148.041188,1532.190996
882.831722,-9030.512492,74.020594,459.657299
882.832043,-9178.553681,0.000000,1225.752797
882.832363,-9844.739029,-370.102971,1685.410096
882.832684,-9326.594869,-592.164754,2528.115143
882.833004,-8438.347739,-740.205942,-842.705048
882.833325,-8438.347739,0.000000,-536.266849
882.833645,-9474.636058,-148.041188,1455.581446
882.833966,-10362.883188,-444.123565,2987.772442
882.834286,-9770.718434,-962.267725,1685.410096
882.834607,-9178.553681,-888.247130,229.828649
882.834928,-8660.409521,0.000000,383.047749
882.835248,-9400.615463,592.164754,1532.190996
882.835569,-10288.862594,-148.041188,2145.067394
882.835889,-9030.512492,-740.205942,0.000000
882.836210,-8956.491898,-814.226536,-995.924147
882.836530,-9326.594869,-222.061783,-459.657299
882.836851,-10362.883188,518.144159,1915.238745
882.837171,-11029.068536,222.061783,3140.991542
882.837492,-10140.821405,-222.061783,1762.019645
882.837813,-9178.553681,222.061783,229.828649
882.838133,-9696.697840,518.144159,766.095498
882.838454,-10066.800811,0.000000,1991.848295
882.838774,-10140.821405,-666.185348,1225.752797
882.839095,-9474.636058,0.000000,-153.219100
882.839415,-8808.450710,1258.350101,-229.828649
882.839736,-10732.986159,1480.411884,1915.238745
882.840056,-11621.233289,888.247130,3677.258390
882.840377,-11103.089130,-148.041188,2451.505594
882.840698,-9622.677246,-370.102971,842.705048
882.841018,-8808.450710,666.185348,153.219100
882.841339,-9844.739029,0.000000,1455.581446
882.841659,-10066.800811,-592.164754,1838.629195
882.841980,-9474.636058,-962.267725,536.266849
882.842300,-8660.409521,-888.247130,-1149.143247
882.842621,-9178.553681,0.000000,-383.047749
882.842942,-10436.903782,518.144159,1838.629195
882.843262,-11029.068536,148.041188,2911.162892
882.843583,-9992.780217,148.041188,2145.067394
882.843903,-9400.615463,-222.061783,842.705048
882.844224,-8882.471304,-296.082377,1455.581446
882.844544,-9622.677246,-1480.411884,2145.067394
882.844865,-9326.594869,-1258.350101,1532.190996
882.845185,-8586.388927,-1850.514855,-995.924147
882.845506,-8142.265362,148.041188,-995.924147
882.845827,-8586.388927,296.082377,842.705048
882.846147,-9474.636058,-296.082377,2451.505594
882.846468,-9918.759623,-1406.391290,2604.724693
882.846788,-9400.615463,-1628.453072,1149.143247
882.847109,-8586.388927,-1332.370696,-229.828649
882.847429,-9400.615463,-888.247130,1378.971896
882.847750,-9770.718434,-814.226536,2221.676944
882.848070,-9696.697840,-296.082377,1225.752797
882.848391,-9474.636058,-296.082377,-689.485948
882.848712,-9104.533087,0.000000,-919.314598
882.849032,-9844.739029,0.000000,842.705048
882.849353,-10288.862594,148.041188,1991.848295
882.849673,-10214.842000,-592.164754,2221.676944
882.849994,-9622.677246,-888.247130,766.095498
882.850314,-9178.553681,-666.185348,612.876398
882.850635,-9548.656652,-1036.288319,689.485948
882.850955,-10214.842000,-1036.288319,1991.848295
882.851276,-9918.759623,-666.185348,842.705048
882.851597,-9178.553681,148.041188,-306.438199
882.851917,-9622.677246,222.061783,919.314598
882.852238,-10288.862594,-74.020594,2911.162892
882.852558,-11177.109724,-1480.411884,2834.553343
882.852879,-10362.883188,-1776.494261,842.705048
882.853199,-9178.553681,-1184.329507,-536.266849
882.853520,-9844.739029,-1332.370696,306.438199
882.853840,-10288.862594,-148.041188,1225.752797
882.854161,-10362.883188,0.000000,612.876398
882.854482,-9770.718434,814.226536,-306.438199
882.854802,-9030.512492,1258.350101,-612.876398
882.855123,-9770.718434,814.226536,1915.238745
882.855443,-10214.842000,370.102971,3677.258390
882.855764,-10066.800811,-666.185348,2374.896044
882.856084,-8808.450710,-518.144159,1378.971896
882.856405,-8808.450710,-1036.288319,383.047749
882.856726,-8660.409521,-592.164754,2145.067394
882.857046,-9474.636058,-962.267725,2221.676944
882.857367,-9474.636058,-296.082377,1302.362347
882.857687,-8586.388927,370.102971,-76.609550
882.858008,-8956.491898,592.164754,1072.533697
882.858328,-10214.842000,222.061783,3370.820191
882.858649,-10140.821405,-814.226536,2987.772442
882.858969,-9474.636058,-1258.350101,1762.019645
882.859290,-8956.491898,-814.226536,689.485948
882.859611,-8512.368333,-222.061783,995.924147
882.859931,-9696.697840,-296.082377,2451.505594
882.860252,-9400.615463,-740.205942,1225.752797
882.860572,-8734.430116,-592.164754,-919.314598
882.860893,-9252.574275,296.082377,-689.485948
882.861213,-9178.553681,1036.288319,1072.533697
882.861534,-10732.986159,444.123565,2604.724693
882.861854,-10732.986159,-296.082377,1838.629195
882.862175,-9992.780217,-518.144159,919.314598
882.862496,-9326.594869,0.000000,689.485948
882.862816,-9696.697840,-370.102971,1072.533697
882.863137,-9992.780217,-222.061783,1915.238745
882.863457,-9992.780217,-370.102971,306.438199
882.863778,-9400.615463,0.000000,-612.876398
882.864098,-9474.636058,518.144159,-766.095498
882.864419,-10436.903782,370.102971,1302.362347
882.864739,-10214.842000,-814.226536,2374.896044
882.865060,-10584.944971,-962.267725,1762.019645
882.865381,-9104.533087,-1184.329507,0.000000
882.865701,-9178.553681,-592.164754,0.000000
882.866022,-9400.615463,-296.082377,1302.362347
882.866342,-10214.842000,-518.144159,1072.533697
882.866663,-9696.697840,-666.185348,0.000000
882.866983,-8882.471304,-296.082377,-919.314598
882.867304,-9474.636058,-296.082377,383.047749
882.867625,-10584.944971,-444.123565,2298.286494
882.867945,-10658.965565,-1406.391290,2451.505594
882.868266,-10140.821405,-1776.494261,1225.752797
882.868586,-8438.347739,-1036.288319,76.609550
882.868907,-8660.409521,-962.267725,0.000000
882.869227,-8956.491898,-1036.288319,995.924147
882.869548,-9400.615463,-1184.329507,0.000000
882.869868,-8216.285956,0.000000,-995.924147
882.870189,-8808.450710,444.123565,-1149.143247
882.870510,-9474.636058,222.061783,1762.019645
882.870830,-10955.047942,-740.205942,3983.696590
882.871151,-10732.986159,-1702.473667,3370.820191
882.871471,-9770.718434,-1258.350101,1608.800546
882.871792,-9400.615463,-740.205942,1072.533697
882.872112,-9548.656652,0.000000,1762.019645
882.872433,-9622.677246,74.020594,2068.457845
882.872753,-9400.615463,814.226536,383.047749
882.873074,-7994.224174,1036.288319,-1302.362347
882.873395,-8364.327145,1110.308913,-1149.143247
882.873715,-9992.780217,-74.020594,1378.971896
882.874036,-10362.883188,-962.267725,2757.943793
882.874356,-10362.883188,-592.164754,2911.162892
882.874677,-9326.594869,-740.205942,995.924147
882.874997,-9622.677246,-148.041188,1455.581446
882.875318,-10436.903782,-444.123565,2911.162892
882.875638,-10066.800811,-962.267725,2221.676944
882.875959,-9326.594869,-1036.288319,-76.609550
882.876280,-8364.327145,0.000000,-919.314598
882.876600,-9104.533087,-74.020594,306.438199
882.876921,-10066.800811,0.000000,2681.334243
882.877241,-10584.944971,-444.123565,2221.676944
882.877562,-9474.636058,370.102971,842.705048
882.877882,-10066.800811,370.102971,536.266849
882.878203,-9622.677246,666.185348,1838.629195
882.878523,-10732.986159,-74.020594,995.924147
882.878844,-9918.759623,-666.185348,153.219100
882.879165,-8882.471304,222.061783,-689.485948
882.879485,-8734.430116,814.226536,-842.705048
882.879806,-9474.636058,1110.308913,1608.800546
882.880126,-11103.089130,148.041188,3217.601092
882.880447,-9696.697840,-148.041188,2221.676944
882.880767,-9474.636058,0.000000,689.485948
882.881088,-9474.636058,518.144159,1608.800546
882.881409,-9992.780217,0.000000,2528.115143
882.881729,-10140.821405,-888.247130,1991.848295
882.882050,-9252.574275,-1036.288319,0.000000
882.882370,-8142.265362,370.102971,-1149.143247
882.882691,-9400.615463,370.102971,1455.581446
882.883011,-9992.780217,444.123565,2604.724693
882.883332,-10510.924376,-666.185348,2987.772442
882.883652,-9474.636058,-1554.432478,1072.533697
882.883973,-8808.450710,-740.205942,459.657299
882.884294,-10066.800811,-814.226536,2298.286494
882.884614,-10288.862594,-1332.370696,2681.334243
882.884935,-9918.759623,-1110.308913,1455.581446
882.885255,-9326.594869,-592.164754,0.000000
882.885576,-8142.265362,-148.041188,76.609550
882.885896,-9326.594869,0.000000,1532.190996
882.886217,-10510.924376,-740.205942,2451.505594
882.886537,-9918.759623,-962.267725,1455.581446
882.886858,-8068.244768,-222.061783,766.095498
882.887179,-8512.368333,-518.144159,383.047749
882.887499,-9474.636058,-444.123565,1608.800546
882.887820,-10288.862594,-814.226536,2221.676944
882.888140,-9474.636058,-888.247130,689.485948
882.888461,-9474.636058,-74.020594,-612.876398
882.888781,-9622.677246,0.000000,229.828649
882.889102,-10436.903782,-148.041188,2221.676944
882.889422,-11103.089130,-666.185348,2145.067394
882.889743,-9844.739029,-222.061783,383.047749
882.890064,-9030.512492,74.020594,-1225.752797
882.890384,-9178.553681,0.000000,0.000000
882.890705,-9844.739029,-148.041188,1302.362347
882.891025,-10288.862594,-592.164754,76.609550
882.891346,-9400.615463,0.000000,-306.438199
882.891666,-9474.636058,592.164754,-612.876398
882.891987,-9696.697840,666.185348,1302.362347
882.892308,-10955.047942,-370.102971,2681.334243
882.892628,-10584.944971,-1110.308913,2374.896044
882.892949,-9104.533087,-1406.391290,229.828649
882.893269,-8438.347739,-1036.288319,0.000000
882.893590,-9252.574275,-740.205942,1685.410096
882.893910,-9992.780217,-1036.288319,1685.410096
882.894231,-9326.594869,-592.164754,76.609550
882.894551,-8364.327145,-222.061783,-1225.752797
882.894872,-8660.409521,296.082377,0.000000
882.895193,-10732.986159,444.123565,2528.115143
882.895513,-10881.027347,-1850.514855,3294.210641
882.895834,-9622.677246,-2368.659014,1455.581446
882.896154,-8882.471304,-1702.473667,0.000000
882.896475,-8586.388927,-370.102971,612.876398
882.896795,-9770.718434,-444.123565,1685.410096
882.897116,-9622.677246,370.102971,2145.067394
882.897436,-9400.615463,0.000000,76.609550
882.897757,-8808.450710,814.226536,-459.657299
882.898078,-10066.800811,-296.082377,1762.019645
882.898398,-10288.862594,-888.247130,3294.210641
882.898719,-10362.883188,-1036.288319,2757.943793
882.899039,-9622.677246,-148.041188,1378.971896
882.899360,-8956.491898,1332.370696,-459.657299
882.899680,-9548.656652,518.144159,2068.457845
882.900001,-10140.821405,-222.061783,2145.067394
882.900321,-9770.718434,-518.144159,995.924147
882.900642,-9400.615463,0.000000,-306.438199
882.900963,-9400.615463,814.226536,76.609550
882.901283,-10510.924376,592.164754,2145.067394
882.901604,-10881.027347,0.000000,3294.210641
882.901924,-10362.883188,-888.247130,1991.848295
882.902245,-9474.636058,-370.102971,229.828649
882.902565,-9326.594869,-370.102971,0.000000
882.902886,-9696.697840,222.061783,1455.581446
882.903206,-10436.903782,-222.061783,1378.971896
882.903527,-9474.636058,-444.123565,-995.924147
882.903848,-9030.512492,1036.288319,-919.314598
882.904168,-9548.656652,1258.350101,383.047749
882.904489,-10584.944971,370.102971,2374.896044
882.904809,-10436.903782,-444.123565,2681.334243
882.905130,-9474.636058,-740.205942,1072.533697
882.905450,-8586.388927,0.000000,0.000000
882.905771,-9178.553681,0.000000,1225.752797
882.906092,-9696.697840,-888.247130,2374.896044
882.906412,-10140.821405,-1110.308913,919.314598
882.906733,-8660.409521,-592.164754,-689.485948
882.907053,-8438.347739,148.041188,-612.876398
882.907374,-9474.636058,296.082377,1302.362347
882.907694,-11029.068536,222.061783,4136.915689
882.908015,-10140.821405,-666.185348,2145.067394
882.908335,-9326.594869,0.000000,689.485948
882.908656,-8882.471304,0.000000,0.000000
882.908977,-9474.636058,0.000000,1302.362347
882.909297,-9770.718434,-1036.288319,1762.019645
882.909618,-9104.533087,-666.185348,0.000000
882.909938,-8660.409521,-666.185348,-1532.190996
882.910259,-8660.409521,-148.041188,-766.095498
882.910579,-9548.656652,-518.144159,2604.724693
882.910900,-10732.986159,-296.082377,2834.553343
882.911220,-10288.862594,-740.205942,1838.629195
882.911541,-9400.615463,0.000000,1072.533697
882.911862,-10140.821405,222.061783,2068.457845
882.912182,-9844.739029,-1036.288319,2528.115143
882.912503,-10066.800811,-1554.432478,1915.238745
882.912823,-8956.491898,-1258.350101,-612.876398
882.913144,-8586.388927,-370.102971,-842.705048
882.913464,-9400.615463,-148.041188,766.095498
882.913785,-10658.965565,-1110.308913,2681.334243
882.914105,-10584.944971,-1406.391290,2068.457845
882.914426,-9696.697840,-1480.411884,383.047749
882.914747,-9474.636058,-592.164754,76.609550
882.915067,-9696.697840,-740.205942,1302.362347
882.915388,-10362.883188,-592.164754,1838.629195
882.915708,-10066.800811,-592.164754,766.095498
882.916029,-9622.677246,148.041188,-2757.943793
882.916349,-9030.512492,814.226536,76.609550
882.916670,-10658.965565,0.000000,1532.190996
882.916991,-10510.924376,-444.123565,2911.162892
882.917311,-9918.759623,-1110.308913,2145.067394
882.917632,-8660.409521,-1036.288319,76.609550
882.917952,-9104.533087,-222.061783,1378.971896
882.918273,-9844.739029,-148.041188,2604.724693
882.918593,-9992.780217,-222.061783,2451.505594
882.918914,-9474.636058,222.061783,536.266849
882.919234,-8512.368333,666.185348,-766.095498
882.919555,-9178.553681,740.205942,842.705048
882.919876,-10510.924376,296.082377,2987.772442
882.920196,-10214.842000,-444.123565,2681.334243
882.920517,-9696.697840,-1258.350101,842.705048
882.920837,-8660.409521,-962.267725,76.609550
882.921158,-9104.533087,-1110.308913,536.266849
882.921478,-9548.656652,-1258.350101,1378.971896
882.921799,-9474.636058,-962.267725,306.438199
882.922119,-9030.512492,-592.164754,-1149.143247
882.922440,-8660.409521,592.164754,-612.876398
882.922761,-10510.924376,148.041188,1838.629195
882.923081,-11843.295072,370.102971,3677.258390
882.923402,-11399.171507,-1036.288319,3294.210641
882.923722,-9474.636058,-592.164754,1608.800546
882.924043,-9178.553681,74.020594,1225.752797
882.924363,-9178.553681,-370.102971,1455.581446
882.924684,-9252.574275,-74.020594,766.095498
882.925005,-8438.347739,0.000000,-1838.629195
882.925325,-7254.018232,1998.556043,-3217.601092
882.925646,-8586.388927,1406.391290,-1532.190996
882.925967,-9474.636058,1036.288319,1225.752797
882.926288,-11473.192101,-962.267725,2911.162892
882.926608,-9992.780217,-2294.638420,0.000000
882.926929,-9252.574275,-296.082377,76.609550
882.927250,-10807.006753,296.082377,1072.533697
882.927570,-10066.800811,148.041188,3370.820191
882.927891,-10288.862594,-740.205942,2145.067394
882.928212,-10140.821405,-962.267725,1072.533697
882.928532,-8142.265362,-296.082377,-1838.629195
882.928853,-10140.821405,-1110.308913,1608.800546
882.929174,-9992.780217,-1110.308913,3140.991542
882.929494,-10362.883188,-888.247130,2298.286494
882.929815,-9326.594869,-444.123565,1455.581446
882.930136,-7476.080014,0.000000,0.000000
882.930457,-9178.553681,-148.041188,842.705048
882.930777,-11029.068536,-592.164754,2604.724693
882.931098,-9474.636058,-444.123565,1149.143247
882.931419,-8216.285956,-888.247130,-536.266849
882.931739,-9400.615463,740.205942,766.095498
882.932060,-9992.780217,888.247130,3294.210641
882.932381,-11843.295072,-296.082377,3907.087040
882.932701,-10658.965565,-592.164754,1149.143247
882.933022,-8660.409521,-296.082377,-459.657299
882.933343,-8438.347739,-1036.288319,-383.047749
882.933664,-9178.553681,-296.082377,1072.533697
882.933984,-10140.821405,-666.185348,1072.533697
882.934305,-9030.512492,-740.205942,-766.095498
882.934626,-8808.450710,-148.041188,-995.924147
882.934946,-9104.533087,0.000000,306.438199
882.935267,-11547.212695,-296.082377,2834.553343
882.935588,-11547.212695,-592.164754,3524.039291
882.935908,-9696.697840,-814.226536,1149.143247
882.936229,-8956.491898,-740.205942,306.438199
882.936550,-8808.450710,-962.267725,536.266849
882.936870,-9326.594869,-1406.391290,919.314598
882.937191,-9622.677246,-1036.288319,229.828649
882.937512,-7476.080014,148.041188,-1149.143247
882.937833,-8438.347739,814.226536,-842.705048
882.938153,-10214.842000,1258.350101,1915.238745
882.938474,-10881.027347,814.226536,3370.820191
882.938795,-11029.068536,-1036.288319,2451.505594
882.939115,-8660.409521,-962.267725,536.266849
882.939436,-8734.430116,-1110.308913,0.000000
882.939757,-9326.594869,-74.020594,919.314598
882.940077,-10066.800811,0.000000,1532.190996
882.940398,-9326.594869,592.164754,-1149.143247
882.940719,-8438.347739,1036.288319,-1532.190996
882.941040,-9326.594869,1184.329507,-306.438199
882.941360,-10510.924376,222.061783,2528.115143
882.941681,-11399.171507,-1480.411884,3064.381992
882.942002,-9770.718434,-1776.494261,2068.457845
882.942322,-8956.491898,-666.185348,766.095498
882.942643,-9474.636058,-592.164754,1149.143247
882.942964,-9252.574275,74.020594,2068.457845
882.943284,-9992.780217,-74.020594,995.924147
882.943605,-8586.388927,148.041188,-306.438199
882.943926,-8956.491898,814.226536,-229.828649
882.944246,-10066.800811,296.082377,2528.115143
882.944567,-10955.047942,-1184.329507,4136.915689
882.944888,-10658.965565,-1776.494261,3217.601092
882.945209,-10066.800811,-1776.494261,1991.848295
882.945529,-9474.636058,-888.247130,1072.533697
882.945850,-9992.780217,-1036.288319,2145.067394
882.946171,-9844.739029,-1184.329507,1762.019645
882.946491,-9548.656652,-1036.288319,0.000000
882.946812,-9030.512492,-148.041188,-1455.581446
882.947133,-8882.471304,370.102971,-919.314598
882.947453,-9918.759623,0.000000,919.314598
882.947774,-10658.965565,-888.247130,2528.115143
882.948095,-9844.739029,-1406.391290,1685.410096
882.948415,-8956.491898,-592.164754,842.705048
882.948736,-9400.615463,-148.041188,1608.800546
882.949057,-9622.677246,0.000000,2681.334243
882.949378,-10140.821405,-518.144159,1532.190996
882.949698,-8734.430116,222.061783,-306.438199
882.950019,-8290.306550,592.164754,-995.924147
882.950340,-9326.594869,1258.350101,766.095498
882.950660,-10214.842000,518.144159,2374.896044
882.950981,-10436.903782,-296.082377,2374.896044
882.951302,-9474.636058,0.000000,1302.362347
882.951622,-10362.883188,296.082377,2757.943793
882.951943,-9548.656652,-666.185348,1838.629195
882.952264,-10214.842000,-1184.329507,1838.629195
882.952585,-9474.636058,-296.082377,766.095498
882.952905,-8956.491898,0.000000,-1302.362347
882.953226,-8882.471304,518.144159,-1455.581446
882.953547,-9474.636058,-370.102971,842.705048
882.953867,-10140.821405,-1184.329507,1608.800546
882.954188,-9844.739029,-1924.535449,612.876398
882.954509,-8734.430116,-1184.329507,-536.266849
882.954829,-9030.512492,74.020594,766.095498
882.955150,-9918.759623,0.000000,1915.238745
882.955471,-9918.759623,0.000000,1608.800546
882.955791,-9696.697840,0.000000,995.924147
882.956112,-9178.553681,740.205942,-689.485948
882.956433,-9622.677246,0.000000,919.314598
882.956754,-10732.986159,-518.144159,2757.943793
882.957074,-10732.986159,-1850.514855,2374.896044
882.957395,-9548.656652,-1184.329507,919.314598
882.957716,-8882.471304,-370.102971,306.438199
882.958036,-9326.594869,74.020594,995.924147
882.958357,-9918.759623,-148.041188,2145.067394
882.958678,-10288.862594,-814.226536,0.000000
882.958998,-8586.388927,-592.164754,-1378.971896
882.959319,-8956.491898,0.000000,-766.095498
882.959640,-9992.780217,0.000000,1762.019645
882.959961,-10214.842000,0.000000,4366.744339
882.960281,-10732.986159,-740.205942,2604.724693
882.960602,-9400.615463,-814.226536,1762.019645
882.960923,-8808.450710,-814.226536,1302.362347
882.961243,-9622.677246,-814.226536,2604.724693
882.961564,-9622.677246,-962.267725,2911.162892
882.961885,-9252.574275,-370.102971,229.828649
882.962205,-8734.430116,740.205942,-689.485948
882.962526,-9030.512492,814.226536,689.485948
882.962847,-9548.656652,148.041188,3447.429741
882.963167,-10807.006753,-1184.329507,3370.820191
882.963488,-9770.718434,-1554.432478,1072.533697
882.963809,-9326.594869,-370.102971,153.219100
882.964130,-9548.656652,666.185348,1149.143247
882.964450,-9696.697840,888.247130,2374.896044
882.964771,-10066.800811,888.247130,766.095498
882.965092,-9548.656652,666.185348,-995.924147
882.965412,-8734.430116,592.164754,-1532.190996
882.965733,-9622.677246,-222.061783,536.266849
882.966054,-10510.924376,-296.082377,2451.505594
882.966374,-10510.924376,-592.164754,2145.067394
882.966695,-9474.636058,-1184.329507,536.266849
882.967016,-8660.409521,-592.164754,0.000000
882.967337,-9622.677246,-592.164754,919.314598
882.967657,-10140.821405,-444.123565,2298.286494
882.967978,-9918.759623,-296.082377,1302.362347
882.968299,-8956.491898,296.082377,-612.876398
882.968619,-8808.450710,888.247130,0.000000
882.968940,-10214.842000,888.247130,2374.896044
882.969261,-10732.986159,148.041188,3217.601092
882.969581,-10436.903782,-814.226536,1838.629195
882.969902,-8808.450710,-444.123565,229.828649
882.970223,-8882.471304,0.000000,153.219100
882.970543,-9252.574275,-296.082377,1225.752797
882.970864,-9622.677246,-444.123565,1762.019645
882.971185,-9252.574275,-518.144159,76.609550
882.971506,-8660.409521,-444.123565,-1072.533697
882.971826,-9400.615463,-962.267725,459.657299
882.972147,-10436.903782,-1628.453072,2834.553343
882.972468,-10807.006753,-1776.494261,2987.772442
882.972788,-8808.450710,-1998.556043,3064.381992
882.973109,-8734.430116,-1184.329507,842.705048
882.973430,-9030.512492,-740.205942,1072.533697
882.973750,-9770.718434,-1036.288319,1915.238745
882.974071,-9474.636058,-740.205942,612.876398
882.974392,-9326.594869,-222.061783,-306.438199
882.974713,-8438.347739,0.000000,-229.828649
882.975033,-9622.677246,-296.082377,1302.362347
882.975354,-10658.965565,-814.226536,2834.553343
882.975675,-9844.739029,-962.267725,1838.629195
882.975995,-9622.677246,-296.082377,612.876398
882.976316,-9400.615463,592.164754,766.095498
882.976637,-9918.759623,518.144159,1838.629195
882.976957,-9548.656652,74.020594,689.485948
882.977278,-9770.718434,-1258.350101,153.219100
882.977599,-8660.409521,-962.267725,-1149.143247
882.977919,-9030.512492,-1332.370696,0.000000
882.978240,-9992.780217,-1036.288319,1838.629195
882.978561,-11399.171507,-1110.308913,3140.991542
882.978882,-9844.739029,-592.164754,1762.019645
882.979202,-9400.615463,148.041188,689.485948
882.979523,-9474.636058,296.082377,1455.581446
882.979844,-10436.903782,-296.082377,1302.362347
882.980164,-9918.759623,-1036.288319,1378.971896
882.980485,-8808.450710,-296.082377,-689.485948
882.980806,-8438.347739,74.020594,-689.485948
882.981126,-9178.553681,296.082377,2528.115143
882.981447,-10362.883188,0.000000,3140.991542
882.981768,-10214.842000,-666.185348,2374.896044
882.982088,-9178.553681,-592.164754,383.047749
882.982409,-8660.409521,0.000000,536.266849
882.982730,-9696.697840,-222.061783,1455.581446
882.983051,-9770.718434,-592.164754,1838.629195
882.983371,-9474.636058,-1110.308913,229.828649
882.983692,-8364.327145,-592.164754,-766.095498
882.984013,-9178.553681,-222.061783,0.000000
882.984333,-9992.780217,0.000000,2374.896044
882.984654,-11251.130318,-444.123565,3524.039291
882.984975,-9918.759623,-370.102971,1608.800546
882.985295,-8734.430116,-518.144159,0.000000
882.985616,-8956.491898,444.123565,76.609550
882.985937,-9844.739029,148.041188,1532.190996
882.986258,-10066.800811,-296.082377,1685.410096
882.986578,-8882.471304,0.000000,-689.485948
882.986899,-8438.347739,222.061783,-995.924147
882.987220,-9770.718434,740.205942,536.266849
882.987540,-10881.027347,518.144159,2528.115143
882.987861,-11029.068536,0.000000,2757.943793
882.988182,-9622.677246,148.041188,919.314598
882.988502,-9326.594869,0.000000,306.438199
882.988823,-9770.718434,-518.144159,1455.581446
882.989144,-9992.780217,-592.164754,2145.067394
882.989464,-9548.656652,-1850.514855,76.609550
882.989785,-8290.306550,-296.082377,-1225.752797
882.990106,-9252.574275,0.000000,-612.876398
882.990427,-10140.821405,0.000000,1149.143247
882.990747,-10881.027347,0.000000,2451.505594
882.991068,-10288.862594,-1184.329507,1915.238745
882.991389,-9474.636058,-666.185348,229.828649
882.991709,-9770.718434,-148.041188,459.657299
882.992030,-10732.986159,0.000000,1762.019645
882.992351,-10732.986159,-370.102971,1991.848295
882.992671,-9844.739029,-370.102971,-153.219100
882.992992,-8734.430116,814.226536,-1149.143247
882.993313,-8734.430116,1110.308913,-229.828649
882.993634,-9696.697840,592.164754,1378.971896
882.993954,-9474.636058,0.000000,1072.533697
882.994275,-8734.430116,-370.102971,-383.047749
882.994596,-8216.285956,-518.144159,-842.705048
882.994916,-8734.430116,-518.144159,383.047749
882.995237,-9622.677246,-592.164754,1991.848295
882.995558,-10066.800811,-222.061783,2451.505594
882.995878,-9622.677246,-222.061783,995.924147
882.996199,-9918.759623,-370.102971,1455.581446
882.996520,-9104.533087,-592.164754,2681.334243
882.996840,-10881.027347,-1554.432478,3677.258390
882.997161,-9622.677246,-1998.556043,2757.943793
882.997482,-8956.491898,-1776.494261,1072.533697
882.997803,-8068.244768,-296.082377,1149.143247
882.998123,-8660.409521,-592.164754,1608.800546
882.998444,-9252.574275,-296.082377,1991.848295
882.998765,-9326.594869,0.000000,689.485948
882.999085,-9030.512492,592.164754,306.438199
882.999406,-9474.636058,888.247130,1762.019645
882.999727,-10362.883188,0.000000,3830.477490
883.000047,-10881.027347,-962.267725,4136.915689
883.000368,-10140.821405,-962.267725,2221.676944
883.000689,-8512.368333,-592.164754,229.828649
883.001010,-8660.409521,888.247130,612.876398
883.001330,-10214.842000,370.102971,1225.752797
883.001651,-9918.759623,444.123565,919.314598
883.001972,-8290.306550,-814.226536,766.095498
883.002292,-9326.594869,-962.267725,-1455.581446
883.002613,-9992.780217,0.000000,919.314598
883.002934,-11843.295072,-1036.288319,3294.210641
883.003254,-10584.944971,-1332.370696,2298.286494
883.003575,-10288.862594,-1184.329507,1149.143247
883.003896,-8808.450710,0.000000,229.828649
883.004216,-9474.636058,296.082377,1149.143247
883.004537,-9844.739029,370.102971,1302.362347
883.004858,-9030.512492,0.000000,229.828649
883.005179,-8808.450710,0.000000,-1149.143247
883.005499,-8808.450710,0.000000,-612.876398
883.005820,-9770.718434,-518.144159,1762.019645
883.006141,-11103.089130,-962.267725,2834.553343
883.006461,-10140.821405,-1702.473667,1302.362347
883.006782,-9474.636058,-444.123565,0.000000
883.007103,-8956.491898,74.020594,0.000000
883.007423,-9474.636058,-148.041188,612.876398
883.007744,-9918.759623,-148.041188,995.924147
883.008065,-9326.594869,-1258.350101,-919.314598
883.008385,-8142.265362,-1332.370696,-1915.238745
883.008706,-8956.491898,-962.267725,-229.828649
883.009027,-9992.780217,-592.164754,1838.629195
883.009348,-11029.068536,-666.185348,2757.943793
883.009668,-9844.739029,-296.082377,1991.848295
883.009989,-8882.471304,-444.123565,842.705048
883.010310,-9030.512492,-518.144159,1608.800546
883.010630,-9992.780217,-740.205942,2068.457845
883.010951,-9548.656652,-1036.288319,1072.533697
883.011272,-8364.327145,0.000000,-612.876398
883.011592,-8216.285956,0.000000,-229.828649
883.011913,-9548.656652,-222.061783,1225.752797
883.012234,-10584.944971,-592.164754,3294.210641
883.012555,-11251.130318,-962.267725,3064.381992
883.012875,-10066.800811,-296.082377,1149.143247
883.013196,-9474.636058,814.226536,2451.505594
883.013517,-10436.903782,-518.144159,1915.238745
883.013837,-10140.821405,-444.123565,2604.724693
883.014158,-10066.800811,-740.205942,1225.752797
883.014479,-8734.430116,-148.041188,0.000000
883.014799,-9400.615463,592.164754,383.047749
883.015120,-10288.862594,518.144159,2451.505594
883.015441,-10658.965565,148.041188,3140.991542
883.015761,-9992.780217,-296.082377,1685.410096
883.016082,-8882.471304,-666.185348,383.047749
883.016403,-9104.533087,-740.205942,689.485948
883.016724,-9770.718434,-740.205942,1378.971896
883.017044,-9844.739029,-1036.288319,919.314598
883.017365,-9474.636058,0.000000,-1225.752797
883.017686,-8586.388927,888.247130,-1072.533697
883.018006,-9622.677246,1184.329507,1149.143247
883.018327,-10807.006753,296.082377,2987.772442
883.018648,-10807.006753,-592.164754,4519.963438
883.018968,-9770.718434,-1258.350101,612.876398
883.019289,-8438.347739,-888.247130,-612.876398
883.019610,-9104.533087,-592.164754,689.485948
883.019931,-9474.636058,-592.164754,1149.143247
883.020251,-8882.471304,-148.041188,-306.438199
883.020572,-8364.327145,74.020594,-1608.800546
883.020893,-8216.285956,518.144159,-1072.533697
883.021213,-10140.821405,740.205942,2221.676944
883.021534,-11177.109724,-444.123565,4060.306139
883.021855,-10214.842000,-962.267725,3447.429741
883.022175,-9992.780217,-1554.432478,1608.800546
883.022496,-9104.533087,-1110.308913,1455.581446
883.022817,-8734.430116,-296.082377,2834.553343
883.023137,-9548.656652,-296.082377,766.095498
883.023458,-8586.388927,370.102971,-1532.190996
883.023779,-7624.121203,1480.411884,-2374.896044
883.024100,-9474.636058,1406.391290,0.000000
883.024420,-10807.006753,222.061783,2374.896044
883.024741,-10955.047942,-1258.350101,2757.943793
883.025062,-11029.068536,-1628.453072,1455.581446
883.025383,-9326.594869,-666.185348,612.876398
883.025703,-10140.821405,222.061783,1532.190996
883.026024,-10436.903782,74.020594,2451.505594
883.026345,-9770.718434,-148.041188,919.314598
883.026666,-8956.491898,740.205942,-1072.533697
883.026986,-9326.594869,1184.329507,-1532.190996
883.027307,-9770.718434,1036.288319,536.266849
883.027628,-10955.047942,740.205942,2987.772442
883.027949,-10658.965565,296.082377,2374.896044
883.028270,-9474.636058,222.061783,1072.533697
883.028590,-9252.574275,222.061783,1149.143247
883.028911,-9992.780217,148.041188,1991.848295
883.029232,-10214.842000,-444.123565,2145.067394
883.029553,-9844.739029,0.000000,1072.533697
883.029873,-7920.203579,0.000000,229.828649
883.030194,-8586.388927,148.041188,0.000000
883.030515,-9622.677246,-666.185348,2068.457845
883.030836,-9992.780217,-1480.411884,2757.943793
883.031156,-9178.553681,-1850.514855,1455.581446
883.031477,-9030.512492,-1406.391290,536.266849
883.031798,-8882.471304,-962.267725,1302.362347
883.032119,-9622.677246,-888.247130,2528.115143
883.032439,-9696.697840,-1480.411884,1838.629195
883.032760,-8068.244768,-962.267725,-153.219100
883.033081,-8660.409521,-148.041188,-229.828649
883.033402,-9400.615463,-148.041188,1302.362347
883.033722,-10214.842000,-444.123565,2987.772442
883.034043,-10807.006753,-1406.391290,2604.724693
883.034364,-9104.533087,-1184.329507,1225.752797
883.034685,-8882.471304,-814.226536,612.876398
883.035005,-9770.718434,-962.267725,1532.190996
883.035326,-9918.759623,-1110.308913,1608.800546
883.035647,-9548.656652,-1332.370696,229.828649
883.035968,-9178.553681,-888.247130,-919.314598
883.036289,-9104.533087,0.000000,-306.438199
883.036609,-10362.883188,-1110.308913,1915.238745
883.036930,-10732.986159,-1702.473667,2604.724693
883.037251,-10436.903782,-1776.494261,1455.581446
883.037572,-9548.656652,-1184.329507,76.609550
883.037892,-9844.739029,-814.226536,612.876398
883.038213,-10362.883188,-592.164754,1532.190996
883.038534,-10066.800811,-1332.370696,1378.971896
883.038855,-9400.615463,-740.205942,-536.266849
883.039175,-9030.512492,222.061783,-1225.752797
883.039496,-9252.574275,222.061783,0.000000
883.039817,-10807.006753,0.000000,2604.724693
883.040138,-10807.006753,-1258.350101,2604.724693
883.040458,-10066.800811,-2146.597232,1225.752797
883.040779,-9178.553681,-814.226536,459.657299
883.041100,-9622.677246,-962.267725,1762.019645
883.041421,-9992.780217,-740.205942,2298.286494
883.041741,-9696.697840,-888.247130,1225.752797
883.042062,-8734.430116,-518.144159,-995.924147
883.042383,-7476.080014,1184.329507,-919.314598
883.042704,-9844.739029,-148.041188,1685.410096
883.043025,-10362.883188,-814.226536,3064.381992
883.043345,-10362.883188,-1850.514855,1532.190996
883.043666,-8438.347739,-962.267725,153.219100
883.043987,-8956.491898,0.000000,76.609550
883.044308,-9474.636058,0.000000,1225.752797
883.044628,-9548.656652,296.082377,1378.971896
883.044949,-9474.636058,222.061783,0.000000
883.045270,-8364.327145,148.041188,-842.705048
883.045591,-9030.512492,296.082377,153.219100
883.045911,-10584.944971,0.000000,2145.067394
883.046232,-10510.924376,0.000000,2681.334243
883.046553,-10066.800811,222.061783,1685.410096
883.046874,-8586.388927,-148.041188,766.095498
883.047194,-8438.347739,222.061783,612.876398
883.047515,-10066.800811,518.144159,2221.676944
883.047836,-10140.821405,1184.329507,2068.457845
883.048157,-9474.636058,1332.370696,153.219100
883.048477,-9104.533087,1554.432478,0.000000
883.048798,-9992.780217,1110.308913,1838.629195
883.049119,-10658.965565,0.000000,2987.772442
883.049440,-10732.986159,-740.205942,1915.238745
883.049760,-9474.636058,-740.205942,0.000000
883.050081,-9030.512492,0.000000,0.000000
883.050402,-9770.718434,148.041188,1378.971896
883.050723,-9178.553681,666.185348,1149.143247
883.051044,-9770.718434,0.000000,306.438199
883.051364,-9252.574275,370.102971,-229.828649
883.051685,-9326.594869,0.000000,229.828649
883.052006,-10510.924376,74.020594,1608.800546
883.052327,-10955.047942,-148.041188,3524.039291
883.052647,-9918.759623,-444.123565,2145.067394
883.052968,-9104.533087,74.020594,842.705048
883.053289,-8808.450710,222.061783,1302.362347
883.053610,-9548.656652,0.000000,1685.410096
883.053930,-9918.759623,-888.247130,1532.190996
883.054251,-8808.450710,-592.164754,-383.047749
883.054572,-8364.327145,592.164754,-1302.362347
883.054893,-9178.553681,888.247130,306.438199
883.055213,-10066.800811,592.164754,2911.162892
883.055534,-10955.047942,-518.144159,2528.115143
883.055855,-9622.677246,-888.247130,536.266849
883.056176,-9252.574275,-740.205942,153.219100
883.056496,-9548.656652,-148.041188,1072.533697
883.056817,-9918.759623,-592.164754,1685.410096
883.057138,-9696.697840,-148.041188,689.485948
883.057459,-8882.471304,-370.102971,-766.095498
883.057780,-8512.368333,-296.082377,-306.438199
883.058100,-9770.718434,-370.102971,2068.457845
883.058421,-10807.006753,-1480.411884,3370.820191
883.058742,-10510.924376,-1924.535449,2145.067394
883.059063,-9252.574275,-814.226536,-459.657299
883.059383,-8882.471304,-962.267725,306.438199
883.059704,-9548.656652,74.020594,1838.629195
883.060025,-10362.883188,-888.247130,2451.505594
883.060346,-9474.636058,-222.061783,1455.581446
883.060666,-8956.491898,0.000000,-689.485948
883.060987,-9770.718434,0.000000,919.314598
883.061308,-10732.986159,-148.041188,3064.381992
883.061629,-10510.924376,-1110.308913,2681.334243
883.061949,-8660.409521,-1406.391290,153.219100
883.062270,-7179.997637,-740.205942,-1838.629195
883.062591,-8364.327145,-148.041188,-842.705048
883.062912,-8808.450710,592.164754,76.609550
883.063232,-9326.594869,-518.144159,-153.219100
883.063553,-7698.141797,740.205942,-1072.533697
883.063874,-9252.574275,222.061783,-612.876398
883.064195,-10807.006753,-370.102971,2987.772442
883.064515,-11991.336260,-592.164754,5669.106685
883.064836,-11769.274478,-1036.288319,4673.182538
883.065157,-9622.677246,-1258.350101,2298.286494
883.065478,-9474.636058,-296.082377,1991.848295
883.065799,-9622.677246,0.000000,2757.943793
883.066119,-9992.780217,0.000000,2068.457845
883.066440,-8586.388927,-222.061783,153.219100
883.066761,-7476.080014,222.061783,-1455.581446
883.067082,-9030.512492,74.020594,0.000000
883.067402,-9548.656652,222.061783,2911.162892
883.067723,-11769.274478,-1110.308913,3907.087040
883.068044,-10510.924376,-1258.350101,2451.505594
883.068365,-9474.636058,-666.185348,383.047749
883.068685,-10140.821405,-222.061783,-383.047749
883.069006,-9770.718434,74.020594,1838.629195
883.069327,-9770.718434,-592.164754,995.924147
883.069648,-8882.471304,-962.267725,-1455.581446
883.069968,-8290.306550,-518.144159,-2145.067394
883.070289,-9474.636058,-592.164754,612.876398
883.070610,-10881.027347,-666.185348,3217.601092
883.070931,-10658.965565,-518.144159,3064.381992
883.071251,-10140.821405,-518.144159,1685.410096
883.071572,-8586.388927,888.247130,536.266849
883.071893,-9622.677246,0.000000,1838.629195
883.072214,-10140.821405,-296.082377,2298.286494
883.072534,-9326.594869,0.000000,229.828649
883.072855,-8290.306550,444.123565,-3370.820191
883.073176,-7920.203579,1258.350101,-1225.752797
883.073497,-10140.821405,370.102971,1302.362347
883.073818,-10436.903782,-148.041188,2374.896044
883.074138,-9844.739029,-518.144159,689.485948
883.074459,-8882.471304,-1036.288319,-612.876398
883.074780,-8734.430116,296.082377,76.609550
883.075101,-10510.924376,-592.164754,2068.457845
883.075421,-9622.677246,-740.205942,1455.581446
883.075742,-8660.409521,0.000000,-536.266849
883.076063,-8290.306550,-222.061783,-1149.143247
883.076384,-9326.594869,222.061783,689.485948
883.076704,-10732.986159,148.041188,2834.553343
883.077025,-10732.986159,-370.102971,3294.210641
883.077346,-9252.574275,-444.123565,995.924147
883.077667,-8660.409521,148.041188,459.657299
883.077987,-9326.594869,148.041188,1762.019645
883.078308,-10288.862594,-148.041188,2374.896044
883.078629,-9918.759623,-814.226536,689.485948
883.078950,-9030.512492,-814.226536,-1149.143247
883.079270,-8660.409521,0.000000,-766.095498
883.079591,-10066.800811,-296.082377,1838.629195
883.079912,-10955.047942,-1036.288319,4673.182538
883.080233,-10362.883188,-2220.617826,2068.457845
883.080554,-9104.533087,-1628.453072,229.828649
883.080874,-9030.512492,-666.185348,383.047749
883.081195,-9992.780217,-592.164754,1915.238745
883.081516,-10362.883188,-740.205942,2757.943793
883.081837,-9326.594869,-962.267725,153.219100
883.082157,-8364.327145,-962.267725,-1072.533697
883.082478,-8882.471304,-296.082377,0.000000
883.082799,-10140.821405,-444.123565,2911.162892
883.083120,-10732.986159,-740.205942,3677.258390
883.083440,-9474.636058,-962.267725,2145.067394
883.083761,-8734.430116,-1110.308913,612.876398
883.084082,-8660.409521,-1184.329507,1225.752797
883.084403,-10362.883188,-1036.288319,2374.896044
883.084723,-9696.697840,-888.247130,1532.190996
883.085044,-8956.491898,-296.082377,-459.657299
883.085365,-8142.265362,592.164754,-842.705048
883.085686,-9622.677246,1036.288319,1532.190996
883.086006,-11103.089130,74.020594,3370.820191
883.086327,-10140.821405,-592.164754,2145.067394
883.086648,-9474.636058,-518.144159,383.047749
883.086969,-8808.450710,-222.061783,153.219100
883.087289,-9474.636058,-222.061783,1072.533697
883.087610,-9770.718434,-666.185348,1685.410096
883.087931,-9326.594869,-296.082377,383.047749
883.088252,-9474.636058,444.123565,-459.657299
883.088573,-9622.677246,666.185348,76.609550
883.088893,-10955.047942,888.247130,2374.896044
883.089214,-11843.295072,518.144159,3370.820191
883.089535,-10584.944971,814.226536,689.485948
883.089856,-9474.636058,148.041188,0.000000
883.090176,-9178.553681,592.164754,766.095498
883.090497,-9918.759623,-444.123565,1838.629195
883.090818,-9400.615463,-814.226536,842.705048
883.091139,-8808.450710,-370.102971,-612.876398
883.091459,-8142.265362,370.102971,-919.314598
883.091780,-9030.512492,962.267725,1149.143247
883.092101,-10288.862594,518.144159,3294.210641
883.092422,-10732.986159,-592.164754,3600.648841
883.092742,-9178.553681,-1184.329507,459.657299
883.093063,-8660.409521,-444.123565,-153.219100
883.093384,-9104.533087,-740.205942,383.047749
883.093705,-9474.636058,-444.123565,919.314598
883.094025,-9474.636058,-222.061783,229.828649
883.094346,-8216.285956,0.000000,-1762.019645
883.094667,-8586.388927,592.164754,-1149.143247
883.094988,-10584.944971,-148.041188,1455.581446
883.095309,-10658.965565,-370.102971,2911.162892
883.095629,-11029.068536,-1184.329507,2374.896044
883.095950,-9178.553681,-296.082377,1302.362347
883.096271,-8882.471304,0.000000,919.314598
883.096592,-9696.697840,-518.144159,2451.505594
883.096912,-9548.656652,-1110.308913,1838.629195
883.097233,-8660.409521,-1258.350101,-306.438199
883.097554,-8512.368333,-592.164754,-536.266849
883.097875,-9474.636058,-370.102971,-459.657299
883.098195,-10807.006753,-296.082377,3370.820191
883.098516,-11029.068536,-1110.308913,3677.258390
883.098837,-10140.821405,-1184.329507,1455.581446
883.099158,-9400.615463,-740.205942,229.828649
883.099478,-9696.697840,-444.123565,1072.533697
883.099799,-10140.821405,0.000000,2145.067394
883.100120,-10436.903782,-814.226536,766.095498
883.100441,-8734.430116,-370.102971,-612.876398
883.100761,-8438.347739,0.000000,-1532.190996
883.101082,-10066.800811,0.000000,1608.800546
883.101403,-11251.130318,-222.061783,3217.601092
883.101724,-10362.883188,-666.185348,2911.162892
883.102044,-9622.677246,-1776.494261,536.266849
883.102365,-8882.471304,-740.205942,995.924147
883.102686,-9918.759623,-1110.308913,2451.505594
883.103007,-10214.842000,-1258.350101,2298.286494
883.103328,-8956.491898,-370.102971,612.876398
883.103648,-8438.347739,370.102971,-919.314598
883.103969,-8512.368333,518.144159,0.000000
883.104290,-10066.800811,296.082377,2451.505594
883.104611,-10881.027347,-814.226536,3217.601092
883.104931,-10362.883188,-888.247130,2068.457845
883.105252,-9474.636058,-740.205942,153.219100
883.105573,-8956.491898,-370.102971,612.876398
883.105894,-9548.656652,-148.041188,1762.019645
883.106214,-9548.656652,-666.185348,2298.286494
883.106535,-8364.327145,-370.102971,-842.705048
883.106856,-8364.327145,-518.144159,-1532.190996
883.107177,-9252.574275,-666.185348,76.609550
883.107497,-10510.924376,-666.185348,2221.676944
883.107818,-10288.862594,-740.205942,2451.505594
883.108139,-9548.656652,-444.123565,1378.971896
883.108460,-9104.533087,-74.020594,612.876398
883.108780,-9474.636058,-222.061783,1915.238745
883.109101,-10214.842000,-740.205942,1838.629195
883.109422,-9326.594869,-518.144159,153.219100
883.109743,-8660.409521,370.102971,-1378.971896
883.110064,-9104.533087,1776.494261,0.000000
883.110384,-10288.862594,1110.308913,2451.505594
883.110705,-10955.047942,0.000000,3524.039291
883.111026,-10584.944971,-1036.288319,1685.410096
883.111347,-9770.718434,-1036.288319,0.000000
883.111667,-9474.636058,-296.082377,459.657299
883.111988,-9918.759623,222.061783,1378.971896
883.112309,-10214.842000,444.123565,1302.362347
883.112630,-9474.636058,-296.082377,-995.924147
883.112950,-8438.347739,0.000000,-1608.800546
883.113271,-9696.697840,-222.061783,536.266849
883.113592,-10807.006753,74.020594,2757.943793
883.113913,-11621.233289,-444.123565,3600.648841
883.114233,-10066.800811,-740.205942,2068.457845
883.114554,-9400.615463,-666.185348,1915.238745
883.114875,-9400.615463,-1776.494261,1838.629195
883.115196,-9474.636058,-1480.411884,2221.676944
883.115516,-9770.718434,-1406.391290,1455.581446
883.115837,-8216.285956,0.000000,-1149.143247
883.116158,-8290.306550,1184.329507,0.000000
883.116479,-9770.718434,444.123565,1838.629195
883.116799,-10214.842000,0.000000,3447.429741
883.117120,-10140.821405,-1258.350101,1762.019645
883.117441,-8808.450710,-666.185348,2298.286494
883.117762,-9104.533087,-1184.329507,612.876398
883.118083,-9770.718434,-962.267725,2145.067394
883.118403,-9770.718434,-666.185348,1762.019645
883.118724,-8882.471304,0.000000,-689.485948
883.119045,-8290.306550,666.185348,-1608.800546
883.119366,-9400.615463,740.205942,-536.266849
883.119686,-10436.903782,74.020594,1915.238745
883.120007,-10732.986159,-666.185348,2528.115143
883.120328,-9548.656652,-962.267725,1762.019645
883.120649,-8882.471304,-592.164754,766.095498
883.120969,-9548.656652,0.000000,2221.676944
883.121290,-10436.903782,-814.226536,2604.724693
883.121611,-8364.327145,-962.267725,1532.190996
883.121932,-9030.512492,-518.144159,-919.314598
883.122252,-8364.327145,814.226536,-1302.362347
883.122573,-9400.615463,1036.288319,1302.362347
883.122894,-10510.924376,74.020594,2528.115143
883.123215,-9844.739029,-814.226536,1685.410096
883.123535,-9326.594869,-1184.329507,-229.828649
883.123856,-9474.636058,-666.185348,-76.609550
883.124177,-10362.883188,-518.144159,1149.143247
883.124498,-9474.636058,222.061783,2298.286494
883.124818,-9770.718434,-814.226536,459.657299
883.125139,-7846.182985,74.020594,-1608.800546
883.125460,-9474.636058,-148.041188,-612.876398
883.125781,-10881.027347,1110.308913,1685.410096
883.126102,-11177.109724,148.041188,3983.696590
883.126422,-9992.780217,-888.247130,2145.067394
883.126743,-8956.491898,-518.144159,612.876398
883.127064,-9622.677246,-1332.370696,1685.410096
883.127384,-10140.821405,-518.144159,2298.286494
883.127705,-10362.883188,-592.164754,1991.848295
883.128026,-9474.636058,-296.082377,-229.828649
883.128346,-8808.450710,962.267725,-459.657299
883.128667,-10362.883188,888.247130,1378.971896
883.128988,-10288.862594,74.020594,3677.258390
883.129308,-11325.150913,-1332.370696,3140.991542
883.129629,-9400.615463,-888.247130,1455.581446
883.129950,-7994.224174,-1924.535449,766.095498
883.130271,-7698.141797,148.041188,153.219100
883.130591,-9548.656652,-222.061783,612.876398
883.130912,-8068.244768,0.000000,0.000000
883.131233,-7994.224174,222.061783,689.485948
883.131553,-9770.718434,-1110.308913,-459.657299
883.131874,-8734.430116,962.267725,1762.019645
883.132195,-12361.439231,-1480.411884,3217.601092
883.132515,-10510.924376,-814.226536,3600.648841
883.132836,-8216.285956,-3108.864956,-995.924147
883.133157,-9252.574275,-518.144159,1149.143247
883.133477,-8290.306550,-592.164754,612.876398
883.133798,-8660.409521,-444.123565,229.828649
883.134119,-9474.636058,0.000000,612.876398
883.134439,-7402.059420,296.082377,-1072.533697
883.134760,-9844.739029,814.226536,1455.581446
883.135081,-11251.130318,-444.123565,4749.792088
883.135402,-10658.965565,-888.247130,4366.744339
883.135722,-11843.295072,-1554.432478,3064.381992
883.136043,-8808.450710,0.000000,1378.971896
883.136364,-9104.533087,0.000000,1225.752797
883.136684,-10214.842000,74.020594,1838.629195
883.137005,-9104.533087,0.000000,0.000000
883.137326,-8586.388927,296.082377,-1378.971896
883.137646,-8586.388927,444.123565,-1685.410096
883.137967,-9770.718434,814.226536,459.657299
883.138288,-11177.109724,0.000000,2987.772442
883.138608,-10807.006753,-1332.370696,2987.772442
883.138929,-10288.862594,-1702.473667,1378.971896
883.139250,-9400.615463,-1850.514855,842.705048
883.139570,-10288.862594,-1850.514855,1455.581446
883.139891,-10140.821405,-962.267725,1149.143247
883.140212,-9252.574275,370.102971,-459.657299
883.140533,-8882.471304,814.226536,-1455.581446
883.140853,-8290.306550,592.164754,-1149.143247
883.141174,-9918.759623,-370.102971,3524.039291
883.141495,-11029.068536,-1184.329507,2451.505594
883.141815,-10066.800811,-1628.453072,1455.581446
883.142136,-9548.656652,-740.205942,459.657299
883.142457,-9548.656652,0.000000,383.047749
883.142777,-9918.759623,740.205942,1072.533697
883.143098,-9622.677246,518.144159,1072.533697
883.143419,-8808.450710,518.144159,-536.266849
883.143739,-8586.388927,0.000000,-1455.581446
883.144060,-9474.636058,-666.185348,-306.438199
883.144381,-9918.759623,-740.205942,1685.410096
883.144701,-9770.718434,-1036.288319,2221.676944
883.145022,-8956.491898,-740.205942,153.219100
883.145343,-8586.388927,592.164754,689.485948
883.145664,-9548.656652,148.041188,1762.019645
883.145984,-9918.759623,-444.123565,2298.286494
883.146305,-9770.718434,-1110.308913,1149.143247
883.146626,-8660.409521,-740.205942,-383.047749
883.146946,-8808.450710,74.020594,76.609550
883.147267,-9918.759623,148.041188,2374.896044
883.147588,-10288.862594,-370.102971,3830.477490
883.147908,-9622.677246,-1184.329507,1991.848295
883.148229,-9104.533087,-1036.288319,1225.752797
883.148550,-9178.553681,-518.144159,689.485948
883.148870,-9844.739029,0.000000,2068.457845
883.149191,-9992.780217,0.000000,2068.457845
883.149512,-9474.636058,0.000000,0.000000
883.149832,-9474.636058,296.082377,-76.609550
883.150153,-9770.718434,222.061783,919.314598
883.150474,-10955.047942,-222.061783,3140.991542
883.150795,-11029.068536,-1406.391290,2757.943793
883.151115,-9696.697840,-962.267725,1225.752797
883.151436,-9622.677246,-370.102971,459.657299
883.151757,-9178.553681,740.205942,1455.581446
883.152077,-10066.800811,0.000000,2068.457845
883.152398,-9474.636058,-296.082377,1608.800546
883.152719,-8734.430116,-296.082377,-766.095498
883.153039,-9030.512492,148.041188,-153.219100
883.153360,-9992.780217,-370.102971,2068.457845
883.153681,-9770.718434,-592.164754,4290.134789
883.154001,-10140.821405,-1184.329507,2298.286494
883.154322,-8512.368333,-666.185348,536.266849
883.154643,-8660.409521,222.061783,383.047749
883.154963,-9474.636058,0.000000,1455.581446
883.155284,-9622.677246,-444.123565,1608.800546
883.155605,-9400.615463,-592.164754,0.000000
883.155925,-8660.409521,0.000000,-1072.533697
883.156246,-9622.677246,444.123565,536.266849
883.156567,-10510.924376,222.061783,3064.381992
883.156888,-11029.068536,-1036.288319,3370.820191
883.157208,-10214.842000,-1332.370696,2145.067394
883.157529,-9178.553681,-592.164754,306.438199
883.157850,-9474.636058,222.061783,229.828649
883.158170,-9770.718434,0.000000,1608.800546
883.158491,-8882.471304,-222.061783,153.219100
883.158812,-8216.285956,148.041188,-1378.971896
883.159132,-7994.224174,592.164754,-1378.971896
883.159453,-9696.697840,0.000000,1378.971896
883.159774,-11325.150913,-962.267725,3677.258390
883.160094,-10881.027347,-1924.535449,3140.991542
883.160415,-9252.574275,-2072.576638,536.266849
883.160736,-8438.347739,0.000000,1225.752797
883.161056,-9770.718434,370.102971,1302.362347
883.161377,-9326.594869,0.000000,995.924147
883.161698,-9030.512492,0.000000,-153.219100
883.162019,-7994.224174,-740.205942,-2451.505594
883.162339,-8438.347739,-222.061783,-1762.019645
883.162660,-10214.842000,74.020594,1685.410096
883.162981,-11029.068536,-814.226536,2834.553343
883.163301,-9992.780217,-518.144159,2987.772442
883.163622,-9844.739029,-1850.514855,1685.410096
883.163943,-9474.636058,-1406.391290,1762.019645
883.164263,-10807.006753,-1702.473667,2451.505594
883.164584,-9918.759623,-1036.288319,1991.848295
883.164905,-9178.553681,592.164754,-612.876398
883.165225,-8660.409521,1258.350101,-1149.143247
883.165546,-9326.594869,1258.350101,842.705048
883.165867,-10140.821405,222.061783,3064.381992
883.166187,-11325.150913,-222.061783,3907.087040
883.166508,-9548.656652,-1554.432478,612.876398
883.166829,-9918.759623,-518.144159,536.266849
883.167150,-10066.800811,-74.020594,1991.848295
883.167470,-10140.821405,0.000000,2604.724693
883.167791,-9326.594869,-1332.370696,612.876398
883.168112,-8364.327145,-962.267725,-1762.019645
883.168432,-9030.512492,-222.061783,-1072.533697
883.168753,-9622.677246,0.000000,1608.800546
883.169074,-10584.944971,0.000000,3217.601092
883.169394,-10066.800811,-814.226536,2451.505594
883.169715,-9400.615463,-962.267725,536.266849
883.170036,-9400.615463,-444.123565,1378.971896
883.170356,-9992.780217,-1554.432478,1302.362347
883.170677,-9696.697840,-1554.432478,1532.190996
883.170998,-8956.491898,-962.267725,-995.924147
883.171318,-7994.224174,370.102971,-1915.238745
883.171639,-8956.491898,1110.308913,0.000000
883.171960,-10214.842000,814.226536,2987.772442
883.172281,-10658.965565,-740.205942,2374.896044
883.172601,-9770.718434,-1628.453072,689.485948
883.172922,-8882.471304,-1554.432478,0.000000
883.173243,-9844.739029,-1110.308913,919.314598
883.173563,-9992.780217,-444.123565,2451.505594
883.173884,-10066.800811,-296.082377,1378.971896
883.174205,-8586.388927,0.000000,-689.485948
883.174525,-8734.430116,148.041188,76.609550
883.174846,-9474.636058,-814.226536,766.095498
883.175167,-10510.924376,-962.267725,2451.505594
883.175487,-10214.842000,-666.185348,2298.286494
883.175808,-9474.636058,-296.082377,842.705048
883.176129,-9326.594869,666.185348,536.266849
883.176449,-9474.636058,0.000000,1915.238745
883.176770,-10288.862594,-370.102971,2068.457845
883.177091,-9770.718434,-1110.308913,76.609550
883.177412,-8734.430116,0.000000,-1532.190996
883.177732,-9030.512492,148.041188,-766.095498
883.178053,-10066.800811,518.144159,1915.238745
883.178374,-10732.986159,74.020594,2528.115143
883.178694,-10881.027347,666.185348,1072.533697
883.179015,-9178.553681,296.082377,612.876398
883.179336,-9844.739029,296.082377,1149.143247
883.179656,-10362.883188,-148.041188,2681.334243
883.179977,-10214.842000,-444.123565,1149.143247
883.180298,-9326.594869,-222.061783,-919.314598
883.180618,-8142.265362,74.020594,-1532.190996
883.180939,-9030.512492,296.082377,459.657299
883.181260,-10881.027347,74.020594,2911.162892
883.181580,-10436.903782,222.061783,3064.381992
883.181901,-9844.739029,0.000000,1915.238745
883.182222,-8956.491898,-148.041188,1225.752797
883.182543,-9918.759623,-666.185348,2068.457845
883.182863,-10658.965565,-1258.350101,2451.505594
883.183184,-8734.430116,-1258.350101,536.266849
883.183505,-8660.409521,-666.185348,-459.657299
883.183825,-8290.306550,0.000000,-153.219100
883.184146,-9696.697840,0.000000,2298.286494
883.184467,-10807.006753,-962.267725,3294.210641
883.184787,-9696.697840,-1110.308913,1455.581446
883.185108,-9030.512492,-296.082377,76.609550
883.185429,-9030.512492,370.102971,1072.533697
883.185749,-9696.697840,296.082377,2987.772442
883.186070,-10214.842000,-148.041188,2451.505594
883.186391,-7846.182985,222.061783,306.438199
883.186711,-8660.409521,-814.226536,-1532.190996
883.187032,-8142.265362,1184.329507,1302.362347
883.187353,-10807.006753,0.000000,2834.553343
883.187673,-10658.965565,-222.061783,3064.381992
883.187994,-9474.636058,-148.041188,1838.629195
883.188315,-9400.615463,0.000000,612.876398
883.188636,-9326.594869,148.041188,1608.800546
883.188956,-10658.965565,-444.123565,2528.115143
883.189277,-9844.739029,-444.123565,1532.190996
883.189598,-9104.533087,-296.082377,-842.705048
883.189918,-8956.491898,148.041188,-1149.143247
883.190239,-9770.718434,0.000000,1302.362347
883.190560,-11103.089130,-592.164754,2834.553343
883.190880,-10658.965565,-592.164754,1685.410096
883.191201,-8660.409521,-666.185348,919.314598
883.191522,-9400.615463,0.000000,0.000000
883.191842,-9474.636058,-222.061783,1225.752797
883.192163,-10658.965565,-888.247130,1762.019645
883.192484,-9474.636058,-962.267725,153.219100
883.192804,-8882.471304,-1110.308913,-1302.362347
883.193125,-9474.636058,-370.102971,-306.438199
883.193446,-10732.986159,-518.144159,2145.067394
883.193767,-10955.047942,-592.164754,3447.429741
883.194087,-9918.759623,-592.164754,1838.629195
883.194408,-8882.471304,-296.082377,612.876398
883.194729,-9326.594869,-1184.329507,919.314598
883.195049,-9474.636058,-1776.494261,1302.362347
883.195370,-9992.780217,-2072.576638,995.924147
883.195691,-8734.430116,-888.247130,-536.266849
883.196011,-8290.306550,0.000000,-383.047749
883.196332,-9474.636058,296.082377,1225.752797
883.196653,-10658.965565,0.000000,3524.039291
883.196973,-11325.150913,-1628.453072,3294.210641
883.197294,-9844.739029,-1850.514855,1225.752797
883.197615,-9400.615463,-1554.432478,153.219100
883.197935,-9696.697840,-1110.308913,1915.238745
883.198256,-8882.471304,74.020594,2145.067394
883.198577,-9400.615463,-592.164754,-229.828649
883.198898,-7920.203579,-148.041188,-2298.286494
883.199218,-7994.224174,-518.144159,-2068.457845
883.199539,-8956.491898,-444.123565,-536.266849
883.199860,-10658.965565,222.061783,2068.457845
883.200180,-10807.006753,222.061783,2757.943793
883.200501,-9178.553681,444.123565,1072.533697
883.200822,-9918.759623,296.082377,2068.457845
883.201142,-10362.883188,-814.226536,3140.991542
883.201463,-9622.677246,-1924.535449,1455.581446
883.201784,-9178.553681,-1258.350101,-1149.143247
883.202104,-7254.018232,74.020594,-2528.115143
883.202425,-8734.430116,1036.288319,-995.924147
883.202746,-9992.780217,1258.350101,1762.019645
883.203066,-10066.800811,0.000000,1915.238745
883.203387,-9918.759623,-444.123565,459.657299
883.203708,-9548.656652,-518.144159,2068.457845
883.204029,-11029.068536,-962.267725,2911.162892
883.204349,-11621.233289,-666.185348,3677.258390
883.204670,-10584.944971,-1184.329507,2451.505594
883.204991,-9030.512492,74.020594,536.266849
883.205311,-8808.450710,444.123565,0.000000
883.205632,-9548.656652,666.185348,1608.800546
883.205953,-10140.821405,888.247130,2757.943793
883.206273,-9696.697840,0.000000,1685.410096
883.206594,-8364.327145,-592.164754,153.219100
883.206915,-7994.224174,-148.041188,229.828649
883.207235,-9992.780217,-370.102971,1915.238745
883.207556,-10288.862594,-518.144159,2757.943793
883.207877,-9030.512492,0.000000,1225.752797
883.208197,-9326.594869,148.041188,612.876398
883.208518,-9844.739029,148.041188,995.924147
883.208839,-10658.965565,-148.041188,2911.162892
883.209160,-10955.047942,-1332.370696,2757.943793
883.209480,-9030.512492,-1332.370696,306.438199
883.209801,-8290.306550,-518.144159,-536.266849
883.210122,-8586.388927,-888.247130,0.000000
883.210442,-9696.697840,-666.185348,1225.752797
883.210763,-9622.677246,-1406.391290,612.876398
883.211084,-8956.491898,-444.123565,-1149.143247
883.211404,-8734.430116,740.205942,-612.876398
883.211725,-10436.903782,0.000000,1455.581446
883.212046,-11399.171507,444.123565,3140.991542
883.212366,-10732.986159,0.000000,2604.724693
883.212687,-9252.574275,0.000000,766.095498
883.213008,-8660.409521,148.041188,306.438199
883.213328,-9474.636058,592.164754,1378.971896
883.213649,-9622.677246,-296.082377,2145.067394
883.213970,-8364.327145,0.000000,0.000000
883.214291,-8882.471304,888.247130,-919.314598
883.214611,-9474.636058,740.205942,536.266849
883.214932,-10807.006753,740.205942,3677.258390
883.215253,-10955.047942,-518.144159,3294.210641
883.215573,-9918.759623,-1110.308913,1378.971896
883.215894,-9400.615463,-814.226536,76.609550
883.216215,-9474.636058,-962.267725,612.876398
883.216535,-9474.636058,-740.205942,2068.457845
883.216856,-9918.759623,-1184.329507,689.485948
883.217177,-8586.388927,-888.247130,-766.095498
883.217497,-8586.388927,-444.123565,-1455.581446
883.217818,-9548.656652,0.000000,1608.800546
883.218139,-11029.068536,0.000000,2834.553343
883.218459,-10732.986159,-740.205942,2987.772442
883.218780,-9548.656652,-1554.432478,995.924147
883.219101,-9030.512492,-1406.391290,383.047749
883.219421,-9474.636058,-888.247130,1149.143247
883.219742,-9770.718434,-1184.329507,2068.457845
883.220063,-9104.533087,-814.226536,842.705048
883.220384,-8438.347739,-370.102971,-1072.533697
883.220704,-8808.450710,74.020594,383.047749
883.221025,-9770.718434,0.000000,1608.800546
883.221346,-10955.047942,-888.247130,2757.943793
883.221666,-10436.903782,-1332.370696,1915.238745
883.221987,-9178.553681,-1702.473667,-689.485948
883.222308,-9178.553681,-962.267725,306.438199
883.222628,-9030.512492,-740.205942,1225.752797
883.222949,-9622.677246,-1110.308913,1455.581446
883.223270,-8956.491898,-444.123565,-229.828649
883.223590,-8438.347739,148.041188,-995.924147
883.223911,-9252.574275,518.144159,689.485948
883.224232,-10436.903782,-444.123565,2757.943793
883.224552,-11325.150913,-1184.329507,3600.648841
883.224873,-10955.047942,-370.102971,2221.676944
883.225194,-9770.718434,-1036.288319,1532.190996
883.225515,-9770.718434,-222.061783,2451.505594
883.225835,-10362.883188,-592.164754,2911.162892
883.226156,-9844.739029,-888.247130,689.485948
883.226477,-8512.368333,518.144159,-1455.581446
883.226797,-8882.471304,1110.308913,-766.095498
883.227118,-9400.615463,814.226536,1225.752797
883.227439,-10955.047942,0.000000,3064.381992
883.227760,-10584.944971,-1776.494261,2374.896044
883.228080,-9252.574275,-1406.391290,0.000000
883.228401,-9474.636058,-740.205942,0.000000
883.228722,-9918.759623,0.000000,1991.848295
883.229042,-10881.027347,74.020594,1455.581446
883.229363,-8808.450710,-518.144159,-919.314598
883.229684,-8216.285956,-296.082377,-2757.943793
883.230005,-8438.347739,222.061783,-995.924147
883.230325,-10140.821405,296.082377,1532.190996
883.230646,-10584.944971,-444.123565,3217.601092
883.230967,-9770.718434,-666.185348,1762.019645
883.231287,-8882.471304,-1110.308913,536.266849
883.231608,-9400.615463,-814.226536,1455.581446
883.231929,-9844.739029,-222.061783,2451.505594
883.232250,-10140.821405,222.061783,1685.410096
883.232570,-8882.471304,518.144159,-306.438199
883.232891,-8142.265362,888.247130,-1149.143247
883.233212,-9622.677246,74.020594,1685.410096
883.233532,-10584.944971,222.061783,2681.334243
883.233853,-10807.006753,-518.144159,2068.457845
883.234174,-9548.656652,-444.123565,383.047749
883.234495,-8586.388927,74.020594,76.609550
883.234815,-9326.594869,0.000000,995.924147
883.235136,-10214.842000,-222.061783,2298.286494
883.235457,-9622.677246,-1184.329507,383.047749
883.235777,-8364.327145,-888.247130,-1685.410096
883.236098,-8586.388927,0.000000,-1378.971896
883.236419,-10436.903782,74.020594,1838.629195
883.236740,-10732.986159,0.000000,3447.429741
883.237060,-10881.027347,-814.226536,2681.334243
883.237381,-9252.574275,0.000000,306.438199
883.237702,-9474.636058,-740.205942,1302.362347
883.238022,-10362.883188,-740.205942,2834.553343
883.238343,-10807.006753,-666.185348,2528.115143
883.238664,-9252.574275,222.061783,0.000000
883.238985,-7920.203579,1258.350101,-919.314598
883.239305,-9104.533087,2146.597232,842.705048
883.239626,-11399.171507,370.102971,4136.915689
883.239947,-11103.089130,-1998.556043,2834.553343
883.240267,-8660.409521,-1776.494261,459.657299
883.240588,-9918.759623,-518.144159,0.000000
883.240909,-9104.533087,0.000000,1455.581446
883.241230,-10584.944971,518.144159,2528.115143
883.241550,-10955.047942,1480.411884,1991.848295
883.241871,-8216.285956,0.000000,-1378.971896
883.242192,-9474.636058,0.000000,-766.095498
883.242512,-9770.718434,-666.185348,1378.971896
883.242833,-10658.965565,-592.164754,2451.505594
883.243154,-10288.862594,-1480.411884,2911.162892
883.243475,-7624.121203,-1036.288319,153.219100
883.243795,-8290.306550,-518.144159,-153.219100
883.244116,-10140.821405,-518.144159,1762.019645
883.244437,-9474.636058,-148.041188,1991.848295
883.244758,-9326.594869,-370.102971,306.438199
883.245078,-8660.409521,0.000000,-612.876398
883.245399,-8290.306550,222.061783,76.609550
883.245720,-10288.862594,-740.205942,3370.820191
883.246040,-10807.006753,-1036.288319,3447.429741
883.246361,-9474.636058,-592.164754,1608.800546
883.246682,-8438.347739,-740.205942,-153.219100
883.247003,-8660.409521,-296.082377,842.705048
883.247323,-10066.800811,-444.123565,2145.067394
883.247644,-9992.780217,-666.185348,842.705048
883.247965,-7698.141797,1184.329507,-689.485948
883.248285,-8808.450710,-222.061783,-2451.505594
883.248606,-9104.533087,1702.473667,459.657299
883.248927,-11769.274478,370.102971,3830.477490
883.249248,-10510.924376,-1406.391290,2834.553343
883.249568,-9844.739029,-1110.308913,1302.362347
883.249889,-9474.636058,-222.061783,459.657299
883.250210,-9548.656652,-444.123565,1302.362347
883.250530,-10732.986159,-740.205942,2221.676944
883.250851,-9326.594869,74.020594,689.485948
883.251172,-8512.368333,0.000000,-766.095498
883.251493,-9326.594869,74.020594,-536.266849
883.251813,-9844.739029,74.020594,2528.115143
883.252134,-11473.192101,-1332.370696,2987.772442
883.252455,-10362.883188,-814.226536,2298.286494
883.252775,-9770.718434,-814.226536,995.924147
883.253096,-9400.615463,-370.102971,76.609550
883.253417,-9474.636058,-666.185348,1149.143247
883.253738,-10066.800811,-370.102971,1608.800546
883.254058,-8586.388927,-1110.308913,1072.533697
883.254379,-8882.471304,-814.226536,-1302.362347
883.254700,-9178.553681,0.000000,0.000000
883.255020,-10955.047942,-888.247130,2145.067394
883.255341,-10732.986159,-666.185348,3217.601092
883.255662,-9474.636058,-740.205942,1608.800546
883.255983,-9178.553681,-296.082377,1378.971896
883.256303,-9474.636058,0.000000,1685.410096
883.256624,-9770.718434,-296.082377,2374.896044
883.256945,-9992.780217,444.123565,919.314598
883.257265,-8290.306550,740.205942,0.000000
883.257586,-8586.388927,296.082377,0.000000
883.257907,-9326.594869,-74.020594,2298.286494
883.258228,-10362.883188,-148.041188,4749.792088
883.258548,-10214.842000,-1628.453072,2298.286494
883.258869,-9326.594869,-888.247130,689.485948
883.259190,-9104.533087,-222.061783,229.828649
883.259510,-9474.636058,0.000000,1378.971896
883.259831,-9992.780217,-296.082377,1149.143247
883.260152,-8956.491898,-592.164754,-766.095498
883.260473,-9104.533087,-370.102971,-1991.848295
883.260793,-9252.574275,0.000000,0.000000
883.261114,-10436.903782,0.000000,2145.067394
883.261435,-11547.212695,-888.247130,3217.601092
883.261755,-9992.780217,-814.226536,1608.800546
883.262076,-8808.450710,-370.102971,306.438199
883.262397,-9252.574275,-148.041188,1072.533697
883.262718,-10214.842000,0.000000,1838.629195
883.263038,-9770.718434,0.000000,1149.143247
883.263359,-8660.409521,0.000000,-1225.752797
883.263680,-8512.368333,222.061783,-1378.971896
883.264000,-9844.739029,148.041188,1838.629195
883.264321,-10955.047942,-962.267725,3370.820191
883.264642,-10658.965565,-1702.473667,2221.676944
883.264963,-9548.656652,-1110.308913,306.438199
883.265283,-8956.491898,0.000000,2298.286494
883.265604,-10066.800811,370.102971,1762.019645
883.265925,-10362.883188,0.000000,2221.676944
883.266246,-9474.636058,-296.082377,-229.828649
883.266566,-8290.306550,-814.226536,-1991.848295
883.266887,-8586.388927,-592.164754,-612.876398
883.267208,-9992.780217,-740.205942,1915.238745
883.267528,-10807.006753,-592.164754,3600.648841
883.267849,-9918.759623,-740.205942,2221.676944
883.268170,-9474.636058,-296.082377,995.924147
883.268491,-9474.636058,0.000000,1608.800546
883.268811,-10066.800811,-592.164754,2528.115143
883.269132,-9918.759623,-592.164754,2221.676944
883.269453,-8734.430116,0.000000,-536.266849
883.269773,-7550.100608,-222.061783,-1072.533697
883.270094,-9104.533087,-222.061783,76.609550
883.270415,-9770.718434,-518.144159,2451.505594
883.270736,-10288.862594,0.000000,3294.210641
883.271056,-9104.533087,-666.185348,306.438199
883.271377,-8660.409521,-296.082377,153.219100
883.271698,-9622.677246,-666.185348,1225.752797
883.272018,-9992.780217,-814.226536,1762.019645
883.272339,-9770.718434,-962.267725,842.705048
883.272660,-9104.533087,-592.164754,-766.095498
883.272981,-9252.574275,-592.164754,229.828649
883.273301,-10658.965565,-518.144159,2451.505594
883.273622,-11769.274478,-370.102971,4290.134789
883.273943,-10658.965565,-814.226536,2451.505594
883.274263,-9030.512492,-592.164754,612.876398
883.274584,-9104.533087,0.000000,459.657299
883.274905,-9770.718434,74.020594,1685.410096
883.275226,-9474.636058,370.102971,1532.190996
883.275546,-9326.594869,370.102971,-229.828649
883.275867,-8364.327145,740.205942,-689.485948
883.276188,-9696.697840,444.123565,1072.533697
883.276508,-10732.986159,222.061783,3524.039291
883.276829,-11399.171507,-1036.288319,3447.429741
883.277150,-9770.718434,-518.144159,1991.848295
883.277471,-9252.574275,-518.144159,459.657299
883.277791,-8956.491898,-148.041188,76.609550
883.278112,-10362.883188,518.144159,1378.971896
883.278433,-9770.718434,370.102971,842.705048
883.278753,-8068.244768,0.000000,-1838.629195
883.279074,-9030.512492,-370.102971,-1685.410096
883.279395,-10584.944971,74.020594,1455.581446
883.279716,-11029.068536,0.000000,3524.039291
883.280036,-11029.068536,-666.185348,2911.162892
883.280357,-9030.512492,0.000000,689.485948
883.280678,-9474.636058,592.164754,919.314598
883.280998,-9770.718434,0.000000,1685.410096
883.281319,-9548.656652,0.000000,1915.238745
883.281640,-9030.512492,-888.247130,-536.266849
883.281961,-6957.935855,-518.144159,-1532.190996
883.282281,-8660.409521,444.123565,-229.828649
883.282602,-10214.842000,-148.041188,2604.724693
883.282923,-9918.759623,-740.205942,3370.820191
883.283243,-9696.697840,-1036.288319,536.266849
883.283564,-8956.491898,-518.144159,229.828649
883.283885,-8956.491898,-592.164754,1378.971896
883.284206,-10066.800811,-592.164754,2374.896044
883.284526,-9622.677246,-814.226536,1225.752797
883.284847,-8586.388927,-518.144159,-536.266849
883.285168,-8512.368333,-148.041188,-1149.143247
883.285488,-9178.553681,0.000000,842.705048
883.285809,-10658.965565,-592.164754,2757.943793
883.286130,-9992.780217,-1036.288319,1532.190996
883.286451,-9326.594869,-666.185348,76.609550
883.286771,-9400.615463,-296.082377,536.266849
883.287092,-9696.697840,0.000000,1455.581446
883.287413,-10140.821405,222.061783,2604.724693
883.287733,-9548.656652,-666.185348,919.314598
883.288054,-8438.347739,-296.082377,-536.266849
883.288375,-9326.594869,-370.102971,306.438199
883.288696,-10066.800811,-518.144159,2528.115143
883.289016,-10807.006753,-962.267725,3294.210641
883.289337,-10362.883188,-962.267725,1991.848295
883.289658,-9326.594869,0.000000,689.485948
883.289979,-9474.636058,0.000000,1225.752797
883.290299,-9992.780217,-222.061783,2374.896044
883.290620,-9918.759623,-1036.288319,1149.143247
883.290941,-8956.491898,-962.267725,-689.485948
883.291261,-8142.265362,0.000000,-1532.190996
883.291582,-9252.574275,-296.082377,0.000000
883.291903,-10584.944971,-444.123565,2834.553343
883.292224,-10881.027347,-1628.453072,3370.820191
883.292544,-9770.718434,-1850.514855,1455.581446
883.292865,-9474.636058,-1332.370696,1455.581446
883.293186,-10288.862594,-666.185348,2221.676944
883.293506,-10584.944971,-370.102971,2681.334243
883.293827,-10214.842000,-296.082377,1378.971896
883.294148,-8512.368333,-444.123565,-919.314598
883.294469,-7402.059420,0.000000,536.266849
883.294789,-9770.718434,-148.041188,612.876398
883.295110,-10214.842000,-370.102971,2145.067394
883.295431,-9622.677246,-444.123565,919.314598
883.295751,-8734.430116,0.000000,-229.828649
883.296072,-8882.471304,0.000000,0.000000
883.296393,-9548.656652,-74.020594,1225.752797
883.296714,-10140.821405,-666.185348,1149.143247
883.297034,-9400.615463,0.000000,-459.657299
883.297355,-8734.430116,370.102971,-1608.800546
883.297676,-9548.656652,-370.102971,-76.609550
883.297996,-9918.759623,0.000000,1685.410096
883.298317,-10436.903782,-1332.370696,2451.505594
883.298638,-9178.553681,-1628.453072,1762.019645
883.298959,-8586.388927,-962.267725,0.000000
883.299279,-9326.594869,-592.164754,766.095498
883.299600,-9918.759623,0.000000,1838.629195
883.299921,-9844.739029,518.144159,842.705048
883.300241,-8660.409521,-444.123565,-229.828649
883.300562,-8808.450710,444.123565,-229.828649
883.300883,-9770.718434,444.123565,1915.238745
883.301204,-10510.924376,-296.082377,3294.210641
883.301524,-10658.965565,-222.061783,2451.505594
883.301845,-9548.656652,518.144159,306.438199
883.302166,-9400.615463,1332.370696,459.657299
883.302486,-9770.718434,1406.391290,1455.581446
883.302807,-10436.903782,740.205942,1838.629195
883.303128,-9992.780217,740.205942,766.095498
883.303449,-9252.574275,740.205942,-459.657299
883.303769,-9696.697840,444.123565,153.219100
883.304090,-10436.903782,-370.102971,2145.067394
883.304411,-10732.986159,-888.247130,3064.381992
883.304731,-10510.924376,-740.205942,1532.190996
883.305052,-9474.636058,-296.082377,919.314598
883.305373,-9844.739029,222.061783,1302.362347
883.305694,-10214.842000,296.082377,2681.334243
883.306014,-10140.821405,222.061783,2298.286494
883.306335,-9474.636058,0.000000,689.485948
883.306656,-7994.224174,148.041188,0.000000
883.306976,-8068.244768,-1036.288319,1685.410096
883.307297,-9400.615463,-814.226536,2451.505594
883.307618,-9918.759623,-1184.329507,2221.676944
883.307939,-9178.553681,-518.144159,919.314598
883.308259,-7994.224174,-296.082377,-689.485948
883.308580,-9474.636058,-1110.308913,1072.533697
883.308901,-9400.615463,-296.082377,2451.505594
